t,ang_acc_x,ang_acc_y,ang_acc_z,a_vel_x,a_vel_y,a_vel_z,quat_x,quat_y,quat_z,quat_w,acc_x,acc_y,acc_z,l_vel_x,l_vel_y,l_vel_z,pos_x,pos_y,pos_z,mot_1,mot_2,mot_3,mot_4,dmot_1,dmot_2,dmot_3,dmot_4,vbat
0.0025,1.2010729250094803,-1.4707405366604125,-1.1344976265667908,0.4922918625260483,-0.2413130103260033,0.0003156769113709,-0.0396681747594291,0.0011083934014765,0.0672368856118117,0.9969484522555044,0.1905090363922245,-0.2625552612739688,10.932447848596103,0.0433852465198671,0.1610656168411168,0.7260988384390898,-3.984277643641029,1.231903820206917,0.18370964867845,1186.1202873085033,1228.8732041796359,1252.1414922528372,1166.6646562891567,350.4886764765615,-1308.8009155318105,-789.2359363817378,-866.1861429834971,163.93687834035163
0.005,1.8850050591159977,-0.9903095265892902,-1.0248543632490752,0.4931866740947201,-0.2424919390137269,-0.0044929942933795,-0.0389739112031709,0.0007889547111962,0.0672532056449757,0.9969738023447832,0.1956731216721734,-0.2529037778726189,10.94110732218014,0.0444682007983802,0.1634353015304931,0.7286405117674333,-3.9842294590383225,1.232467631120432,0.185504767841802,1186.9965089996947,1225.6012018908064,1250.1684024118829,1164.499190931698,482.94234201393925,-1171.687224245443,-830.0806569429369,-1017.6141877991085,163.9529691041571
0.0074999999999999,2.6464928629041378,-0.396498166912837,-0.7589640266622663,0.4956081892219761,-0.2440528429624911,-0.0080626825354425,-0.0382746654442871,0.0004845335167961,0.0672702471763876,0.9969991837628474,0.2004865011562617,-0.2431563244123792,10.949726224745884,0.045535489207927,0.1658246237446436,0.7311865140119895,-3.984181366736912,1.233031870892385,0.1872990504083717,1188.5349990185728,1223.0147680584087,1247.9910889681223,1161.5765853501612,635.5094477714829,-740.6349856187716,-748.2050423291184,-1128.6111153528964,163.97140832173255
0.01,3.1288385190718486,0.1601328430622472,-0.4799050477915385,0.5017536722481625,-0.2461077257390049,-0.0086371165227471,-0.0375720059033194,0.0001994505965826,0.0672875311532896,0.9970245048804344,0.2048128741386256,-0.233390915314503,10.958263791927235,0.0465810751117777,0.1682346011223003,0.7337461511780862,-3.9841325996960766,1.2335965635307955,0.1890919100857366,1190.174056238552,1221.8980269627125,1246.4273772002373,1158.8561353549337,702.7570753641156,-282.39969383489546,-591.8404778437888,-1136.4877519987656,163.9860566725719
0.0125,3.2952242240809984,0.8259370675822603,-0.2049451757618629,0.5133693038007504,-0.2481681774115317,-0.0073847010265748,-0.0368714247258139,-7.350547598083968e-05,0.0673039063195386,0.997049583728998,0.2087514174156363,-0.2238001368237802,10.966656973639799,0.0476148191317271,0.1706594508129866,0.7363298112655206,-3.9840827610071807,1.234161753785029,0.1908837124602259,1192.0487843953936,1221.602769589234,1245.0318865789036,1155.8941465901676,760.0816453865718,-36.76699082766391,-572.5003409032071,-1203.950570162806,163.99996949349318
0.0149999999999999,3.0982488943992634,1.5854015668736297,0.037145478979915,0.5267588220993689,-0.2487431925994274,-0.0058144709266999,-0.0361793915250561,-0.0003405901835091,0.0673172793925657,0.99707428441032,0.2123699600159487,-0.214605433705978,10.974826884263207,0.0486446257424853,0.173091564857062,0.7389475854310203,-3.984031079253316,1.2347277750313443,0.1926758227847199,1193.9744644654847,1221.714192008574,1243.5648754957213,1152.8363825041197,743.8206092625932,68.99362671188099,-675.3651932367119,-1207.3582598088249,164.01328003818855
0.0175,2.41259115902988,2.4110972665490005,0.2329330753958113,0.5384070377991441,-0.2456249063346576,-0.004941215036186,-0.0355030700406951,-0.0005997771101267,0.067325073779741,0.9970984963883032,0.2155466520404222,-0.2060368209176434,10.982683977404507,0.0496658828926819,0.1755220829976111,0.7416086349272049,-3.983977429266575,1.2352951881516003,0.194471579260887,1195.7678874417063,1221.9477377227936,1241.65506061272,1149.8573552911234,712.4143679942789,43.011545038143595,-1031.926027601139,-1234.8110753300712,164.0258743419954
0.02,1.0653464917186484,3.3700836555997284,0.4269229969133643,0.5490320710298344,-0.2366406949764583,-0.0050486442442368,-0.0348480862041517,-0.000845572688927,0.0673285854361599,0.9971219170006048,0.2180823360829459,-0.1982888895443122,10.990129631571252,0.0506703809979312,0.1779428337750338,0.7443193182825188,-3.983922898784652,1.2358654578681578,0.1962744219730116,1197.5365363054564,1221.929249733765,1238.4052453577156,1146.662327127469,557.410240885247,-106.8826380731935,-1394.0170592785314,-1069.29109886396,164.04017330510803
0.0224999999999999,-0.3960846862525388,4.055382559707755,0.5609776391199177,0.5550394077224067,-0.2253195387218978,-0.0053805523228168,-0.034212573276736,-0.0010708943456987,0.0673318315832409,0.9971443315091784,0.2197516729220485,-0.1913878589528792,10.997060139025047,0.0516492062914715,0.1803548328449675,0.747080565519443,-3.9838682377989825,1.2364400176714156,0.1980867529508656,1198.5549386461328,1221.4133245324276,1234.6849753163272,1144.5108997968036,289.0896517264536,-346.21755767761886,-1702.9618989080516,-720.9188310961507,164.05142128821944
0.025,-2.0111713511888625,4.5448262927175325,0.6537870049177386,0.5555122155423636,-0.2115540712276524,-0.0047116790356062,-0.0335930092851419,-0.0012716851148188,0.0673372709363409,0.9971656808795514,0.2203954566123619,-0.1853198689031313,11.003367539737328,0.0525971552884903,0.1827595934155675,0.749889670604295,-3.983814274521437,1.2370203448599928,0.1999097731675843,1198.9819845640886,1220.1981619453768,1229.8904358631753,1143.0577329719883,32.56237572568352,-702.5377434397795,-2297.066212658728,-460.61863610507305,164.0619894108326
0.0275,-3.808646945242273,4.878410492119434,0.6786635723751862,0.5443332587712916,-0.1951121747611979,-0.0023306504304486,-0.0329804420851424,-0.0014459690089669,0.0673473441129572,0.997186075469024,0.2199087130858181,-0.1799431782926365,11.00894485525751,0.0535122521586982,0.1851648546347491,0.7527392980087572,-3.983759950090517,1.2376074739997984,0.2017429433402471,1198.7177505247612,1217.9006358152287,1223.1996442530335,1142.2078066162783,-235.37566148306732,-963.3804718121614,-2527.7597669681213,-165.00232916705508,164.0739010828571
0.0299999999999999,-4.9490698643301325,4.966602542897456,0.5959704848972809,0.5248712463437212,-0.1833614411712615,0.0005547400769249,-0.0323711144436532,-0.0015967334797524,0.0673630453235347,0.9972055116370894,0.2182899683812854,-0.1752216802561066,11.01368724071228,0.054398337514624,0.1875688365882054,0.7556216441131173,-3.9837048554587855,1.2382023893457232,0.2035861264572377,1197.8051062566733,1215.381259586316,1217.2516370283347,1142.2327213261533,-513.2729647862105,-1088.2788027139663,-2334.1293016901086,142.64522495755043,164.08319730284015
0.0325,-5.528761975721647,4.903959736478972,0.3832258738564563,0.5012049855102124,-0.1731832759755309,0.0037269209266761,-0.0317692358955613,-0.0017292708291739,0.0673829967424114,0.9972238342020432,0.2155808231861156,-0.1712791681534921,11.017496749824296,0.0552604956987005,0.1899566727344264,0.7585302872708578,-3.983649535887386,1.238805757045571,0.2054395879663935,1196.15138570083,1212.459241801659,1211.5289977445832,1142.921032741066,-781.1764792994375,-1192.258433476353,-2158.511548458089,360.62942335420263,164.0918528679794
0.035,-5.6276868061757,4.741431626992728,0.0663640296164758,0.4799245920761611,-0.1628041754403098,0.0065928763306553,-0.0311777402501254,-0.0018506887832275,0.0674034313622113,0.997241043152872,0.2118713996379752,-0.1681937514281673,11.020287038007236,0.0561052528864297,0.1923148277208285,0.7614572576719185,-3.9835943889084895,1.239417337836762,0.2073046372624772,1193.899223860176,1209.4199674189342,1206.4590792860442,1144.0358684429243,-1031.6376250283615,-1192.3041621925229,-1777.4082280083812,513.1247254967095,164.0999869074751
0.0374999999999999,-5.271116943990857,4.468195924643367,-0.3387189733491517,0.4655968729239272,-0.1513787857942204,0.0080571695468655,-0.0306012172691067,-0.0019722661901779,0.0674188366851382,0.9972572236584956,0.2073506021703176,-0.1660652564593506,11.02198402857908,0.0569440752294247,0.1946269448488916,0.764394512607031,-3.983540221347525,1.2400367869714255,0.2091820933572328,1190.9931975756883,1206.4977209906963,1202.6419566045413,1145.4866563685496,-1399.4517932064816,-1209.6361117675776,-1316.3933701716367,673.3772770887757,164.10750344814176
0.04,-4.558832418507173,4.01950851349263,-0.8389234238576408,0.456451805671122,-0.1372161155505386,0.0068622545394398,-0.0300435234416127,-0.0021002737279394,0.0674255939834295,0.9972726554587124,0.2021120459104257,-0.1649506547641585,11.022530994738844,0.0577812129086164,0.1968785342803686,0.7673344820201837,-3.983487081734456,1.2406637669538645,0.2110721330314582,1186.9019648941437,1203.3717868600963,1199.877112435186,1147.402754828368,-1569.8882017033143,-1067.8172048217666,-699.4233497894578,708.6110088514025,164.115823596891
0.0425,-3.8838484197737095,3.5650470843707875,-1.187496900305603,0.4520732926076115,-0.1268479701699855,0.0029401383157149,-0.0295022895371829,-0.002235822281034,0.0674232248870314,0.997287637228168,0.1961614674659659,-0.1647446950065791,11.02188908246434,0.0586142845199882,0.1990658219349752,0.7702686228508131,-3.9834340225202625,1.2412977581682352,0.2129738825205278,1183.1437565671715,1201.1586349665874,1199.144839855594,1149.0297114128064,-1530.6061611929642,-813.7031934992596,-2.4389015054111964,641.1112332233646,164.12218393959344
0.0449999999999999,-3.224658683602777,3.075538675921522,-1.379413524474931,0.4465563486213459,-0.11952223993091,-0.0032905795794467,-0.0289693235731379,-0.0023734777306701,0.0674109481395101,0.997302618833196,0.1893857177421843,-0.165187602022994,11.020036722270975,0.0594303516255849,0.201196307392577,0.7731883037954059,-3.983379629564604,1.2419375154374803,0.214885193293329,1179.2489340881789,1199.3032708926,1199.864917927659,1150.608310994485,-1686.7868067483876,-771.4328819427469,559.9643705987548,677.1470661822608,164.1279608294981
0.0475,-2.4754965713750834,2.5111855696407863,-1.3785402316498494,0.4389934355972511,-0.1129720084193096,-0.010891937206774,-0.0284366396570691,-0.0025052838719088,0.0673900447531348,0.9973178287489468,0.1816350384630434,-0.1660076792044692,11.016965639155567,0.0602123745698442,0.2032792528593529,0.7760872815494578,-3.983322614162775,1.2425816287417504,0.2168026611964233,1174.7098225334298,1197.3014705568737,1201.9446617085875,1152.415446743718,-1598.5838490353658,-730.8167787351059,876.0432641015534,648.9481702284132,164.13423126063185
0.05,-1.879219586140544,2.093969177328139,-1.1922835860811418,0.4342324679070576,-0.1085363010973326,-0.0158385302200137,-0.0278900344319621,-0.0026218502845108,0.0673633724952706,0.9973335402373033,0.172757312702351,-0.16678504465326,11.012679451421098,0.0609415022164105,0.205335765964177,0.7789589572387677,-3.983260717594988,1.2432284660427386,0.2187231925808924,1171.256014843002,1195.6491869989245,1204.2451342481668,1153.853051845627,-1266.2187425854431,-691.5445638645455,923.7130818237353,566.2493730219014,164.1389142730678
0.0524999999999999,-1.2957929387334637,1.7524700592231484,-0.8628697958870816,0.4313504058413546,-0.1049667250185661,-0.0187497938933207,-0.0273233235914991,-0.0027206296009317,0.0673317762330421,0.9973499163018272,0.1627575237974429,-0.1672798082437094,11.007187311165215,0.0616072094393908,0.207376272030733,0.7818010454408779,-3.9831930772639854,1.2438764577180403,0.2206463687481269,1168.3787288205026,1193.8437477375508,1206.5632271177064,1155.2466936088272,-1027.955169230882,-759.4076939591563,852.0258971881509,557.0591601186154,164.1430455087964
0.055,-0.7024619125448365,1.4757917000214649,-0.4673442345385097,0.4290657847926407,-0.1019697905695113,-0.02002815268698,-0.0267370611851692,-0.0027998700921935,0.0672974597261704,0.9973668577433548,0.1516678405267575,-0.1673996647098952,11.000504926004288,0.0622003714643467,0.2094022019408586,0.7846150066462957,-3.9831206877759056,1.2445249380062504,0.2225731588264259,1166.1162389968476,1191.8521485291287,1208.5052637341075,1156.63834764622,-737.9806942437874,-833.7634861716189,615.9186502832648,567.5067516800477,164.14672768219387
0.0575,-0.0654524743544119,1.2653795305035267,-0.0566136265063626,0.4263544482685662,-0.0994638324228291,-0.0195936175835041,-0.0261317952292329,-0.0028537230247804,0.0672639863855772,0.9973842245249472,0.1394489440804365,-0.1670476248436087,10.992656042310696,0.0627069975840671,0.2114164586505491,0.7874030197059322,-3.983044261557763,1.2451734198956428,0.2245031209331491,1164.6888253492837,1189.6749303066929,1209.6428203691228,1158.0842273672276,-432.08144617865423,-962.9891508262067,266.8350692209516,663.6193068773995,164.14987881986207
0.0599999999999999,0.7708560748807588,1.0585588491953544,0.3852756422372034,0.4227725504680626,-0.0965005315976434,-0.0174634410331444,-0.0255158109725685,-0.0028818265181956,0.0672348151511718,0.997401712983286,0.1261863205179285,-0.1663084971326952,10.983668445712992,0.0631221563635618,0.2134098902089791,0.7901697406415094,-3.9829655641345374,1.245821750735424,0.2264368819556454,1163.9558317659544,1187.0372027749977,1209.8394390802123,1159.9564441806071,-118.43717229317012,-928.2291394351437,-125.23003956562212,715.569786465949,164.1530599951382
0.0625,1.5023524166068258,0.8942898410335061,0.6781468037215093,0.4223898335756717,-0.0933971706144289,-0.0146949200052117,-0.0248979967455022,-0.0028828571384258,0.0672118124681372,0.9974190848202528,0.1119560588366989,-0.1652845976814283,10.973577640505514,0.0634403629810862,0.2153727064607492,0.7929193145033688,-3.982886229840679,1.2464704676963243,0.2283764348304827,1164.0966394878178,1185.0337846095172,1209.0166701712947,1161.6620762995572,181.7290023158419,-702.697938704477,-504.8557331318984,707.1109382959996,164.15522096436496
0.065,2.181195258626622,0.7065002035394045,0.8781629577919998,0.4273182181328606,-0.0898554001408952,-0.0116018019814095,-0.0242857823978575,-0.0028644206976956,0.0671942323296328,0.9974360041521648,0.0970410409105589,-0.1640671005188848,10.962426461391816,0.0636709560291219,0.2172964012730708,0.7956530903936768,-3.9828088071815686,1.2471208397472475,0.2303240856105134,1164.8644767775336,1183.5237130814753,1207.3151604145528,1163.4919988720872,433.1084119718066,-493.9461014929288,-891.7237092184214,806.1594865607269,164.15688557667536
0.0675,2.805010321606921,0.4423507918753267,1.0227653080833679,0.4372215786592857,-0.0868960098156929,-0.0084872626484319,-0.0236813430243987,-0.002837233870794,0.0671808200925811,0.9974522784307238,0.0818060443587522,-0.1626463345574003,10.950269431532963,0.0638303256794238,0.2191799210918657,0.7983683491924659,-3.9827346018649856,1.2477738598824075,0.2322808671911554,1166.2621815476768,1182.5640541020523,1204.5580516252023,1165.692873732361,549.2344101338399,-188.90890279894833,-1080.1418860054573,774.7361184858613,164.15832360358831
0.07,3.090226601170279,0.2009298516604256,1.0831725990871812,0.4470729819146888,-0.0861370120519851,-0.0066533877684184,-0.0230836867593453,-0.0028132980394905,0.0671725653225227,0.9974677015902756,0.0666520571598386,-0.1609564355348545,10.937174899748547,0.0639398132830207,0.2210262392216935,0.8010594738790147,-3.9826628139744167,1.2484302271458299,0.2342459836271701,1167.6106488282028,1182.5791685674803,1201.9144509845255,1167.3656794645165,522.5017687611863,167.06758221225786,-1074.9205534194991,589.5592250722086,164.15906604121645
0.0724999999999999,3.0850036999743566,-0.0403685225313049,1.1010286905031248,0.4577670809681188,-0.0864294389574411,-0.0052455228945917,-0.0224930691004399,-0.0027996408794782,0.0671704213689894,0.9974821059310528,0.0518691231967445,-0.1589629542335233,10.923226698725962,0.0640138289203332,0.2228363748296332,0.8037207378065704,-3.9825933501685182,1.249090058938956,0.2362192826873107,1168.8746903914828,1183.3993920131138,1199.183448858105,1168.640669857722,450.85535791158776,431.28665413291935,-1076.358598232948,413.6077453835704,164.15934730626637
0.0749999999999999,2.842263307692958,-0.267657439477928,1.086772387758522,0.4681759907952718,-0.0870307154876857,-0.0036432260806341,-0.0219087287708603,-0.0027966843002169,0.0671746923349854,0.9974954494315104,0.0376018712622423,-0.1566113693419904,10.908524880478215,0.0640567002826237,0.2246134208783194,0.8063456444753523,-3.982526252942193,1.249753478411304,0.2382014821570475,1169.8649256177607,1184.7356018381452,1196.5326579933608,1169.4337181914343,288.66632363915386,601.3436390332112,-1019.207903467076,181.6172446147446,164.1592549255449
0.0774999999999999,2.3670433331223464,-0.4664920516652439,1.0209399844404254,0.4761314082193377,-0.0878408536875513,-0.0008082974399925,-0.0213296683330166,-0.0028033151257046,0.0671848085090711,0.9975077882175148,0.0239572461426119,-0.1538519524985874,10.893184972644631,0.0640701230730861,0.2263610011256836,0.808927013196813,-3.9824615171247593,1.2504202821132555,0.2401940141399387,1170.3180220096783,1186.4061102082799,1194.0874093407697,1169.5487560807956,44.00242148935826,727.9424134320827,-1016.6024009141428,-97.32094056253108,164.1587223535005
0.08,1.6445925961739967,-0.6584922112211476,0.8605602843305568,0.4805393965956596,-0.089277891976108,0.0042258944704423,-0.0207565565320492,-0.0028237315576738,0.0671988926632958,0.997519232908818,0.0111486590642706,-0.1506913257638962,10.877337260093112,0.0640634359649462,0.2280797043601354,0.8114575942482963,-3.982398511222856,1.2510900460286019,0.2421978157573105,1170.0849377252075,1188.3753139053056,1191.44964598879,1168.9471134886217,-215.113898344134,659.057513969355,-916.2874196624208,-310.80646616992425,164.15758745642376
0.0825,1.0048644436033949,-0.7678524058448141,0.6594681865659415,0.4801179892844813,-0.0912085415401056,0.0084057717338729,-0.0201895211114693,-0.0028612771202349,0.0672144637663028,0.99752995977452,-0.0006364141792244,-0.1471353558563348,10.861126574217616,0.0640441520143181,0.2297713265359884,0.8139302606140806,-3.9823366891834246,1.2517624838312085,0.2442139760467433,1169.2424525179579,1189.7013977781266,1189.5059722424576,1167.994723749946,-443.2181022111304,415.159592771533,-724.9130794863497,-408.8936933748752,164.15623784804552
0.085,0.3915524988309458,-0.8111647495229696,0.4250480396503227,0.4786576482221306,-0.0939464059386782,0.0105903522314107,-0.0196273647963463,-0.0029214580819932,0.0672301886050779,0.9975400944699904,-0.0111704594244192,-0.1431763957501061,10.84471034368266,0.0640236472608701,0.2314396955510621,0.8163380795007031,-3.9822753358674414,1.2524367710612592,0.246241634807666,1167.8688472141519,1190.4511118691632,1187.8250805913583,1166.9026450217473,-666.581046804867,171.38736468159536,-675.5004911542068,-419.6045648462128,164.15447987831215
0.0875,-0.3083226329933585,-0.7825800088423913,0.1816940336745847,0.4790222606326761,-0.0975045721153999,0.0100608935494816,-0.0190671477994952,-0.0030064703003053,0.0672457880065873,0.997549738592081,-0.0203049329812686,-0.1387759910381338,10.828255573688349,0.0640083130678758,0.2330919789631958,0.8186753831167313,-3.9822140795958574,1.2531125559794825,0.2482783157413621,1165.9095472839335,1190.5583346015346,1186.1284697866863,1165.896700925715,-718.8500057757224,-88.63584376063062,-561.8101133628453,-252.68719614528027,164.15191064915632
0.0899999999999999,-0.8774457096689413,-0.7019947813085987,0.0644967285886467,0.4808202284610291,-0.1001556011216518,0.0074934650104931,-0.0185114184369421,-0.0031143069438846,0.0672579556777983,0.9975591007362345,-0.0280015940316404,-0.1340197695684293,10.811934032728889,0.0639952732594912,0.2347274037721255,0.8209418104861531,-3.982152204930016,1.2537891250902227,0.2503200838772969,1164.2745971852733,1190.00793265036,1185.016030024544,1165.6392090410209,-601.3422881069357,-326.4856065442479,-370.6120142636344,75.74332909816818,164.1493960817909
0.0924999999999999,-1.4224125546364543,-0.5910327980504603,0.0663661900910567,0.4814449002506612,-0.1020794711373092,0.0046076689773442,-0.0179652851108588,-0.0032366369526745,0.0672621064491993,0.9975684395514908,-0.034373429928604,-0.1290496709518822,10.795918232906033,0.0639701343014519,0.2363418072835518,0.8231412683598666,-3.982088900040557,1.254466142719622,0.2523642847261219,1162.9028358433989,1188.9259065688132,1184.2754097153684,1166.275417571206,-481.1176472408529,-490.81755230190487,-227.59259343670217,421.64785174777495,164.14650608228743
0.095,-1.8987526364166745,-0.4845081093428962,0.1522866622869493,0.4787041632815309,-0.1033581343549382,0.0032664097933499,-0.0174285768531714,-0.0033670442793808,0.0672576524455527,0.997577830333428,-0.0394943160610591,-0.1239051701100623,10.780378592057597,0.0639241157060571,0.2379387437561872,0.8252770097802876,-3.982024507018864,1.2551438862794673,0.2544103885488436,1161.8690089490688,1187.5538448888503,1183.8780670573603,1167.7474482997595,-327.0208710982385,-577.5510447282153,-78.04311441832388,776.1689252665285,164.14331464631348
0.0975,-2.1990371600588885,-0.4220698527676179,0.2869235567763345,0.4713155881563081,-0.1040811817879807,0.0043132916266034,-0.0168958064938194,-0.0034995925588108,0.0672460222402709,0.9975873037975224,-0.0434318623778902,-0.1185200015556799,10.76547931855,0.0638511007588709,0.2395298548293628,0.8273510922232977,-3.981959818904115,1.2558230410451063,0.2564588884318574,1161.2677314879077,1186.0381513451723,1183.8851941432767,1170.1562621975384,-183.1019400288822,-649.7421925222164,74.35653577749683,1211.249218432748,164.13977260372715
0.1,-2.252044344157442,-0.4439476903736394,0.4289448092069403,0.4598604707181158,-0.1042372294183078,0.0070690077703262,-0.016362204176361,-0.0036321929751686,0.0672303706860435,0.9975967466413672,-0.0461852984757093,-0.112855757262774,10.751374622854708,0.063752674193199,0.2411245174924167,0.8293663521980262,-3.9818955939675433,1.2565040013578064,0.2585108694903829,1160.9534992489243,1184.3051339262395,1184.249849736248,1173.8036943919235,-70.54024247263436,-591.6517768338502,163.3220860173877,1389.7605811823255,164.13513469186017
0.1025,-2.011437243939035,-0.5675826100560819,0.4895115196864721,0.4506950176348613,-0.1036623407700116,0.0099040720000749,-0.0158256759077192,-0.0037645598975923,0.0672139906832455,0.9976059831101673,-0.0477343349593239,-0.1069393141708361,10.738205345796372,0.0636339751018643,0.2427269400966195,0.8313271548632112,-3.981832978709928,1.2571869465110717,0.2605680440272083,1160.9150302755445,1183.079892461003,1184.7018045733637,1177.1050651034502,3.985788087584304,-423.2697351101714,168.24543675288655,1274.7342365893044,164.1309608142822
0.1049999999999999,-1.5105608941124344,-0.8078382322473446,0.4677279678042485,0.4438608521388001,-0.1031883694016725,0.0127765348919076,-0.0152865708294824,-0.0038966268599301,0.0671999019258953,0.997614813414522,-0.0480741790330481,-0.1008535311329588,10.726096198723512,0.0635009484681245,0.2443367232920255,0.8332392646933507,-3.9817729876522017,1.2578718420584407,0.262631070569573,1160.9734281893625,1182.1887852506886,1185.0910769200125,1180.17736557487,29.48978328663549,-310.14833884428356,112.76293244341124,1197.4153094181952,164.12648394853545
0.1074999999999999,-0.7205672087411701,-1.1981123359926058,0.3574189690612524,0.4393205917489626,-0.1042649917789377,0.0152571287655637,-0.0147466032655918,-0.0040294000384327,0.0671890564183851,0.997623150669844,-0.047197227815701,-0.0947137250930963,10.715153741359899,0.0633608324153758,0.2459507704456969,0.8351092490529299,-3.9817156746283784,1.258558755763417,0.2646996101784523,1161.0624791919777,1181.5291507667816,1185.2656192355807,1183.0921416505412,33.76911411996841,-182.44747332882963,-2.7361659899270285,892.9325868043626,164.12078298947844
0.11,-0.0130511266737737,-1.558667845778949,0.223331318660157,0.4388898156072927,-0.1073417939735095,0.0160521324380345,-0.0142124486269588,-0.0041644853311127,0.0671808492091993,0.9976309307793756,-0.0451089380399523,-0.0887418609807251,10.705464545676856,0.063221044071144,0.2475572845648856,0.8369463900009954,-3.98166105019516,1.2592473762476823,0.2667736659939732,1161.1422737599623,1181.2765478840445,1185.0773960900628,1184.6420285088918,41.48571977243588,-61.31669054061597,-142.77419597578944,421.8473436922064,164.11577373744763
0.1125,0.6122033185638102,-1.8829073657722724,0.0884863101053475,0.4421026888056792,-0.113066971358755,0.0155886060815326,-0.0136865689035814,-0.0043035346807258,0.0671748379587619,0.997638137439159,-0.0418262139509,-0.0830674859333558,10.69709402271692,0.0630899434032471,0.2491509223041474,0.8387582089616022,-3.9816091224488734,1.259937466777808,0.268853172900954,1161.2699077908399,1181.2225673140783,1184.5517482557016,1185.2013783690022,68.93339081175321,-11.312106580089663,-247.91242635483263,75.42394332808719,164.1105134838458
0.115,1.0870537848485402,-2.130147134277116,-0.0188582316708004,0.4476927333381554,-0.1205184866657865,0.0145420632487034,-0.0131697691853827,-0.0044493560534852,0.0671705673777962,0.997644773007152,-0.0373572615317597,-0.0777827394869815,10.690085376879315,0.062978101967805,0.250728479399549,0.8405516308218176,-3.981560166504519,1.2606290997021936,0.2709373652689037,1161.486940714021,1181.219987351144,1183.8378339582887,1185.0191482255323,118.74264737052717,-20.030400054110924,-294.49488419090784,-210.58747682368428,164.1050569612374
0.1175,1.3271842697784932,-2.2601655166120724,-0.0738076405774562,0.4541716791087467,-0.1281845279504161,0.0136326330477347,-0.0126597108137756,-0.004602828537309,0.0671671376704557,0.9976509191511012,-0.0317646832252965,-0.0729049655138399,10.684458701768074,0.0628928551181018,0.2522918117717815,0.8423324609605843,-3.9815144707225847,1.2613227607497912,0.2730254742847362,1161.8636210276925,1181.122415313808,1183.0792738347473,1184.1484409848836,209.64204412694056,-103.15407007879023,-291.2423425644653,-480.3642548487469,164.09937688053338
0.1199999999999999,1.345260638848722,-2.298588559341386,-0.0730015851022832,0.4605035510307873,-0.1351520742253654,0.0129835232387785,-0.0121515376439487,-0.0047629277462378,0.0671647379708464,0.9976566241528488,-0.0251639801996358,-0.0683887124446683,10.680211043468782,0.0628387773475717,0.2538466954304937,0.8441055317294573,-3.981471693247741,1.2620189261489825,0.2751172934618351,1162.5351509346558,1180.70421700075,1182.3816222454664,1182.6173269512883,284.2860100164221,-223.67667257576653,-186.0135567711044,-602.8558923291268,164.09231771294424
0.1224999999999999,1.1758203289431204,-2.26502316268346,-0.0202499360697216,0.4638460598298176,-0.1387905443432462,0.0125025038812847,-0.0116404266094591,-0.0049279896618368,0.0671633735589834,0.9976619489109508,-0.0176988454436186,-0.0641810968423341,10.67731730710104,0.062818569897448,0.2553986900781979,0.8458756870594276,-3.9814310449036903,1.2627178573435596,0.2772125725873519,1163.2850510777744,1180.0040319509292,1182.1492060508915,1181.134161523238,342.1617215160947,-360.5461893933804,7.469962632103481,-606.2917086510419,164.0862426316428
0.125,0.8827607732617024,-2.1893181503014807,0.0763504146311962,0.4655721000339748,-0.1416055827778081,0.0119069276198736,-0.011121345077838,-0.0050990848478012,0.067164292537481,0.9976668571621076,-0.0094662983934745,-0.0602203716248876,10.675731777600783,0.0628393420321065,0.2569531558917717,0.8476471201046104,-3.9813919749986977,1.263419277634606,0.2793110555048443,1164.2459595422363,1178.9014860537832,1182.4189720586269,1179.585868408033,482.6992796926329,-560.5413808722001,246.38474536882288,-686.4111308926107,164.07997859321424
0.1275,0.462563112389894,-2.034304628447104,0.2202014894907995,0.4665199377739669,-0.1462099487014561,0.0116862194274403,-0.0105884481442153,-0.0052738758323258,0.0671689417335301,0.997671323951809,-0.0006444206903359,-0.0564138682841772,10.675389543313035,0.0629017134690661,0.2585172384605397,0.8494233523334584,-3.981353674690447,1.2641226379118535,0.2814125604412062,1165.6985474762375,1177.201325046568,1183.3811297777359,1177.702105868775,597.1510971246964,-656.994000881104,454.9661800021109,-699.6642692271956,164.07225443066395
0.13,0.0984766239164715,-1.8136855650546488,0.3381488717935264,0.4662842087787557,-0.1518781464588321,0.0125450666171588,-0.0100403856949761,-0.0054494502774109,0.0671786759219195,0.997675282683374,0.0085632298231473,-0.0527548754061049,10.67620953679995,0.0630037938626216,0.2600906626085348,0.8512094663389597,-3.981315968829464,1.2648274551960914,0.2835175792176219,1167.2317150278595,1175.6165160493777,1184.6938029586374,1176.087547061897,700.7043199249432,-621.9175991188416,616.3455636265093,-663.7182496169764,164.06565265656604
0.1325,-0.243810174270293,-1.451012195833021,0.4212154446486325,0.4649188140856919,-0.15819806570941,0.0144438206400365,-0.0094782197814234,-0.0056202571732921,0.0671950529648287,0.9976786424596882,0.0178897857840904,-0.049275312595011,10.678097465197448,0.0631380901336296,0.2616694117655101,0.8530109891481555,-3.9812791929227376,1.2655343552778464,0.285627411729373,1169.2020690758625,1174.091737050974,1186.4628575958684,1174.3835146206902,984.37011757669,-602.3743449048192,861.5183957710534,-769.988228646934,164.0588893041564
0.135,-0.609743953402589,-0.8333537861724145,0.4549650425245804,0.4632052412982504,-0.1641227132473002,0.0169005690869203,-0.0089070021365031,-0.0057829702250578,0.0672172215497874,0.9976814241875416,0.027108828831261,-0.0460869476522012,10.680949303257158,0.0632981472305724,0.2632427759042231,0.8548341965885349,-3.981244023370536,1.2662438004961907,0.2877432631942133,1172.1535656157432,1172.6046443248536,1189.0013949374927,1172.2376059186627,1179.8484989621545,-458.1249156461122,982.3844003801688,-790.8030693230551,164.05059836778227
0.1375,-0.8741346301576359,-0.1860329365980083,0.4234447881912872,0.4619047300195471,-0.1666756509899217,0.0185764206303525,-0.0083312376979407,-0.0059359719908047,0.067240928153919,0.9976838771766874,0.0360329587271705,-0.0432845737833856,10.684654141871384,0.0634775988441932,0.2648013105782836,0.856683814885206,-3.981209965883204,1.2669558252009467,0.2898657282989929,1175.1013115706733,1171.8011124727432,1191.3747795977692,1170.4294992740747,1261.1428210314887,-214.0300733262391,977.4378886942477,-698.2337187590014,164.04355264507842
0.14,-1.0923330115881427,0.5467982179507029,0.3380210134737825,0.4596753194415909,-0.1664168567429676,0.0196873402208319,-0.0077559873009737,-0.006081498419369,0.0672629738621386,0.9976861577088618,0.0445625550603885,-0.0409730007639814,10.689097306112826,0.0636760858702911,0.2663343260240317,0.8585635500278003,-3.981176596827312,1.2676699650064711,0.2919957114179852,1178.4592797209007,1171.5344939582224,1193.888584380964,1168.7464373248677,1382.9837822750949,-19.523801971490663,1002.532379597641,-625.3094036930173,164.03637664534543
0.1425,-1.265269190987066,1.3013704123782908,0.2194094063164221,0.4564621938960169,-0.1639740317613495,0.0203645554252738,-0.0071853682150568,-0.0062226320036333,0.0672803043202121,0.9976884212794602,0.0526268103318869,-0.0392319161020137,10.694163357617132,0.0638938444632805,0.267833017345037,0.8604758136061063,-3.9811433000122873,1.2683857954346187,0.2941335094430944,1182.0162304820487,1171.703493462886,1196.3874414957575,1167.3029522556099,1424.8508976893,156.9811838156973,952.8966160889513,-488.20247388039434,164.029101684884
0.1449999999999999,-1.3770909953216992,2.023201298769641,0.0762800881147982,0.4527986434860866,-0.159290057070794,0.0206086790883777,-0.0066207485491464,-0.006360249282682,0.0672933559368751,0.9976906274669965,0.0601249474539562,-0.0380739351205554,10.69973918037602,0.0641285859235325,0.2692936047697476,0.8624212990601959,-3.981109106501196,1.269103103848694,0.2962780121722797,1185.5835342093471,1172.3193998773008,1198.6530674614087,1166.3054249554657,1507.8685697897142,345.28329431500583,880.1653825200486,-305.0437869943849,164.02171896655858
0.1474999999999999,-1.4410143217701263,2.785366996765613,-0.1050035729875538,0.4486195086129422,-0.1514402578088313,0.0204661354935481,-0.0060585354529241,-0.0064904249267873,0.0673028580078957,0.9976927851781956,0.0668754175444529,-0.0373948275375694,10.7057170376746,0.0643696504517117,0.2707218883223388,0.8643982153899116,-3.981073013850263,1.2698213198558803,0.298427562976392,1189.5555733309973,1173.4299099344607,1200.7882684083577,1165.777733320638,1361.324369412522,446.78408750373774,645.4772641811809,-69.12261683696664,164.0127507073567
0.1499999999999999,-1.4401182047112475,3.2955799195509607,-0.2516131801380629,0.4454651623637905,-0.1433931472212015,0.0199677446459519,-0.0055007512932542,-0.006608807740583,0.0673085918241281,0.997694934842362,0.0726956343316832,-0.0372066482576988,10.711998180166184,0.0646038603789648,0.2721146367700389,0.8664076922994037,-3.981034269879278,1.2705397980771842,0.3005812250849375,1192.3901560564095,1174.5533203148195,1201.8804537823144,1165.9598118712809,992.7953621205224,467.54556336813914,268.8369459717703,205.61375300844685,164.00519747488676
0.1524999999999999,-1.3865815661704475,3.6441547722746974,-0.3803416650640381,0.4424058211858167,-0.1342601325338935,0.0189969934360198,-0.0049502320516078,-0.0067142153520645,0.0673108356293035,0.997697060065698,0.0774875464562155,-0.0375414602613432,10.71849435645176,0.0648234335549536,0.2734670653646098,0.8684506957750071,-3.9809936384133806,1.2712583576261784,0.3027391487412606,1194.5195501416,1175.7676377513017,1202.1324531382163,1166.80580208568,741.4625015805534,535.4336579663591,-71.24614197559816,516.9583302629685,163.99757364285364
0.1549999999999999,-1.2592488078724895,3.8557095191313873,-0.5019876930881852,0.4384857859266224,-0.1224265174030264,0.0172186752543189,-0.0044111324514541,-0.0068071018805833,0.0673085391374549,0.9976992182094274,0.0812048353155746,-0.0384608213898208,10.72513010079704,0.0650226705606855,0.2747721347730109,0.8705282218094235,-3.980952312007073,1.2719768858799803,0.3049018967190383,1196.0974685643123,1177.230488604651,1201.5242230724364,1168.5446035225957,405.46480413272513,525.3573090074947,-338.39731865268703,744.0172503725983,163.988355781565
0.1575,-1.0973009349576677,3.856960905609116,-0.5715861201628843,0.4350644966435625,-0.1122447830753042,0.0153104263669702,-0.0038855337285426,-0.006891145971349,0.0673023808056267,0.9977013389488234,0.0838929858144504,-0.0399861362362258,10.731844042544692,0.065203057845785,0.2760256898823159,0.8726390482913096,-3.980911244600603,1.2726956798881297,0.3070706770816176,1196.5468741622635,1178.3944242963391,1200.440466544953,1170.5258883375432,6.9142365413426825,439.41939773935667,-489.2334512607699,877.9323143775846,163.9806244344562
0.16,-0.8791854441803781,3.6884613984343217,-0.6118025530931172,0.4319623521229859,-0.1023039679309523,0.0134206276214733,-0.0033741462105463,-0.0069700108361955,0.0672930475247864,0.9977033568699588,0.0856185664450401,-0.0421093834699237,10.738591052833236,0.0653667291584606,0.2772257131607286,0.874780323021971,-3.9808706429196423,1.2734153401659238,0.3092461522370126,1196.1320397470192,1179.427585593348,1199.0780558161327,1172.9342650944836,-288.6984778110215,380.28666860109263,-541.3126328255198,1010.1444191931467,163.97284960547967
0.1625,-0.6241298848980429,3.3999253628972,-0.6374255863918864,0.4293922163709956,-0.0931353251048553,0.0121166319538664,-0.0028734174864801,-0.0070401371892086,0.0672825380151789,0.9977051796113076,0.0863185776012228,-0.0447209090756685,10.745344320642179,0.0655049155690679,0.2783780586468196,0.8769466374322902,-3.9808308788990585,1.2741364689452903,0.3114297277098284,1195.1033817732084,1180.2958576393446,1197.7339033808255,1175.576610433509,-517.984086697697,297.7293642254605,-488.09782548773853,1078.9884347941995,163.96504398256806
0.165,-0.3475971168012814,3.0036207337670286,-0.6591594701738378,0.4278449261411462,-0.0853047910353907,0.0115625642209552,-0.0023746706612467,-0.0070946801712212,0.0672749347259491,0.997706609772171,0.0858848466793063,-0.047596538677062,10.752095602325639,0.0656051748233552,0.2794975616060335,0.8791293327156091,-3.980792412236691,1.2748588825255136,0.3136221709770327,1193.5421193135307,1180.9162324144754,1196.637566688694,1178.3292072684546,-744.7764166503013,214.45292877529008,-399.2642142180554,1187.3852756556505,163.95720656974143
0.1675,-0.0316144923379309,2.458952762109656,-0.6858209357738319,0.427582546977393,-0.0777122269428003,0.0106804787959976,-0.0018713423582039,-0.0071306028861873,0.0672739580759127,0.9977074361730486,0.0843040385937317,-0.0505630375955251,10.758854978134757,0.0656614833205141,0.2805949756426743,0.8813202634576954,-3.9807555449753176,1.2755821443973843,0.3158236019021756,1191.379499689957,1181.368122283221,1195.7375823097352,1181.5135368117872,-793.8896596163424,126.75913001344259,-264.68758525611497,1110.7380584769987,163.94777052497335
0.17,0.187618722848916,1.9879482404340016,-0.6988529505262365,0.4283177484400368,-0.0731364399919907,0.0090121999936702,-0.0013559200039559,-0.0071498093003302,0.0672833184575572,0.9977074108303702,0.0816853757306868,-0.0534342779275794,10.765649728783155,0.0656767180421413,0.2816822387221388,0.8835103812835723,-3.98071956112821,1.2763062242051584,0.3180333306301846,1189.572671015449,1181.5500280645426,1195.3141287624135,1183.8828975608396,-678.0494838872521,56.43098525192722,-122.35942488682656,848.8329743473506,163.9398844984725
0.1725,0.3312734609412217,1.538859713511596,-0.6834347267112709,0.4298156298302344,-0.070221650034996,0.0064939165200781,-0.0008247322287361,-0.007156258209447,0.0673043645392749,0.9977064205196466,0.0781901981760453,-0.0561102415673009,10.77252382403492,0.0656556689692218,0.2827647123156293,0.8856931308597736,-3.9806836436311808,1.2770314072104167,0.3202510032228906,1187.9892522705206,1181.6502772094807,1195.125785185301,1185.757701683524,-613.0853176680824,64.01347563814846,-55.40383078023292,679.2577727180736,163.93197820377043
0.175,0.396983372336886,1.0495109249701229,-0.6192680243967948,0.4323399730700437,-0.0679162439854485,0.0035517481160737,-0.000280195456864,-0.0071514659921925,0.0673348619358342,0.9977045993347848,0.0739303729600061,-0.0586194915578416,10.779536564799429,0.0655961447356499,0.2838378803792416,0.887866508400777,-3.9806467845433056,1.2777578831917167,0.322475874074496,1186.5072444271086,1181.8700954427331,1195.0371096085123,1187.27918642443,-465.70884595253335,127.22695841707778,-23.206601745823825,429.0899664304581,163.9224702176578
0.1774999999999999,0.3636268096018631,0.683476906670835,-0.5308591378223498,0.4342135742432539,-0.0664264762279129,0.0016704308733489,0.0002733610445511,-0.0071384226395172,0.0673715044738355,0.997702141324483,0.0690567958513943,-0.0610358230009246,10.7867590320553,0.0654979077760074,0.2848939791804213,0.8900305443163204,-3.9806083716723712,1.278485192462082,0.3247070124950512,1185.660708040758,1182.286412001566,1195.009752176572,1187.903151515676,-265.14122022154095,244.9811211733061,-7.40404400203264,128.55156024184055,163.91453159247453
0.1799999999999999,0.2581078505039203,0.3463102378796986,-0.4216345463859634,0.4350549153138359,-0.0649597786500135,0.0005131606167232,0.0008306858016694,-0.007122793139138,0.0674100585021687,0.9976992850161038,0.0637845351188348,-0.0634592809064939,10.794270856220065,0.0653653082050941,0.2859236429836596,0.8921867166886374,-3.9805681871695993,1.2792127839430456,0.326943608740101,1185.1815383260007,1183.0950010486,1195.000089388502,1187.9219442256392,-145.9060970840254,401.8056561615136,0.922628582111428,-68.12135622294585,163.90657864546077
0.1824999999999999,0.1143632603074248,0.0194597504570011,-0.3103878129076892,0.4352692690319663,-0.0635459701552403,-0.0001329350888193,0.0013898011131286,-0.0071103135178345,0.0674470445721035,0.9976962190319406,0.0583405230611713,-0.0659223694739943,10.8021569504863,0.0652044705974238,0.2869235179728241,0.8943357149350639,-3.9805271394712527,1.2799405905775725,0.3291859223755967,1184.9311775553379,1184.2954402823736,1195.0143653194823,1187.5625447345615,-69.4613239119007,575.7000079731365,17.70763303375132,-191.96374631128475,163.89861462799527
0.1849999999999999,-0.0502763374376832,-0.3021112898452125,-0.2135698732831544,0.4351210715924742,-0.0627659156606158,-0.0003446610838224,0.0019484106369569,-0.0071040026731847,0.067477633516048,0.9976932475878592,0.0528953454190366,-0.0684636753489548,10.810504366663299,0.0650169633634476,0.2878904902988121,0.8964796794372973,-3.980486584039004,1.2806680432964723,0.3314341487935172,1184.8342317064414,1185.9735010884656,1195.088627553671,1186.9621254940828,-37.53663390893959,830.0846429695405,54.247055993619085,-259.1372697339009,163.89063781916144
0.1875,-0.2442109222668562,-0.6702185424069707,-0.1292693845194941,0.4342324757164802,-0.0635550535730032,-0.0003178099878964,0.0025026329636998,-0.0071068589059643,0.0674985221488102,0.9976905774987463,0.0476165827256666,-0.0711591879033149,10.81939828694536,0.0648062067212844,0.2888187217335635,0.8986226208402096,-3.9804473053605376,1.2813942367114743,0.333688293017551,1184.7434943857932,1188.4458634972211,1195.2856005994506,1186.266858385892,-44.40153227592413,957.5120839807817,92.89922277093856,-210.90918929244236,163.88105115472027
0.19,-0.3868366973985485,-0.9417116001149018,-0.0907708401826538,0.4327368384531681,-0.0660440520762594,-0.0001863116304415,0.0030524088363433,-0.0071240728144685,0.0675093166199026,0.997688198185783,0.04272148031087,-0.0740086607833686,10.82891797979903,0.0645828691719732,0.289708824777668,0.9007670109541867,-3.980409645821904,1.2821189186773227,0.3359481122785345,1184.6122240450616,1190.7610615083695,1195.5531236675256,1185.9075795476203,-69.5559466574195,941.4929154216672,126.8414742075946,-64.95805314161765,163.8730504676958
0.1925,-0.500551558210169,-1.1527639293193959,-0.084443428035125,0.4305988421341995,-0.0697619877017832,-4.798240903551537e-05,0.0035991449306596,-0.0071556838142388,0.0675100192192695,0.9976861091573755,0.0383120615724376,-0.0769754305242027,10.839133892025272,0.064349844102745,0.2905647439688924,0.9029157586428542,-3.980373817426308,1.2828416968080312,0.3382141923681074,1184.395714652506,1193.1533280743297,1195.9198079704884,1185.9420681201839,-104.79904407507082,1028.6501589343052,178.1001582424322,119.49822823116835,163.86503861486253
0.195,-0.6123067938509525,-1.3270337121957112,-0.1052206723506772,0.4280058190449561,-0.0742857982478095,3.471083777994105e-05,0.0041415027930954,-0.0072010454953168,0.0675024143354909,0.9976842069680304,0.0344625516574056,-0.0800833513165196,10.850104060066538,0.0641103520001213,0.2913853041538415,0.9050742545512164,-3.980340274596706,1.2835626723670994,0.3404874295708273,1184.0882288246864,1195.904312303041,1196.4436244587375,1186.5050706887764,-105.60070511505718,965.1709451871274,202.01464656765876,286.15812288285247,163.85541391106935
0.1975,-0.7048290550631225,-1.4138365172986131,-0.1352247292594278,0.4265931956921297,-0.0773737191210781,-2.6639333217726297e-05,0.0046772409953483,-0.0072620948592077,0.0674883845392928,0.9976823690513286,0.0312907100979906,-0.0833814722618794,10.861870933104179,0.0638728888788177,0.2921671039313071,0.907249093310868,-3.980309886207308,1.2842815942230252,0.3427672633940858,1183.8677111269308,1197.979182800265,1196.9298812033269,1187.372858734598,-59.25904376758803,767.4944048116224,205.45552753956127,406.5889925678672,163.84738714172047
0.2,-0.8264179242391078,-1.4541041381338065,-0.1610299545304597,0.4258469953490345,-0.0800190991717987,-0.0002975127020539,0.0052061252293395,-0.0073375812931379,0.0674705960074355,0.9976804369174702,0.0288354470655547,-0.0868716855675416,10.874459141003243,0.0636412354701313,0.2929102388305364,0.9094469432182462,-3.980283369964072,1.2849983883062917,0.3450520760720137,1183.7919336058485,1199.7417843270991,1197.4709020964356,1188.5380156516155,9.067751080692679,646.8893270131497,231.83070464856408,493.67172892748334,163.83935800575887
0.2025,-0.987098011466208,-1.4605550284371676,-0.1683251153232114,0.424816757573815,-0.0830533914537437,-0.0007919092582731,0.0057234602884914,-0.007427772741222,0.0674509422871263,0.9976783131975328,0.0271481397992476,-0.0906551641863178,10.887873477913708,0.0634209142977558,0.2936060205907061,0.9116778891500814,-3.9802590966136737,1.2857141888393675,0.3473402131231422,1183.9130498823342,1201.213629435331,1198.0890347265697,1189.8412173792356,110.3057764541062,513.5164468783382,278.86607234809134,532.8692664893873,163.83133072765773
0.205,-1.1963666306844325,-1.4227352678342513,-0.135295204439433,0.4230418580769558,-0.0866643494550202,-0.0015740811892643,0.0062295903484663,-0.0075271161058382,0.0674311049886986,0.9976759280354442,0.0261464278197069,-0.0947144888308584,10.902097971475708,0.0632069566762687,0.2942549752997631,0.9139501235773164,-3.980235905864889,1.2864299299596471,0.3496308224435091,1184.343462488119,1202.3093665614908,1198.865232458176,1191.2023619840627,270.86705484202844,385.6972865970416,395.05243835183103,598.4217938549584,163.82331130970977
0.2075,-1.4864900043544265,-1.3194590864618787,-0.0313466977077182,0.4199703988951843,-0.0909739867875287,-0.0027261470514937,0.0067277738078267,-0.007631367378041,0.0674119204489804,0.9976732444776412,0.0257654850811516,-0.0989688118577649,10.917095562042672,0.0629961034072871,0.294862308433272,0.9162700471108164,-3.980213409475581,1.2871463093717748,0.3519241831061052,1185.2673851565444,1203.1421158683163,1200.0642969183289,1192.8333263485104,406.7161100359518,215.23012155921705,492.2221639798431,598.41183400313,163.81370562319884
0.2099999999999999,-1.737511977142568,-1.18348720384128,0.1134525560971849,0.4165710238498978,-0.0941121711825741,-0.0035921463498307,0.0072196704033745,-0.0077384441191296,0.067394457069089,0.997670205883666,0.0259701668810288,-0.1033720585095564,10.932808776935758,0.0627885221925386,0.2954296288303902,0.918644302122916,-3.9801913519555505,1.2878636338969416,0.3542210334204722,1186.3770430382988,1203.385517169287,1201.3263432780752,1194.1944211540783,506.92132332824497,-7.34104155126264,560.4382131030915,553.9721852821939,163.8057224233301
0.2124999999999999,-1.9613186783284196,-0.9973053662352732,0.3098368060899824,0.4126276936032091,-0.0964532878293615,-0.0037635410988485,0.0077031233636698,-0.0078498314110337,0.0673774691614934,0.9976669095850252,0.026783697417593,-0.1079633508437795,10.949161074831204,0.0625888107274603,0.2959511727090305,0.9210804795692475,-3.9801697103678686,1.288581509025046,0.3565223089507418,1187.8019917731856,1203.10541066056,1202.8664879838443,1195.6031872749213,686.0159916251627,-247.03066801603177,733.0694014331577,641.8983135139109,163.79776990116767
0.2149999999999999,-2.1456694826866824,-0.716298651346927,0.5776212733447902,0.4072456908489603,-0.0985002397596199,-0.0027917412527641,0.0081767360600813,-0.00796288430714,0.0673577266987534,0.9976636116222471,0.0281274400700532,-0.1127556187937209,10.966059419541685,0.0623927199331277,0.2964233048642705,0.9235846338427064,-3.9801490746196384,1.2892992778819947,0.358829585791979,1189.8071229964244,1202.1503638292068,1204.991690285241,1197.4039127216479,774.6047976418589,-440.22535607427886,814.0052846560131,681.1321619180029,163.78827194476187
0.2174999999999999,-2.1837460567439844,-0.430068528944982,0.8009030060904435,0.4015936377683839,-0.0998172480671121,-0.0011847717831809,0.0086427621410467,-0.008072906226134,0.0673349070789946,0.9976603584188168,0.0298700384415456,-0.1176741549940098,10.983397382007826,0.0621941643764391,0.2968492720290111,0.9261590793971878,-3.9801295215711465,1.2900160904752005,0.3611434641925955,1191.675015761395,1200.9042838801884,1206.9365144071244,1199.008848084511,780.9121286055408,-548.9458420238402,796.0364263299192,657.1757379295825,163.7804015340313
0.22,-2.0479791738937783,-0.0810906098260944,0.9904694019633692,0.3946054964154745,-0.1007090787261093,0.0011727523679261,0.0091051640457533,-0.0081777177106883,0.0673123165094241,0.9976569165316704,0.0319251739111777,-0.1226051912520464,11.00105838357754,0.0619938748667483,0.2972351544195187,0.9288030392654996,-3.9801106514717937,1.2907314226336497,0.3634649089624463,1193.7116836394523,1199.4056346190876,1208.9718724168906,1200.6897914112958,842.4614243937405,-586.7211278901772,812.808889223242,674.0750824485525,163.77258573468066
0.2225,-1.7419232750930735,0.3254058501144004,1.1277551500026084,0.3874984662804624,-0.1011343814630708,0.0042138077422415,0.0095665306014025,-0.0082775906843436,0.0672935247441665,0.9976530259442462,0.0342479319015662,-0.1274639954596367,11.018919013984844,0.0617970461511797,0.2975845694958577,0.9315145254408976,-3.980092471740932,1.29144481543536,0.3657953978676304,1195.8873228833636,1197.9706782407377,1211.0005588532404,1202.379223496754,908.9879742434268,-471.97420317270326,787.035400387139,661.1285571629645,163.76482151202973
0.225,-1.2327838711253687,0.8003977315574831,1.178216658611666,0.3815032094407834,-0.1007777304465465,0.0079929344740494,0.0100288750756764,-0.0083731588766459,0.0672836043842703,0.9976483267771608,0.0367915965388942,-0.1321746305083625,11.036852538617042,0.0616103422341771,0.2979002086189672,0.9342902013550166,-3.980075709715047,1.292156272094455,0.3681362780291922,1198.2566235106694,1197.045763603224,1212.9070494188263,1203.9954341971106,1095.9696823107597,-171.9368136049523,779.2273468008709,674.1842982637075,163.7571271753445
0.2275,-0.4392297923314989,1.4312775930133088,1.123330595570201,0.3763779049574881,-0.0990059444418866,0.0127135033193497,0.0104928399541986,-0.0084673849911937,0.0672870590151583,0.9976424904042492,0.03955226780876,-0.1366913373472341,11.05473183262094,0.0614442724015565,0.2981822458608198,0.9371260515145992,-3.980061320887784,1.2928653399483452,0.3704878451489835,1201.3671712949172,1197.1109941727127,1214.8966955872447,1205.7501449880726,1188.3344217748331,289.90341566459364,658.1794722378612,601.6925842175617,163.74798483678745
0.23,0.3025163950495384,1.978631413849044,0.9859133084006976,0.374204765334013,-0.0960261511155664,0.0160973248346418,0.0109592464838666,-0.0085618338095737,0.0673054068659129,0.997635398983448,0.0424921910144831,-0.1409599540643231,11.072432374589424,0.0613048750444885,0.2984318632105694,0.9400172154645112,-3.9800506340165622,1.2935714782655767,0.372850134479977,1204.1982956195436,1198.495280681547,1216.1979467800156,1207.0038971181984,1176.2701772903245,869.7182742530449,427.0354920333371,450.0336730661271,163.74044932574728
0.2325,1.0070657059766588,2.494971085486747,0.775665089851705,0.3747299975547216,-0.0911432527075708,0.0183837528195287,0.0114252841347744,-0.0086517278646155,0.067335535103728,0.9976273359127344,0.0454276062453414,-0.1449956692227436,11.089834393810898,0.0611826075655567,0.2986448030761893,0.9429611622347764,-3.9800431604459594,1.2942757090157446,0.3752230598118652,1207.248522181369,1201.459585543978,1217.0318730474116,1208.0003133534033,1367.0387945134723,1636.1122461173622,251.67837903040868,375.17204021542017,163.7330087381459
0.235,1.6373152258067663,3.0002901066415935,0.4759982997031435,0.3791813085611959,-0.0828595075022178,0.0198450230974498,0.0118899505687423,-0.00873198265029,0.0673720321629363,0.9976187211505408,0.0481716129557789,-0.1487723268071962,11.106824633004791,0.0610652325846926,0.2988204981322249,0.9459543321894764,-3.98003796443014,1.2949786428255274,0.3776060576121826,1211.0334895921108,1206.6758419121338,1217.4563386751677,1208.8797573192755,1373.9976585463398,2106.451830296599,67.64856666563895,271.9927172912773,163.72419957706614
0.2375,1.853017447256148,3.267378820064227,0.2129770760926262,0.3865363379618164,-0.0738995841085566,0.0201762326037267,0.0123545346882192,-0.008800157987315,0.0674116516716425,0.9976097805793808,0.0506015368165662,-0.1522159608472855,11.12329717002938,0.0609457841054373,0.2989622741340152,0.948991943376958,-3.980033977586887,1.2956802255324151,0.3799985453845267,1214.1185104741007,1211.9918446954612,1217.3701158807398,1209.3602769398597,1160.1172491063662,2173.200796386492,-100.72304034888522,150.9137550205658,163.71696524262452
0.2399999999999999,1.6237958463068762,3.3198093542424343,-0.0396096706564597,0.3974543882939683,-0.0634643901092083,0.0198502376058661,0.0128186781585671,-0.0088556180068323,0.0674520427683389,0.9976006851484516,0.0526378334019321,-0.1552918531129031,11.13915337127022,0.0608196956313378,0.2990702965841509,0.952070704653226,-3.980030143474172,1.2963800730843866,0.3823999465740355,1216.8340758376428,1217.5418458940662,1216.9527234734232,1209.6343260943784,972.2334129984621,2124.237506582641,-194.4447466110896,90.76454259688985,163.7098498264757
0.2424999999999999,0.993466883933556,3.17798066172206,-0.2720097001234925,0.409868086973245,-0.05276905125601,0.0191699462862815,0.0132826049008111,-0.00889871641804,0.0674927215844722,0.9975914653414985,0.0542316354183344,-0.1579548369878437,11.154302166971695,0.06068415362062,0.2991458717535122,0.9551876688201452,-3.9800249810226624,1.2970782172294852,0.3848089532210344,1218.979677539093,1222.6130322283743,1216.3978921476844,1209.814099652844,660.7090280277583,1765.7079923202202,-217.1968205680512,75.14147296824369,163.7028391007033
0.2449999999999999,-0.0375386862947021,2.823697805699145,-0.4724776701740255,0.4198288979971873,-0.0431409478568795,0.0182897896651918,0.0137472812480921,-0.0089280153939012,0.067532603608523,0.9975822010854594,0.0553063238271908,-0.1601428253334187,11.16866007503777,0.0605315812381832,0.299192448947195,0.958340361399401,-3.980018040500268,1.2977745753618823,0.3872257815144676,1220.1376209777816,1226.370385855667,1215.8667393705828,1210.0100334592196,229.60126421335167,1223.1439549728736,-182.0415925071755,128.06030970673407,163.6959619071731
0.2474999999999999,-1.4548238854823534,2.233079898806437,-0.6687821819676253,0.4203269477475471,-0.0347739726976357,0.0169808056542042,0.0142136213518862,-0.0089426864900103,0.0675705614525103,0.997572973334402,0.0558111733845638,-0.1617989841788188,11.182150524330808,0.0603547588758082,0.2992137857583582,0.961526959601839,-3.9800092287625337,1.2984684649533027,0.3896505132461981,1220.1276838601596,1228.7287520032387,1215.4876841851485,1210.4544012013776,-243.6591878766192,477.6624138688472,-71.2999606951143,223.5297136501684,163.6878729881472
0.25,-2.5003682974100587,1.6854957533053037,-0.787782796202111,0.4083761415211746,-0.0311826276274188,0.0154119061005103,0.0146803959545462,-0.0089459447280398,0.0676054726452519,0.9975638587692768,0.0557960739413139,-0.1629246302372732,11.194702879891492,0.0601536204216508,0.29920944127567,0.964747162126308,-3.9799984484913407,1.2991590273074067,0.3920825207921442,1218.9193250383985,1228.7586979250116,1215.5102395671074,1211.1276820274704,-695.610468588165,-344.3825810260475,87.5496735019623,350.50761709917396,163.68127520761243
0.2525,-3.1079012388753746,1.1765919532033184,-0.8474279350401299,0.3904917354954545,-0.0300410765966154,0.0133257142835506,0.0151427517542286,-0.0089452608830744,0.067635498023378,0.9975549965132546,0.0554152569542556,-0.163613918477603,11.206252052223668,0.0599355680507045,0.2991717660190874,0.9680029075364284,-3.9799857068950626,1.2998458919280729,0.3945213303030188,1216.6496315172187,1227.0068390981085,1215.9254325526583,1212.2069392868736,-1146.7969759336474,-1046.8477220248124,248.33066487858537,561.2027083080188,163.67483296470687
0.255,-3.1797183223652734,0.6865035281621691,-0.8346085154875847,0.371103204237916,-0.0296774731087149,0.01064576306926,0.0155989012490008,-0.0089497776116475,0.0676614205905947,0.9975462867447086,0.0548781343500752,-0.1639007898844508,11.216739927425376,0.059713699713245,0.2990985617821689,0.9712942693055708,-3.979971108524333,1.300529264272648,0.3969667198435369,1213.1853401587302,1223.5244593148875,1216.7518928915003,1213.9336955690103,-1297.5480292091095,-1375.5812908420455,318.69546246070934,676.2579257997908,163.66728935185358
0.2575,-2.720801056379896,0.4047264249622505,-0.7443208151150971,0.3591258748074981,-0.02974228226916,0.0082233210108574,0.0160505855757802,-0.0089603112951751,0.0676842747673195,0.9975376309407198,0.0542262133545201,-0.1637338202087721,11.226116926306016,0.0594863820261142,0.2989954604948725,0.974619659115854,-3.9799552002840106,1.3012094437929107,0.3994188816348757,1210.1618913711732,1220.1289326438982,1217.5189098649619,1215.5882289158726,-1116.5703134924106,-1300.1885817669051,264.58759707247714,649.7750671266198,163.66116356343187
0.26,-1.8706853002436965,0.2576996909221357,-0.5664242358434387,0.3523819413681353,-0.030027357788116,0.005543135189048,0.0165007953756086,-0.0089722235850683,0.0677061927941611,0.9975288835000682,0.0533911617634057,-0.1630314260860075,11.234342167528643,0.0592430969736106,0.2988710022062484,0.9779766395721634,-3.979939093957874,1.3018869925911531,0.4018786801762983,1207.602488591268,1217.0235164060527,1218.0748308768627,1217.1825709046436,-902.9413862858737,-1147.8959559251953,135.12777246205576,612.8838354722113,163.65520925314263
0.2625,-0.6352984359826496,0.2147205256680312,-0.2633984045653577,0.3489292876313326,-0.0304495369831539,0.0029175803848789,0.0169518305558524,-0.0089814137639809,0.0677297110186356,0.9975198736932108,0.0523241595872336,-0.1617346209701395,11.241383664096553,0.0589755960001531,0.298732105460757,0.9813623610558804,-3.979923872238595,1.3025623659206367,0.404346504260993,1205.647184439744,1214.3894528642722,1218.194548727272,1218.6526480932337,-478.70382145069885,-715.1509018449353,-73.50725762253198,422.3684599282929,163.64826706377536
0.265,0.3924625561097483,0.2600588684159773,0.0387881272896384,0.3501992701631089,-0.0304494209646955,0.001833572272603,0.01740764399932,-0.008985267485323,0.0677575912547109,0.9975103679387186,0.0510186898104281,-0.1597559794585352,11.247219858137203,0.058680039022952,0.2985885988014991,0.9847718948571595,-3.979910611366048,1.3032357895177655,0.4068233427248867,1205.2089694840147,1213.4477618968283,1217.70729458875,1219.294413204285,89.76402023045003,-93.95871646347578,-317.66755109442755,117.23254805506248,163.6426539866438
0.2675,1.2186743697485696,0.341841217274247,0.3462148243089462,0.356857437268019,-0.0292745237648371,0.0022280473350703,0.0178684040930674,-0.0089834292399845,0.067790332517167,0.9975003196800116,0.0495186182122781,-0.1571031708197278,11.251840190056354,0.0583563845416808,0.2984428216796486,0.9882013959495286,-3.979899467376288,1.3039070990573223,0.4093102072499256,1206.0960045408963,1213.9196592819549,1216.6062109718,1219.2388108335088,556.9749576941825,397.93846371717297,-520.3235340452916,-121.30357435471512,163.63722241555647
0.27,1.7667962580712284,0.4169060792974866,0.6173256640523173,0.3662893241495841,-0.0271692002093242,0.0038762861434791,0.018331375306344,-0.0089776743982918,0.0678255106253573,0.9974898969510952,0.0479147869063488,-0.1538591771585353,11.255246714053452,0.0580077985362469,0.2982914736499871,0.9916476398170588,-3.979890139762192,1.3045759958952803,0.4118075470394981,1207.9938442724856,1215.437454215414,1215.1056769185236,1218.6878953325115,950.8038679462509,790.714007096448,-650.4434477442368,-287.4710969232636,163.6319432673745
0.2725,1.92565810325225,0.4519118095473755,0.798786330346736,0.375954406371013,-0.0247173989521619,0.0067827394076104,0.0187931559970132,-0.0089660519296959,0.0678593422403015,0.9974793854857872,0.0462139053867538,-0.1501226808961795,11.257456171219223,0.0576300520456269,0.2981307345402647,0.995107267012915,-3.9798827106526407,1.305241416885752,0.4143157076677125,1210.8500238806275,1217.873229317437,1213.3539937330788,1217.8014553488927,1381.854660097632,1171.815832024048,-760.1807343714873,-377.54898487673887,163.62685034991475
0.275,1.7049979003967413,0.4324385069958312,0.8714416530258756,0.3851993006681057,-0.0222809606055344,0.0111125335029348,0.0192479957879606,-0.0089469678138215,0.0678874264232851,0.997469127726091,0.0444252461845693,-0.1460515151020046,11.258500362069228,0.0572196051432478,0.2979522951902185,0.9985777053399264,-3.9798779637755057,1.3059016243656971,0.4168351587893049,1214.9031175729735,1221.2965333755344,1211.304773246666,1216.8001504081278,1507.4363432460343,1258.0226646857216,-696.4222188173147,-290.8769048074643,163.62095761203773
0.2775,1.2670561609356514,0.3708082097297722,0.8005573190322443,0.3895936290809352,-0.0209514934560835,0.014740940797961,0.019691229096595,-0.0089235377970172,0.0679069034380607,0.997459310909497,0.0426609623586162,-0.1417911558807847,11.25842676418602,0.0567837739146655,0.2977491896459305,1.002055075621956,-3.9798770580980816,1.30655522018492,0.4193667403941059,1218.3872055968577,1224.1633426408655,1209.8718826389922,1216.347070824855,1315.581657869642,1076.1865914134423,-475.7358992507303,-42.89472205009584,163.61623208060345
0.28,0.705109577345775,0.2801824120676084,0.6077461782529497,0.3899626750079343,-0.020342166486267,0.0174451104733507,0.0201236651364762,-0.0088994702857064,0.0679182419780643,0.9974499240662628,0.0410482363357002,-0.1373686171778548,11.257299186032414,0.0563337640712444,0.2975247151532321,1.0055322612889388,-3.9798788559934506,1.3072030462738071,0.4219100223288336,1221.481025862322,1226.6774663326016,1208.9260937504123,1216.585676797877,1172.7487612905395,986.6004052968029,-282.3189409147742,290.54557696522323,163.61170230365482
0.2825,0.0366169166573198,0.1610983924380645,0.2801659651826954,0.3872069070572473,-0.0202428606664276,0.0191195364784976,0.0205468036649401,-0.0088754655560195,0.0679232337983077,0.9974408919236416,0.0396414868599661,-0.1327936612610357,11.255196669295774,0.0558752589245215,0.2972833235013113,1.0090024786246872,-3.979882249021736,1.3078461774725516,0.424463548550472,1224.2509494033104,1229.0963446673495,1208.4602879344184,1217.7997987096815,810.2036947001117,794.1968445851664,-61.95231748524741,583.9807760942216,163.60649754582207
0.285,-0.4435712952121756,0.0658117464136649,-0.030814490894762,0.3838220138046968,-0.0204941637053997,0.0191401194247799,0.0209647184268018,-0.008849543618193,0.0679232844656403,0.9974321092398752,0.0384333762782479,-0.1280161271484251,11.252212302647195,0.0554080384513906,0.297034313270387,1.0124584086262365,-3.979886972879171,1.308485574038751,0.4270264307724802,1225.5320443358223,1230.6484505555275,1208.6163321629863,1219.5055806783485,278.32981708693274,565.9918519948856,153.17743305195094,769.7930763324158,163.60235643502097
0.2875,-0.8104799757681836,-0.0187517935796514,-0.3311385884556716,0.3803885183263754,-0.0208338778511794,0.0178112153389392,0.0213830233344896,-0.0088224073905133,0.067920655083086,0.9974233339802148,0.0374731413538978,-0.122955968442382,11.248451008040059,0.0549372642488697,0.2967888404154614,1.0158925589716103,-3.9798930832373194,1.3091224698890198,0.4295981557975604,1225.642598488745,1231.926303927324,1209.226175099678,1221.6487640913435,-136.45409073960903,510.0840143421517,292.4548159039235,868.448749381159,163.5984237230963
0.2899999999999999,-1.0900551106565877,-0.0954496004708952,-0.5923369096734704,0.3771782573997427,-0.0211164391775376,0.0155309089152984,0.0218056959524326,-0.0087937730828509,0.0679172288386523,0.9974143754207128,0.0367803715547461,-0.1175680474191268,11.244027446998661,0.0544648930677979,0.296554161993362,1.019299456595978,-3.9799000997133303,1.309757707307742,0.4321790008503628,1224.8497738821245,1233.198870627238,1210.0786062425059,1223.8478244252542,-488.37109489291424,560.1069291277838,363.5627095264263,813.9326093725314,163.59466735203873
0.2924999999999999,-1.2942854454185289,-0.1680574724207107,-0.7856419119972035,0.3744389513720591,-0.0213738929695587,0.012578541298957,0.0222362096609961,-0.0087625379799444,0.0679125543256741,0.9974052071840857,0.0363520869850982,-0.1118162570003005,11.23906380384091,0.053989065005529,0.2963362162709277,1.0226749425981283,-3.979907068097485,1.310391605922954,0.4347686342680253,1223.2007430142803,1234.726838572963,1211.0439886473102,1225.718427138206,-838.1299110960746,776.358313187574,414.053069617557,665.1131307557984,163.5911272629753
0.2949999999999999,-1.4974270495892834,-0.2580676590315548,-0.9368907978299774,0.3717554525025813,-0.0219172988278357,0.009114228184287,0.0226745984675407,-0.0087297418386504,0.0679041604652105,0.997395987930704,0.0362249354312301,-0.105742952693659,11.233687082460124,0.0535100800503954,0.2961333941189033,1.0260177052759452,-3.9799135812157735,1.3110242921309334,0.4373672295413185,1220.659124326644,1237.080662193176,1212.1488715905937,1227.1733900790332,-956.3929793073831,957.0097980610618,384.495434068867,372.07432062218646,163.58713292002068
0.2974999999999999,-1.655719074125097,-0.3401656293134924,-1.0089728048468458,0.3697048243686247,-0.0227649277216121,0.006613444619449,0.0231180947254388,-0.0086973568750173,0.0678918576958443,0.9973867690544636,0.036446987611678,-0.0994513176061779,11.228026876523808,0.0530306290838772,0.295937806793107,1.0293289379614543,-3.9799192795121665,1.3116554323819742,0.4399742358301659,1218.4187781177436,1239.5118875632684,1212.9664658176544,1227.578798741317,-844.6788994835052,1045.8645750410133,314.2300632277508,5.396664370391585,163.58401779323208
0.2999999999999999,-1.8071531232187852,-0.4359604048644999,-1.0492935715256348,0.3672086797223108,-0.0240122580449762,0.0044200838237152,0.0235675607192308,-0.0086641679350144,0.0678771753075279,0.997377426771792,0.0369957213064556,-0.0929548051130359,11.222213313348952,0.0525481002860325,0.2957493584046972,1.0326087166028233,-3.9799241053687666,1.3122846091127507,0.4425894118911348,1216.4357298292266,1242.3099850683811,1213.7200219067324,1227.2003734008852,-745.7983713614333,1257.6287461934487,349.23613974365225,-279.93235228723256,163.58112587245012
0.3024999999999999,-1.9503634987863627,-0.5788930032552942,-1.0880333196840355,0.3629430781795859,-0.0256295477868308,0.0021457585368955,0.0240227632860236,-0.0086303493952228,0.0678605581374904,0.9973679258963696,0.0378747041583457,-0.0862908073865394,11.216374245913991,0.0520621088160331,0.2955658920983892,1.0358584483814175,-3.979928684210988,1.3129111942364295,0.4452127972955213,1214.6897862609364,1245.8000312942356,1214.7126465163728,1226.1791369798807,-505.8446050537436,1252.4099458253193,406.7051922027073,-395.0679504768683,163.57791447896503
0.3049999999999999,-1.9966262998482112,-0.733442304628774,-1.1253414838887115,0.357756444126337,-0.0269213815059633,0.0004571994444512,0.0244794916273378,-0.0085999004628894,0.067843093419797,0.9973582503345648,0.0391622245462999,-0.0795889759658423,11.21063307964902,0.0515804140895627,0.295376812406478,1.0390823533091567,-3.9799335401610607,1.3135347615950723,0.4478449654931775,1213.9065068039579,1248.5720347975075,1215.753547867746,1225.2250336485008,-164.95500325977432,1031.718064630967,483.0737962654434,-309.5826037584172,163.57545405703567
0.3074999999999999,-1.9142338333069844,-0.9382746981590234,-1.169713152802338,0.3506820264785883,-0.028229320911421,-0.0014066372724872,0.0249319733377579,-0.0085777930882771,0.0678244185295459,0.9973485149790444,0.0409514313000035,-0.0730137650601706,11.205107158548936,0.0511124155064939,0.295168634029837,1.0422861810084572,-3.979938898614318,1.3141548213368008,0.450485473155153,1213.8650112446376,1250.9586216173905,1217.1280154977,1224.6312239610888,96.82613504073734,872.0796733630314,604.581231840711,-122.00963865293475,163.57321679590717
0.3099999999999999,-1.702446485033618,-1.189184190663967,-1.2095970504675215,0.3428201892113981,-0.0297975415914048,-0.0037640623844784,0.0253767928892831,-0.0085672206135988,0.0678051524957826,0.9973387294176917,0.0432926627738698,-0.0666731169551841,11.199906198846604,0.0506653511187375,0.2949333228745033,1.0454750063305989,-3.979944841853311,1.3147712057665808,0.4531331292913089,1214.3906374791616,1252.932433164323,1218.7764540269495,1224.614985455236,321.9789795198264,694.1678151903028,700.3170865567421,163.81425894887784,163.57116363580744
0.3125,-1.3521327876849587,-1.488438757235609,-1.2212340177172638,0.3359441134452859,-0.0321806867496875,-0.0069664030078913,0.0258134053585064,-0.0085680591845352,0.067787401238292,0.9973287629702656,0.0461587687314807,-0.0606057960539912,11.195130952302636,0.0502413884774112,0.2946696090855927,1.0486528756718496,-3.9799514049451257,1.3153837242351187,0.4557864789907597,1215.4749061422367,1254.429460693342,1220.6296009304835,1225.4502952558332,563.8863588375892,579.4199190851481,807.290852856385,546.8025563310671,163.56933146921327
0.315,-0.8604243145058756,-1.876789569650076,-1.1721997366535406,0.3308667176123348,-0.0366051746280973,-0.0114974644990188,0.0262434284655464,-0.0085787187707123,0.0677733459565886,0.997318441387559,0.0494852989252176,-0.0548014844698911,11.190872179237253,0.0498405992383685,0.2943813871380638,1.0518228031463643,-3.9799588679751543,1.315992482012469,0.4584447632383253,1217.2100692733495,1255.8295327597486,1222.8129082912315,1227.3489982368915,672.7303647277489,475.112659065962,747.8861690293335,794.9217491861866,163.5673876330422
0.3175,-0.4903552705792456,-2.197037955211357,-1.0653098100404064,0.3293226721697297,-0.0417526848477259,-0.0150994089707992,0.0266675689608386,-0.0086002545084622,0.0677653617512233,0.9973075813308796,0.0532567391549239,-0.0492766774474125,11.18721010455858,0.0494692625396644,0.2940706413883836,1.0549878967630493,-3.9799681732088135,1.3165976514394089,0.461108518377153,1218.8385579658755,1256.8050239886716,1224.3690317756304,1229.424904001764,641.861365186241,370.2718510276096,521.9267172662961,844.9314640638468,163.56598000415184
0.32,-0.2918644992444676,-2.480594561145848,-0.8892026879073159,0.330236094010318,-0.0479631213039075,-0.0177985593295567,0.0270851555927346,-0.0086344835622178,0.0677634052824648,0.997296196136164,0.0574644166095075,-0.0440833857502344,11.184214556000452,0.0491343973626927,0.2937368616618362,1.0581512956092152,-3.9799797085376425,1.3171991437759392,0.4637792883042458,1220.4193760992807,1257.6808920148867,1225.4225418775627,1231.5736555572107,627.268847209188,350.9227884230765,320.3049669821209,855.6753130997087,163.56479315225445
0.3225,-0.3824152051397368,-2.7494477088869806,-0.6106477647639519,0.3342979779701156,-0.0559629168212233,-0.0198960875409673,0.0274941581834279,-0.008682967230509,0.0677653110386312,0.997284483961954,0.06208341100742,-0.0393075635198365,11.181945317271367,0.0488416175458398,0.2933771434345959,1.0613159011373787,-3.9799934770978695,1.3177966978336848,0.4664589032820351,1221.9749022019212,1258.5596379307872,1225.970556610541,1233.7032805672627,476.2114358243703,259.2518389797985,84.57644662271369,644.6828743083637,163.56362545088
0.325,-0.7845556281011772,-2.899860977170137,-0.3340628485649329,0.3394367578755774,-0.0627476618584376,-0.0208756056229704,0.0278921667712125,-0.0087463478181494,0.0677694786122429,0.9972726245521728,0.0670581289305086,-0.035046074804141,11.180452468401656,0.0485950748444323,0.2929881014304602,1.064483750332792,-3.9800087729212015,1.3183900756002445,0.4691483352312122,1222.8004332784024,1258.9771512097857,1225.8454241106765,1234.7970699287523,204.7002022817649,37.53382033250997,-140.57008050622233,259.6211810930524,163.5628675499344
0.3275,-1.498881220240811,-2.9608724271654916,-0.0230084135509395,0.3437456425837657,-0.0696330487751211,-0.0213189936190773,0.0282764819002666,-0.0088225681025348,0.0677743065302217,0.9972608298235348,0.0722637765830966,-0.031402001665497,11.179776835094774,0.0483931440391291,0.2925663194171496,1.0676562172305508,-3.9800258249716896,1.3189789456270042,0.4718490919748341,1222.9984032133302,1258.7473070324495,1225.26770620801,1235.001386472728,-25.67764413156508,-252.6746974025625,-268.3341586655385,-60.41374169317345,163.56233523296672
0.33,-2.3665979952349017,-2.9375752549709966,0.3089905910697676,0.3434554598614235,-0.0769358624161831,-0.0214153036874887,0.0286453338662319,-0.0089130738439067,0.0677782766533153,0.9972492491852436,0.077647807598843,-0.028466339973498,11.179949144195644,0.048241754208961,0.2921099572110472,1.0708332929844355,-3.980044836949305,1.3195625753519706,0.4745620649364892,1222.6720450577448,1257.7137777227729,1224.5037533173488,1234.4950012202867,-229.07157428849112,-656.6529461571001,-297.4492486253891,-332.01174840287393,163.5619917574261
0.3325,-3.207207531891653,-2.801218332083124,0.6536684267623161,0.3340477947244865,-0.0843135655581024,-0.020717314056251,0.0289984943909221,-0.0090242387857296,0.0677806066030937,0.9972378930835216,0.0832641843630822,-0.026305516153264,11.18098905299349,0.0481578222891438,0.291619684038895,1.0740136851044428,-3.9800660123370175,1.3201400765168767,0.4772873164895219,1221.8530453418875,1255.4640423016642,1223.7804599648828,1233.3413277307136,-406.6080923244041,-1288.67836577915,-247.89977418326973,-576.4372719761008,163.56187748790404
0.335,-3.903888420454865,-2.499903176419563,1.0569127849285445,0.3156186552013259,-0.0922667705907522,-0.0184077966357598,0.0293406049716522,-0.0091577800390531,0.0677816167222333,0.9972265961843652,0.0890669888060399,-0.024871120379834,11.182904815398404,0.0481490753312548,0.2911070241414758,1.07719402384885,-3.980089326647658,1.3207106677315448,0.4800239649477628,1220.6390045961227,1251.2703858938771,1223.2642544464325,1231.612814860406,-421.3368901648205,-1755.311084150979,-101.92081866575782,-628.0436851431654,163.5620059974621
0.3375,-4.087602243478193,-2.1343815883208377,1.36181208281699,0.299362918533525,-0.0981743979092663,-0.0153576558502668,0.0296755278048998,-0.0093069090130098,0.0677834522578111,0.9972151656486556,0.0948185223776149,-0.0241180935734115,11.185693479129636,0.0482048364748123,0.2905825005194376,1.0803729796536123,-3.98011397575586,1.3212749372699732,0.4827706360644818,1219.7463608910637,1246.687486880909,1223.2708558715542,1230.2011093049975,-258.97430842210247,-1970.0551830067504,99.64890636106239,-494.4746777059204,163.56233398347032
0.34,-3.811434723153992,-1.655323731371442,1.6082034681372543,0.2853222084732487,-0.1034840733182025,-0.0114185005186606,0.0300093482228135,-0.0094600522112348,0.0677883369765269,0.9972033797177028,0.1001809829880036,-0.0239410052070264,11.189338684009819,0.048303136215017,0.2900613083442784,1.0835496987228852,-3.98013959219724,1.3218335552950775,0.4855247986482297,1219.3441330540122,1241.4201099788431,1223.7624989782375,1229.1404414718763,0.9172345286970076,-2330.25927872736,298.4750178474312,-337.52231334497054,163.56288958204507
0.3425,-3.013372850856479,-0.967462515154799,1.8116227094798527,0.2717282909229544,-0.1085163065244943,-0.0059925913256055,0.0303467172769145,-0.0096070817727465,0.0677986141152818,0.9971910372914252,0.1048534993233649,-0.0242622455150151,11.193808484003188,0.0484235129078008,0.2895541921013214,1.0867257098022127,-3.980166522864399,1.3223876260056175,0.4882844967032006,1219.7509470637071,1235.0361904872725,1224.7632309607911,1228.5134977382727,322.1462435521059,-2241.4912461218573,394.9392915863424,-109.31145430972708,163.56381609612964
0.345,-2.061623260118284,-0.3266480104873761,1.891864424124721,0.2632825828213957,-0.11087822878041,-0.0011619438746724,0.0306897507312999,-0.0097437632993634,0.0678156027948914,0.9971780258145312,0.1086743717267487,-0.0250604473748864,11.19905279868992,0.0485559046599164,0.2890641960028974,1.0899050799516699,-3.980195131033175,1.3229380780954891,0.4910485050622757,1220.9548642717727,1230.212653748234,1225.7371954361695,1228.593884200328,660.4612040481692,-1720.9224000762772,363.05911685940333,145.024233244976,163.56480132138324
0.3475,-0.9784868547327754,0.3377736547385345,1.8717294053874944,0.2593830854922005,-0.1105508967907111,0.0040451200376091,0.0310404259231236,-0.009866182163848,0.0678395933682887,0.9971643046579713,0.1115044914189716,-0.0263054962891936,11.205002408000675,0.0486887396152162,0.2885925620796335,1.0930928464737888,-3.9802254864662334,1.323485631275647,0.4938170121681988,1223.053253083948,1226.431578486891,1226.5785265450884,1229.2386189044976,965.4177749914643,-1293.7455590875277,279.33447616878743,323.51144416197684,163.56600272134528
0.35,0.0715692896285467,0.9832107513411908,1.7693712213852713,0.2604993360743883,-0.1079718674370825,0.0093706647638486,0.0313976477654314,-0.0099698362726235,0.0678690622226701,0.9971500570143492,0.1132070363893793,-0.028020096227661,11.2115685480646,0.0488059082792219,0.2881325463178643,1.0962962251915445,-3.980257293079632,1.3240310927372427,0.4965918759116323,1225.78195314673,1223.7439259527964,1227.1338678170134,1230.2114414211378,1193.7825367993023,-802.095275526707,131.0132946646731,418.95432751071405,163.56737903568435
0.3524999999999999,0.92556570760198,1.5691192248584063,1.5816070835598524,0.2664307996164565,-0.1035595283251779,0.0139769645147448,0.0317603899327428,-0.010054301785814,0.0679030172951215,0.9971353877955668,0.1137589785697486,-0.0302142935491257,11.218641241556355,0.0488985336465589,0.2876755226194377,1.0995220672722035,-3.9802893235587993,1.3245753944146108,0.4993752776467574,1229.0221657679444,1222.4211021092576,1227.2335930184115,1231.3333905420511,1459.9338916941783,-307.10582903989547,-56.56060417068205,459.7440606669399,163.5689610709393
0.3549999999999999,1.5934651976083432,2.179669468547051,1.2901742379497358,0.2754994379157618,-0.0972753691607884,0.0179624014291069,0.0321261730442433,-0.0101188785858469,0.0679391227684835,0.9971205440778333,0.113155611098949,-0.032911572995821,11.226090707978733,0.0489542206073799,0.2872087362498791,1.1027778348702848,-3.9803196390733295,1.3251196209817688,0.5021680141058626,1233.081622605201,1222.2083968075967,1226.85106479616,1232.5101617244725,1451.178021401891,94.50015091051672,-197.92201492386977,360.6744280967629,163.57109126427963
0.3574999999999999,1.8224811516586932,2.60848083703664,1.0193826412800167,0.2827549389757751,-0.091531877156791,0.0200662575549307,0.0324908122800756,-0.0101620143459154,0.0679768223486182,0.9971057166773476,0.1113975070745775,-0.036152866705627,11.233768677853535,0.048957520019321,0.2867150172246376,1.106071782999162,-3.980346105695427,1.3256644593094689,0.5049696843836283,1236.278055874954,1222.8936028638102,1226.2439829437924,1233.1367626825352,1171.4187100738388,374.3053473945562,-255.5222112603585,146.2188793310359,163.5730555965716
0.3599999999999999,1.740310121627617,2.957657272740505,0.7449999575199941,0.2886980122564609,-0.0851240677279904,0.0213157374803589,0.0328509951947049,-0.0101815786039655,0.0680153831771471,0.9970910890116934,0.108502504867913,-0.0399397072655756,11.241509929844575,0.0488904148289028,0.2861790874471299,1.1094114686135437,-3.980366795778348,1.3262104903720973,0.5077781220349928,1238.93871615557,1224.0799235445695,1225.5734537398582,1233.2412561211277,996.4105568974893,560.3668316307899,-255.60412164290915,-78.80525038190163,163.57521212956073
0.3624999999999999,1.3669113982627403,3.286264982275036,0.424919828532186,0.2937981233359659,-0.0763590487790056,0.0223299404570282,0.0332026171848662,-0.0101748099060735,0.068052414453315,0.9970769921460738,0.1045022839998865,-0.0442729802544783,11.249135213188026,0.0487320394483735,0.2855846111146389,1.112804525383453,-3.9803806657231022,1.3267578302525256,0.5105913669172735,1241.2601086594411,1225.695437021964,1224.9659623355778,1232.7427364306257,692.6239429609262,589.9385405979496,-164.81413895457976,-269.9518711733615,163.5780180316992
0.3649999999999999,0.903883277497276,3.482661893310976,0.1656841952776941,0.2960643359654652,-0.0684049603210425,0.0230085310075593,0.0335449732590518,-0.0101411126963923,0.0680857593060227,0.9970636089066762,0.0995082258238649,-0.0490653434000354,11.256453908339484,0.0484675823107942,0.28492356599813,1.116255578151525,-3.9803878316735406,1.3273060016327392,0.5134097387213742,1242.4018358703747,1227.0296162475595,1224.749383045085,1231.8914967652609,299.4325518115144,518.7455213822427,-23.70723355825246,-395.19439414780175,163.58053538185723
0.3674999999999999,0.3742746904088473,3.5934885015312568,-0.091088368561367,0.2956646776364045,-0.060482317292795,0.0235104941658346,0.0338787342818308,-0.0100833297982278,0.0681124744010696,0.9970510973661856,0.093733867823814,-0.0541919003468139,11.263268640510912,0.0480915692955067,0.2841922845772388,1.1197667314301107,-3.980389556067891,1.3278534964953712,0.5162346492304964,1242.7572714184987,1228.2891646288751,1224.8474261677864,1230.7667644598866,28.07229647678466,498.5648453213794,73.13166336161876,-464.32007650214433,163.58323597849355
0.3699999999999999,-0.1569762926540979,3.625371848165592,-0.3477273443115185,0.2930673497942054,-0.0523396925604313,0.0236370743120828,0.0342064283503175,-0.0100077146906107,0.0681298717743756,0.9970395032748064,0.0874891787436214,-0.0594832423438883,11.269380654623484,0.0476095577872752,0.283392973038909,1.1233367880048584,-3.98038834225188,1.328398064145538,0.5190675214656388,1242.5421973527586,1229.5224404741664,1225.1150413618934,1229.56989638275,-197.7241991716708,505.5223246985856,109.73620146014572,-463.5196257030653,163.5860867930589
0.3724999999999999,-0.6623618375404092,3.5447545079227414,-0.5984248021752232,0.2893907629665891,-0.0432552787076698,0.0230292071032221,0.034528633441351,-0.0099232048910801,0.0681359137891838,0.9970288687675068,0.0811515151925013,-0.0648144203238081,11.274596061349595,0.0470369835566339,0.282525555184627,1.1269631852117536,-3.980387098291647,1.3289373382846372,0.5219097146846307,1241.7686504226403,1230.8167762523683,1225.3961071750873,1228.449166331371,-431.286655571193,606.7904387753056,75.16875063033686,-448.5930243937669,163.58911650842657
0.375,-1.2572999426429643,3.296987212560391,-0.873397481934277,0.2862219087086581,-0.0318156818674106,0.0212574396599935,0.0348469788890009,-0.009838034698773,0.0681325775895762,0.997018933120982,0.0750840097070051,-0.0700364106074648,11.278731972614308,0.0463939539900389,0.2815946947614684,1.1306403886111815,-3.980388926232683,1.3294682672267968,0.5247627839384322,1240.3857640749027,1232.5563926680427,1225.490885115045,1227.3269312607813,-551.9142138846287,677.1122796458252,-32.027048289819476,-368.1245883723019,163.59295568334036
0.3775,-1.7781722307574164,2.9625463561010235,-1.0610998091352035,0.2849354100516431,-0.0226474476293391,0.0188056658416838,0.0351618916065979,-0.0097564714706117,0.0681243072672561,0.997009346899365,0.069551420320098,-0.0750263611249389,11.281622557760263,0.0456964758020479,0.2806050719352764,1.1343615166725864,-3.980396064678223,1.3299885012964905,0.5276271665060784,1239.0090793532174,1234.2023376505974,1225.2359719336382,1226.6085433895098,-559.1029816749592,691.362662517394,-177.06336319342864,-249.54458341303484,163.59632186548356
0.38,-2.3500269525301096,2.5180042258171937,-1.1809744343470487,0.283395137931346,-0.0146064944235568,0.0153680737497324,0.0354751052907845,-0.0096866574988488,0.0681149264574189,0.9969997147313698,0.064894738968876,-0.0796475814100648,11.283123045671212,0.0449725268910155,0.279565425288779,1.1381168180142844,-3.980410251279289,1.3304963011914999,0.5305031161977052,1237.5902491665279,1236.01320598063,1224.605568299078,1226.079208343716,-594.925804820104,802.1685563158819,-335.02907853785445,-211.2678083411081,163.59985762387998
0.3825,-3.063742890283477,1.917348865252616,-1.2272380246061387,0.2784831297627997,-0.007112067840943,0.0105322956302155,0.0357881812959598,-0.0096276500884408,0.0681099322300049,0.9969896152908004,0.0612284767791606,-0.0837659758390426,11.283115689240615,0.0442324085164573,0.2784862939553066,1.141895587300635,-3.9804311468320073,1.3309922874703315,0.5333907951680714,1236.034450329117,1238.2131804321768,1223.5608265409487,1225.5522043478043,-525.5745554358778,776.0857446872698,-392.27584415420966,-196.74414222322395,163.60429189852763
0.385,-3.616917151429481,1.4222948092943248,-1.1838616005257367,0.2708377944687284,-0.0031852937290601,0.0066515644143113,0.0361009934979353,-0.0095687164993338,0.068114311402482,0.996978808885528,0.0584180935095253,-0.0872860038446102,11.281513095345897,0.0434644873556023,0.2773759571768906,1.1456874156443615,-3.980457164346457,1.3314790172829138,0.5362899305078597,1234.9623763893485,1239.8936347040662,1222.644189078307,1225.0954876326,-370.46298120285394,595.6656663465759,-323.66516700517394,-214.11979615163523,163.60814284521862
0.3875,-4.027387271793337,1.0131669272590949,-1.072681455336982,0.2603154684580943,-0.0016412661308743,0.0037580406827823,0.0364116589191911,-0.0095030196783063,0.0681287823780867,0.9969673630097852,0.0563865020644604,-0.090175552792166,11.278259408005985,0.042663878370718,0.2762376237493653,1.1494818910587448,-3.9804859507582906,1.331959069976618,0.5392003675555923,1234.1821354231026,1241.1915087639095,1221.942500705923,1224.481605367046,-264.30471645116967,427.3290147356416,-211.9160100202405,-290.27924212432447,163.61215052914906
0.39,-4.250388793602784,0.7270968328690643,-0.926194531139896,0.248234921748965,-0.0016732848038538,0.0017741658200121,0.0367086881047418,-0.0094316681719816,0.0681479312503416,0.9969560149408964,0.0551916249936152,-0.0926498949922109,11.27333158427834,0.0418395051854232,0.27505039728734,1.153273108678594,-3.9805157181362576,1.3324350007351449,0.5421222550682424,1233.6408528070926,1242.0302797777445,1221.5846090282057,1223.6440914219784,-169.70194860055003,204.31496537230467,-38.051430328914606,-402.6610060527215,163.6162843833633
0.3925,-4.19080638085937,0.6256215117963266,-0.7607752203709259,0.2348805377699709,-0.002886005904962,0.0005107252283567,0.0369852009522986,-0.0093605061461723,0.0681676433072383,0.9969451805939396,0.0549680294868658,-0.0948449562684593,11.266740036568047,0.0410125428665402,0.2738018459075072,1.157052169998944,-3.980546020280767,1.3329081630294952,0.5450557754947645,1233.3336256800999,1242.2130835907712,1221.7522435542785,1222.4683003367825,-105.955326340836,-72.69247992171577,194.25615161367188,-593.8334940767612,163.620566201793
0.395,-3.774729111254623,0.7145877421516719,-0.5590795048612419,0.2185521855723291,-0.0044718513490331,-0.0009287962922293,0.0372402889293759,-0.0093003922254038,0.0681823416731345,0.996935116884446,0.0559363258682326,-0.0967870851789812,11.258527736459444,0.0402162662303434,0.2724917394274479,1.1608068336845356,-3.9805780513377207,1.333377212703537,0.5480018680405008,1233.1110761753885,1241.6668173781359,1222.555889786274,1220.6749239515943,-82.10511341162594,-309.1448995074185,371.7424349471909,-702.9122843689032,163.6258709451293
0.3975,-3.179767156700766,0.9218625949663624,-0.3939801499720221,0.2063947666474371,-0.0046882081380054,-0.0024153551539315,0.0374777150330868,-0.0092614498071355,0.0681880111925386,0.9969258960152392,0.0582694814811948,-0.0984124119923386,11.2487683844052,0.0394840121426185,0.2711303377147876,1.1645229820333318,-3.980614671084112,1.3338405799797268,0.5509619192074238,1232.9231001130415,1240.667359093234,1223.6109557290144,1218.953738914938,-111.33257927540387,-472.5267045549113,450.39879333994537,-694.8311653726245,163.6304276969437
0.4,-2.4390133478042144,1.1745076151454032,-0.238059120805608,0.1988885625052753,-0.0020258349786176,-0.0035109593298713,0.0377046710124128,-0.0092450031082678,0.0681848392796772,0.9969172658250768,0.0619094326538431,-0.0995812747480445,11.23756356926026,0.0388309085862599,0.2697370732780351,1.1681862666620917,-3.980657645114052,1.3342968910452773,0.553936073735155,1232.5544132790114,1239.304183855361,1224.8078837529736,1217.2007681247314,-248.09777312157144,-631.2216513080779,479.5246866924568,-717.9242175095617,163.63512322074277
0.4025,-1.5591561347313805,1.4019963294542264,-0.0754603302182291,0.1969926996344603,0.0049914827489095,-0.0033899311187054,0.0379328490973425,-0.0092475064789447,0.0681783478429928,0.996908473040681,0.0666594784358475,-0.10005943780564,11.225037987520947,0.0382627899236026,0.2683425961021289,1.1717820918105073,-3.98070695637422,1.3347453480642568,0.556922740265228,1231.682611247434,1237.5112508366935,1226.0085791624767,1215.36411782739,-419.74217532592735,-652.4852448447285,339.52162388864025,-585.724321815905,163.64091622389805
0.405,-0.9457612747348848,1.4560196311626656,0.0304662300097135,0.1988141436323461,0.0121901941342775,-0.0025735752500666,0.0381720904830628,-0.0092618422558235,0.0681753053939442,0.9968987788186988,0.0722119142411308,-0.0996625118782553,11.21133391894012,0.0377753781348553,0.2669739413521209,1.1752996990937692,-3.9807612192274,1.335185527862499,0.5599194304770533,1230.4557024023818,1236.0417576311377,1226.5054918724168,1214.272146515652,-615.8142857235811,-561.234492330595,32.927177462761364,-307.1205583477874,163.64587479579947
0.4075,-0.5216716956448559,1.33865817517168,0.1062719808156189,0.2005293555068353,0.0182431109938532,-0.0020006620094705,0.0384274606151585,-0.0092781001092307,0.0681768190298483,0.9968880425625094,0.0781730184414866,-0.0983219033675623,11.196605212982016,0.0373517414158326,0.2656475529854275,1.178734072471884,-3.980817097020656,1.3356189347811407,0.5629224828716453,1228.603539818816,1234.7050783750408,1226.1732150497903,1213.8285150356512,-958.8562401991559,-550.4413452804324,-372.9490963957229,-25.988747966221105,163.65096900885362
0.41,-0.2193569224457188,1.0329757863195157,0.1763950956550411,0.2010690501078193,0.0231558682454412,-0.0017931294265316,0.0386930117949097,-0.0092887337033387,0.068177214169709,0.9968769956163384,0.0841763095176528,-0.0962292754312112,11.181010488062253,0.0369726864278622,0.264353361767903,1.1820889469741682,-3.9808716715830506,1.3360480239155874,0.5659292191110987,1225.661421201386,1233.2895509047355,1224.6407463904384,1214.1422027758208,-1178.8138141302159,-489.1369956209924,-742.4500926766078,251.26882306990387,163.6572390824498
0.4125,-0.0970417284733231,0.6932390567675241,0.2292664249112246,0.2003576782372413,0.0251703194170251,-0.0018098695599749,0.0389603840723955,-0.0092948698756328,0.0681684636577893,0.9968665633243224,0.0900387498289779,-0.0936496490988346,11.164706304539068,0.036635353638184,0.2630734748122116,1.1853713475003846,-3.9809219510374176,1.3364740362528809,0.5689378087333741,1222.709470748165,1232.2593933969358,1222.4609645864075,1215.0848591510007,-1239.7866151242383,-384.2770122726957,-1007.2899417099042,491.53992683627575,163.66259521624545
0.415,-0.0505037345217685,0.3370719059669692,0.2847623887016264,0.1995122887181896,0.0250297062234474,-0.0016379986708864,0.0392223236961953,-0.009308629972283,0.0681468805422765,0.9968572594699958,0.0958171284452772,-0.0908430579387075,11.14784093157734,0.0363630569486859,0.2617898843496823,1.1885887707283331,-3.980967024218649,1.3368963721464235,0.5719488118369476,1219.4624881257648,1231.368165843372,1219.6042966818889,1216.599902410002,-1302.9867333475656,-334.0511305969392,-1191.836798394491,667.2647500927792,163.6680874617374
0.4174999999999999,-0.0290448488908798,0.0127169034086197,0.3426830472277961,0.198394694366972,0.0234328906378936,-0.0012413563072964,0.0394711680713096,-0.0093377737696818,0.0681138639940608,0.996849346292176,0.1014687617368805,-0.0880729414949521,11.130551792389603,0.0361695938589161,0.2604835348049099,1.191749655366101,-3.9810080403375023,1.3373140171108184,0.5749645176907612,1216.1945370814271,1230.5891377439511,1216.501780594435,1218.4211829014644,-1253.5000435795737,-282.4229019403476,-1212.733465489749,750.6373381750639,163.6736924404756
0.4199999999999999,-0.005709738551977,-0.2443527275936276,0.3976345189552423,0.1968108684233562,0.0208862608507048,-0.0006559167820608,0.0397024266092073,-0.0093770534682875,0.0680740299930483,0.9968429048688328,0.1066736495491198,-0.0855117937289601,11.112963468094764,0.0360387569715914,0.2591444449347165,1.194861114465448,-3.9810461619322526,1.3377267176724708,0.5779867500192692,1213.194987907867,1229.9560513336703,1213.54062935444,1220.3530891008775,-1188.5452932531268,-242.17763212945988,-1169.782719261956,804.3659236563592,163.67943293193323
0.4224999999999999,0.0398671927219697,-0.4801638172686975,0.4461274134364169,0.195542804387624,0.0181659546385973,0.0003145569559719,0.0399161971278417,-0.0094180137717069,0.0680327565507372,0.9968377379076656,0.1110632154822466,-0.0832233698183198,11.095183283910035,0.0359472486286259,0.2577737154621532,1.1979275109026983,-3.9810835105807696,1.338133536336758,0.5810169852912173,1210.2518106151615,1229.3782495833038,1210.652866998125,1222.4430125197464,-931.2316289108812,-183.29850313771183,-898.8337928833507,680.2900016326925,163.68647726560354
0.4249999999999999,0.0848232883690333,-0.6457933449473539,0.4580995837401244,0.1956291451562498,0.0171950891291643,0.0014492479107072,0.040119800671134,-0.00945221962825,0.0679951545949103,0.99683297775386,0.114301871189982,-0.0811077904255813,11.077298288344828,0.0358726858559956,0.2563894813728789,1.200948963619654,-3.9811211817045895,1.3385343583482678,0.5840561296062327,1208.5388297633126,1229.0395588179815,1209.0464603900234,1223.7545391090407,-505.79426177846426,-114.12727801512108,-458.19089997776206,391.773879172251,163.69247637375483
0.4274999999999999,0.1180202233132825,-0.8234523438516658,0.4227292981560728,0.1966891203337021,0.0176238429253311,0.003002868859562,0.0403239344496902,-0.0094725323524596,0.0679653007920469,0.9968276108550512,0.1161140845551125,-0.0789879140169105,11.059373265635625,0.0357957666852067,0.2550175775124847,1.203923531063441,-3.981162311999385,1.338928222417096,0.5871046578311347,1207.7228393062692,1228.8076131932282,1208.3619124982365,1224.4018819156076,-149.8702624244741,-91.21995870627859,-118.88889835317958,105.87945702131935,163.69860770127943
0.4299999999999999,0.1299879773459811,-1.0744293713893267,0.3108837149147403,0.1980444573735716,0.017942473196036,0.0051867936277853,0.0405372811877951,-0.0094759664103644,0.0679472393999211,0.996820767212404,0.1163417597600628,-0.0767310803651254,11.041449157988731,0.0357064742829813,0.2536779786176985,1.2068501771749875,-3.981208397799288,1.3393148080429809,0.5901618489395777,1207.7894784511902,1228.5834590244503,1208.4520158982575,1224.2839363941475,182.23327947684973,-82.35774428521827,136.4611053733823,-191.9099181860473,163.70611603770607
0.4324999999999999,0.118028498269313,-1.2986658740055714,0.1593523230282923,0.1983533439635795,0.0166416928214267,0.0068192199699948,0.0407644769778525,-0.0094595947251976,0.0679444110734085,0.9968121034692002,0.1148542897534743,-0.0742855979883817,11.023543511302096,0.0355930059517848,0.2523803344138165,1.2097302119515068,-3.981258780416957,1.3396942958437217,0.5932267802140556,1208.6340057036534,1228.395824471802,1209.0442180251034,1223.4423323246774,464.28951479920175,-83.05342449152698,275.34433540586156,-468.4712027491965,163.71249710951295
0.4349999999999999,0.0919172118754786,-1.4846077980265215,-0.0366569713705706,0.1974204295586159,0.0131745852821702,0.0073576565741759,0.0410098284603159,-0.0094181205604664,0.0679573614727244,0.9968015724805094,0.1115058303206924,-0.0715929321823828,11.005650943118168,0.0354348151796521,0.251133204384532,1.212565628239896,-3.9813112003091926,1.3400680173076929,0.596298441663045,1210.1109260251862,1228.1681919019927,1209.8287375752868,1221.9415803804015,657.8370776010155,-101.72919382662248,301.35818562980575,-678.7036142459777,163.71900558917582
0.4375,0.0538890196684645,-1.588345435344234,-0.2478822110190955,0.1960955057151282,0.0083828896385542,0.0067718678290658,0.0412725498230063,-0.0093505340495822,0.0679839317181778,0.9967894608725388,0.1062765158882424,-0.0687008332841286,10.98774270003264,0.0352176604765124,0.2499312808436799,1.21536127331903,-3.9813617633173632,1.340438128213528,0.5993749722550638,1211.9231910916585,1227.887178502669,1210.5510089532524,1220.0488142534475,752.9014605692275,-129.09374234991435,242.43944932086356,-802.2005609032925,163.72561893876
0.44,-0.0189591866988013,-1.5413425126216227,-0.4501342748057849,0.1954207746515358,0.0024912610214143,0.0053549001930216,0.0415423308123516,-0.0092585818076537,0.0680189836838488,0.99677660206804,0.099233204584228,-0.0658566199887685,10.969768836478751,0.0349291557485956,0.2487448128825933,1.2181268670877092,-3.981405986373161,1.34080770204615,0.6024551702667799,1213.8754333280324,1227.5227231902431,1211.0409348218911,1217.930577575885,820.4302519943661,-182.67751802527513,151.35209292757267,-913.7999787979873,163.73235811677668
0.4425,-0.1938040380859808,-1.2775804142049936,-0.6558467162419328,0.196180024222885,-0.0050066551634662,0.0031294458946603,0.0418106339812504,-0.009149842504837,0.0680586881490021,0.9967635929950344,0.0906096173173338,-0.0632626468469146,10.951659664958964,0.0345705931794648,0.247546562288797,1.2208706922735633,-3.981441362724385,1.3411783917612772,0.6055388060606292,1216.0253423516303,1226.9737909125427,1211.3077694178903,1215.4798143594576,707.1882421219464,-220.32386278065113,51.79894208395122,-834.5540495906326,163.7405901522478
0.445,-0.4457316392399987,-0.8965582954138778,-0.784776167427969,0.1980621872564922,-0.0102153108788719,0.0010538841015426,0.0420738204583106,-0.0090340924341991,0.0681004688826236,0.9967507057418482,0.0807293760173805,-0.0610035088209858,10.933329466439607,0.0341498063449164,0.2463207127554793,1.2235976514599223,-3.981468076167296,1.341549370119537,0.6086274820180059,1217.411374538642,1226.4211038763399,1211.299929532311,1213.757807327932,422.5110225104796,-240.52041664954208,-36.25986686274697,-576.8801839165002,163.7475709478608
0.4475,-0.8183344741912335,-0.4077275353694241,-0.8632782125341899,0.1996767838153986,-0.0128668100738207,-0.001146845129194,0.0423319367336527,-0.0089194581845734,0.0681422262910097,0.996738027746404,0.0699175674057692,-0.0590690063933063,10.914680816031428,0.0336726087245053,0.2450613731072635,1.2263096098887143,-3.9814882842371135,1.3419183189515191,0.6117226360995792,1218.1378974641827,1225.7711888292947,1211.1264700835764,1212.595413439875,135.66440789254543,-308.0978694703842,-102.68127221424938,-356.0769028516912,163.75467723831795
0.45,-1.356335457927832,0.1955322497341475,-0.8981390152556198,0.1985072233303835,-0.0124138421797853,-0.0039508798583322,0.0425851307551329,-0.0088080527441358,0.0681804280519274,0.9967257804920184,0.0583976548955737,-0.0574286241320842,10.895609152171856,0.0331318780434783,0.2437651976745808,1.2290071057715592,-3.981503088538037,1.3422838270303996,0.6148237701141664,1218.0896965781048,1224.880614528988,1210.7865231712397,1211.9774228136735,-173.22139051580035,-343.2402166720746,-144.43551821191235,-99.33492167356225,163.76335021335086
0.4525,-1.8109790086494897,0.6298501494673606,-0.8800981704913786,0.1937056509296119,-0.0092929414640364,-0.00628899637671,0.0428348065623948,-0.0086992899883204,0.0682149004583458,0.99671391042706,0.0463557882750245,-0.0560132229248082,10.87600622571034,0.0325186332283114,0.2424337824907036,1.23168851658634,-3.98151508806912,1.342644799947503,0.6179312622728946,1217.2717905116035,1224.0549877459343,1210.404292492517,1212.0987388315073,-465.9402251546449,-340.4755472985923,-175.91153653320347,153.37143032775188,163.7706990608304
0.455,-2.1846479098615315,0.9190328306731036,-0.8195465614610533,0.1862139548390737,-0.0045711068277,-0.008356936790291,0.0430783510811558,-0.0086013441763103,0.0682442754625333,0.9967025188134436,0.0341779133884058,-0.0548499477089207,10.855764141590795,0.0318484076109331,0.2410590504836457,1.2343522219996867,-3.9815286422604146,1.3429987852695375,0.6210468514596895,1215.7599954523316,1223.1782367924948,1209.9069654885736,1212.7442799653122,-687.6390712557162,-349.279070170314,-219.0952035730332,309.3312995289577,163.778173846352
0.4575,-2.448264418561397,1.0637274472332379,-0.7301036551091796,0.1784150409787022,0.0003445545775523,-0.0102235096991848,0.0433081022715897,-0.008522325271147,0.0682633445271377,0.9966921636580524,0.0222499497828696,-0.054074206005378,10.834781048277515,0.0311385567669957,0.2396221228662848,1.2369974752937332,-3.981545072323896,1.343344950611824,0.6241709621262977,1213.8335951553252,1222.3085923950828,1209.3088164746518,1213.645395329152,-822.050540389909,-330.9850907109646,-257.4884353134164,367.6854170187194,163.78575281507315
0.46,-2.564635826451772,1.0460143570743272,-0.6137644366295972,0.1713897463977145,0.0044756640856717,-0.0116553376981978,0.0435190722518691,-0.0084643671615882,0.0682687368306947,0.996683213825103,0.0108286056224377,-0.0537547949709074,10.812964608569567,0.030396746975094,0.2381129110817386,1.2396210582692695,-3.981565067323309,1.343682693995618,0.6273032850606407,1211.649742750382,1221.52331133894,1208.6195233120063,1214.5827070504058,-958.2608854971562,-308.6240906583496,-304.0419740694685,352.2741109490195,163.79345680731512
0.4625,-2.546100658881198,0.8916670060369125,-0.4513894233430057,0.1639892567149584,0.0075964147509226,-0.0126403072506833,0.0437106094139475,-0.0084264032976365,0.0682607968151894,0.9966756927750682,9.516594872662973e-05,-0.0538644145227746,10.790234800935712,0.0296282463360975,0.2365335126879418,1.2422167337092107,-3.981590020881208,1.3440117575991295,0.6304429642562989,1209.0422907278391,1220.7654719417912,1207.7886066043045,1215.4067658838972,-915.5932930238115,-239.47385050078063,-285.0194323231333,215.73910898750887,163.80284492529728
0.465,-2.415006106046457,0.7051776147239431,-0.2986404931231521,0.158306697109858,0.0088236376570487,-0.0132571996453529,0.0438839065586487,-0.0084022633681857,0.0682426839393398,0.9966693843745468,-0.0098947240715895,-0.0543330748737179,10.766526634822869,0.0288297025265988,0.2348921982372069,1.2447767871567819,-3.9816211456649384,1.344331535520502,0.6335894574471836,1207.071776285263,1220.3259420864363,1207.1944261503909,1215.6614025953431,-713.9725422965505,-134.00729453328483,-196.52066172088763,-2.682339712691826,163.81078658867102
0.4675,-2.180608609662537,0.517947439670173,-0.1232452128654557,0.1534644277255144,0.0095715463501075,-0.0143100887578537,0.0440424249628658,-0.0083909388887548,0.0682159458786016,0.9966640357937188,-0.0189913501091938,-0.0550567789105456,10.74179269297697,0.0280124380953547,0.2332025342893766,1.24729178638114,-3.981659207153143,1.3446412913735006,0.6367429608756559,1205.4724280163566,1220.0954354691248,1206.8060032957,1215.3933541853337,-600.8502835218218,-58.63166254193852,-117.45429639572637,-217.3188668645705,163.8188491315968
0.47,-1.78887551579107,0.3463969400949739,0.1156977260976654,0.1498937926451909,0.0101776344791911,-0.0155478211835689,0.0441921305546753,-0.0083940321673172,0.0681853406692718,0.9966591138513932,-0.027014767156012,-0.0558883948303581,10.716005010130347,0.0271970555636522,0.2314838807426011,1.2497507954510048,-3.98170513879092,1.3449408018482887,0.6399041179750633,1204.067524867654,1220.0327837737264,1206.6071546684122,1214.5748082610205,-431.771966068754,3.7870486567498993,-43.18715124536535,-349.01141049822365,163.8286612181424
0.4725,-1.3591554805614423,0.2785401512987721,0.3288373824164042,0.1477972110399443,0.0099487677049699,-0.0158132889759969,0.0443366368332015,-0.008416150533552,0.0681533350620259,0.9966543173261329,-0.0337519312938169,-0.0567438834264505,10.689156373439037,0.0264106701179648,0.2297489239799903,1.2521439763405648,-3.981759049033784,1.3452303134962595,0.6430734504563834,1203.3135681860128,1220.1143707124083,1206.5900675394732,1213.6482971328423,-235.26727812650256,42.006210398221775,-18.668887361991416,-376.5357916727222,163.83694975183334
0.475,-0.7791479718996754,0.3127680527990788,0.5297222665184673,0.1440740806331211,0.0088683099764291,-0.0148870802020245,0.0444820153727926,-0.0084549829746313,0.068123845635806,0.9966491742846476,-0.0391653022798922,-0.0574828928917177,10.661258999216816,0.025663035243737,0.2280168135573568,1.2544609339031048,-3.9818208502482806,1.3455101307693695,0.6462507518905019,1202.8911884770212,1220.2428148257177,1206.5138102316023,1212.692129302657,-139.9551400151721,37.12393302885172,-86.81283522569166,-364.4465965121522,163.84535092437253
0.4775,-0.0369628959305825,0.4327080448696256,0.6942435958669656,0.1380623923809917,0.007632326358605,-0.0130097599876577,0.0446303882144184,-0.0085008092523721,0.068099569318987,0.9966435214802452,-0.0434073043797257,-0.0580444417413522,10.632343542044742,0.024942074121059,0.2262968817774552,1.2566940811700065,-3.981888289624016,1.3457822898281175,0.6494356105677882,1202.6137924859368,1220.2999903775528,1206.1560033633448,1211.8260641502818,-114.16541408257332,-32.24217857532527,-272.40022340770616,-323.49076727651084,163.8538425369956
0.4799999999999999,0.8983491793872259,0.627653694712575,0.7856086691242166,0.131198027224378,0.0071941775219384,-0.0101335460301944,0.0447825670321022,-0.0085415924969792,0.0680809721178258,0.9966374187360724,-0.0467030258032104,-0.0583959359330659,10.602457777443796,0.0242259043589089,0.2245940686743134,1.2588376474618888,-3.981958792259968,1.3460489960926396,0.6526271969517708,1202.3203614066083,1220.081603932841,1205.1518091145635,1211.0746754662744,-178.37967430409844,-216.57724226870636,-656.3359933984951,-340.33263713927573,163.8624390697673
0.4824999999999999,2.1106923269893927,0.8749588382737776,0.7886926897113241,0.1293381658398496,0.0094144348006158,-0.0060551433307035,0.0449430538537489,-0.0085639648122111,0.0680676090564841,0.9966308314557688,-0.0493187678555053,-0.0584260969950372,10.5716644494644,0.0234862081960529,0.2229212676500798,1.2608856761389773,-3.982028591189836,1.346312435904039,0.6558235184188592,1201.7218941144165,1219.2171041662093,1202.8743233963523,1210.1244009645854,-283.357004946947,-454.5534497548484,-1039.0764908086103,-402.9693117260191,163.87287017339216
0.4849999999999999,3.0047520091400806,1.0268628710485863,0.704905518512063,0.1376633403524284,0.0137447324527856,-0.0028305657982296,0.0451156565512306,-0.008561553766851,0.0680597901334191,0.9966236423538464,-0.0513900461298982,-0.0580475311604767,10.5400401765397,0.0227092408369714,0.2212870834879056,1.2628339764750027,-3.982096293482961,1.3465729404696292,0.6590225174460542,1200.9035763818736,1217.8088366840668,1199.9564266605207,1209.0598289076443,-403.78272522980257,-730.9581679456179,-1374.7230578549522,-542.9717754173448,163.88165391644148
0.4874999999999999,3.525258135871381,1.062619028736318,0.5591070364952032,0.1532070471649671,0.0187696697305377,-0.0007186718773765,0.0453022963215534,-0.0085270696713973,0.0680553468767487,0.996615995306504,-0.0530838663529918,-0.0572095267069177,10.507671971295084,0.0218750661218608,0.2196945586287504,1.2646805981098868,-3.9821594485452727,1.3468316734615724,0.662222688873326,1199.7029804882675,1215.5623133264812,1196.0007081070776,1207.4095420874987,-609.3142837176849,-1173.7164656028187,-1933.208104672756,-911.833513086548,163.8905257519253
0.4899999999999999,3.5287951174912076,0.9501277560943256,0.365912517035844,0.1718881737719797,0.0237924083553693,0.0001180187185879,0.0454963874977814,-0.0084634664281609,0.0680489824989703,0.996608537110436,-0.054370076971709,-0.0560505600808182,10.474656422587108,0.0209854442915868,0.2181228489655056,1.2664281261192034,-3.9822164110065126,1.3470892343887273,0.6654247280582841,1197.8570049632851,1211.9402543560527,1190.2903861371567,1204.5006613422115,-731.7873991969456,-1448.4233478019164,-2197.763582185324,-1231.8021445670172,163.90126559983108
0.4924999999999999,2.9800191099875177,0.7417430652984977,0.2300563199183297,0.1845001430008111,0.0267204949947907,-0.0003206933674772,0.0456913235402959,-0.0083838369031704,0.0680388704110783,0.9966015838996412,-0.0550169596778789,-0.0547147408733142,10.44109682347024,0.020068401149111,0.2165489630392355,1.26807944770974,-3.982269136580304,1.3473449260708479,0.6686304922936414,1196.0440434922828,1208.3201965874716,1185.0118901961507,1201.2505313646636,-765.7401611352718,-1503.653980921125,-2137.075278194923,-1447.7362501713728,163.9102877858519
0.4949999999999999,1.9175353438387504,0.4542134330489736,0.1548598009486042,0.1939793902691151,0.028208109007276,-0.0014090946262598,0.045878983830448,-0.0083023736135367,0.0680256311519053,0.9965953341176118,-0.0547808626146875,-0.0533700047499332,10.4070996792686,0.0191556902925302,0.2149460732375875,1.2696383046824151,-3.9823207156886906,1.3475970207667736,0.6718406945881956,1194.0283041576088,1204.421984451447,1179.6050097461823,1197.2619800913546,-830.3556037725223,-1540.705875143793,-2120.6239834240914,-1676.0148094449487,163.9193790210273
0.4974999999999999,0.5273323746954311,0.1374735953414779,0.1389383659968446,0.2010189407649626,0.0286048708685041,-0.0025980340153243,0.046047872825814,-0.0082395073561425,0.0680064924707999,0.9965902919739312,-0.0532961460741237,-0.0522558670906685,10.37277329752651,0.0182943709592972,0.2132783272794776,1.2711100232591912,-3.9823739358421806,1.3478430035440587,0.6750554336768004,1191.89226547342,1200.6166672117527,1174.4087702790305,1192.8704573174389,-877.2622805796792,-1422.8913218149032,-1959.5087298182516,-1783.6946591923136,163.92852364836097
0.5,-1.0807651181726912,-0.1725712033372251,0.1818652372961914,0.2030477288231912,0.0276805949710599,-0.0032201864743931,0.0461966958539204,-0.0082048822489436,0.0679817435576849,0.996586328255148,-0.0504136829870736,-0.0513766709893577,10.338222428790276,0.0175078965425524,0.2115383495708121,1.2724959097244433,-3.9824313246094114,1.3480808611946182,0.6782741524640993,1189.6419927547104,1197.3075278423723,1169.807466097091,1188.343506795393,-1013.8982266936516,-1267.6357654387932,-1820.634861644363,-1923.7945011918096,163.93772866325875
0.5025,-2.9696380109414013,-0.4954736737978476,0.2609399043975625,0.1952666268284062,0.024993616577716,-0.0024205853701547,0.0463299660714733,-0.008195823138468,0.0679534566133746,0.9965829766839592,-0.0462335932675307,-0.0505957364769314,10.303546624975736,0.0167905897016567,0.2097364043221889,1.273795343778976,-3.982491333680224,1.3483116742831367,0.6814958796761851,1186.8227743399518,1194.2784883845586,1165.3055959708083,1183.2514848114797,-1052.3376350327444,-929.6134320092723,-1452.3143421170503,-1742.3916516615902,163.9488401415449
0.505,-4.287963852476766,-0.7098218646162289,0.3141857140750519,0.1804343318244584,0.0220692197054694,-0.0005016312568969,0.0464555934158966,-0.0082016182986492,0.0679260818891549,0.9965794565524086,-0.0410174037200585,-0.0496949132701998,10.268839963845476,0.0161178704964054,0.207893431740264,1.2750068627790017,-3.982550832642064,1.3485382979726417,0.684718606337381,1184.3803045795469,1192.659460682326,1162.5458943865056,1179.631548537085,-990.669273615912,-470.10602978216366,-888.4751277480965,-1255.6092231192895,163.95815166311633
0.5075,-5.143805330447893,-0.8758234488646918,0.3235999384650169,0.1617202146987993,0.0195473529005714,0.0017856213440984,0.0465808121832643,-0.0082110902713547,0.0679031161802992,0.9965751324430075,-0.0350340943078638,-0.0484732588903871,10.234191656690642,0.0154638207024562,0.2060294127740132,1.276129725989997,-3.9826100761051975,1.3487615833141866,0.6879406825103723,1181.8694279718723,1191.9279582356476,1160.863220332068,1176.9734386958833,-1104.126982540264,-168.86321796596334,-505.064368016428,-909.394359343104,163.9675146746128
0.51,-5.551398673411436,-1.0511259678855662,0.2777521749403835,0.1398275082589778,0.0174469435414973,0.003789105874363,0.0467088769582034,-0.0082156653140996,0.0678868761388215,0.9965699450738345,-0.0285026570195779,-0.046821116180852,10.19968611097624,0.0148086357615542,0.2041545678084725,1.2771648882750286,-3.982670067339285,1.3489809380511484,0.6911625405673548,1178.8596696668455,1191.8151445924964,1160.0205725464236,1175.0845767403696,-1084.904770106164,33.18638347705089,-133.25774723244024,-475.94602293871606,163.97880769469796
0.5124999999999998,-5.402951382951014,-1.2009042872521922,0.2047430935089084,0.123630940737935,0.0161431696899214,0.0044335559012643,0.0468408195156323,-0.0082165491838073,0.0678764166122476,0.9965640891077528,-0.021444089711026,-0.0446956174167502,10.165402982525636,0.0141569665508561,0.2022728379431756,1.2781137799598052,-3.9827321767170383,1.3491950071206025,0.6943847867427487,1176.4449041213416,1192.093890153033,1160.1969315959059,1174.5937085811895,-923.5507743610007,123.31281749966352,221.43465752101272,-3.8286386096842726,163.9882651002353
0.515,-4.852085690966891,-1.3662183670199444,0.1194078482551502,0.110173099209314,0.0145311948470336,0.0043029809684515,0.0469759088264252,-0.0082190477276574,0.0678695756646194,0.9965578120186412,-0.0138014837740031,-0.0421042663965589,10.131416110059492,0.0135240921593773,0.2003841788126929,1.278977786814224,-3.982797988849295,1.3494018783828987,0.697608384715036,1174.2419157950403,1192.4317086799947,1161.1277458340287,1175.0654335473212,-833.7817152440031,102.32208247020927,469.1972800759227,304.49392045575195,163.99776941245568
0.5174999999999998,-4.073703642862781,-1.5351882399192132,0.039204878911106,0.0991426681195002,0.0119550443467619,0.0039608878771494,0.0471149903365152,-0.008220640255604,0.067867205530478,0.9965510691642916,-0.0056812926053343,-0.0390217748962527,10.097792453028536,0.0129067750621166,0.1984951378700274,1.2797567367959968,-3.982867811850792,1.3496000454745332,0.7008353998790061,1172.2759955451215,1192.605500565384,1162.5429179962855,1176.1161781834685,-726.0460619330381,-8.145286087801644,640.6060155338758,492.88606692680287,164.0073116050297
0.52,-3.1603839349726006,-1.6796713895912545,-0.0241930669012571,0.0916797875641077,0.0078361462135184,0.0035333448538689,0.047256565587797,-0.0082214811710365,0.0678701293955206,0.996543836833754,0.0028565964667763,-0.0354867996001044,10.064593355702632,0.0123081504685038,0.1966067869163475,1.2804506235594957,-3.9829418508976415,1.3497882000733143,0.7040684362912835,1170.6116854853751,1192.3909822495557,1164.330775911698,1177.5298638819552,-674.4292515116734,-215.2720866364232,803.9501935520541,617.1497918182916,164.01689825513472
0.5224999999999999,-2.0775180627735446,-1.7827468942624407,-0.0766479912979114,0.087511800853158,0.0017456500736324,0.0030808248837364,0.0473987342092744,-0.0082141332150539,0.0678796155201092,0.9965361113099142,0.0115945526944186,-0.0315496833199353,10.031873996234099,0.011711267361875,0.1947210701987578,1.281059310241907,-3.983018125216656,1.3499669671956689,0.7073077278035388,1168.9038492875632,1191.529140132202,1166.5626689640455,1179.20192714256,-595.092807491846,-428.06363593385834,772.1792685012126,552.4472626217625,164.0284520188714
0.525,-1.281365672095136,-1.7878997988411127,-0.1025926279614201,0.0869736196389769,-0.0034574748046461,0.0028513490350696,0.0475386581087139,-0.0081903195085327,0.0678955799135611,0.9965280937655504,0.0202948190526647,-0.0272936044340628,9.99968367831841,0.0110954654910104,0.1928378122583025,1.2815834682045388,-3.9830926350216984,1.3501386254734422,0.7105508600599754,1167.636221447916,1190.2506640698864,1168.191672254204,1180.292100195064,-499.0508552170008,-630.6769384660578,525.6579215855704,323.62637373198567,164.0381204053008
0.5274999999999999,-0.6551779545676542,-1.6986450204537415,-0.1146574947012229,0.0872983269698569,-0.008216618508488,0.0026876229101747,0.0476767038580938,-0.0081464709252405,0.0679214211324638,0.9965195654787524,0.0288115735973042,-0.0227582730130911,9.968064596773383,0.0104527080391879,0.1909640749643634,1.2820235825698707,-3.9831641496621057,1.3503031909155896,0.7137945916553199,1166.408595011478,1188.3757554398717,1169.1909585719736,1180.8200590112199,-557.0656982018586,-956.1402913514021,212.7412960979653,70.22662063650381,164.04782898092662
0.53,-0.1047450971798248,-1.4863890180419583,-0.1174659902980635,0.0872757491016253,-0.0133579452415382,0.0026685659759658,0.0478171448671237,-0.0080820667680292,0.0679599692758315,0.9965102134142678,0.0370607352061131,-0.0179251586501199,9.937050392331411,0.009782761934271,0.1891159872461465,1.2823799778245024,-3.9832313017478,1.3504616829755185,0.7170349441002993,1164.8508929569068,1185.4699626131292,1169.255378734694,1180.6432332982463,-600.0710554834761,-1164.5097437519314,-206.0438748860632,-209.2091047512893,164.0595236159053
0.5324999999999999,0.2073041333440352,-1.2322505849041832,-0.1106669202604527,0.0867439026113856,-0.0172210590852893,0.0027964076975042,0.0479570242834846,-0.0080065180635351,0.068008487675677,0.996500356594414,0.0451436370615353,-0.0129475632729059,9.906666119571431,0.0091083824441464,0.1872887439752876,1.282656854921853,-3.9832941379966305,1.3506146791748208,0.7202701522512179,1163.4082397340608,1182.553206721112,1168.1607391975433,1179.7740134874634,-617.4667533299265,-1251.7880547810807,-689.9032864202576,-498.5397630199709,164.06930406081688
0.535,0.3935042067030398,-0.9188166888994772,-0.0894387564465052,0.0860834521376441,-0.0200343311790729,0.0027718883430964,0.0480942555937219,-0.0079382719112595,0.0680616353029375,0.9964903448335016,0.053334747616523,-0.0079843460355909,9.876925879030193,0.0084759660886089,0.185477314073426,1.2828585115827995,-3.98335526006116,1.3507615905511448,0.7235014533221592,1161.7635591902572,1179.211022339224,1165.8058623025927,1178.1505344831467,-769.86603767973,-1542.4461605978636,-1293.7753942823736,-885.535418218341,164.0791173648778
0.5374999999999999,0.4801723647464402,-0.5070566440206432,-0.0351030787611935,0.086082017673078,-0.0215155904863743,0.002273444684137,0.048224601390936,-0.0078895461559452,0.0681151184470398,0.996480588915224,0.061772256837152,-0.0032359112133354,9.847833466519571,0.0079171323058732,0.1836712345599355,1.282989684970283,-3.98341868565326,1.350902287131006,0.7267325598247872,1159.558909545662,1174.8409759181227,1161.6918622261314,1175.3463363963715,-835.929230468354,-1640.3437924300747,-1670.0451200397747,-1168.3035186842503,164.0909260114626
0.54,0.426869311843211,-0.1565934631993145,0.0427655015225708,0.0869652626200635,-0.0214509372028659,0.0015145732705839,0.0483437150218681,-0.0078650525849045,0.0681658240587942,0.9964714689645539,0.0704378991302098,0.0011009790999036,9.81938247692925,0.007445788684522,0.1818599755549921,1.2830543947155189,-3.983486834387576,1.3510375255767095,0.7299652525199061,1157.5839130379154,1171.0093033770736,1157.4556367023938,1172.3090168897252,-792.9088956200752,-1544.9340204170298,-1779.322997997131,-1353.929976459766,164.10078892535583
0.5424999999999999,0.2183095034468627,0.1865319677338492,0.1560287349576841,0.0884896779706,-0.0207976785009292,0.0007935345294097,0.0484513361241838,-0.0078693026760354,0.0682126342081666,0.9964630215364256,0.0793074615777487,0.0049087272214472,9.791555137056429,0.0070773802957321,0.1800424557849109,1.283054558659828,-3.9835613507816414,1.3511665705412597,0.7332005116751144,1155.5943650675615,1167.1163058160375,1152.7952472361455,1168.576686514073,-772.6196834777959,-1547.0524904196723,-1870.81266912446,-1595.4800674213388,164.11066804753628
0.545,-0.1352420866851092,0.5220072541052401,0.2890519147032551,0.0902079525021621,-0.0200970098559433,0.0004501322539728,0.0485463598178376,-0.007902579683363,0.068253019170874,0.996455444566154,0.0882696515276023,0.0080600803854035,9.764323701720716,0.0068160475951587,0.178215127851193,1.282992141299768,-3.9836422657074886,1.3512889439912583,0.7364382824040768,1153.7208146205264,1163.2740409249752,1148.1015733567715,1164.3316165526187,-690.2701292350679,-1499.5422528585536,-1821.7378289668873,-1789.6904019554752,164.12055442885688
0.5474999999999999,-0.6656142584403266,0.849845122884445,0.4203749849227181,0.0914240107074893,-0.0193041443088786,0.0008824866123336,0.0486299326715073,-0.007954637777784,0.0682830111858302,0.9964489949536046,0.0970110275729604,0.010490702591788,9.737651270166493,0.0066380736256474,0.176381023133561,1.2828684097509084,-3.9837269389240464,1.351405327142442,0.7396765239758276,1152.1430144213864,1159.6185945517448,1143.686558091311,1159.6282345042955,-596.9953593344137,-1530.6465821727656,-1824.632681665888,-2111.393895930176,164.1304409067941
0.55,-1.4712373471806655,1.2257372819864507,0.5309599384939645,0.0908833651385161,-0.0174726132096106,0.0026215783033315,0.0487034375232668,-0.0080095261258104,0.0683031366924398,0.996443642702792,0.1051077792858286,0.0121568805177095,9.71149237738333,0.006504633717842,0.1745438202347295,1.2826850227285815,-3.983811123148508,1.3515175325112008,0.7429125487179962,1150.7358378238544,1155.6208080141112,1138.978409948442,1153.7746470729678,-429.1500255294064,-1374.5867966314552,-1610.8714859654342,-2123.0353233591795,164.142292390247
