t,ang_acc_x,ang_acc_y,ang_acc_z,a_vel_x,a_vel_y,a_vel_z,quat_x,quat_y,quat_z,quat_w,acc_x,acc_y,acc_z,l_vel_x,l_vel_y,l_vel_z,pos_x,pos_y,pos_z,mot_1,mot_2,mot_3,mot_4,dmot_1,dmot_2,dmot_3,dmot_4,vbat
7.49,-0.5246142596786049,0.7536292165077649,-0.4671341916342534,-0.0464719645725109,-0.0072618155291877,0.0083704643751696,-0.0014659699828084,0.0042296436525504,-0.1098409121395328,-0.9939389659604267,0.0108770891304411,0.0104481934457451,9.716526065339544,0.0039531340987088,-0.0271702041614358,0.0009785997333094,8.390091722596873,4.983246028206311,1.2233254146788344,1135.08488691244,1129.1166359491156,1118.9094292852412,1120.041117734058,228.04654837037137,667.7204110788496,527.9555949175232,-124.56943894176484,155.3735089131064
7.492499999999999,-0.4966848271353567,0.7708800843667923,-0.6552354308664545,-0.0475019004792474,-0.0045195577496492,0.0056584770817276,-0.0014045083773617,0.00427139103728,-0.1098300757397556,-0.9939400706123196,0.012196304923109,0.0108025166109411,9.716312141381913,0.00394941193253,-0.027243823923399,0.0007440792678642,8.39011123408828,4.9831767680638395,1.223322578823714,1135.6279657292348,1130.7073853863596,1120.0955536537688,1119.6968906592217,196.65863585428687,569.6105652643049,382.72033384947366,-127.6383716097398,155.37380381741772
7.495,-0.4556392070462887,0.7116480718154377,-0.784646900710018,-0.0481122070975203,-0.0023291531001302,0.0033233007994728,-0.0013418147137311,0.0043123093018931,-0.1098060436729427,-0.9939426345403434,0.0135270886814841,0.0111732879729622,9.71640330998957,0.0039598155530093,-0.0273036119038037,0.0005144367473262,8.39013230324642,4.983109530104324,1.223322786564066,1136.0681800917112,1131.964688775437,1120.8230309544883,1119.4029258760095,148.38285539738035,450.59759899074606,200.991039260512,-88.43006204177507,155.3740848905788
7.4975,-0.4039568936334324,0.577986916913707,-0.8836917443564001,-0.0487939192109643,-0.0005772080481956,0.001149967718444,-0.001275585725421,0.0043468286995447,-0.109772359015784,-0.9939462934083492,0.0147332982991317,0.0114943385834963,9.716809315835183,0.0039809051710222,-0.0273513909048515,0.0002872557330969,8.390154321501742,4.983044077983597,1.2233258951820698,1136.3698800062218,1132.9603733813135,1121.1005088500715,1119.2547403490128,53.2352110880322,270.9825368417627,9.553716483606173,-7.2779087389791774,155.37440698071907
7.5,-0.3612873975567545,0.4356110046887911,-0.9307350603147752,-0.0493751313455487,0.0002397345669414,-0.0003662012441394,-0.0012048937751612,0.0043728710613044,-0.1097366850742521,-0.9939502106453691,0.0157554906225668,0.0117203932800722,9.717540655530302,0.0040084929312005,-0.02738920624009,6.019595480954927e-05,8.390177604249129,4.982979989366263,1.2233306397618755,1136.3343561471515,1133.3196014596458,1120.8707995369064,1119.3665363323144,-93.20618190618205,48.25259759150061,-163.1016969711289,96.04751181582493,155.37466303939064
7.5025,-0.3152790490205278,0.2820280831999898,-0.9474817003067316,-0.0499399662342218,0.0005937573321887,-0.0020231779874128,-0.0011323629071359,0.004390824786989,-0.1097049689470732,-0.993953724756324,0.016597000411733,0.0118727398428908,9.718608753667949,0.0040381888555266,-0.0274190646177928,-0.0001684601114127,8.390202554737705,4.982917057493962,1.223335182137382,1135.9038490966907,1133.2016363692712,1120.2850003652159,1119.7349779080919,-287.78830975225605,-144.44870941102033,-299.72961779863635,210.41983490363685,155.37490634178067
7.505,-0.2457632856033509,0.0996228434676618,-0.9273475416853117,-0.0506529004280833,0.0006959904597921,-0.0046235092609119,-0.0010629207540212,0.0044039885197247,-0.109681031119595,-0.993956393760594,0.0173302721275928,0.012015025313656,9.72002547966082,0.004065674189364,-0.0274427792253644,-0.000399682248724,8.390229307514806,4.982854907160968,1.2233384322558372,1134.8954145983903,1132.5973579125907,1119.3721514479134,1120.4186355068327,-442.37721271339103,-277.23424246792683,-338.25425797900414,278.0207466283686,155.37518323261503
7.5075,-0.1660582608887632,-0.0460307292877369,-0.8685807855471012,-0.0513177019658546,0.0006031655458989,-0.0073758184421639,-0.0009988951562774,0.0044133451024171,-0.1096646960026127,-0.9939582295899863,0.0179852799985025,0.0121703381988913,9.721803229233522,0.0040870831158594,-0.0274618618654193,-0.0006338879416565,8.39025781284867,4.982792511131072,1.2233406408338057,1133.691963033124,1131.8154651569316,1118.5937290753209,1121.1250816412337,-528.7104532562009,-339.31679165189774,-280.5447048114334,295.765784325119,155.3754009145673
7.509999999999998,-0.0527426725117816,-0.1839583493067371,-0.7605288956580228,-0.0520213766722095,0.0003434801130302,-0.0102397181392343,-0.000944257618153,0.004418531778198,-0.1096542425651894,-0.9939594193472574,0.0185763921554075,0.0124012507166262,9.723953782370156,0.0040991444247567,-0.0274775521708169,-0.0008707956544167,8.390288418110497,4.982729702734456,1.2233428698462736,1132.251862332109,1130.9007739543313,1117.9694279238563,1121.8974644284583,-641.3834167373034,-398.2350927876808,-206.1678834808889,342.7198460109667,155.37560412955543
7.5125,0.1283550821255367,-0.3407672662010181,-0.5831631202146171,-0.052647873497947,-0.0002369399738074,-0.0127523682454282,-0.000900347941718,0.0044220552250875,-0.1096489008539229,-0.993960035450678,0.019173285257344,0.0127181205383999,9.726486426979564,0.0040993164969996,-0.0274909254930455,-0.0011097036475186,8.390321274585986,4.9826666718251404,1.2233455171668828,1130.4850459494376,1129.8242896929933,1117.5628896579165,1122.8386808712885,-617.3193778200074,-371.9433607175106,-73.63745502992728,342.41602474993766,155.3758298088659
7.515,0.3139761628823073,-0.4631357640756932,-0.4123009231191911,-0.0526767148477372,-0.0010321645557784,-0.0138329303994541,-0.000866966147824,0.0044301619166537,-0.1096466822189824,-0.9939602702646022,0.0199184198004553,0.0130984064177701,9.729406526285091,0.0040861958810622,-0.0275029812337524,-0.0013493448359242,8.390355190601456,4.982603372578716,1.2233478281870152,1129.1652654430088,1129.0410571507434,1117.6012406487066,1123.6095445522083,-457.31998512134,-277.74548406851545,107.6588904901678,301.23169962858543,155.37600140225024
7.5175,0.5226124762956891,-0.5731656477070457,-0.2404396805229103,-0.0520223871797271,-0.0022219736037669,-0.0142317033207587,-0.0008429730317724,0.0044484552803098,-0.1096461513007687,-0.9939602600392776,0.0209414666934962,0.0135072843104134,9.732714954934627,0.0040596547039016,-0.0275147411279056,-0.001587707690205,8.390389187274199,4.982540037365482,1.2233491432136763,1128.198446023831,1128.4355622726507,1118.1011841103673,1124.3448393694312,-307.63173120236127,-212.1790728521364,280.2051101470684,283.6064549921563,155.3761540047393
7.52,0.7349021556884942,-0.6688126607581054,-0.082068246293552,-0.0507025873130069,-0.0036878691873532,-0.014173997624276,-0.0008267579118283,0.004478667198331,-0.1096466541385787,-0.9939600733765924,0.0222955504128104,0.0139132541880818,9.736407486403111,0.0040209316956817,-0.0275272826026607,-0.0018219782456415,8.390422232901447,4.982477240159775,1.2233485713818066,1127.627106786997,1127.9801617864828,1119.002266199442,1125.027576827169,-122.31837505405824,-152.99244611392496,452.3208118797453,251.3377715870828,155.3762892105982
7.5225,0.9290216898358644,-0.7414940549264541,0.048978443450927,-0.0486240032892295,-0.0051735651230003,-0.0136086413923178,-0.0008129320740902,0.0045178491431381,-0.1096478358853976,-0.99395977010371,0.0239321917094916,0.0142254658123265,9.740474073963927,0.0039726160864804,-0.0275416682186828,-0.0020488448924601,8.390452881533868,4.9824147815216335,1.2233451105021336,1127.5868541485606,1127.670600042081,1120.362788169766,1125.6015282273668,100.5924576366418,-116.49906629091012,685.7852200624767,212.56577864642617,155.3764011602563
7.525,1.1114073132440923,-0.7925378307458643,0.1707458521553397,-0.0453579303937543,-0.0067355998585596,-0.0126192191808408,-0.0007947775297738,0.0045601802427348,-0.1096512541022238,-0.9939592128931078,0.0257393523890723,0.0143364851907143,9.744898056079014,0.0039183256982404,-0.0275588504122603,-0.0022646640626293,8.390479876800796,4.982351803318942,1.2233387093808972,1128.1300690751802,1127.3976664550282,1122.4311922997542,1126.0904057204011,283.4962298267843,-94.21931696124577,807.8311767708954,135.37275084059107,155.37650541606916
7.5275,1.2021430490799891,-0.7925621660021192,0.2479339470230227,-0.0418730950028837,-0.0083879264670643,-0.0121538222884663,-0.0007691457073931,0.0045987259289303,-0.109652887157604,-0.9939588792825136,0.0275844460688928,0.0142134244802418,9.749655750189987,0.0038626824440845,-0.027579543366411,-0.0024655668720218,8.390502900725554,4.982288048955104,1.2233300512915135,1129.0043352976943,1127.199503457275,1124.4019440536204,1126.2783919815697,412.3157820103276,-83.00951031674408,803.1828220819251,21.00801330352669,155.3765650213122
7.53,1.2149903733809333,-0.7271974938657008,0.3106321633969777,-0.0379287775765463,-0.0109443424750654,-0.0124746655026248,-0.0007380028208843,0.0046325285413266,-0.1096512441965196,-0.9939589331020378,0.0294539407397164,0.0139115127401828,9.754715502563082,0.0038102656082852,-0.0276042575085537,-0.0026477893587048,8.390522662019913,4.982223586611431,1.223318974332758,1130.1916479852318,1126.9826189034443,1126.4471064101635,1126.1954457869188,561.6328765347708,-105.4015570402066,870.8915947358676,-100.39720549284752,155.37659416798644
7.532499999999998,1.142518431531844,-0.5540043442238768,0.3707430407801107,-0.0336595523582581,-0.0144296712028112,-0.0127956383424255,-0.0007034682175025,0.0046613675994102,-0.1096467350654406,-0.9939593256976624,0.031341068846625,0.0134885218579583,9.76003939502944,0.0037651269724754,-0.027633255778753,-0.002808156265897,8.390540395317787,4.98215877525127,1.2233055134145785,1131.8124996803683,1126.6724956720739,1128.7564020272996,1125.7764059541055,602.0236530345884,-121.64064238413889,792.3511558904181,-200.8475373102144,155.37659210342906
7.535,1.0230457681974534,-0.3316669125013014,0.3946699274650322,-0.0309034472144244,-0.0167410840976881,-0.0121422729884972,-0.0006651765868466,0.0046826710514172,-0.1096402453985174,-0.9939599700433878,0.0331805584586853,0.0129595032668757,9.765585042537326,0.0037304904914433,-0.0276665071063244,-0.0029444683816081,8.390557380950872,4.982093927552895,1.2232906014229843,1133.2017662504047,1126.3744156915238,1130.4088621896155,1125.1912081003677,534.858692140968,-121.31827537798848,579.2762745545591,-268.2382695307332,155.37655862214572
7.5375,0.8665770725200455,-0.0512125466339457,0.3639543839147681,-0.0289675289027378,-0.0177058898294222,-0.0103441808430681,-0.0006222781161484,0.0046929752560615,-0.1096302652277366,-0.9939610489946455,0.0348819843833241,0.0123318939836115,9.771306838839488,0.0037086998924894,-0.0277036454696664,-0.0030556300027681,8.390574783655849,4.982029189082614,1.2232758753414104,1134.4867931410736,1126.0659042951838,1131.6527834000728,1124.4352146064516,513.364523967186,-124.03961971554318,442.4452848100922,-348.6799689102174,155.3764916283425
7.54,0.6627903031182139,0.307647582110605,0.2386778819198861,-0.0273495183097189,-0.017047143942298,-0.0076950812671213,-0.0005764046410139,0.0046920107617062,-0.1096149754585662,-0.9939627633260139,0.0364166227847376,0.011653467398065,9.777156810651794,0.0037010502364374,-0.0277439778639953,-0.0031415885229293,8.390592891630131,4.9819645520031015,1.223262171634581,1135.7685888702404,1125.754217592946,1132.621088613666,1123.4478082558167,413.737677172148,-90.41881252815267,272.80188896125435,-357.47118141676617,155.3763725174021
7.5425,0.4936299983101966,0.5905693046800025,0.058841480730406,-0.0263352980277051,-0.015079568045558,-0.0057932658707958,-0.0005293847536177,0.0046816251694919,-0.1095953175073112,-0.9939649998613884,0.0377931535674197,0.0109693586241868,9.783086471735151,0.0037077068380986,-0.0277864901090224,-0.0032033275635121,8.390612086001608,4.9818994004245285,1.2232494097892748,1136.5554815269343,1125.613810232543,1133.016792844879,1122.6478586993678,253.11777872366832,-12.335412612128756,90.23939540220643,-296.50462716441046,155.37624144714525
7.545,0.3346241766765848,0.825293133801865,-0.1762872901010738,-0.0254875162165776,-0.0121642741769319,-0.0049217855337359,-0.0004861019059029,0.0046666280829723,-0.1095720264947689,-0.9939676525369384,0.0390819318176177,0.0103756627738757,9.789048168792776,0.0037279945942246,-0.0278298916966184,-0.0032425515276158,8.390632552418646,4.981833356205112,1.2232374346619923,1137.034177763859,1125.6925405298855,1133.0722855906772,1121.9652851199946,146.8466038026267,81.1441704913722,-17.78683752095314,-242.98243436051567,155.37607837958544
7.5475,0.1877632235009863,1.0097222343102843,-0.4236998308998065,-0.0249052752613871,-0.009202260651308,-0.0053831380727575,-0.000448315256767,0.0046551253590165,-0.1095456591323215,-0.993970620917744,0.0404098978275773,0.0098982424470689,9.79499627653288,0.0037605540125555,-0.0278727019685351,-0.0032618640906331,8.390654684701996,4.981766161172189,1.223226702468548,1137.2897145459472,1126.019531085,1132.9278586572743,1121.4329465275653,64.03466678462019,201.5784049742294,-89.13255076499999,-168.17027889028753,155.3758896898291
7.55,0.0586239942742733,1.1358429332116635,-0.6360178550329916,-0.0247191037007955,-0.0067582239536501,-0.0075988040581059,-0.0004159036615745,0.0046519454944215,-0.1095182257938104,-0.9939736614010792,0.041836640643108,0.0095305833555342,9.800889452614888,0.0038034855221787,-0.0279134550796345,-0.0032644344587281,8.390679121054998,4.981698131950425,1.223217700427195,1137.354351097782,1126.7004325547566,1132.6266228368522,1121.1244337255432,8.887487748006796,384.95777665876534,-157.57045796613392,-77.97251395854968,155.3756710024111
7.5525,-0.0732790602791966,1.2281749284790713,-0.7941522599986388,-0.0247601185357106,-0.0039475868288134,-0.0115941349190045,-0.0003880713991121,0.004658812534121,-0.1094925885353754,-0.993976452539756,0.0433612752508348,0.0092569941763903,9.806691141060266,0.0038546396406959,-0.027950896106548,-0.0032536958620552,8.39070588650737,4.981629720754184,1.223211036119933,1137.3341519846874,1127.9443199682937,1132.1400063674437,1121.0430839577723,-6.412506543029076,521.2145783496564,-199.2767459714329,18.871766319398777,155.37537468627357
7.554999999999999,-0.1627733719548492,1.2576440518951968,-0.8224509414785489,-0.0251130835130504,-0.0010034556105763,-0.0150288154486293,-0.0003637749221511,0.0046712659236424,-0.1094675504975925,-0.9939791490587964,0.0448640493414382,0.0090684292053225,9.812370308531769,0.0039122114732121,-0.0279840999737973,-0.0032329696149363,8.390733967153654,4.981561201441774,1.2232067795919677,1137.3222885650669,1129.3065054465048,1131.630239106995,1121.2187925571402,11.57754329901788,595.9611044173143,-231.28466690046065,116.42174203261924,155.3750998203205
7.5575,-0.2303737506851544,1.235428307617712,-0.7421690833656069,-0.0259450334774266,0.002437974418198,-0.0177051295579216,-0.0003418807660165,0.0046823325524394,-0.1094419453594673,-0.9939819153538892,0.0461785134147699,0.0089577030265238,9.81790028322367,0.0039747213174735,-0.0280125842312455,-0.003205148820475,8.390761995554447,4.981492817020795,1.2232047987224803,1137.3920397011825,1130.9241254903802,1130.9835830329412,1121.6251926679356,56.20329773022635,742.975913290795,-322.5207673355222,221.46201329816168,155.37479600630223
7.56,-0.2899465315662946,1.1507680442485149,-0.5432672647205296,-0.0271036887317736,0.0062843282663321,-0.0198200975128618,-0.0003219094576967,0.0046907138833069,-0.1094177664705918,-0.993984540921752,0.0472532001603783,0.0089165879484818,9.823256082459713,0.004040863885115,-0.0280363445038197,-0.0031724279972283,8.390789156516279,4.981424546678547,1.2232040959316397,1137.603305053718,1133.0213850129592,1130.0176352703172,1122.3261026236312,95.36720212459134,771.3689152162879,-386.03347992403457,282.91576121965284,155.374397619725
7.5625,-0.3293042283559318,1.0388316239516764,-0.3159778527883347,-0.027865660663892,0.0091189020112041,-0.0207677846850095,-0.0003071628238977,0.0046997751726466,-0.1093961342002368,-0.9939868862561388,0.0481392448693387,0.0090001993162213,9.828413338474496,0.0041096740348201,-0.0280557978007891,-0.003135863167275,8.390815537447622,4.981356946141226,1.223203891485454,1137.8688757118055,1134.7809700664616,1129.0534156333213,1123.0397714740338,113.16037020797252,676.3292532233808,-411.74237983046584,301.28978521602863,155.37403694288136
7.565,-0.3702313174887986,0.8968117923282937,-0.0541076484366566,-0.0283482223538244,0.0114067374082768,-0.021040124886999,-0.000293762633755,0.0047089610865434,-0.1093779844556395,-0.9939888501208596,0.0487993692311644,0.0091318289209297,9.833348760816774,0.0041804291288191,-0.0280716312226799,-0.0030957306823848,8.390841671554918,4.9812900639235895,1.2232028155244539,1138.1691069047579,1136.4030312790762,1127.9589233711647,1123.8325515497113,121.91115160562993,647.4924863292155,-496.5302062614788,356.34864909134956,155.37364560359185
7.5675,-0.4319093778310341,0.7086359566786352,0.2687997608940246,-0.0288518824691058,0.0132908709777186,-0.020677143750022,-0.000274307994181,0.0047162601773714,-0.1093637779947431,-0.99399039227542,0.0491638370720024,0.0091693499165932,9.838038193385191,0.0042525677801906,-0.0280847020903389,-0.0030513996781627,8.390867955086785,4.981223700578692,1.2232003884225209,1138.4784314698336,1138.0184324981076,1126.570764602014,1124.8215147194903,92.05618323571994,515.3285853320649,-508.9013556188656,362.31502130622954,155.37313957721312
7.57,-0.4953552807767959,0.5468601829381217,0.5236546145143858,-0.0293778133254632,0.0143429785797271,-0.0197585529610467,-0.0002462111162857,0.0047227587533892,-0.1093528279786164,-0.993991582275834,0.0492375376824951,0.0090588262427784,9.84245431104652,0.0043256645141676,-0.028095978427955,-0.0030011193764741,8.39089368107467,4.981157588087287,1.2231960677477451,1138.6293878209365,1138.9796742057365,1125.4144165930707,1125.6441266562424,26.99763313462484,287.79944008093184,-448.7044625509138,321.4314266993893,155.37268720384495
7.572499999999998,-0.56391192459881,0.3847576107928261,0.7386349870931523,-0.0301554999296302,0.0149206654872825,-0.0180679195154791,-0.0002085590182541,0.0047252270337121,-0.1093442221851458,-0.9939925345868582,0.0489483486107529,0.0087893384268012,9.846567307217164,0.0043993698567521,-0.0281064552279046,-0.0029423535062459,8.390918697617684,4.981091811661201,1.2231894033752175,1138.6134196355067,1139.4574296985122,1124.3272422892594,1126.4286718529875,-37.60004748774089,108.10599278593376,-414.03584611181,301.61945938062405,155.37220311309449
7.575,-0.6244406114223693,0.2198869313233538,0.902727708394642,-0.0312871366594112,0.0153543940615688,-0.0156676699965142,-0.0001646512195449,0.0047190378762305,-0.1093348391449427,-0.9939936128778936,0.0482097775801205,0.0084367677201481,9.850343716341351,0.004473403025577,-0.0281170729440293,-0.0028720171312602,8.390943645428525,4.981026754915173,1.2231810737666988,1138.4413875834975,1139.520204169666,1123.3442373625116,1127.1522239531455,-104.25551951469248,-66.49393202345762,-355.8350871281972,266.6735263908815,155.3716932192857
7.5775,-0.6547030243587699,0.0427151105032974,0.9887043533483733,-0.0329944439019716,0.01617016378383,-0.0125759628427284,-0.0001208692761296,0.0047048768758308,-0.1093221383676245,-0.9939950907276112,0.0470500837264313,0.0081268338964676,9.853744931656992,0.0045472885734934,-0.0281286279238482,-0.0027869683803776,8.390968796888124,4.980962761188278,1.2231711865645165,1138.0921420379332,1139.1249600383949,1122.548066853618,1127.762039484942,-184.76671575249776,-258.3985834471205,-288.46844473537817,232.20603940645145,155.37115330098516
7.58,-0.6290998204077423,-0.1925755380021256,0.9928118841069496,-0.0356646815813302,0.0172910268739456,-0.0086778455082001,-8.07656900754291e-05,0.0046836425769686,-0.1093073041842126,-0.9939968317259288,0.0454999397993214,0.0079296289276147,9.856728940230724,0.0046202060866708,-0.028141636146152,-0.0026845545103072,8.390993732518705,4.98089967322335,1.22315918569997,1137.5175540047353,1138.2282112524304,1121.9018951388348,1128.3132541501775,-225.322319734328,-380.503500222866,-170.48759493796203,167.35269899050212,155.37047271959366
7.5825,-0.5426183670338445,-0.4021083155638029,0.9191903126027186,-0.0380506068230792,0.0176286288923671,-0.0056814999089558,-4.271629855013613e-05,0.0046572486244236,-0.109291504815041,-0.9939986975873228,0.043603350793469,0.0078118695814369,9.85925127509168,0.0046911925185001,-0.0281561526269174,-0.0025630703852468,8.39101850004969,4.980836328877236,1.223145581540222,1136.9655304392616,1137.2224425372804,1121.6956288789283,1128.5988029798943,-218.86276009568527,-434.95929247484145,3.0224850908326246,77.9243495176632,155.36988026811423
7.585,-0.3863429074974314,-0.601205513071761,0.7852407522602933,-0.0400861878557342,0.0167448974595358,-0.0034637510793687,-5.00329840388568e-06,0.0046294988660598,-0.1092742725507401,-0.9940007221702868,0.0414459671499399,0.0077342956782674,9.861266492990849,0.0047591867937182,-0.0281717345808911,-0.0024218050003953,8.39104332223192,4.98077187308009,1.2231313703174735,1136.423240204257,1136.0534147900564,1121.9170075642887,1128.702875897766,-214.67074227958167,-532.2627519355706,208.7613161166745,11.500640705208088,155.36926435930928
7.5875,-0.1356757301692868,-0.78564296447879,0.5868764273040938,-0.0415804341509424,0.014023298660488,-0.0018941911437113,3.617763469572971e-05,0.0046033145530504,-0.1092561932778725,-0.9940028287717108,0.039096491724211,0.0076178422100525,9.86273079979984,0.0048228366912362,-0.0281875491148528,-0.0022613254328724,8.391068353891848,4.980705727363712,1.223117300914309,1135.8921767278637,1134.5611287776028,1122.7394354595117,1128.6563061834206,-161.24964541454915,-549.8576774734491,394.67756909822066,-35.826505040177686,155.3685016340065
7.59,0.1020016861407076,-0.8649090366263619,0.4126151679073695,-0.0415197567849729,0.0105934960480764,-0.0012562028341882,8.163416197624531e-05,0.0045782207194442,-0.1092389165763986,-0.9940048400497304,0.0365683118268486,0.0074484339232667,9.863604816239777,0.0048804569102771,-0.0282026040065307,-0.0020832514093579,8.39109394412355,4.980637679526388,1.2231041766035495,1135.616991977184,1133.3041264026892,1123.89039540978,1128.5237433725651,-66.8398263503164,-490.41269275017976,542.0586353111619,-59.30502533351626,155.3678486983532
7.5925,0.3370829283855929,-0.8496501392544579,0.2481348307313592,-0.0402414505227939,0.0069003165199059,-0.0008471539116854,0.0001276006973839,0.0045531243706605,-0.1092206053789908,-0.9940069646043624,0.03387727400355,0.0073022667684138,9.863855291253431,0.0049302573958796,-0.0282159659776714,-0.0018901848918546,8.391120828702494,4.980568609573894,1.223093175374911,1135.557977596112,1132.109065313852,1125.4497286360674,1128.359781056753,20.41894501471732,-489.26004407445487,740.7248023427812,-68.34863386520884,155.3671802985309
7.594999999999998,0.5874376363792428,-0.7345605646402146,0.0744270375076611,-0.0382164153857496,0.0034240514780104,-0.0004921795942001,0.0001667656943362,0.0045324825876013,-0.1092009741158157,-0.9940092136583976,0.0311600001625527,0.0073117120074192,9.863456129404183,0.0049701212689908,-0.0282270227979745,-0.0016857036667348,8.39114996624311,4.980500005611905,1.2230844802866476,1135.7190867022575,1130.857826182317,1127.5940194214938,1128.182000203239,86.97252117044813,-408.7186587713491,789.0750029049909,-60.35561083176746,155.36636289939534
7.5975,0.7578640970874768,-0.5856397424249251,-0.044674344751502,-0.0365924543046704,0.0017097706143196,-0.0004335115349746,0.0001959276458609,0.0045209656704917,-0.1091824283698877,-0.9940113010408672,0.0285521063813855,0.0075265863366067,9.86239138355204,0.0049978038343405,-0.0282355637993138,-0.0014744468929771,8.391181302604382,4.980432700373978,1.2230780299797928,1135.9928402019643,1130.0654720199952,1129.3951036505923,1128.0580030025942,121.48597096245715,-241.30781175750465,661.8302542395088,-51.45672816133006,155.36567059138144
7.6,0.8798821319176799,-0.4238863899013848,-0.1306424518928338,-0.0349581127604624,0.0011794543849043,-0.0007215146856857,0.0002161242823094,0.0045232121801908,-0.1091679639059713,-0.99401287605344,0.0261822545201032,0.0079124669880264,9.860656780845085,0.0050113797494865,-0.0282417182104005,-0.0012618467127888,8.391213767064905,4.980366613638696,1.22307393435692,1136.32651655707,1129.6512871235293,1130.903170692692,1127.9247165624324,133.0805748674294,-89.97178629051824,507.21810576775334,-64.21136597514442,155.36496837114174
7.6025,0.9536287965481683,-0.2802370398809519,-0.184544334354597,-0.0328769540815096,0.0013945471072135,-0.0013223031344407,0.0002318666725251,0.0045394865366542,-0.1091585715921004,-0.9940138275530852,0.0240875761400628,0.0083754279171451,9.858261450683022,0.0050096765859468,-0.0282458129226931,-0.0010537378783708,8.391246691589798,4.980301563046082,1.223072379213129,1136.6582430763015,1129.6156130885427,1131.931194179431,1127.7369461727185,128.6761520155351,79.62776759668654,247.69778561258664,-98.21156568355245,155.36425895481355
7.605,0.9563773894434708,-0.1801218296837565,-0.1964910097676082,-0.0299682804673105,0.002063729761616,-0.0022359910399493,0.0002490647068499,0.004568833457604,-0.1091545399277072,-0.9940141279645808,0.0222786965866087,0.0087958936961417,9.855227702780569,0.0049923464044899,-0.028248253655709,-0.0008559862499686,8.391279426601017,4.980237062428653,1.223074155321089,1136.9698973171476,1130.0494259615127,1132.1416596207548,1127.4336587340147,142.0120869961041,280.1975569233096,-130.585946775821,-163.80043519343766,155.36354184676185
7.6075,0.8669927554907568,-0.1160647330850414,-0.1649552265918362,-0.0261619342350084,0.0026107828891495,-0.0033892898810384,0.0002700401929958,0.0046073692736394,-0.1091578109837592,-0.9940135823554068,0.0207156073225607,0.0091298738402682,9.851591120797426,0.0049597795656455,-0.0282494431938276,-0.0006738216178971,8.391311104047208,4.980172581709873,1.223078513082698,1137.368303511282,1131.0166008731592,1131.278264445552,1126.917943996751,165.3917422153462,399.8075389231048,-500.0042632948969,-208.68727350794407,155.36267338062223
7.61,0.7189142936633389,-0.0994499252629515,-0.1092629302543117,-0.0234969472174077,0.0024182088569085,-0.0040313102209398,0.0002891467703215,0.0046514220158401,-0.109167548701971,-0.9940122994390996,0.019377317109931,0.0094881371445356,9.84739923803212,0.0049132775857571,-0.0282496603918638,-0.0005112916800877,8.391341185926958,4.980108212139755,1.2230841228657567,1137.7968560282245,1132.0484636561282,1129.6416383042804,1126.3902223664747,213.32442510179587,415.1259632110939,-806.3523214285568,-217.0761128580626,155.3619435163034
7.6125,0.5133614509704097,-0.1018441414779559,-0.0404870159693657,-0.0218416596987825,0.0017947321560983,-0.0041078305252034,0.0003029602884364,0.0046991160104941,-0.1091811665994217,-0.9940105713284187,0.0182696304724098,0.0099327837808238,9.84270993410548,0.0048548257275347,-0.0282489915756183,-0.0003716240544994,8.391369922620106,4.980044131581635,1.2230898943839534,1138.4349256367907,1133.0922306892146,1127.2465028384092,1125.832563432461,348.1649837511288,414.0643626591188,-1147.3405083323332,-232.755671728642,155.36120757343335
7.615,0.2322059259200252,-0.1077568103269197,0.0347936180847288,-0.0209942696415637,0.001014596044923,-0.0036573247421277,0.0003113680588161,0.0047485220609079,-0.1091956606423134,-0.9940087369712388,0.0173854465030799,0.0104597035693384,9.83759007612704,0.0047868341905841,-0.0282472766527353,-0.0002571977459706,8.391397756746127,4.9799801409698645,1.2230953306128995,1139.53768094698,1134.1187854694235,1123.9049357626188,1125.2264440078316,462.6152568650567,315.78829970731687,-1230.2992334410908,-200.3797566044838,155.36031742899252
7.617499999999999,-0.0074453401360592,-0.1069415029066896,0.0785291707677248,-0.021058861562591,0.0004945620112659,-0.0030324712579369,0.0003176847789583,0.0047945653451569,-0.109208317141598,-0.9940071186002538,0.0166432330579348,0.0110029086901787,9.832114081745134,0.0047119508779905,-0.0282440631072329,-0.000169555965304,8.391424618383398,4.979915734281054,1.2231003473683053,1140.748001921116,1134.6711721877512,1121.095006671204,1124.8306646494386,527.4504385754539,150.82657270996015,-1042.9823693548992,-129.77279435736185,155.35956959249566
7.62,-0.2294873535406238,-0.0959230197690796,0.0944324019587981,-0.0218327448171596,0.0001514518730385,-0.0024723349749476,0.0003287387987121,0.004830587821768,-0.1092173441727657,-0.9940059452903406,0.0159170085050281,0.0114295500359488,9.826361594103345,0.0046328936998328,-0.0282386043313553,-0.0001095316972608,8.391450307968952,4.979850867339342,1.2231051152699979,1142.174933139857,1134.8729183329735,1118.6900239158444,1124.5775800360448,634.3326965175411,22.99255118641308,-883.0250231425437,-82.12894762612986,155.35881497933875
7.6225,-0.4575192279201208,-0.0699137697335996,0.0808178355374147,-0.0234636695302966,-9.80083233726228e-05,-0.001927275103296,0.0003519390226933,0.0048508082965761,-0.1092211448871767,-0.9940054211771008,0.0150905603157734,0.0115921797390238,9.820415008551889,0.0045523448866494,-0.0282298779192697,-7.720628168246605e-05,8.391474660347795,4.979785497189267,1.223109857701027,1143.9196654037044,1134.7861349436832,1116.6798815554905,1124.420019911308,604.0846838279905,-65.77983431630086,-552.2963819210536,-39.947415973893776,155.35790071739717
7.625,-0.6094525576433106,-0.0376460427497987,0.0459659984339537,-0.0251230610863962,-0.0002189337571074,-0.0014579840954228,0.0003850884998962,0.0048559536790662,-0.1092189547245352,-0.9940056262995653,0.0141891940075961,0.0115156047703891,9.81435659492899,0.0044727484174698,-0.0282166283956755,-7.148566381856493e-05,8.39149797038909,4.979719185637281,1.2231138862270154,1145.1953565589972,1134.544019161392,1115.9285420062392,1124.3778429561755,425.3466454767568,-105.74426648500092,-92.09170852273215,-4.290422919893992,155.35713070485488
7.6275,-0.7224114419131316,0.0055845377272269,-0.0042850897714471,-0.0266909405026322,-0.0002969443940525,-0.0011135331198103,0.0004211787867136,0.0048507651805247,-0.1092110973058299,-0.9940065029007488,0.0133207277653002,0.0113085441711596,9.808267067091624,0.0043961329910652,-0.0281974457528753,-9.040435572624441e-05,8.391521064797457,4.979651632349041,1.2231163772939506,1146.046398631088,1134.2574136112582,1116.2194230128769,1124.3985677967084,243.40249676488904,-108.14939767638182,279.22555772821084,18.449558387147075,155.35635099500988
7.63,-0.80606716754844,0.0577295003214205,-0.0567399873117306,-0.0281578329414297,-0.0003541379140362,-0.0010719832463582,0.0004566245482281,0.0048414719860252,-0.1091994138678452,-0.9940078193618316,0.0126089359497282,0.0110088632389127,9.802224387745131,0.0043239832280835,-0.0281709223525802,-0.0001317143980937,8.391544529972245,4.9795822617967245,1.2231168203934115,1146.4123690428216,1134.00327217301,1117.3246697948803,1124.4700907481113,16.696411805606104,-90.6731081049221,602.0550873135236,44.1555334499308,155.3555621247289
7.6325,-0.8551469509233804,0.1191068460453382,-0.0961039957716406,-0.0296645875938351,-0.0003680747435138,-0.0015094118806101,0.00049096865273,0.0048343038641226,-0.1091870675441371,-0.994009198962854,0.0121659320764871,0.0105935750108196,9.79630269116207,0.0042572277863083,-0.0281358904126144,-0.0001931052710852,8.391568541711603,4.979510921504512,1.223115533195976,1146.129880690116,1133.8040480707336,1119.2296984494444,1124.619345463958,-262.2850473490927,-89.43326779717799,951.8370499036541,86.6216560228186,155.3547606432936
7.634999999999998,-0.8667526283118229,0.197867704977986,-0.1097687622924008,-0.031728523222087,-0.0002568547673461,-0.0025498472456448,0.0005223836037047,0.0048348264123846,-0.109175401351966,-0.994010469522353,0.0120897969457355,0.0100692649016636,9.790571404011702,0.0041964431817581,-0.0280916927978831,-0.0002722165169685,8.391593042259087,4.979438245554596,1.2231129294844219,1145.1009438060762,1133.5561058340243,1122.0838550443984,1124.9031990282251,-466.4009120059845,-111.47477827348904,1077.8199452951187,119.74738645713188,155.3537819995989
7.6375,-0.8258297615582786,0.2600642339338211,-0.0858482381166515,-0.0338080644577725,3.876555403598788e-05,-0.0036354971581421,0.0005522434820787,0.0048429551467772,-0.1091649410785614,-0.99401157361312,0.0123588343424662,0.0093949259425405,9.785095283705711,0.0041418471925398,-0.0280384577923689,-0.0003670268340977,8.391618102302983,4.979365339988664,1.223109897717341,1143.7978761300863,1133.2466741793662,1124.61879817592,1125.2180823962435,-571.8954703042998,-166.97746565461904,966.8848164780081,134.55930876273385,155.35295055247983
7.64,-0.7166262124606629,0.3051111107366789,-0.0287573508330509,-0.0362151493806987,0.0006913284515052,-0.0043856077363988,0.0005797765653638,0.0048536946835898,-0.1091522640598412,-0.9940129107097536,0.0128586810191436,0.0085860325366288,9.779933950240803,0.0040935480659544,-0.0279772223552788,-0.0004756790193233,8.391642921626044,4.97929328797612,1.2231070978570568,1142.2414664545543,1132.721218505751,1126.9182791267892,1125.5759955720391,-693.3890561019928,-291.55530992657697,874.042680890871,153.9340179767838,155.3521001574238
7.6425,-0.494996138779421,0.3208448182989804,0.0588914877454173,-0.0391126221876922,0.0020365098971845,-0.0042162999673344,0.0006030514569833,0.004865478682712,-0.1091369112784344,-0.994014537759396,0.0135433899105774,0.0076783927237417,9.77514046465376,0.0040512066135317,-0.0279099757020539,-0.0005966423434927,8.391667726911221,4.979222720264657,1.2231047119879788,1140.3309308495764,1131.7888976297331,1128.989011580374,1125.9877524861276,-676.0998627719945,-384.2540617941349,599.3527683269931,138.1403790190718,155.35105468346026
7.645,-0.2370463358555521,0.2909301490852282,0.1303540146638196,-0.0414155914112198,0.0036419289995632,-0.0032946094002108,0.0006223236755794,0.0048772446655186,-0.1091209778693801,-0.9940162283015664,0.0143720649614316,0.006670540404791,9.770761681997593,0.0040141118496609,-0.0278395022342942,-0.0007287709879076,8.391692667936672,4.979154184017817,1.2231025965437403,1138.8609671406944,1130.7999481967804,1129.915042968424,1126.2666974671345,-534.1271347533734,-412.5463469754865,178.4669246559626,91.26202095472048,155.3501602004773
7.6475,0.0747033540114382,0.2135579938290714,0.1861498778447867,-0.0429607787924276,0.0054976078139605,-0.0022114131088771,0.0006401878817038,0.0048885927967575,-0.1091064053120372,-0.9940177690137209,0.0153122637728783,0.0055215671787986,9.766838201240173,0.0039814221929059,-0.0277691186906378,-0.0008712141095837,8.391718161167148,4.979088138190328,1.2231008853215395,1137.6602951758096,1129.726165894856,1129.881346203654,1126.4440625909012,-445.0027874801985,-448.8198946001016,-226.61352788518823,57.60995250348183,155.34923873279436
7.65,0.4563786148403234,0.0849782307772733,0.2333506666490268,-0.0423163425195218,0.0071224983923537,-0.0011795103129044,0.000656690102368,0.0049019087288801,-0.1090951145749738,-0.9940189370475369,0.0163920958707887,0.0042420217382897,9.763404078430986,0.0039522964622254,-0.027702377177264,-0.0010230750082251,8.391744269061437,4.979024950894084,1.2230994367958117,1136.6359532032934,1128.55584872378,1128.7819753289982,1126.5547472296519,-297.6179522188495,-379.5103429826749,-547.6593248879116,33.43211982723986,155.34809907402763
7.6525,0.7305577222303663,-0.0220254003642096,0.2624719857289527,-0.0394543813441858,0.0071155470185623,-0.0006283742648071,0.0006703495748587,0.0049178248103394,-0.1090877084230661,-0.9940196642606798,0.0176102376548695,0.002883756688036,9.760487514467174,0.0039261438069528,-0.0276427058202149,-0.0011833097578922,8.391769994027445,4.9789639987362975,1.223097476010774,1136.172205414715,1127.8286141799426,1127.1430495792144,1126.6112231900374,-100.37841801640965,-214.92067475879145,-746.5049855257962,30.75241920623805,155.34711967411462
7.655,0.910886911698096,-0.0856076822368644,0.2911063659408483,-0.0355263964102052,0.0056125037209925,-0.000328255260048,0.000681772328687,0.0049340215597393,-0.1090830851608086,-0.9940200828855478,0.0189052857304385,0.0014719072286043,9.758110951025497,0.0039027499793826,-0.0275930585909028,-0.0013508640795397,8.391794564874418,4.978904074236204,1.2230951535615109,1136.1340611132111,1127.481245349986,1125.0494504013693,1126.708509325683,54.9613185660758,-69.17042515242576,-860.6876162904156,54.73355629756159,155.34610839152845
7.657499999999998,0.9983088862444194,-0.0890880944539079,0.3246483088485752,-0.0317182338013609,0.0036643972310562,-0.0001130333078181,0.0006892831600228,0.0049462493117006,-0.1090781420573671,-0.9940205556236024,0.0201850876604061,8.662732463679891e-05,9.756290916617358,0.0038822512928254,-0.0275556744498268,-0.0015244397023483,8.391817672800356,4.978844455399373,1.2230929752228703,1136.4470120075457,1127.4827620541805,1122.8396114977625,1126.8848909715252,205.60130950662352,78.89801717438044,-849.8059466637368,92.00534901629193,155.3450703529971
7.66,0.9816237942808238,-0.0141583766657178,0.3639020372476206,-0.0286689425506904,0.0020929599060715,0.0001904035425314,0.0006900441021512,0.004953504060084,-0.1090715025605518,-0.9940212403196556,0.0214247481820939,-0.0011711683954486,9.755037019599689,0.0038647666051583,-0.0275319724583365,-0.0017025780230049,8.391840009869474,4.978784733084408,1.22309087948309,1137.1620676607445,1127.875735435858,1120.8004206680507,1127.1685360707645,396.66965738713935,241.63976505033904,-789.6990400860105,139.6143725601414,155.34400025705014
7.6625,0.871893661588984,0.1434048852211498,0.4072468733534083,-0.0262381561804867,0.0012887383589547,0.0009138006647471,0.0006839391800598,0.004956394491558,-0.1090626746944073,-0.9940221883410256,0.0226266613279005,-0.0022531340331504,9.754351912048392,0.0038503003959621,-0.0275224973354926,-0.0018837677734045,8.391862329207445,4.978724150187411,1.2230887052242816,1138.4303602944815,1128.6909608794324,1118.8911162973316,1127.582962834326,520.5675617090149,333.37753227175,-574.1992379202779,148.85435588585415,155.34268010460116
7.665,0.7314323015292201,0.2983503510611822,0.4267515603750462,-0.0250177351457054,0.0017463277141002,0.001973425855731,0.0006752438885766,0.0049549380275099,-0.1090533840806873,-0.9940232078999632,0.0237741837255712,-0.0031929367174309,9.754231403966784,0.0038386029683471,-0.0275269861814543,-0.00206644003975,8.39188502733507,4.978662363636503,1.2230858681528525,1139.7649054692895,1129.5426230972166,1117.9294244784492,1127.9128078501935,568.3864758481953,344.79996265318556,-230.1121093634314,104.99428783937442,155.34155122324205
7.6675,0.5630763927643307,0.4317310261258063,0.4108855340611815,-0.0239674925730299,0.0034460083054569,0.0035692049429192,0.0006716748553795,0.0049484728046737,-0.1090446810772632,-0.9940241830801396,0.0248320061927877,-0.0040891700872204,9.754664353133826,0.0038293234908169,-0.0275444990451951,-0.0022489092616059,8.391908181166068,4.978599262280611,1.2230818723731571,1141.2722926737226,1130.4149606926983,1117.7405557505147,1128.1079342735227,664.3037343555676,350.00240943273474,95.51826150441433,28.887060250054375,155.34039430029745
7.67,0.3430907498724896,0.521645809731377,0.3370222131788661,-0.0226362030250349,0.0066613820294699,0.0058200813774403,0.0006810204175425,0.0049353813161205,-0.1090383965948753,-0.9940249183173928,0.0257478650603348,-0.0050412698392128,9.755632772405638,0.0038219426661762,-0.0275736398556957,-0.0024292633276449,8.3919311463594,4.978534644845948,1.2230759472543051,1143.0864241410673,1131.2926351443803,1118.4070157859715,1128.057243151444,630.3196294346113,266.4014581074355,373.1815924050432,-77.98571409512243,155.3389752130942
7.6725,0.1520811494780816,0.5217433809171853,0.2307372996404143,-0.0217477029453611,0.0097126661503942,0.0073882274010619,0.0007068023934138,0.0049159867021447,-0.1090384373003785,-0.994024983500626,0.0265177659482115,-0.0060732565965241,9.757111545841775,0.0038156630672288,-0.0276127976199231,-0.0026053319897201,8.391954228610254,4.978468697841572,1.2230682200887029,1144.4238908208956,1131.7469679832354,1119.6064637125398,1127.7180057030473,453.44688692745024,96.29338268055312,566.6657606024849,-198.7238388684588,155.33776769403934
7.675,-0.0356653389564096,0.4525318196433933,0.0946551439607534,-0.0214488862791513,0.0119272405185292,0.0078801510698441,0.0007442697457714,0.0048930954749547,-0.1090448086405987,-0.994024366282048,0.0272050464860264,-0.007058032981079,9.75906873483758,0.0038097000123534,-0.0276603192044268,-0.0027746809414599,8.391978164245481,4.978402679979894,1.2230593415851094,1145.3536585757045,1131.774102057783,1121.2403445889838,1127.0636239571015,271.4118429631584,-107.76441523089719,743.5758685122595,-345.1144317493873,155.33653453437552
7.6775,-0.2394616850296906,0.3288189977872917,-0.0735359555320919,-0.0219108756282489,0.0127511889812969,0.0072172372208736,0.0007917009120654,0.0048686245578667,-0.1090556560699122,-0.9940232593811092,0.0278505962124803,-0.0079307439962963,9.761466220994409,0.0038032401657284,-0.0277145765876636,-0.0029353313492386,8.392003300769556,4.978337301046972,1.2230499326765518,1145.7809500357112,1131.2081459070807,1123.324343055101,1125.9924335443004,24.593537068131425,-311.10005263049726,725.0675012042094,-420.2051315492189,155.33502466022924
7.679999999999999,-0.3775387646898642,0.2262113704344534,-0.1995652918640214,-0.0229071611057016,0.0121384504769831,0.0062638355906138,0.0008482838473515,0.0048465387038907,-0.1090715183790257,-0.994021583377284,0.0285338125607365,-0.0086553489638046,9.76425975077912,0.0037953432824379,-0.0277739861664504,-0.0030857534949168,8.392029556181594,4.9782730125229255,1.22304051830416,1145.476626261045,1130.2186017946303,1124.8656820950048,1124.9625982993557,-257.2853328195888,-491.0761861252572,515.1795928403882,-411.8763007754839,155.33374056183234
7.6825,-0.4688912884234659,0.152207041697536,-0.2995726777430052,-0.0243135294718597,0.0113170079990019,0.0054545930458162,0.0009125433258246,0.0048308069244641,-0.1090934704171243,-0.9940192018859167,0.0293358205028556,-0.0091905328965576,9.767399983964264,0.0037852538992149,-0.0278368964980822,-0.0032247441334206,8.392056672992164,4.978209891023058,1.2230310543955036,1144.4945233716135,1128.7527649764547,1125.9002410193027,1123.933052040423,-487.98920648979777,-643.234405290777,301.46124308853194,-391.59790253959966,155.3324280912977
7.685,-0.5152208432147559,0.1069421175050692,-0.3750983710874374,-0.0258954692748894,0.0111641035223167,0.0046355873051121,0.0009801985918564,0.0048198579235355,-0.1091175103387951,-0.9940165642070172,0.030235851666709,-0.0094365195902923,9.7708343125662,0.0037729301454118,-0.0279014101332152,-0.0033511926554998,8.392083578943188,4.9781475787072695,1.2230212762653827,1143.0366802285955,1127.002429768176,1126.3729883104477,1123.0046087866572,-662.268340524784,-729.1927169125001,46.08852351384583,-328.81332930329125,155.33109054089599
7.6875,-0.505686926513842,0.0894738136474464,-0.4194398803326838,-0.0275402217575581,0.0117304945961378,0.0036453976558093,0.001044637853465,0.0048102756105854,-0.109138157301479,-0.9940142937403572,0.0311809582819796,-0.0092529796900015,9.774506866258097,0.0037589096697117,-0.0279652549016958,-0.0034641136906551,8.392109917726259,4.9780853448628815,1.223012384208172,1141.1831816689896,1125.1068013918923,1126.130683636872,1122.2889853939066,-851.5823061984246,-807.9785970145338,-250.1154930106221,-253.75245663881827,155.32972042807057
7.69,-0.4357044913932739,0.0914138080969768,-0.4349165315175431,-0.02929165944136,0.0121975585566994,0.0025353610403772,0.0011003736922034,0.0048015835131336,-0.1091535270488854,-0.9940126039849392,0.0321705964411504,-0.0085372494207015,9.778358114856077,0.0037439697463898,-0.0280257047480322,-0.0035627907629272,8.392136016291461,4.978021988704215,1.2230052536035094,1138.7787686976037,1122.9625367831036,1125.1224108453944,1121.735846503463,-871.361838596404,-721.3859129794554,-456.66190455172966,-151.7282861781983,155.32803535268442
7.6925,-0.3382915180954316,0.1089549461677444,-0.4146253053325623,-0.0303905363082869,0.0120547639985236,0.0016813838225091,0.0011457974630655,0.0047929937081717,-0.109164817743648,-0.9940113678414858,0.0331869090604795,-0.0072712086777269,9.782326017495565,0.0037291093553035,-0.0280795963833276,-0.0036466567106348,8.392161974709289,4.977956897046424,1.2229993869249478,1136.8263724760077,1121.499871826995,1123.8473741141136,1121.5303439630156,-730.315220624122,-475.4207505977421,-551.688866169764,-36.89811897211336,155.32659449517584
7.695,-0.215900543245475,0.1377208237290682,-0.3556071014739358,-0.0310079401039371,0.0118399047226485,0.0006620427521045,0.0011815201761586,0.0047847467847528,-0.1091736081863211,-0.9940104099953564,0.0342238130732423,-0.0054916766890662,9.786346521790854,0.0037156152203854,-0.028123490082043,-0.0037149878974804,8.392187541030406,4.977889834474157,1.222992754986122,1135.1271925944832,1120.5854330301147,1122.3639665145458,1121.5513559086028,-658.5757991765744,-246.58275507736633,-646.0831209630352,46.992655106033546,155.3251125138258
7.697499999999998,-0.0595328913972935,0.1699488367162162,-0.2344931398053668,-0.0311193107991366,0.0120579859557172,-0.0006676402796036,0.0012084121151319,0.0047775989174377,-0.1091791021100874,-0.9940098139207982,0.035280890156749,-0.0032505056695243,9.790354498085856,0.0037051255294308,-0.0281539012570862,-0.0037667363808852,8.392212832578258,4.977821275254057,1.222983646927284,1133.533493480125,1120.2669580516083,1120.6169585092985,1121.7653072385458,-499.1200358702478,16.915083060348838,-604.6300221788571,98.3631298592648,155.32328286216975
7.7,0.0664945038885299,0.1789777424327179,-0.0911651570672042,-0.0308673032127559,0.0127057996061061,-0.0015649023872921,0.0012284594014277,0.0047724117011079,-0.1091822907636716,-0.9940094654963656,0.0363533138524394,-0.0006299497949381,9.794284687325208,0.0036992966896845,-0.0281675507767012,-0.0038007759340979,8.392237837401408,4.977751842192856,1.2229717541985707,1132.631592415132,1120.6700084454167,1119.3408164036516,1122.043171557899,-271.1152901797535,282.05163116727044,-454.66550623238794,119.85790601491261,155.32171262250975
7.7025,0.177754542846101,0.1509691061725241,0.0893787583505193,-0.0304694254684582,0.0138400736733201,-0.0018902824142973,0.001245168468688,0.0047682131578264,-0.1091863241054711,-0.9940090203195018,0.037393351163998,0.0022547792683497,9.798073186260849,0.0036997077063411,-0.0281615322077395,-0.0038162617078255,8.392262304697526,4.977681306778855,1.2229575094919896,1132.177917029226,1121.6772162074449,1118.343630978136,1122.3645967686205,-106.66302221539127,536.1732506849081,-376.07585205078874,142.69766665711663,155.32009169377824
7.705,0.2858999959541099,0.0632487025524473,0.3324745864290895,-0.0298030387839447,0.0150577188336608,-0.0016079035138688,0.0012584708838006,0.0047638472338375,-0.1091919656818793,-0.9940084004313944,0.0383537739504991,0.0053533788741974,9.801658492888906,0.0037080004044897,-0.0281334576652823,-0.0038127413524618,8.392286034005892,4.97760932012911,1.222942045835268,1132.098277304055,1123.3508746988412,1117.4604371433977,1122.7566598911847,35.68082450233381,645.6275887911626,-284.61374779267925,142.76018537644026,155.3180839018848
7.7075,0.3494784478629907,-0.0526898098644046,0.5407952103621799,-0.029022449538817,0.0156173821198294,-0.0009016202812576,0.0012684483368238,0.0047620220619739,-0.1092006651047518,-0.9940074333981194,0.0392594254060906,0.0086009812763985,9.804981973891191,0.0037255445086128,-0.0280816208739605,-0.0037906788458512,8.392309509899544,4.977536117559324,1.2229264351520197,1132.3563211517376,1124.9053541514006,1116.9205622391728,1123.0783976955026,154.66477856735185,597.2588311848667,-197.59685611893892,129.8149611757281,155.31635554261516
7.71,0.3792780529107457,-0.1995941805642995,0.7308878472176451,-0.0279528224559841,0.0158310182341998,0.0003743645218467,0.0012754740700099,0.0047662952237119,-0.1092143641649007,-0.9940058890251868,0.0401492093014734,0.0119241085323801,9.807989961180697,0.0037533561345754,-0.0280051877924553,-0.0037515319990107,8.392333041336983,4.977462016226311,1.2229116599602483,1132.8716011968916,1126.3371688547654,1116.472452862803,1123.4057346970633,239.1683903068548,514.5678204755422,-181.13233818158207,135.2403664549485,155.31456657904212
7.7125,0.3776795258961802,-0.3554305987677132,0.8841803768913253,-0.0266995010188248,0.0156631578308761,0.0022705077354942,0.0012811060876535,0.0047781260102718,-0.1092342552414186,-0.9940036287497765,0.0410178518238737,0.0152321212614926,9.8106358315374,0.0037921207003395,-0.0279043579596451,-0.0036977260230018,8.392356021404062,4.977387340400087,1.2228980837456231,1133.5521631032718,1127.4781932537783,1116.014900548265,1123.7545995277771,305.5513154264256,355.7930316355926,-201.4871084948979,147.4876210447778,155.31272514971502
7.715,0.3381809957381424,-0.4943103162466485,0.9649390463824704,-0.0255306361541465,0.0145853868685616,0.0050341680821108,0.0012868971421344,0.0047947905988659,-0.1092575178472434,-0.994000975091214,0.0417789552447134,0.0184477412397041,9.812881759412468,0.0038423087137701,-0.0277804735485966,-0.0036324246474006,8.39237801856471,4.977313115810861,1.2228859741204112,1134.3993577740239,1128.1161340129431,1115.4650173203283,1124.1431728022872,408.87077649937015,151.15762268087883,-273.55471834917483,177.5763222705829,155.3108181165989
7.7175,0.2532363915441914,-0.6021221252014362,0.9475461693930716,-0.0247249316705811,0.0122139659456602,0.0091266685186344,0.0012949983703177,0.0048104758273388,-0.1092784854696548,-0.9939985773373408,0.0422863911072955,0.0214951821724602,9.814699520667162,0.0039039786671115,-0.0276360380892854,-0.0035593785021093,8.39239958280694,4.977240445658937,1.2228763444170823,1135.5965169857686,1128.2339813671827,1114.647126956519,1124.6424811391303,468.2365455338286,-54.42833480797278,-323.89077249759566,181.2552070762688,155.30845125096045
7.719999999999998,0.1576184149234555,-0.6193563167119241,0.8272926604496175,-0.0245511462351354,0.0097916221436897,0.0126819467794987,0.0013058760892316,0.0048218143150599,-0.1092927544752606,-0.993996935861146,0.0424488929456845,0.0243344121100347,9.816069907236617,0.0039764216415593,-0.0274746413096269,-0.0034825863006707,8.392421329833647,4.9771697651472335,1.2228697885040638,1136.7405405016927,1127.8439923389035,1113.8455634578406,1125.0494488376685,480.9657176795201,-224.31821168275317,-330.60751882049567,148.43870638860923,155.30641194570285
7.7225,0.040846991977404,-0.546893674079264,0.6058828064774802,-0.024450993898294,0.0072481402856968,0.0155236683255164,0.0013243241346658,0.0048246791614595,-0.109299808328842,-0.9939961202448582,0.0421564564683385,0.0268520002922961,9.81698371469719,0.0040580517704477,-0.0273007331334524,-0.0034061833269018,8.392443048093705,4.977101322409766,1.2228660824666309,1138.001345574166,1127.112390308769,1112.9940893624166,1125.3846746710733,558.7948366725905,-345.54305555401754,-356.78652388259127,119.09719544776593,155.30430170762088
7.725,-0.1230061979859102,-0.3620138431806703,0.2600935054496108,-0.0242049928226984,0.0044115212136433,0.0173500134160797,0.0013537061437496,0.0048193721651405,-0.1093027574337418,-0.993995780241718,0.0413955796315769,0.0289634333452075,9.817440279548803,0.0041464403322033,-0.0271194059711702,-0.0033337937300476,8.392464726400613,4.977035410917686,1.2228638210411642,1139.5345146850564,1126.1162770611331,1112.0616308384272,1125.6449348149074,538.7509206234996,-341.6473933170055,-302.12734553497927,69.79270152242101,155.30168621467567
7.7275,-0.2775278731646834,-0.1477295646790061,-0.0565552123307342,-0.0241424414853291,0.0028907151101578,0.017446647623487,0.001392079770494,0.0048065778943743,-0.1093032197411481,-0.9939957346216298,0.0401797472204329,0.030698505662404,9.817447476395374,0.0042386796562516,-0.026936080417804,-0.0032679926378103,8.392486376558704,4.976972691727656,1.2228610192599116,1140.6951001772836,1125.404153342184,1111.4834526347415,1125.7336381786852,401.9184630891772,-215.92682173450615,-163.52170942573488,17.44706360441379,155.29943682904923
7.73,-0.4416836530492356,0.085570669270614,-0.3548041010988194,-0.024554369487239,0.0027626520142504,0.0163022209278149,0.0014367878156818,0.0047884070137326,-0.1093013160886126,-0.993995961986012,0.0385609013192317,0.0321091563332258,9.817020706634953,0.0043314374250861,-0.0267561023908365,-0.0032105204303358,8.392508079013355,4.976913587469324,1.2228570222586395,1141.5441070005022,1125.0366429524606,1111.2440222912987,1125.7321701329295,261.16106587137995,-51.347080949427614,-8.24976212984456,0.6207109458500913,155.2971151373966
7.7325,-0.6290014783249834,0.3271283901935418,-0.6443313530476784,-0.0256492294893873,0.0042895264261229,0.0137868412355381,0.001486615261941,0.0047662085769222,-0.1092984947409978,-0.993996298095998,0.0365828880058157,0.03323065444739,9.816182366619612,0.0044208953021242,-0.0265843178119096,-0.0031625041128032,8.39252974118659,4.976857907695788,1.222851573245058,1142.0009055066405,1125.1474179374368,1111.4422038240923,1125.7367417334146,54.13010536267508,136.0668453468435,156.97599590626277,22.910229048557568,155.29424674539166
7.735,-0.7560554545970052,0.4573004488907473,-0.804916794145945,-0.0270162442373523,0.0066724283413327,0.0109615593839307,0.0015417390461407,0.004740009039133,-0.1093001081838545,-0.993996154664346,0.0342710032235667,0.0340817671294808,9.814960805495224,0.0045027132066324,-0.0264246399948758,-0.0031246544620749,8.39255259812981,4.976805672592927,1.2228453957333727,1141.8147575273156,1125.7169771791948,1112.02890227083,1125.8467212781723,-198.61629678685367,307.9675762398048,314.4469384875332,88.34121609188702,155.29178939524192
7.7375,-0.822710847529523,0.4856934420731663,-0.87023208553237,-0.0291401568388164,0.0093140309086112,0.0080151859318872,0.0016034784119138,0.004712678175177,-0.1093105632984955,-0.9939950326855727,0.0317132286311834,0.0346589258353937,9.813388375889005,0.004572454740914,-0.0262795791289351,-0.0030974930090885,8.392578318128097,4.976756263101276,1.2228390133290215,1141.0078240227062,1126.6872558186355,1113.01443851653,1126.178447813874,-416.7235380767213,426.3621714850251,446.5825145514922,180.2437275609957,155.2892652557773
7.74,-0.8160356200785955,0.4273355712576627,-0.8608657449444032,-0.0320572440100054,0.0112731828998525,0.0053469732616156,0.0016696838944116,0.0046896874515275,-0.1093281616266689,-0.9939930961353256,0.0290641299323641,0.0350244234589304,9.81150024364043,0.0046262206371539,-0.0261498925217242,-0.0030812154610335,8.392607066783546,4.976707919097744,1.2228323139456319,1139.731139836932,1127.84878803662,1114.2618148435874,1126.7479399159772,-597.5654354854644,467.3033586173639,536.1058416748236,285.68396287282746,155.28668845373477
7.7425,-0.702005965918439,0.2791637718474389,-0.7782692472241691,-0.035582337690821,0.0120407858545632,0.0031638445605585,0.00173787436764,0.0046750656914498,-0.109351626796786,-0.9939904706217793,0.0264582122159126,0.0352501345815997,9.809334292890783,0.0046607791213089,-0.0260344979505981,-0.0030758548379329,8.392638302251084,4.976658487988983,1.222825317855843,1138.0199968452785,1129.0237726117227,1115.6949677249047,1127.6068676282384,-804.1110905859741,464.0641350917675,628.8337768788684,425.2068033209616,155.2840522378134
7.745,-0.4435878711436702,0.0232174191322042,-0.6237147593912188,-0.0393835744355804,0.0123262638996615,0.0012303867420642,0.0018029305816995,0.0046721247732825,-0.1093793990501924,-0.9939873217789325,0.0240271176929724,0.0354580642013283,9.806929936992535,0.0046739826111449,-0.0259306226262053,-0.0030812294992959,8.392671095505397,4.976606316266331,1.2228180699037903,1135.7105843840022,1130.1691087120787,1117.4059837279815,1128.873973932582,-846.6883704206518,342.5196711949484,587.8400488331988,475.41775866112494,155.28082640005607
7.7475,-0.1534966006054944,-0.237985205567743,-0.4711773945686187,-0.041126808487095,0.0126413127043632,0.0002285250793303,0.0018597550387624,0.0046777632991958,-0.1094066895690678,-0.9939841997204614,0.021780437498001,0.0357782968694757,9.804328316235388,0.0046651761614425,-0.0258341492802511,-0.0030970414595885,8.392703840878731,4.976550659086142,1.2228105636332465,1133.7865549931753,1130.7363709676977,1118.6341679690706,1129.983956421544,-716.0878008315801,123.39933695839397,406.2324730878204,410.40447385345,155.27809149107827
7.75,0.1592205726458728,-0.5253215840947524,-0.3174197004230882,-0.0408042696177018,0.0125966799163371,-0.0002635733050414,0.0019072393240761,0.0046854841839243,-0.1094298180519389,-0.9939815416451668,0.0196540204441901,0.0362627705159269,9.80157108927254,0.0046349655491927,-0.0257401577459643,-0.0031231552910497,8.392735899068532,4.976491235236682,1.2228032053991995,1132.1301453798444,1130.7861053968707,1119.4371460934208,1130.9259963018492,-610.0011966713867,-97.76176139594307,219.9983467662652,323.91400495776685,155.27531464145576
7.7525,0.4895890962314435,-0.8583080532103647,-0.1506969632385486,-0.0383894648176988,0.011002528212404,-0.0004642076504501,0.0019466105083152,0.0046890364985584,-0.1094483709608099,-0.9939794205519498,0.0175822471893175,0.0369083339057306,9.798699044583763,0.0045849300660289,-0.0256435275808723,-0.0031595643490013,8.392767123594878,4.976428030854028,1.222796657501193,1130.7365490098184,1130.247562160718,1119.734159702902,1131.6035264463328,-379.63281340772386,-278.9279517540368,-8.674719385362735,145.480305726372,155.2719412059592
7.755,0.6863597379713305,-1.0868438974603658,-0.0348040542702804,-0.035426429719083,0.0081738622089883,-0.0004252839638536,0.00198212819311,0.0046874017154252,-0.109465127100422,-0.9939775265089354,0.0155912871239676,0.0376320815027003,9.795750791213408,0.0045173721346088,-0.0255395039101776,-0.0032064227408675,8.392797075811423,4.97636168237626,1.2227907845849963,1130.2319813128058,1129.3914656381005,1119.393772496494,1131.653397830481,-44.623259602213736,-388.11296168529145,-238.81953304144696,-97.45137173636273,155.26910068674067
7.7575,0.7762387823968515,-1.2198321593316495,0.0528805470502175,-0.0324376005182315,0.004059254562438,-0.0002558417171231,0.0020152234882226,0.0046836358341432,-0.1094807508672816,-0.9939757678868736,0.0137864408064994,0.0383886705303261,9.792762212704169,0.0044353420638957,-0.025424190873421,-0.0032636262499936,8.392825606665596,4.976294036242107,1.222784577275185,1130.5134327118071,1128.3069973522915,1118.5400620376947,1131.116269587651,301.3165682101836,-473.8325254610218,-440.9359061274338,-350.36075561093475,155.26623540321833
7.759999999999998,0.7606017256365072,-1.2369134972950326,0.1248071149320953,-0.0292649655049337,-0.0016571592802077,6.957896488885144e-05,0.0020478103635817,0.0046819848901581,-0.1094946157935936,-0.993974189007188,0.01228705472012,0.0391127780894758,9.789766611217097,0.0043423656626122,-0.0252948631740453,-0.003330891058226,8.392852753046261,4.97622676806118,1.222777690796548,1131.7385641538567,1127.0223030107954,1117.1890929658568,1129.9015940524264,574.2085562134557,-428.38246741990594,-498.34224707675435,-504.67642319869066,155.26277462340212
7.7625,0.6589269919215764,-1.1313416827543583,0.1578119110675697,-0.027029349221678,-0.0062286432490576,0.000447064036376,0.0020807390556678,0.0046857826271396,-0.1095070406192576,-0.9939727369145333,0.0111877359936346,0.0397549663822701,9.786794488816344,0.0042421411695476,-0.0251500770065666,-0.0034076886596613,8.392878484839331,4.97616079614982,1.2227700614411618,1133.3844754928743,1126.165085015192,1116.048350802311,1128.5928874716576,741.298514361663,-261.5271293248998,-398.22598815238194,-529.8999431610436,155.25987620965387
7.765,0.493168185098286,-0.9297258226394024,0.1645889901841335,-0.0253596142143059,-0.0094488161908217,0.0009315628419857,0.0021170209309513,0.0046939069069842,-0.1095184447360941,-0.9939713636766668,0.010481597560246,0.0402283213266311,9.783873818358552,0.0041384570340091,-0.0249895373015165,-0.0034934290569943,8.3929030354947,4.976096313361944,1.222762164611554,1135.4450567256656,1125.7146673641707,1115.1979630250946,1127.2520943366208,934.9705742433088,-82.75388387542256,-255.87963049152316,-536.3522783982831,155.25696763170737
7.7675,0.2611989398840884,-0.6356059277818792,0.1458484306281125,-0.0244588641810825,-0.0109231923544722,0.0015528505480746,0.002161086501426,0.0047042539375998,-0.1095283946718476,-0.9939701175260564,0.0101290409631982,0.0404174460448317,9.781029215180672,0.0040350974752824,-0.0248139015310513,-0.0035875197304645,8.392925922121249,4.976033235295827,1.2227540169083293,1138.059328364091,1125.7513155958147,1114.7689526498534,1125.9111260796662,934.0415485702323,108.20239286845438,-43.67088443773448,-415.34382798477935,155.25347096012544
7.77,0.0713248978361534,-0.390753170904295,0.1120272245431769,-0.0248110772705047,-0.0105500265830861,0.001938867170642,0.0022153387799409,0.0047154303869659,-0.109536007916371,-0.9939690975731816,0.0100981450097498,0.0402437542569095,9.77828134359467,0.0039356720697791,-0.0246245974462972,-0.0036892329924993,8.392946757364305,4.975971741015696,1.2227455149247115,1140.1152644685167,1126.2556793285128,1114.979608602906,1125.175375196697,752.1572066073237,278.8639735198617,191.16143452566072,-199.37001242793,155.2505558717141
7.7725,-0.0858476040989626,-0.1792348515487278,0.0660979332748596,-0.0259781525349307,-0.0098340058120063,0.0020461240284105,0.0022782237235393,0.0047291863250951,-0.1095436358456262,-0.9939680396972242,0.0104168823585098,0.0396992842925083,9.775646393253831,0.0038432318070428,-0.0244236477207505,-0.0037976646337492,8.392965967874854,4.975911582534916,1.222735944572221,1141.8201143971276,1127.1456354634142,1115.7247598224817,1124.9142760175266,604.259125437524,392.3015173997639,360.678232638073,-30.70979704598423,155.24764501968747
7.775,-0.2058240105287462,-0.0011311779887439,0.0151063347189555,-0.0272977385775342,-0.0095186108298732,0.0020591156487103,0.0023455977511165,0.0047474040344723,-0.1095548463117377,-0.9939665512859888,0.0111122979495095,0.0388281851877668,9.773136596831028,0.0037602121985719,-0.0242134390688777,-0.003911837974806,8.392984058076525,4.975852863163881,1.2227249044042416,1143.1365600957042,1128.2171869155115,1116.7829997660963,1125.0218262114668,425.8739710240752,431.18763903113194,455.9732285758952,109.70876039837329,155.24474222761427
7.7775,-0.2846410601270086,0.1442200288749125,-0.0373462588132533,-0.0283595871249327,-0.0095167754509431,0.0020515204814036,0.0024133893793033,0.0047685295712444,-0.1095700313489397,-0.9939646061251316,0.0121362922088977,0.0376841865800306,9.770760999570006,0.0036885556795836,-0.0239964840395776,-0.0040309326247586,8.393001742063996,4.975796115585984,1.2227126642558188,1143.9494842522479,1129.3015736585699,1118.0046259653611,1125.4628198195185,245.7545509364588,427.0975426839505,520.0540297280097,230.13826239899157,155.2418552209106
7.78,-0.3498341556777416,0.2929999604725893,-0.0965474238138479,-0.0291691229108243,-0.0095208846386977,0.0018487504537336,0.0024813154338495,0.0047875512510244,-0.1095856320097623,-0.9939626208800246,0.0133587188138593,0.0362596141981037,9.76852585210355,0.003629720400921,-0.0237751912434663,-0.0041546051108479,8.393019648868854,4.975740809706926,1.222700301042092,1144.3653328503865,1130.3526746289315,1119.3832699147363,1126.172517523462,66.10337196348296,311.447681896568,458.61934086789074,258.3467345263726,155.23841763389242
7.782499999999998,-0.3956148229216496,0.3995782851908651,-0.1386802996434265,-0.0295209912202685,-0.0093991076614882,0.001433563690115,0.0025514514040903,0.0047995594632082,-0.1095979884231488,-0.9939610178453228,0.0146415986032892,0.0345061967123886,9.766434211857112,0.0035845256340649,-0.0235517397872712,-0.0042830019428791,8.393038221504995,4.975685876922331,1.2226892680178911,1144.2800011120653,1130.8588120680527,1120.2977226697003,1126.7545534921503,-116.9535414976078,100.7049909110286,294.4391307293762,199.50473987355932,155.2355821213931
7.785,-0.4462605995250533,0.4826618317307981,-0.1696724542560452,-0.0297371165344017,-0.0084621542411154,0.0009570586966315,0.0026229349227623,0.0048039368945418,-0.1096038066429529,-0.9939601658716816,0.0159334891162481,0.0324294741653492,9.76448519422013,0.0035532006460314,-0.0233280800059388,-0.0044164293722303,8.393057178424142,4.975630891449433,1.2226800021727362,1143.7805651428985,1130.8561995834866,1120.8554655683831,1127.1700412228297,-311.62926911442486,-126.18486842459635,158.917898057846,125.18748877053302,155.23278561123237
7.7875,-0.5145884724991209,0.5404810021471297,-0.1922130491765408,-0.0301564493917282,-0.0062274610591457,0.0004743250753839,0.0026931597122835,0.0048026871040292,-0.1095989876102961,-0.993960515132762,0.0172359437365219,0.0300695563792495,9.762674308313551,0.003535549012898,-0.0231059778230035,-0.0045551170087992,8.393076134426149,4.975576329215741,1.2226726607632243,1142.7218547664927,1130.2278877259296,1121.09231215999,1127.380490936003,-463.0518020512326,-325.0719022526097,24.1621902255252,28.37774754407352,155.22948556556983
7.79,-0.5680030696535424,0.5467457191813867,-0.1979904919561234,-0.030895562860785,-0.0041421982074998,0.000157337066679,0.0027552522525696,0.0047985820687089,-0.1095836052217575,-0.9939620629234852,0.0185748700929683,0.0275538204776944,9.760993622050899,0.0035307923460249,-0.0228871308064091,-0.0046987627942972,8.393095577374316,4.975522989742512,1.222666357499269,1141.4653061326424,1129.2308400722236,1120.9762765195107,1127.31192996055,-574.370555742838,-470.8411830962278,-91.63705913570278,-67.23233000475518,155.22678931940018
7.7925,-0.5948411775471713,0.5131280821364927,-0.1877827792447852,-0.0323190381821586,-0.0025646578488683,-0.0001266113032435,0.0028019682391723,0.0047936570410778,-0.1095591882971779,-0.9939646511583063,0.0199641141590988,0.0250246348020717,9.759432084946408,0.0035377975231847,-0.0226730931842007,-0.0048464314339085,8.393115489652446,4.975471148436159,1.2226598310675747,1139.8500019877788,1127.8736818104485,1120.6341268643112,1127.0443292859793,-774.0766211999637,-637.5180028725616,-176.26666564502023,-145.58455740557602,155.22415631996756
7.795,-0.5645042485263226,0.4422997326927786,-0.1507552778342703,-0.0349643534085853,-0.0014639548153,-0.0005213170462692,0.0028327326246573,0.0047913705174481,-0.1095295510463552,-0.9939678438557036,0.0214335856410729,0.0224979781928336,9.757975225152176,0.0035551303040463,-0.0224651243408303,-0.0049967766250077,8.3931351947267,4.975419907307935,1.2226517562318695,1137.5949230266426,1126.0432500578609,1120.0949431912857,1126.584007173522,-854.3751451873686,-669.9597534669153,-201.41572109051117,-180.5753091546232,155.22107667290777
7.7975,-0.4698561161213094,0.3698623455719785,-0.0928297665669558,-0.0377667383848703,-0.001064146980004,-0.0009450248688818,0.0028533273158391,0.0047944321942549,-0.1095000460840282,-0.9939710210632822,0.0229887544623589,0.0198740758181923,9.756605324067134,0.0035811655663992,-0.0222641181286431,-0.0051480650025387,8.393154806278442,4.975368705690318,1.2226411400675679,1135.578126261842,1124.523883043114,1119.6270482588588,1126.1414527402062,-795.6354308882678,-565.7763964879571,-176.3606349273724,-181.30561930852693,155.21858075360075
7.8,-0.302462877920347,0.2910229669445665,0.0004721689571922,-0.0403507364612892,-0.0008189205626546,-0.0014575458749783,0.002870345999688,0.0048031541491737,-0.1094765322994497,-0.9939735174126936,0.0245913028232717,0.0170483596542748,9.755301711673424,0.0036141387299113,-0.0220706692564225,-0.0052981548735655,8.393174327455105,4.975317021628081,1.222627524972384,1133.6167458722011,1123.2143680754211,1119.2131400166488,1125.6774790769796,-744.8830890821386,-462.58601635077935,-152.7614481785382,-187.92045727800945,155.2161611658607
7.8025,-0.094357484917899,0.2054793500165291,0.1254379618604987,-0.0418106011798174,-0.0003449740374387,-0.0019431120382566,0.0028905343328702,0.0048162276433125,-0.1094633227975214,-0.9939748459466616,0.0261761339857223,0.0139225229722724,9.754041155197084,0.0036521968453695,-0.0218851675466932,-0.0054448402053805,8.393193858932658,4.975264515958186,1.222610734500138,1131.8537108164314,1122.21095296136,1118.863241017966,1125.201850453816,-628.7574377614345,-304.9602798451338,-127.8918807752034,-196.39729341908264,155.21380625874312
7.805,0.1194959513298798,0.1052721199819758,0.2836394292379845,-0.0413893672012771,0.0005004755999097,-0.002101378633312,0.0029162819029964,0.0048361756317482,-0.1094616941913073,-0.993974847436946,0.0277671054230377,0.0104802143669045,9.752797748365209,0.0036933594369205,-0.0217079912453414,-0.0055861301957715,8.393213715523894,4.975211454875924,1.2225918783682728,1130.4729586833937,1121.6895666761952,1118.5736806127727,1124.695492609884,-500.3280199952876,-105.00828272279475,-122.34270881317832,-237.20147637418955,155.21152980454832
7.8075,0.3227403773009221,-0.03615673606154,0.4930601578913742,-0.0391960614989327,0.0015877449293769,-0.0014994328317537,0.0029449820617819,0.0048651709638177,-0.1094718715853727,-0.9939734948546188,0.029397611487552,0.0068079733176849,9.751544940810351,0.0037354636285773,-0.0215397077584258,-0.0057205088431154,8.393234732033523,4.975158590403112,1.222572706854357,1129.352070716455,1121.685911547746,1118.2515274739003,1124.0158430719453,-321.57013022784446,98.9971362095751,-119.02460940614472,-265.40953981121334,155.20888790360783
7.81,0.4155780466683296,-0.1655528434282871,0.662583373082362,-0.0366375858475032,0.0021796537839724,-0.0002869387814375,0.0029725940898954,0.0049028428689958,-0.1094901374636099,-0.9939712120497038,0.031060325027596,0.0030308850456047,9.750257549451419,0.0037764041606093,-0.0213811351915471,-0.0058472062764924,8.39325708522439,4.97510647071064,1.2225537126995147,1128.8651080322545,1122.184552357243,1117.978557565742,1123.368444910828,-113.59073633089125,285.34052221135124,-110.71486107071232,-274.8474936564948,155.20676000435475
7.8125,0.415720949666808,-0.2859632277517644,0.7968605596961702,-0.0342187703150258,0.0018361112726647,0.0016884011632765,0.0029989881759551,0.0049429817774214,-0.1095134309448622,-0.9939683669226436,0.0326318452485963,-0.0007846775013673,9.748914013253266,0.0038141520362055,-0.0212333612609797,-0.0059663674970943,8.393280554106314,4.975055078502167,1.2225345476632659,1128.7841170348006,1123.112614158803,1117.6979531685467,1122.6416056036628,39.0136832915695,472.0960703956835,-117.83282456786107,-326.0656398526477,155.2047073457734
7.815,0.3259394447196325,-0.3851697340582274,0.8832834253815685,-0.0323261747084822,3.83508730893051e-05,0.0049776342157197,0.0030285345410989,0.0049779695802691,-0.1095389899051982,-0.9939652881553332,0.0339566842958193,-0.0046522221732512,9.747497144791849,0.0038469169044177,-0.0210977254148091,-0.0060790783168819,8.393305180223608,4.975004057100657,1.222515488377027,1129.0601764487124,1124.5450327092215,1117.3893934429027,1121.7381167115648,151.42330623257618,546.7692243452465,-98.74544620279475,-320.5910462024417,155.20233019124532
7.8175,0.2034519305401359,-0.4081443133478424,0.8749453211164041,-0.0317931801681158,-0.0021141534691049,0.0082953917342913,0.0030633112443593,0.005005163948733,-0.1095632718929195,-0.9939623725299896,0.0349845402020042,-0.0085475432505328,9.745994544391891,0.0038732853153574,-0.0209758760091511,-0.0061871118931102,8.39333042625156,4.974954628163029,1.2224969401552859,1129.5412335659635,1125.846460280529,1117.2042259375328,1121.0386503726506,236.43037104021053,504.6892296709864,-45.079279300308414,-244.2411226190468,155.20042057147955
7.82,0.0686042947851358,-0.3589218048405832,0.7779109203763565,-0.0322408203534033,-0.0041487573852561,0.0115988209874218,0.0031032243186344,0.0050257915518715,-0.1095862784085647,-0.9939596134074542,0.0357474182637042,-0.0124099722682145,9.744400220644,0.0038922060307147,-0.0208697263649905,-0.0062928305581652,8.393356367704122,4.974907532716164,1.2224794085551447,1130.2423283039132,1127.0684788575763,1117.1639970464012,1120.5169110984696,355.7520053248102,482.83078691612104,30.83114245832869,-158.38093493485187,155.1985849916461
7.822499999999998,-0.0737077669175075,-0.2288780020692124,0.5795267626534875,-0.0334510078668963,-0.0058450496950895,0.0145293963259744,0.0031498466511976,0.0050396691187166,-0.1096087885298284,-0.9939569204446648,0.0362477028359529,-0.0162063183035357,9.742716637575617,0.0039033272461522,-0.0207811792769739,-0.0063991273890164,8.393382162034033,4.974862840885552,1.222462629131162,1131.3199935925875,1128.2606142151096,1117.3583816498244,1120.2467456979764,430.2058649323136,375.44728887606544,118.43262141797166,-20.56465322803022,155.19646840905372
7.825,-0.1638564527962051,-0.0833068321030808,0.3761082843740612,-0.0344637819845122,-0.0063335659518428,0.0155336028194607,0.003200039641456,0.0050486772089423,-0.1096298728963075,-0.993954394934756,0.0365377049751357,-0.0198159029219675,9.740955117530893,0.0039071500741253,-0.0207118780200454,-0.0065090377681959,8.393406733505886,4.97482064339583,1.2224465698280216,1132.393357628575,1128.9457153019566,1117.756160153491,1120.4140878323294,450.5546307856753,207.4274245665168,207.11855116275217,162.88045476451043,155.1947770844503
7.8275,-0.2245993136723093,0.0679950669715711,0.174497848961458,-0.035067512781765,-0.0060039504386325,0.0150301647316729,0.0032517523719777,0.0050552321216442,-0.1096480233922083,-0.9939521964636588,0.0366763791470054,-0.0231415509576782,9.73913626899629,0.0039049860622346,-0.0206627954403296,-0.0066257960570019,8.393429853670913,4.974780288742145,1.2224310751749607,1133.5727667465162,1129.2977513379424,1118.3939744056383,1121.061147971799,467.4912032790516,94.71061727372418,285.7985318880825,339.6821496205193,155.19316226697157
7.83,-0.2669320726770844,0.2006614152398709,-0.0021591480831905,-0.0353853227822127,-0.0053818519203244,0.0137464014775285,0.0033051989160425,0.0050591802135728,-0.1096628029300508,-0.9939503734874144,0.0366655195086301,-0.0261279708770111,9.737290379055654,0.0038988129892678,-0.0206339017588795,-0.006752689397583,8.393451650342966,4.97474092080946,1.2224166055403656,1134.73081364497,1129.4192683883252,1119.1851528129312,1122.112498580432,420.78541220344954,11.299678594287128,332.34123091679777,505.8123917393567,155.19161190194757
7.8325,-0.2932720353091875,0.2874244594351538,-0.1401508332301317,-0.0353308698009955,-0.0044106232906755,0.0125656878891786,0.0033625394574234,0.0050568951776839,-0.1096746413495595,-0.9939488904517256,0.0364321424837516,-0.0287558413846862,9.735456951838312,0.0038911372732406,-0.0206239246217152,-0.0068928567617094,8.39347187284446,4.974701775951948,1.222403229020398,1135.6766938075334,1129.3542497309138,1120.0556805602223,1123.5902099304958,315.27448590514484,-48.67817915178525,365.5233570813002,716.0284873088283,155.19014019366287
7.835,-0.3040938505383918,0.3150765523808448,-0.2736543497634784,-0.0351283968715955,-0.0027650262737529,0.0120824231410927,0.0034251597096772,0.0050484295510521,-0.1096827154240349,-0.9939478336251651,0.0359723173306661,-0.0310064604425767,9.733682306002695,0.0038847743527581,-0.0206302379029166,-0.0070490560136815,8.393489770985939,4.974660976390592,1.222390928999452,1136.3071860744958,1129.1758774925663,1121.0127695983379,1125.692641016976,115.9098941009258,-70.9910016561495,309.03065871667167,792.0543460155101,155.1884658356715
7.8375,-0.2826561903878893,0.2645912809563471,-0.3735695833941494,-0.0353019952438571,-0.0013558837775492,0.0120082166569458,0.003489033387188,0.0050353364289596,-0.1096871598265269,-0.9939471930820364,0.0353187793523972,-0.032769770538138,9.732018901705262,0.0038824677603668,-0.0206490020064336,-0.0072232264319348,8.393505822537636,4.974617524496675,1.2223795409285,1136.256243278038,1128.999294722633,1121.6008338538056,1127.5504816605733,-158.23810617089632,-73.31701114494692,165.4574685708702,718.8397262538427,155.18714718018987
7.84,-0.2020648331961851,0.1373922573070533,-0.4734025455769272,-0.0363053274235861,-0.0002708477595824,0.0115143445420162,0.0035531713898547,0.0050191578090682,-0.1096879731598723,-0.9939469631070608,0.0344940701342996,-0.034006370075728,9.730523051760535,0.0038865993687415,-0.0206752874745847,-0.0074166004228115,8.393520771815052,4.974570791146966,1.222368326029002,1135.515995543641,1128.8092924368416,1121.840056941192,1129.2868396482452,-474.25333145252904,-94.81099359541278,10.296350072030911,684.3952476318153,155.1859079833914
7.8425,-0.0041049746462733,-0.0905168726285604,-0.593995844340428,-0.0382564215245323,0.0004658879285493,0.0104162227153716,0.003617994518657,0.0050020113700416,-0.109686621116686,-0.9939469691781936,0.0335261866230981,-0.0347187421879666,9.729252646772693,0.0038987887601749,-0.0207034958090226,-0.0076294980255256,8.393535154726564,4.97452028817191,1.2223567262650052,1133.8849766207754,1128.525239754656,1121.6523156041656,1130.9724578987323,-692.4366850424724,-123.2207855448022,-144.67575009689736,522.6033578113057,155.18451223647307
7.844999999999998,0.25658745792409,-0.3252582989180856,-0.6895705881588122,-0.0396658901914181,0.0005024058695522,0.0093791308634003,0.0036829414449825,0.0049860636734169,-0.1096839778045022,-0.9939471064444088,0.0324447992662163,-0.0349043557534902,9.728265049288384,0.0039197337880654,-0.0207278697147362,-0.0078611642799619,8.393549701870093,4.974466021323289,1.2223443229883957,1132.053812118429,1128.1931885091176,1121.1166781907075,1131.8998564373017,-775.0342005236854,-161.80826728205264,-272.86203510430494,253.5955640810752,155.1834244690324
7.8475,0.6047948994229821,-0.5764769482004674,-0.7664031175559447,-0.0396193365611669,-0.0002344171352017,0.0082198976222196,0.0037454966061088,0.0049715623685405,-0.1096788425448579,-0.9939475165075886,0.0312468037930133,-0.0345325924689913,9.727615105275808,0.0039491470303861,-0.0207430329332831,-0.0081097182482986,8.393565294682144,4.974409631007886,1.2223306905491471,1130.009805618157,1127.7161984182455,1120.2880054286443,1132.2404357191376,-869.9187888669716,-243.5283281204721,-392.53706287484647,15.943960506635683,155.1824137308949
7.85,1.0820807541074269,-0.8531566885705247,-0.8100867255016365,-0.0375525195248119,-0.0022710155518656,0.0057495243703911,0.0037992653077121,0.0049577094587671,-0.1096692130963581,-0.9939484491305351,0.0299188349055538,-0.0335089415577462,9.72735271386095,0.0039856816213695,-0.0207444719615166,-0.0083721524383729,8.393583054613579,4.974353046769732,1.2223159485111077,1127.7042181740935,1126.975546868515,1119.1539928763332,1131.9795762398348,-763.2525741467069,-290.8875215502183,-402.9932543394893,-193.36532190236952,155.18128832443816
7.8525,1.4899664758224376,-1.0284760363894887,-0.7835482380182779,-0.0345187451629383,-0.005064631830245,0.0025451020440558,0.0038399167055162,0.0049442670365963,-0.1096548673156279,-0.9939499471660258,0.028457030235736,-0.0317924174240945,9.72751973806218,0.0040269894105143,-0.0207286885696395,-0.0086446812637457,8.393603131581324,4.974297670195061,1.22229993304248,1126.1935427474236,1126.2617608104947,1118.2730391569469,1131.2736091096256,-461.38030098892233,-287.44750176584307,-293.50701961662423,-358.5433944936616,155.18042227092
7.855,1.859434574369749,-1.1099353987771308,-0.6770334238665529,-0.030419672562878,-0.0088499049658618,-0.0007555299066818,0.0038683472091564,0.0049317538303306,-0.1096395857232043,-0.9939515873655708,0.0268653285672663,-0.0294556768486231,9.728147862126228,0.0040699531453514,-0.0206931677088208,-0.0089229717082695,8.393625412044575,4.974244122210207,1.22228195026704,1125.3973166691487,1125.5383093596859,1117.68645777825,1130.1868592673663,-171.91206761117795,-276.01468973926467,-155.09327555624043,-476.75440085000554,155.17962948142414
7.8575,2.160971716248566,-1.0970102270357207,-0.5109499983832829,-0.02531345306927,-0.0128931298390906,-0.0030423244871259,0.003888211798973,0.0049220984823638,-0.1096274462223745,-0.993952896260396,0.0251744624309391,-0.0266363537975597,9.729257406228868,0.0041111911501424,-0.0206362431421539,-0.0092022133821782,8.393649341203535,4.974192331406612,1.2222610187476333,1125.3339824093675,1124.8816873617984,1117.4975727791657,1128.8898371053758,161.26770132255277,-232.99815315904692,44.93153788021215,-545.6475695211909,155.17889658033673
7.86,2.340425047615404,-0.9699297209691312,-0.2992067817110874,-0.0188133249575679,-0.0163274082559726,-0.0038761113948547,0.003902698009892,0.0049197991520811,-0.1096217416515146,-0.9939534763171576,0.0234718579966442,-0.0234749575910739,9.730856661090064,0.0041474032402535,-0.0205569511510178,-0.0094772741071619,8.393674578718246,4.974142006123272,1.2222369125824286,1126.2036551757617,1124.3733185938906,1117.9111154676511,1127.4586214197607,578.0927384736183,-181.96184664316593,326.35265536433286,-635.6757274514301,155.17823492990917
7.8625,2.377933518985012,-0.7076111866990075,-0.0321054350115084,-0.0099347464769172,-0.0192150639142121,-0.0039022475074398,0.003913697051376,0.0049270681749565,-0.109624362055813,-0.9939531012569116,0.0218096129916917,-0.0200862748768462,9.732942665186874,0.0041757434700514,-0.0204548818505117,-0.0097429629780306,8.393700724794098,4.974092462198827,1.2222095595020677,1128.2244461017356,1123.9718781285826,1119.129336055987,1125.7114584681187,867.7902368671951,-112.7876110268086,547.490952536339,-632.1572681110546,155.17752217919434
7.865,2.254462447282034,-0.4231911561193817,0.1756722143928095,-0.0027357002098805,-0.0206087466649996,-0.003405863300343,0.0039192055872285,0.0049441072534946,-0.1096336442302005,-0.9939519616921668,0.0202149939771775,-0.0165073280395414,9.735501655552264,0.0041940868728004,-0.0203301107962267,-0.0099943214923866,8.393726996902398,4.974043054730355,1.2221790708632712,1130.5426063600976,1123.8093805387566,1120.6485702303328,1124.2978350792055,999.3264755522688,-30.55147289787305,663.406701314203,-544.787096893066,155.17699515750544
7.8675,1.991078209825444,-0.1043097257132949,0.3436102112161533,0.0029593079839017,-0.0211125512040152,-0.0024720309082538,0.0039143959495248,0.004969920957658,-0.1096458741556359,-0.9939504917183636,0.0187031497645005,-0.0127177545813138,9.738509717852846,0.0042010364918268,-0.0201831736639214,-0.0102270571438238,8.393753072657448,4.973993635184745,1.222146788396132,1133.221078479498,1123.8191207640932,1122.4463695625589,1122.9875229836528,1186.8338204912359,49.31305396994608,778.7652315729412,-540.5197997433903,155.17653681204067
7.87,1.5612790305378628,0.2797942472707299,0.4774751210010875,0.0076161417059439,-0.0208038106424998,-0.0010876872106057,0.0038960957875584,0.0050044120125262,-0.1096584587498442,-0.9939489912723658,0.0173072365627004,-0.008729118745012,9.741933635846754,0.0041957598601747,-0.0200150300404134,-0.0104380226423452,8.393779117764689,4.973944224601515,1.2221138923177994,1136.4767754625536,1124.0559458086063,1124.5423963881974,1121.5952360804883,1151.759297788546,134.6028711077935,701.376418548231,-471.46802710613986,155.1760653877224
7.8725,1.145195819232264,0.5740987709398535,0.5200657950568978,0.0101995770589842,-0.0197560387761208,0.0002356943100617,0.0038660714325056,0.0050449467228178,-0.1096702785837909,-0.9939475909844344,0.016003921569006,-0.0046392702051152,9.745733301428592,0.0041780256615625,-0.0198270424139227,-0.0106254075978586,8.393804254347716,4.973895317203416,1.2220807148977864,1138.9798749684403,1124.492135119632,1125.9532516553,1120.6301828481223,914.0033466572925,240.6038244699681,440.9297327112293,-335.4605406298177,155.17573752251982
7.875,0.7038504005356702,0.8104488737490618,0.4785393753309056,0.0120428044948328,-0.0177555625913437,0.0018280433790675,0.0038295104218685,0.0050861573828242,-0.1096802241973986,-0.9939464215394712,0.0147115909023109,-0.0006007736181934,9.749864058378115,0.0041481975705054,-0.0196209956339494,-0.0107886680132653,8.393827857170098,4.973846922416792,1.222047595444902,1141.04679219584,1125.258964930956,1126.7470450517535,1119.9179333773395,779.7000266876859,428.45634186997813,177.56047187386153,-246.88472354510463,155.1754766151109
7.8775,0.1748926533262217,0.9951324216036608,0.3226956201814257,0.0133739736145376,-0.0141772196395541,0.0041070570059668,0.0037926881593321,0.0051214684919236,-0.1096862844003374,-0.9939457150346808,0.0133236746415565,0.0032225516806345,9.7542787743428,0.0041070794006469,-0.0193990921213429,-0.0109283915720319,8.393849723187197,4.973799310336232,1.2220149989157023,1142.8783751018789,1126.634416828982,1126.8410540146692,1119.3957592303968,555.3711783595309,580.5292285873417,-103.35934902732552,-134.19167159150052,155.17524048849833
7.88,-0.2453412827031355,1.0512878345091334,0.1073963408309817,0.0133994395199003,-0.0104474571105031,0.0061297387632038,0.003756768116439,0.0051502228740083,-0.1096901383387623,-0.9939452830781949,0.0118593060539565,0.0067616197567033,9.75892890751508,0.0040553685767927,-0.0191640312868178,-0.0110460333110244,8.393870636224737,4.973753249448023,1.2219836976046483,1143.8236480876376,1128.1616110738928,1126.2302483066169,1119.246975019382,259.4786640889252,673.0278689524455,-354.2189028927244,-4.008935312413172,155.175107612648
7.8825,-0.6193235396064662,1.0052589923448887,-0.1730262485274248,0.0119357277886313,-0.0068337818829092,0.007531181890507,0.0037195227010873,0.0051740247814486,-0.1096943133063599,-0.9939448451717716,0.0103879862694394,0.0100179280916267,9.76376676237343,0.003993709277212,-0.018918828742198,-0.0111437419978702,8.39389114560279,4.973709028381216,1.2219541110393457,1144.1757684223235,1129.999556173744,1125.0699595002056,1119.3757145538348,49.81026450450478,761.6513191958963,-518.6522624725624,89.71622745875912,155.1750408792467
7.884999999999998,-0.9380665555409652,0.8893584297610283,-0.4712128985644197,0.0094134549858688,-0.0040622136130933,0.0074524659399489,0.0036805178515345,0.0051922871543392,-0.109701234293547,-0.9939441375380932,0.0089312789532984,0.0129733160855821,9.768747506964253,0.0039228064965261,-0.0186665312222818,-0.0112242197709913,8.39391158452814,4.973666336446286,1.2219267698250285,1144.07269941016,1131.9698676698722,1123.636986994254,1119.6955561566758,-138.4834977564908,780.5019573132251,-592.9114084791435,160.2480183433306,155.1750289397128
7.8875,-1.1777923781907127,0.7194493610848778,-0.7311717721207379,0.0064043235312869,-0.0025866711544581,0.004923005394197,0.0036421654462596,0.0052059160163662,-0.1097110488694073,-0.9939431299536656,0.0075311364772939,0.0155619906223333,9.773829672833166,0.0038434652439234,-0.0184100071048995,-0.0112904653645221,8.393931753404507,4.973624604475866,1.2219009599270128,1143.483350933541,1133.9020659603102,1122.10540245781,1120.1769546455514,-353.5414045515056,789.8224232848081,-647.0270663246889,230.93503844175785,155.17508309712088
7.89,-1.3689570694468032,0.4915302556661125,-0.928113231080464,0.0027503270510954,-0.0020272849926244,-4.151384949221688e-05,0.0036076567646258,0.0052175662703444,-0.1097209243801748,-0.9939421096928696,0.0062586132441866,0.0177100122484876,9.778975696518179,0.0037566369860535,-0.0181518967599847,-0.0113453767117672,8.393951383696358,4.973583045880926,1.2218764531121422,1142.3049923874023,1135.9189797862969,1120.40185166263,1120.8502313488848,-495.7660490929462,658.6073000487116,-576.8210950388161,253.2461305710112,155.1752245091701
7.8925,-1.4471043436299793,0.2995959678632334,-0.9674557885703936,-0.0005513112954747,-0.0020581817862062,-0.0043020983015482,0.0035798503876106,0.0052265647857278,-0.1097277568200265,-0.9939414131620966,0.0051171942388808,0.0193673456286148,9.784152635313959,0.0036634205654371,-0.0178946753829043,-0.0113913919871386,8.393970607838494,4.973541194532042,1.2218532747776034,1141.0045206880764,1137.1951024605537,1119.221296982616,1121.4431852984064,-565.0841810104005,404.75137952972494,-405.1667669078684,240.14765013840193,155.17540585513723
7.895,-1.4395457864717456,0.1104928660726068,-0.8775973142577134,-0.0043263998711207,-0.0018618469884635,-0.0074686039656763,0.0035589530281984,0.0052311672157624,-0.1097292860970241,-0.9939412991845296,0.00409115229165,0.0205475996100912,9.789331372888068,0.0035649349012311,-0.0176407858246227,-0.011430213911647,8.393989290753973,4.97349979463027,1.2218309846064312,1139.4795714823504,1137.9427366839454,1118.3760178280909,1122.0509695995768,-692.4414571599904,203.8247546963292,-287.6902751223104,275.4884607846238,155.17565258451285
7.8975,-1.3326809307575531,-0.1207113562713499,-0.6519898080861881,-0.0090884347744131,-0.0013034968793367,-0.0100708450130135,0.0035406824838407,0.0052338305223388,-0.1097248487130488,-0.9939418431649758,0.0032517985814363,0.0213518018963168,9.794485145314995,0.0034621465294686,-0.0173927338462824,-0.0114626284575996,8.394007870535294,4.973459432766427,1.2218089288028389,1137.5423134022765,1138.214226234035,1117.7828456070044,1122.8206276023295,-703.5737614640008,7.03269432401627,-149.38408810694773,294.5431576435629,155.17602323500188
7.9,-1.1699199508343323,-0.3209378952119279,-0.3979668747157005,-0.0129121827986595,-0.0010283007197226,-0.0115277121472315,0.0035230874300001,0.0052374135622186,-0.1097150849265598,-0.9939429660064008,0.0026686983906977,0.021842908032625,9.799589242976717,0.0033560051089306,-0.0171529211144965,-0.0114885986727083,8.39402667461292,4.973420459827663,1.2217862657578624,1135.9617026750304,1137.9779001555655,1117.629097387556,1123.5236853877943,-597.4008377657483,-164.6479879441848,0.773799183662066,297.79670512908245,155.17639325174244
7.9025,-0.9521559822330716,-0.523173132325008,-0.1177047936329855,-0.0160006445147091,-0.001416583290232,-0.0121823718846136,0.0035077226286912,0.0052434207530326,-0.1097031125298832,-0.9939443095873216,0.0023727458717119,0.0220252358797167,9.80462029953884,0.0032475304401369,-0.0169235455970744,-0.0115072943689111,8.394045464520195,4.973383000471157,1.2217623280026626,1134.5553092134476,1137.3909862943144,1117.7867146029228,1124.309611127975,-553.4685970519722,-302.7402239272825,128.00361311529105,360.9496360029502,155.1768252177685
7.905,-0.6666818096299248,-0.7465656797216339,0.1976723789093922,-0.0182144022418626,-0.0029897386361028,-0.0114841039011598,0.0034962793781444,0.0052520472687633,-0.1096894570656889,-0.9939458085389282,0.0023636015959048,0.0219085626613731,9.80955534108457,0.0031380735655106,-0.0167065183758595,-0.0115171103806293,8.39406363792083,4.9733470931570976,1.2217365074790831,1133.1943596897706,1136.4641990359291,1118.2691154531324,1125.3284335678093,-432.2552741210621,-351.01990234657774,216.65385994288505,376.8471531784679,155.17741304009294
7.907499999999998,-0.4408461838858691,-0.8949091637171809,0.4086135676509591,-0.0187937714922418,-0.0052886878613302,-0.0095580718285135,0.0034904724482299,0.0052623380973756,-0.1096736646353936,-0.9939475122787244,0.0026130146130163,0.021508175554691,9.814371087687325,0.0030292924271733,-0.0165033219480773,-0.0115159023198433,8.394080563448744,4.97331277323096,1.2217082333005351,1132.3940328428423,1135.6358867825816,1118.8699839026372,1126.1938468938672,-241.77884029323252,-316.6606459738045,274.32530456717944,332.3581382811952,155.17795893850632
7.91,-0.2587492641233586,-0.9793365790918134,0.5389118119803114,-0.0185708662228218,-0.0082899585844766,-0.0070274600036671,0.0034946173991485,0.0052728941220944,-0.1096569089772391,-0.993949284031069,0.0030732672486362,0.0207910288330303,9.819043561823408,0.0029230085836177,-0.0163147827113054,-0.0115013965252585,8.394096001681609,4.973279763009139,1.2216778471425764,1131.9854654883045,1134.88089580606,1119.6407419759685,1126.9902242592152,-94.39122945330726,-275.01993656778967,334.4325958066679,292.39442057951214,155.17856049931476
7.9125,-0.1251991948006914,-0.9989802088688868,0.5985195956441922,-0.0181178163757923,-0.0112958166977092,-0.004772652541537,0.0035105525421772,0.0052809081155242,-0.1096396720469376,-0.9939510795738742,0.0036693006422073,0.0197749122360994,9.823548204190098,0.0028211774539977,-0.0161409912730243,-0.0114713596928082,8.39410960438015,4.973247615104912,1.2216457461712589,1131.922076695576,1134.2607870997424,1120.5421468816708,1127.6558189967648,60.03800734338384,-204.675482525822,392.6488073841112,220.0446372909984,155.17920610365874
7.915,-0.0502425291716745,-0.936694989091118,0.5853627381309058,-0.0175598581152162,-0.0139541212147571,-0.0031526601443534,0.0035344017628392,0.0052860790795205,-0.1096232284591951,-0.9939527735846212,0.0043826633669153,0.0185812606109025,9.827859827958903,0.0027255779079897,-0.0159812304827829,-0.0114238321373876,8.39412227709215,4.973215837589892,1.2216128786699691,1132.2856555250214,1133.857518393431,1121.6039860128888,1128.09044744567,255.7322185484336,-122.88211411742202,505.20030091112113,129.72575558569864,155.1799019676498
7.9175,-0.0120633801187294,-0.7716181056501691,0.5114301476811342,-0.0170117082648578,-0.016732326287593,-0.001707101695024,0.0035608347210932,0.0052909033228749,-0.1096091119000291,-0.9939542030180384,0.0052487406997732,0.0173495175699455,9.831953514405017,0.0026376986127734,-0.0158338057330123,-0.0113574685472006,8.39413502307936,4.973183639910037,1.2215797497229883,1133.200737788318,1133.6463765291553,1123.0681483862263,1128.3044477746935,406.6928834362075,-35.11501348052736,566.2923097550113,31.519970510908692,155.1807910496501
7.92,-0.0027168705549098,-0.5663662427047587,0.4209528274029121,-0.0170489234214176,-0.0184721086714427,-0.0008097066514931,0.0035871779859292,0.0052962454396676,-0.1095983118174836,-0.9939552648256338,0.0062621731377507,0.016164585549253,9.835806395283292,0.0025588312341349,-0.0156960129265019,-0.0112717345483692,8.394147835814113,4.97314995000748,1.221546377974976,1134.3191199422024,1133.6819433260284,1124.435447561664,1128.2480472982247,501.21790965023297,48.14735450922956,568.4033603767724,-54.95752138458673,155.18157375424104
7.9225,0.0121240801278156,-0.3030650748786204,0.3209378393834738,-0.0177326555400648,-0.0195050383352165,-0.000252474704955,0.0036130481550774,0.0052981790035786,-0.1095916191962915,-0.9939558951434022,0.0073167968425219,0.0150692667456157,9.83939944809284,0.0024901199669501,-0.0155643612561221,-0.011166942561822,8.39416028529124,4.973113768176307,1.2215125257513797,1135.7068273365692,1133.8871133017014,1125.91016518811,1128.0296601677703,638.5487837746177,111.95903410689664,654.0728093287411,-106.28883936988356,155.1823956631953
7.925,0.06209682337996,0.0644078755792528,0.2077398859720858,-0.0186900032851726,-0.0200747344644809,9.393339885162672e-05,0.0036409748807878,0.0052946544699885,-0.1095877518754112,-0.9939562377073546,0.0083356067675361,0.0140367460200192,9.84271804883009,0.0024324077349096,-0.0154348711005095,-0.0110444062439344,8.394171952146726,4.9730752147417485,1.221479098368118,1137.5118638610754,1134.241738496563,1127.7058116083076,1127.7166031013753,656.216773212432,133.09098228055802,643.9238941199302,-102.8560852693794,155.1834220049547
7.9275,0.138266347398769,0.400813199331885,0.1274473873382903,-0.0192221789593118,-0.0201515887619457,0.0001959363248057,0.0036685589147385,0.0052882763467807,-0.1095840979248201,-0.9939565745118096,0.009343398451069,0.013117572603509,9.845752971401662,0.0023860070521764,-0.0153036294350994,-0.0109062483385045,8.394183269854253,4.973035000187989,1.2214474816261205,1138.9879112026313,1134.5525682131042,1129.1297846587097,1127.5153797414237,551.7652932030206,110.7661498087336,531.3826383129787,-48.39175998608123,155.18430654089835
7.93,0.245701610504199,0.7469075847621129,0.0662713772898641,-0.0192142172372295,-0.0197331753330696,0.0001943043907465,0.0036915095671706,0.0052802279019393,-0.1095794229548541,-0.993957050755934,0.0103428818663533,0.0123934752245445,9.848502538757455,0.0023506423660744,-0.0151670819936681,-0.0107553175323024,8.394194798469833,4.972993840723974,1.221418745771523,1140.2706903270907,1134.7955692456067,1130.3627247998727,1127.4746443014449,491.5362221530918,79.66260880016476,477.9148878678472,31.88802855183962,155.18521625068996
7.9325,0.3926272648956019,1.1318320821603847,0.0146407706858958,-0.018426801075934,-0.0178685398972808,0.0001471507188509,0.0037059833826761,0.005272207362995,-0.1095736754791659,-0.9939576781165064,0.0113487381579938,0.011928118064619,9.850973342745151,0.0023253848305617,-0.0150222286116231,-0.0105949847732141,8.394206814253742,4.972952074361173,1.22139279621019,1141.4455923133967,1134.950881257105,1131.5193590980489,1127.6748198841829,359.27869842708645,33.88909767336445,363.1989834948022,116.72857327003177,155.18633091449902
7.935,0.5128931418705096,1.385101875600896,-0.0129674253002162,-0.0171132524797321,-0.0145503001717168,0.0001033968668888,0.0037105731723717,0.005268643910295,-0.1095660443984129,-0.9939585281542268,0.0124277628478469,0.0117245972527338,9.853180497461551,0.0023087130148321,-0.014866755221097,-0.0104288668401699,8.394219611440596,4.972910314294112,1.2213684068092923,1142.0670838192264,1134.9650147339735,1132.178719717347,1128.058287167795,173.3891670448466,-9.47212313953989,201.2009244544558,193.16889299230252,155.18727459087296
7.9375,0.6117035358745013,1.5151397483558668,-0.0293014494399079,-0.0153171058254876,-0.0093171940345539,7.438157600363643e-05,0.0037081471724591,0.0052682261589187,-0.1095581608196249,-0.9939594158050578,0.013530155539335,0.0117090235380826,9.855149066544227,0.0022986983097623,-0.0146991546990054,-0.0102605406929766,8.394233466777726,4.972869503745022,1.221344963789524,1142.312538148621,1134.903520641407,1132.5253637203211,1128.6406643491443,42.01804158137837,-26.06823112232688,91.5032480390911,258.33304747685,155.18822845888155
7.94,0.6826025769510968,1.5153610160694952,-0.0400013524085231,-0.0133724046917509,-0.0033252309034417,6.101784754644913e-05,0.0037036157558986,0.0052684784721867,-0.109552630821558,-0.9939600474343366,0.0145845373432211,0.0117662232260924,9.856913163491075,0.0022931013083186,-0.0145187835187592,-0.0100933685996748,8.394247969218052,4.972829977739889,1.2213221535393604,1142.2771740271332,1134.8346735783618,1132.6362359575423,1129.3499524051792,-70.05711203573959,-14.85636334414298,-6.078044668265777,303.0922322177113,155.18918697745025
7.9425,0.7141627334189827,1.356527346313955,-0.0476725122824597,-0.0111531910422817,0.0020663735239042,6.1230001546097e-05,0.0037003409063296,0.0052687095414614,-0.1095487525102975,-0.9939604908169108,0.0155636467263607,0.0118059426700908,9.858514825290223,0.002289591849183,-0.0143258387268082,-0.0099303565667675,8.394262567047846,4.972792185238768,1.2212995364125334,1141.962252588442,1134.8292388246866,1132.4949734969798,1130.1561255102329,-188.0530526072147,27.31849797587587,-115.2308959933659,362.617228847656,155.19014656548907
7.945,0.7087170474384372,1.0205940812811312,-0.0564583999771168,-0.008302929567475,0.0067168545769446,6.0475745858515005e-05,0.0036985961216874,0.0052700435588287,-0.1095453597479706,-0.9939608675113428,0.0164886098859351,0.0117948402855308,9.860002890462022,0.002285776476748,-0.0141212618526563,-0.0097741096233969,8.39427731238068,4.9727558263014044,1.2212770539094335,1141.3369087640972,1134.9712660682412,1132.0600814775755,1131.1630385494175,-262.2949867658973,83.30513763921948,-202.7649740873173,366.51982051003733,155.19129351524649
7.947499999999998,0.6784211013418213,0.6686085768442581,-0.0640471254341529,-0.0063543321110242,0.0089065724118235,3.991771679556078e-05,0.0036954683071736,0.0052749052851443,-0.1095419225101897,-0.993961234180436,0.0174189283436341,0.0117613849922236,9.861431593001646,0.0022792590638297,-0.0139065970173788,-0.0096268540094515,8.394292336889988,4.97272020779402,1.2212552766479474,1140.6507776546127,1135.2457645128827,1131.4811486265432,1131.988724612783,-302.6047607690608,144.01375874927305,-276.4108880343033,319.25653904623454,155.19224133329362
7.95,0.6418774790823538,0.3096749047165328,-0.0705781283870737,-0.0051106808628465,0.0090389719719716,-3.178088590090095e-05,0.0036885267021591,0.0052825092085975,-0.109536049953072,-0.99396186758742,0.0183553934584521,0.0117355654166406,9.862859473663432,0.0022678834970221,-0.0136838380556991,-0.0094904899032887,8.394308218486566,4.972685087781624,1.2212351258323226,1139.823884960252,1135.6913348619876,1130.678027037404,1132.7593212446486,-389.68424248995046,231.15780426706831,-400.0968771010605,321.0075715377523,155.1931760123063
7.9525,0.6142184595491357,-0.0597427645748358,-0.0734088925329074,-0.0039811986249028,0.0072748030679012,-0.0002170726435435,0.0036757169362116,0.0052918086710135,-0.1095265283951766,-0.9939629151143506,0.0192973971339899,0.0117458503635071,9.864346811278468,0.0022497078154718,-0.0134554348657219,-0.0093664837091821,8.394325466754221,4.972651027716469,1.2212173487783062,1138.7023564421627,1136.4015535342182,1129.4806642410376,1133.593762470472,-423.7867347632436,283.42397581359967,-467.15487855295663,289.18462726565554,155.19427721249193
7.955,0.6155953031221587,-0.2855117199846724,-0.0680693143539007,-0.0030548582100862,0.0052725452255875,-0.0004775753321622,0.0036593209980454,0.0053010888572826,-0.1095135650001752,-0.9939643549182596,0.0202251964536402,0.0117435020185805,9.865953307213527,0.0022232176391254,-0.0132242140723083,-0.0092557150918354,8.394344286188819,4.972619128733878,1.221202341987176,1137.7049512864355,1137.1084547410555,1128.3422526446393,1134.2052443809769,-393.1361348103648,296.93997018440035,-461.8892914976739,225.4439963235248,155.19517443557626
7.9575,0.6462050005471622,-0.4174465202948612,-0.0511566086686094,-0.0020328444763775,0.0037126180698862,-0.0008464163401133,0.003642694924271,0.0053066547791122,-0.1094982516230559,-0.993966074630561,0.0210797105339175,0.0116701190154085,9.867735738997863,0.0021876310737544,-0.0129933414734896,-0.0091580433951611,8.394363770066404,4.97258949512825,1.2211892656582,1136.736675768111,1137.8862533851402,1127.1712177835493,1134.7209824520896,-389.4053888222599,344.488505506668,-486.93957506258033,200.9036168691225,155.1960468011571
7.96,0.7105345946792689,-0.4814342337181688,-0.016713339721952,-0.0004398390032698,0.002652472823308,-0.0013268913616017,0.0036297882855952,0.0053066315640811,-0.1094804209824795,-0.9939680889212092,0.0218363059292474,0.0114592858046194,9.8697446630414,0.0021431211133069,-0.0127661189649665,-0.0090720197318173,8.394382497559562,4.972561908060063,1.2211768147342017,1135.7579243423245,1138.8308972685888,1125.9075547693265,1135.2097624653225,-306.0567772638089,335.6449517677519,-411.060357940332,153.77891566059003,155.1970612541462
7.9625,0.7772182848012064,-0.4698885064406832,0.0204887866339916,0.0013023540394237,0.0022414727341723,-0.0015961068678184,0.0036216632365298,0.0053038470770389,-0.1094621936990158,-0.9939701452204178,0.0225674525536492,0.0110982111427877,9.87202130766867,0.0020907464439806,-0.0125458279237975,-0.0089946708724401,8.394399486045824,4.972535638120073,1.2211629995506577,1135.206391881792,1139.5644781439787,1125.1159159938477,1135.4898770303923,-145.0234994708384,265.2764128463843,-231.5605654406276,82.67082677448518,155.19787735704173
7.965,0.8431028569358927,-0.3994584616294512,0.0577091914704336,0.0032586144279554,0.0017130303672945,-0.0014845382219064,0.0036164054609598,0.0053025383316127,-0.1094454589692749,-0.993972019883559,0.0233766116100196,0.0106361617622415,9.874595785818425,0.0020324692810804,-0.0123355210798883,-0.0089215734708793,8.394413818714737,4.972509868531862,1.2211459311547113,1135.0328068449703,1140.1572793328207,1124.749751942123,1135.6231165991949,1.361013735868284,201.460970653811,-60.8609803561207,29.67658462425852,155.19866078639205
7.9675,0.8975434653566898,-0.2785179349544066,0.0865760563023946,0.0054052253648636,0.000595859453406,-0.0011205543318616,0.0036095073604183,0.0053027866787247,-0.1094306226429605,-0.9939736834240726,0.0242867598837259,0.0101880178954071,9.877486210343488,0.0019710132063156,-0.0121378776890896,-0.0088471949048303,8.394425531660467,4.97248500197488,1.2211253706702292,1135.2131969504712,1140.571782997248,1124.811611092067,1135.6382599535139,156.67683573110816,111.79068633309964,129.75106794265503,-17.53753264092703,155.19941574182909
7.969999999999998,0.9259833892148776,-0.0931341599033456,0.0967653575340162,0.0078415718065702,-0.0010430731052221,-0.0006788666336711,0.0036003044565077,0.0053016449404285,-0.1094173124407061,-0.9939751931709978,0.0252475568320336,0.0098039180281859,9.880697300682575,0.001909490007469,-0.0119549582511268,-0.0087655814463287,8.394434881905113,4.972461551304502,1.2211015258206774,1135.8161910236258,1140.7162327644862,1125.3985072818366,1135.5354289359902,348.9029648805701,-5.621418169585133,357.5324668089328,-63.75396198277621,155.2001352234078
7.9725,0.9178878005257092,0.1926837098386432,0.0803635898988354,0.011004992935908,-0.0026618194539447,-0.0002046350211134,0.0035875539123779,0.0052976584576371,-0.1094054606528366,-0.9939765671505254,0.0262331112154359,0.0095442946868229,9.884219146701897,0.0018509639732472,-0.0117880982692157,-0.0086708152770984,8.394442146720525,4.972439359025341,1.2210755127869979,1136.957711774874,1140.5436759064,1126.5992734261115,1135.3194901436,470.3551193334708,-120.65804787478488,491.94209502285537,-89.45872877064595,155.20095731275708
7.975,0.8720265337311806,0.4567791666653741,0.0405028938932362,0.0136158838103129,-0.0028581323528137,0.0001124619320633,0.003569547024266,0.0052925386041475,-0.1093956225375218,-0.9939777399546365,0.0272745454406126,0.0094718811816679,9.888027209044072,0.0017981486521205,-0.0116377072950395,-0.0085574712148178,8.394448210571447,4.972417855482034,1.221048185513338,1138.1679666202936,1140.1129425251122,1127.8582177569513,1135.0881352921367,511.3198707562897,-226.18757894120364,510.86899664297744,-102.3233047457801,155.20160881926563
7.9775,0.7885581039329587,0.6957721842950338,-0.0264448375151345,0.016081340272575,-0.0009435731694322,0.0003431939057882,0.0035451258800876,0.0052888956918238,-0.1093893171941345,-0.9939785338373092,0.0284136256364882,0.0096342979070263,9.89208376073172,0.00175324877676,-0.011503111807675,-0.0084209440335831,8.394453556753039,4.972397160951196,1.2210195449167172,1139.5143111286554,1139.412738011694,1129.1536184093263,1134.807873619871,591.8992590674078,-356.2211011239545,526.4092602014556,-141.86957277397897,155.20222773594668
7.98,0.6585161848329965,0.8890593916988095,-0.1338824434175516,0.0184153735035077,0.003417917803467,0.0004980966319176,0.0035150387812453,0.0052888154674417,-0.1093878034674472,-0.9939787961702036,0.0296724348066545,0.0100382288329773,9.896339863576216,0.0017179040830795,-0.0113824437239362,-0.0082577266947682,8.394458310462078,4.9723763614674334,1.2209896656735293,1141.1274629156303,1138.3318370194925,1130.4902640579585,1134.378787428267,570.4634974889481,-419.4059704051231,425.0120209882515,-181.7879658357508,155.20293694984022
7.9825,0.5401948283580035,0.9410922502549064,-0.2391678744273747,0.0195374428359167,0.0077359993372498,0.0004710058625534,0.0034806218513347,0.0052944619545193,-0.1093931334803544,-0.9939782851983588,0.0310690608958067,0.0106717345902472,9.900737534170872,0.0016930765744547,-0.0112726558912699,-0.0080656295244894,8.394462856427161,4.972354530443071,1.2209589697997163,1142.3666286161,1137.3157081596685,1131.2786785142675,1133.8989337906924,455.0028117597873,-400.2629307679939,229.7891868137461,-227.3305822363957,155.20350415486317
7.985,0.4284480070124147,0.8752802520890685,-0.3466415709711198,0.0198114811164087,0.0114411356782287,0.0001538847542806,0.0034421136122596,0.0053066710542394,-0.1094062655791394,-0.9939768912015426,0.0325945709510705,0.0115387918594886,9.90521265406344,0.0016790597430371,-0.0111696623761365,-0.0078439352154935,8.394468256973212,4.9723312496319725,1.2209294561225774,1143.4024769744294,1136.3305223656523,1131.6392099920272,1133.242134517085,393.8072918129904,-379.862445627722,59.559941206181435,-332.97186016180405,155.20405277046984
7.9875,0.3090001455194252,0.6932310671452999,-0.4533599675528742,0.0196195316331629,0.0145267324977933,-0.0007794148508245,0.0034006385269661,0.0053241376882671,-0.1094245583079762,-0.9939749093111016,0.0341937024994816,0.0126209454652196,9.909697958225868,0.0016755704613792,-0.0110685368343557,-0.0075934773306105,8.394475246805358,4.972306227129512,1.2209023464524775,1144.335665075165,1135.41639593153,1131.5764782202987,1132.2340744898831,282.5712460453875,-253.4635679222956,-95.22633918936864,-398.8377710381968,155.20469824383028
7.99,0.2133566074341151,0.4954402710932234,-0.5016230577245948,0.0194555679792716,0.0159313907870345,-0.0021816638444883,0.0033604796499174,0.0053427811307026,-0.1094454615167235,-0.9939726287545676,0.0357487349527812,0.0138328417208647,9.914125997291128,0.0016818044776409,-0.010963824689226,-0.0073165034736081,8.3944844284132,4.972278854176744,1.2208789427370508,1144.8153332046563,1135.063204526041,1131.1630782960804,1131.247945661894,122.84012279772368,-18.732924291904762,-221.81066759695736,-403.01591823338714,155.20523243018178
7.9925,0.0965231289087456,0.3024964624884541,-0.4820833373300325,0.0198417564477164,0.0160194513906411,-0.0043185393846878,0.0033253766065166,0.0053582828978395,-0.109467324333094,-0.9939702438930688,0.037138599106498,0.0150895395299601,9.918431233923473,0.0016965810980134,-0.0108500240642837,-0.0070162345980111,8.394495682313439,4.972248540264868,1.2208603127864868,1144.9498656891535,1135.3227313100704,1130.4674248823137,1130.218994898716,-6.232913194162526,220.52462516690423,-311.0135741793395,-394.9173993818106,155.2057711042687
7.995,-0.0622062476603821,0.1479787222670157,-0.3943819724232635,0.0209502245556679,0.0149965237843758,-0.0069082195197216,0.0033000443105377,0.0053652851500275,-0.1094869539466643,-0.9939681214958996,0.0382205972130632,0.0162793621555147,9.922552374958425,0.0017186235174474,-0.0107220639002189,-0.0066963746618257,8.394507692482073,4.972215544279251,1.22084527850185,1144.7841686386855,1136.1658276518756,1129.6080104251837,1129.2733586649852,-136.01693465912211,471.8774576200404,-369.9262997458924,-326.56366419337934,155.206319400441
7.9975,-0.2926580113342076,0.062868287071389,-0.2289444476070408,0.0223387671351453,0.0130696952221245,-0.0093228134060336,0.0032835981160611,0.0053624891732051,-0.1095051111254036,-0.9939661882983492,0.038946463091798,0.0173835283475366,9.926432922260297,0.0017464885582245,-0.0105759109602923,-0.0063605015443638,8.394520593716962,4.9721807794387765,1.2208323331762478,1144.269781015858,1137.6821185981703,1128.6177933835843,1128.5861765777493,-292.3145893786176,781.2805081051176,-454.18105694012473,-207.45774431380127,155.20688601018307
8.0,-0.650471281616147,0.0336548788189496,0.0224557334347545,0.0231028433740167,0.0110593012995128,-0.0104548016626761,0.0032697667035666,0.0053537299744443,-0.1095235885133194,-0.9939642462849346,0.0393838056277968,0.018472291575217,9.93002204010276,0.0017786981691345,-0.0104089540671227,-0.0060117689524382,8.394534242963106,4.972145246040476,1.2208203081065943,1143.3225956917925,1140.072230192401,1127.3371051404831,1128.236069943416,-383.69158570343086,921.3607347224765,-478.48849636721275,-32.47096456576137,155.20759523572178
8.002499999999998,-0.9900127453708684,0.0368235608325856,0.2323118222898886,0.0222596442693669,0.0109107847253035,-0.0093041815043194,0.003253680086311,0.005339438758286,-0.10954044930652,-0.9939625210577356,0.0395331077792925,0.0195928161553421,9.933277114206973,0.001814030737037,-0.0102201763035783,-0.0056528863852693,8.394548204223419,4.9721103386328,1.220808846101655,1142.3513230873411,1142.288922271782,1126.2253509017487,1128.4238217549205,-399.1221043775398,861.9397781943934,-445.02835268892653,180.8522410223476,155.208216198153
8.005,-1.3174970590823243,0.0120758892029723,0.3919062154363222,0.0194104143160085,0.0127517913883114,-0.0067956887837773,0.0032347324864701,0.0053216415832962,-0.1095541943504605,-0.9939611675493932,0.0394207273456285,0.0207042250443184,9.936163235286111,0.001851431677902,-0.0100102295333555,-0.0052862062840486,8.3945620069053,4.972077128702043,1.2207981392415064,1141.3269851699044,1144.3819290833735,1125.111963377038,1129.140331148528,-433.4432381975834,813.2176583494676,-475.1583942663895,425.25380800009486,155.208874364253
8.0075,-1.622316974949844,-0.0990183928905713,0.4938290438961226,0.0138563765234585,0.015631910280262,-0.0037622250137806,0.0032159467926921,0.0053013004921132,-0.1095656991760523,-0.993960073729326,0.039048161233824,0.021698603150287,9.938653913230372,0.0018900388862114,-0.0097813739536337,-0.0049137197294419,8.394574990238471,4.9720464061106835,1.2207881769941449,1140.1841068963531,1146.35501056353,1123.8495589304164,1130.5500907949213,-388.3569449709148,589.689136088763,-436.14191621490625,586.7452082908843,155.20971368016336
8.009999999999998,-1.7570238512032827,-0.2650950276020165,0.5036177015055169,0.007998773528262,0.0171991582778914,-0.0017974282278494,0.0032030288605291,0.0052800610814755,-0.1095740297995572,-0.9939593155903482,0.0384284633048179,0.0224190666246899,9.940730685890548,0.0019292242157476,-0.0095372356593603,-0.0045370623533,8.394586348911522,4.972018695824321,1.220779236051308,1139.3852004450503,1147.3303747638167,1122.931253795964,1132.0740571899819,-275.27532470368004,223.69402329609233,-320.02563229463703,643.7085619583202,155.21045868916707
8.012499999999998,-1.7380089564114283,-0.4767090260295103,0.4534966964509651,0.0019115445426597,0.0169347937273355,-0.0005725949176577,0.0031990078567253,0.0052577024366986,-0.1095763137156237,-0.9939592014242872,0.0375476419622349,0.0227736497546961,9.942383327213982,0.0019685049750337,-0.0092825006327717,-0.0041574024420351,8.39459569861762,4.971994170724055,1.2207709272253175,1138.8077302728348,1147.47348068001,1122.2494307689435,1133.7686336047122,-195.7629602726377,-126.5102390186514,-223.36459982785672,732.8445570882867,155.2112554508742
8.015,-1.5423102048656534,-0.7201264380813285,0.3541741732486369,-0.0047028650570226,0.0145113773602789,0.000195279553536,0.0032023545305357,0.0052380425554991,-0.1095736114447539,-0.9939595979813418,0.0364860658745979,0.022760925785675,9.943608367586036,0.0020072100858965,-0.0090225118909998,-0.0037754838871234,8.394603602597233,4.971972564205244,1.2207617811100187,1138.4063856436867,1146.6978235687236,1121.8144307968244,1135.738279975424,-97.52036388534472,-419.0300491773796,-82.88143141947853,675.2792537004406,155.21227544768627
8.0175,-1.2632358247176607,-0.8678410154103465,0.2589577110780841,-0.009083305126865,0.0112565718064665,0.0004302767254484,0.0032085333875878,0.0052239443584015,-0.1095675316521069,-0.9939603268850696,0.0353162614204116,0.0224517565018922,9.944409944850582,0.0020444326900383,-0.0087628136361691,-0.0033918055847574,8.39461016590903,4.971953825589429,1.220750569919939,1138.320128453408,1145.3783304341227,1121.835023611846,1137.1450298732148,13.237633368956171,-621.7565933503793,95.55971208717064,480.98701629442553,155.21318088186223
8.019999999999998,-0.9185845739967212,-0.919679848002884,0.167794082527085,-0.011516369424864,0.0075119729514026,0.000444608010718,0.0032117388408309,0.005213936980788,-0.1095562529360353,-0.9939616147445616,0.0340320685226797,0.0219631069491618,9.944800376346748,0.0020789958857043,-0.0085087246980435,-0.0030069785969409,8.394616513764914,4.971937896264976,1.2207381987101187,1138.4725738105317,1143.5890406019723,1122.2922293572603,1138.1432150568955,94.3770289807924,-752.8621023037617,253.5384520096217,318.1531383781433,155.21414558553815
8.0225,-0.5666941192437341,-0.8816540991267781,0.0863913341606225,-0.0122223858294427,0.0041138767738967,0.0003864372255574,0.0032104884782191,0.0052056799216878,-0.1095388521906946,-0.9939635800829698,0.032605256476469,0.0213390584376272,9.944799507333377,0.0021093150423413,-0.0082649653830311,-0.0026221997134281,8.394623797445483,4.971924401185134,1.22072628889853,1138.7920135983122,1141.6140199226036,1123.1027158718944,1138.735795565106,158.2534809444249,-787.0901185949285,397.10866306452925,137.74148174627615,155.2151600548912
8.025,-0.2537025196707872,-0.7441269837609518,0.0179970251005343,-0.0115920176692223,0.0016400856822734,0.0003210584239094,0.0032071196225664,0.0051947488923062,-0.1095170598193313,-0.9939660481911498,0.030962623335915,0.0205621692851618,9.944434798342963,0.0021334931686182,-0.0080353968099063,-0.0022394191472392,8.394632444303497,4.971913037008464,1.2207164291619332,1139.263841215254,1139.653590008997,1124.2777726725833,1138.831922465627,229.34866738560245,-809.1771535120888,574.8639116014381,-57.66095071236361,155.2162344582453
8.0275,0.0421123402591352,-0.4919446494203799,-0.0525626657933019,-0.0104058758473617,-0.0002231913236924,0.0002779801623789,0.0032041744903528,0.0051789507053141,-0.1094940316050707,-0.9939686757143228,0.0290787580370001,0.0196140683497238,9.943740211179726,0.0021495469469181,-0.0078228269395973,-0.0018612688277421,8.3946423348478,4.971903301288435,1.220709356101709,1139.93875693524,1137.568134155044,1125.9770354299008,1138.447490811544,254.93621173164297,-695.3468330291818,648.0004889329773,-203.26150288769392,155.21759188128854
8.029999999999998,0.2164221256769728,-0.2337556735188199,-0.1055676921567037,-0.0093644493138643,-0.001014928611616,0.0002669501026315,0.0032005128645679,0.0051619049754457,-0.1094730080016463,-0.9939710903685312,0.0270546297684828,0.0185425972710068,9.942755136725,0.0021556704818107,-0.007628867444723,-0.0014908229456105,8.394652912262531,4.971894584259329,1.2207048485999794,1140.538522273912,1136.1768558438519,1127.5177751172475,1137.8156149511888,232.1206647910095,-469.04153530837846,615.1205207479454,-283.27399578011074,155.21877828193078
8.0325,0.3253944884675804,0.045426649009524,-0.1555458070855046,-0.008449172900344,-0.0012027385534744,0.0002382171924249,0.0031966612052433,0.0051461864230979,-0.1094571726427437,-0.9939729267289038,0.0249695370254196,0.0173686788217328,9.94152510265261,0.002150464517349,-0.0074538355664076,-0.0011313770774535,8.394664124627612,4.971885810508963,1.220703146769535,1141.0993602591952,1135.2229264785017,1129.0526380336412,1137.0311208326434,215.6299316171161,-314.85339282853226,648.2551043804857,-336.2981915176917,155.22001944725716
8.035,0.4022755101198173,0.3724284381914079,-0.2105986598917898,-0.007687717039674,-0.0007942239855691,8.815589777206527e-05,0.003194080547901,0.0051327612285332,-0.1094489883811398,-0.993973905764109,0.0228705395768422,0.016099642618435,9.940100746905875,0.0021330608495646,-0.0072967891924563,-0.0007861474500157,8.394675575848904,4.971876094760604,1.2207047624540264,1141.6166719319976,1134.6025888797087,1130.7590506391505,1136.1341239936,147.71579326691818,-143.7557248531279,589.1650367824503,-293.23216463595975,155.22156854976083
8.037499999999998,0.4372042742379163,0.6136428102092074,-0.2470792533593223,-0.007140469608429,0.0001539469283524,-0.0002272653325849,0.0031927900089742,0.0051221505024683,-0.1094488875352986,-0.993973979899974,0.0207994521990082,0.0147713916832998,9.938536084601235,0.0021031932602126,-0.0071556733567322,-0.0004579038150431,8.394687372307962,4.97186553654968,1.2207101789089627,1141.8379392255297,1134.504147854236,1131.9984632175529,1135.564960009464,32.66385589190065,38.49177379374249,445.79474326653633,-169.36945647400614,155.22290617317506
8.040000000000001,0.4547699673227532,0.7900373062369758,-0.2629719678140965,-0.0063691914744407,0.00192701931021,-0.0008617217293568,0.0031892494689625,0.0051190186448122,-0.1094546651073893,-0.9939733795316144,0.018886918092115,0.0134781296845988,9.936885905120496,0.0020612367196487,-0.0070275205233113,-0.0001485664361837,8.394699804566857,4.971853723161679,1.2207185506050466,1141.7799912114572,1134.7950477486777,1132.9880243554835,1135.2872767112299,-88.81128730580234,203.90533121928,366.7762137409562,-49.77648041421293,155.22428813895868
