t,ang_acc_x,ang_acc_y,ang_acc_z,a_vel_x,a_vel_y,a_vel_z,quat_x,quat_y,quat_z,quat_w,acc_x,acc_y,acc_z,l_vel_x,l_vel_y,l_vel_z,pos_x,pos_y,pos_z,mot_1,mot_2,mot_3,mot_4,dmot_1,dmot_2,dmot_3,dmot_4,vbat
0.005,3.3403671238328765,1.6726161610883699,-1.2355668687798371,0.0613092797113885,0.3816040219974453,-0.0083636046242087,-0.0037426228749657,-0.0081131781109205,0.1205523850950652,0.992666003267751,0.1866854863094775,0.1574569958153219,10.718837756055692,-0.0983664981298522,0.0110982047677886,0.9953295986761443,6.915878556841785,-2.428031910772446,0.0631901164401722,1139.034513875003,1151.529223315966,1179.179586549516,1143.0299774749867,-562.3601460544705,1693.8104534742708,-2268.1727519146084,-382.3994620169288,164.166060144246
0.0074999999999999,2.731515890515954,1.0078680039190306,-1.0134394511541411,0.0700369106702981,0.3842528517867772,-0.009553549257836,-0.0036738701320358,-0.0075452720829173,0.1206410398879099,0.992659606457292,0.1766795691612977,0.1548280624881498,10.704946318276287,-0.0993827011621488,0.0119249276918334,0.9973773241347504,6.915594002587582,-2.4280529324575926,0.0656708804471174,1137.628613509867,1155.7637494496516,1173.5091546697295,1142.0739788199446,-466.07830816728887,1595.1497310122247,-2094.457851979587,-236.07360559967677,164.17257443752823
0.01,2.1339913153107806,0.503055503691672,-0.8365086822425302,0.0761704477404719,0.3857161079743675,-0.0093927646277405,-0.0036113623059598,-0.0069846432654691,0.1207175412826714,0.9926544404239576,0.1668379726889923,0.1520218905761019,10.690892450218175,-0.1003880753911981,0.0127342293773952,0.9994260629493636,6.915307813840948,-2.4280726484531128,0.0681547443287751,1136.7041223341666,1159.504971971027,1168.707297289618,1141.8496094469883,-360.2220619814033,1464.9668986504364,-1905.738284395192,28.73522550994493,164.17751580842753
0.0125,1.4757834281641415,0.0236885290943277,-0.6794094788551158,0.0808930779827283,0.3864418115469727,-0.0100653674221809,-0.0035521066298152,-0.0064296519548453,0.1207759593836455,0.9926512104810342,0.1571305657744858,0.1490997339108676,10.676593602018048,-0.1013838320506571,0.0135293123907828,1.001474263977069,6.9150192852502235,-2.4280903038749253,0.0706431420070548,1135.82750319996,1163.0885839429038,1163.9804632477535,1142.2176549474943,-411.99667729438266,1438.6368151055196,-2038.550442056567,269.8818596902584,164.18196263480928
0.0149999999999999,0.6614384854907231,-0.5542802560070518,-0.4901576482926167,0.0842830046321519,0.3863049053386437,-0.0123584859476754,-0.0034988922572785,-0.0058830604087746,0.1208131150712176,0.9926502468456236,0.1476058373321183,0.1459907368636151,10.661960614935428,-0.1023637776060662,0.0143009467393411,1.0035199727478876,6.914728904727972,-2.428105730149724,0.0731370103466345,1134.6441389476947,1166.6981560465547,1158.5145450793352,1143.1990187454398,-473.3428848210677,1136.0559727814687,-1958.330106273933,414.8104927719032,164.18673957506363
0.0175,0.0010186678534659,-1.0569273464528879,-0.3103071533345308,0.0848158223645118,0.3854204765958629,-0.0149806187344863,-0.0034544446421854,-0.0053425470081126,0.1208308566212062,0.9926513151109464,0.1382054868102534,0.1426419671142784,10.646904104287392,-0.1033318919774776,0.0150419958603358,1.0055588559718585,6.914437368040619,-2.42811897050013,0.0756382067130137,1133.4607887758543,1168.7688638068112,1154.1888127163838,1144.2917074113539,-520.8154605905746,565.5982229109667,-1670.4275053209128,445.15942632961,164.19026310648465
0.02,-0.594978341128175,-1.591039889507763,-0.1001502571183172,0.0830808088174905,0.383382647978132,-0.0171763900619012,-0.0034181455587297,-0.0048124034070887,0.1208369326651397,0.992653447850853,0.1290207656729972,0.1390586581927674,10.631335487679356,-0.1042783196184227,0.0157515152846883,1.0075867554195173,6.914146075109008,-2.4281304176554985,0.078147857776372,1132.0400616447419,1169.5261471611095,1150.1624075527307,1145.424815877088,-600.9182321961365,58.1170345152714,-1549.8196695606118,424.09898505889055,164.1933221194934
0.0224999999999999,-1.1111790448140606,-2.144912067962408,0.119369038743531,0.0800295418942706,0.3800142266074868,-0.0179605108429078,-0.0033845895920699,-0.0042920088839704,0.1208354708246944,0.9926561719669607,0.1200495067609899,0.1353662321237804,10.61517427733856,-0.1052023565737509,0.0164385624318464,1.0095976309541543,6.913854967413587,-2.428139755341091,0.0806657680120531,1130.4561976148739,1169.0594489793875,1146.4397143685808,1146.4122023366483,-652.8218660452693,-476.5947749566748,-1399.9488791296696,323.6983677627449,164.196003194357
0.025,-1.5143584706716164,-2.698185882148158,0.3123667580767108,0.07631656883183,0.3746521677460816,-0.0164568040561515,-0.0033536034882881,-0.0037762574797586,0.1208312657795194,0.9926589493468776,0.1111819068468096,0.1315969971000592,10.598353787127552,-0.1061139203985381,0.0171031117348956,1.0115840896180377,6.913563008537144,-2.4281468422772927,0.0831897943230114,1128.7759523145155,1167.143173286326,1143.1626631570823,1147.0433077159016,-728.4135640565181,-1121.8171209518912,-1319.9970137954094,162.85440045530774,164.1982372313302
0.0275,-1.8606545934986471,-3.3158813925990573,0.4684059060139136,0.0714791547007414,0.365569077193949,-0.0130183107027331,-0.0033263547586,-0.0032715674946663,0.1208223865421921,0.9926620026638122,0.1025460562396015,0.1277327037037252,10.580819860674715,-0.1070007886458981,0.0177383596600174,1.0135410843772903,6.9132713205032115,-2.428151211086232,0.0857188821323883,1126.8141297945913,1163.450363374628,1139.8397292996035,1147.2264743389248,-687.8336136484453,-1514.604138398409,-1108.7320256987373,-40.41818196324132,164.20041314482725
0.0299999999999999,-2.033009248870439,-3.7582276278187567,0.5233134747693691,0.066825774080497,0.3560865981776854,-0.0102748089521079,-0.0033060261683457,-0.0027785261742247,0.1208128142714644,0.992664848870615,0.0941442848431904,0.1237327225042687,10.562536999539724,-0.1078629914741883,0.0183365441552083,1.0154623399513447,6.912979703858662,-2.428153583486116,0.0882533653827305,1125.3367842462733,1159.570152594334,1137.6190030285886,1146.8412168060854,-541.2293639823017,-1610.8310175381118,-776.205415175991,-265.6613598728199,164.20181498046563
0.0325,-2.0824756241911024,-4.097474542663464,0.5152625719806753,0.061445441773563,0.3454827921161371,-0.0087909575806414,-0.0032987292225007,-0.0023059944565296,0.1208043673940455,0.9926672351825476,0.0861451132758221,0.1194797053383596,10.54348742150884,-0.108684940275946,0.0188819728348308,1.0173434359688582,6.912688906334111,-2.4281548176717886,0.0907927937572595,1124.1079829746795,1155.3962082869375,1135.9587022237235,1145.8981675395607,-479.126136660852,-1774.7723952259532,-619.2917223406761,-527.312693070689,164.2028017346626
0.035,-2.001914713228748,-4.376819591541302,0.4691756348767568,0.0548755300543216,0.3323815582099645,-0.0082868313253612,-0.0033035023809444,-0.0018592346265731,0.1207972998583483,0.9926691373652252,0.0786594688936088,0.1150183097650613,10.523672098290643,-0.1094567308348224,0.0193742954275459,1.019179157097386,6.912399903671003,-2.428154698956692,0.0933384526705317,1122.941153562969,1150.6962906182043,1134.5225444168852,1144.204653340732,-381.80849386803874,-1591.6957994145384,-456.583455375858,-693.3182137485804,164.2035208666171
0.0374999999999999,-1.826921689722964,-4.51086718788209,0.4231834349346298,0.0498096341845221,0.3217747178284757,-0.0082560275765087,-0.0033184388242678,-0.0014396304365543,0.1207964888438834,0.9926699896664544,0.0717212098210426,0.1104245655564695,10.503111993315699,-0.1101758093045552,0.019817670290919,1.020963558605498,6.912112313096258,-2.4281528575917726,0.095891067118084,1122.1989405053396,1147.4377292898648,1133.6757849468445,1142.4315764708178,-259.07343754843174,-1106.0368754443064,-299.77351857937737,-750.7045778344949,164.2037441948609
0.04,-1.5591364133093348,-4.5582904352972555,0.3812719609789509,0.0453102534754117,0.3115459434344812,-0.007486239641241,-0.0033361084134213,-0.0010471224857327,0.1208023923317009,0.9926697885620582,0.065347699998049,0.1058943702710473,10.481846237848492,-0.1108411473227008,0.0202274718661342,1.0226906764622263,6.911826121827192,-2.428149539850295,0.0984511356122697,1121.6457863752269,1145.1661062409828,1133.0236768239884,1140.4511304515595,-195.6749423027757,-732.5718966731067,-254.47787516204676,-797.9431924414706,164.203591752862
0.0425,-1.2345966373648591,-4.542296419720907,0.3432967923916931,0.0413829553740026,0.3011091871611519,-0.0057294363834688,-0.0033554352953272,-0.0006803263377934,0.1208195791299315,0.9926680103942488,0.0595140546203436,0.1014926470257927,10.459932809847295,-0.1114553470219828,0.0206081306617411,1.0243550756758344,6.911540824803936,-2.428145877373153,0.1010178827202853,1121.2205657938257,1143.7748698064993,1132.4033955710343,1138.4418605086105,-141.0492984891335,-368.9298773017073,-266.4284892960041,-776.8166022737208,164.20313901094676
0.0449999999999999,-0.8737906287082777,-4.452327742178018,0.3160307987722639,0.038587837591552,0.2901446127689992,-0.0037056317132984,-0.0033713613626475,-0.0003329962279177,0.1208478638863908,0.9926647296160452,0.0541039624279955,0.0973772913636916,10.43744513666178,-0.1120296008241939,0.0209729239628351,1.0259512795542225,6.911255318946499,-2.428141887487845,0.1035901965566401,1120.9405398827812,1143.3214568544743,1131.6915343775083,1136.567047440191,-86.55740582612457,-52.69378765287914,-354.41014581174403,-758.3011253189854,164.2023383721231
0.0475,-0.4484739180462313,-4.260760485961605,0.3245646633170412,0.0370239951670797,0.2769766888545914,-0.002715786049993,-0.0033800971447566,2.372207743800241e-06,0.1208847116268036,0.9926603057026384,0.048972176286337,0.0936787307920349,10.41447009908364,-0.1125776104373021,0.0213328873414288,1.0274749081189367,6.910968121288577,-2.4281380023563415,0.1061668297399519,1120.787778764695,1143.511400868235,1130.6313448419755,1134.6503548820156,-22.261985711702412,126.54863653256132,-425.48161561608094,-631.1868049899653,164.200993726995
0.05,-0.1367995693593889,-4.038464447877342,0.3963307968015991,0.0370891008174713,0.266630709099598,-0.0033106661871473,-0.0033861529041783,0.0003186413277318,0.1209226723514486,0.9926556447554972,0.0442544023598856,0.0903141343107585,10.3911049737089,-0.113085175028351,0.0216777938686429,1.0289265508742933,6.910680569285003,-2.4281344103682216,0.1087458523276355,1120.8292299542227,1143.954200037137,1129.564126299428,1133.411113415241,52.7332253005625,158.4749497101712,-453.74400678347246,-416.6529260283371,164.19956629050523
0.0524999999999999,0.0962740823632716,-3.7676911282153105,0.5596381345568313,0.0382489099141417,0.257381601413499,-0.0045414526851119,-0.003388554348636,0.0006162775089767,0.1209581015935394,0.992651195104434,0.0399421590539605,0.0873272601513859,10.36745481125338,-0.1135518238804711,0.0220116237892948,1.0303064205680788,6.910393278466453,-2.4281308353182345,0.1113261396030612,1121.051444891198,1144.3037756167855,1128.362624808058,1132.5670902518739,135.15858853575088,59.7279032514962,-532.3249994796699,-292.44999304091846,164.19783533337824
0.055,0.2663811178113805,-3.4097562201282745,0.8494279115288458,0.040406769069109,0.2475529721202844,-0.0051236181428967,-0.0033879061365438,0.0009034733279907,0.1209921675589543,0.9926468118884724,0.0358640352189403,0.0847414766003522,10.343630416618652,-0.1139929628281354,0.0223383315419341,1.0316140903261983,6.9101053051293695,-2.428127997624733,0.1139067126516038,1121.5050228969014,1144.2528395533943,1126.9025013020296,1131.9488634500365,190.40517419907684,-130.90600732207335,-512.790219222506,-179.4179947961764,164.1954241365923
0.0575,0.3211595426118675,-3.097786490634346,1.128058734475714,0.0420633774114985,0.2404354758925066,-0.0035020039291427,-0.0033817279448981,0.00118873876995,0.1210270879187661,0.992642234183269,0.031850227485655,0.0826369652392554,10.31974469776904,-0.1144239088485315,0.0226685392051059,1.032849677117652,6.909816791663574,-2.428126381774304,0.1164879084233265,1122.0034707621933,1143.6492455801751,1125.7986737119456,1131.6700002778928,211.7348268519892,-371.474511951874,-387.52209366011834,-90.94560353696583,164.1931483611726
0.0599999999999999,0.3102791205821628,-2.77904820048704,1.3721715737510631,0.0430210267142888,0.2342912164942283,0.0008484674738298,-0.0033713676759893,0.0014828422381722,0.1210690288952722,0.992636699064756,0.0276762805853377,0.0810131046868347,10.295911393178343,-0.1148656107209369,0.0230063053339184,1.034013062349068,6.909527693120336,-2.4281265246917925,0.1190704871783161,1122.5636970311612,1142.3954669936352,1124.9648908337288,1131.4941354323516,241.2965170909048,-685.0440739983245,-279.63018188343096,-87.09874024793865,164.1906098237537
0.0625,0.262119291455638,-2.381212859234854,1.547188845969366,0.04373443196085,0.2275793487706171,0.0077640207469397,-0.0033515335883598,0.0017865281199716,0.1211120632641159,0.9926309388107974,0.0233379813927541,0.079973913199006,10.272241654302212,-0.1153178404048395,0.0233635826625873,1.0351062199898284,6.909238683577412,-2.428126935745885,0.1216553681769403,1123.2099533476476,1140.2240252101835,1124.4005228025285,1131.2345065766533,216.85280132742244,-878.1162279590254,-129.42714355808664,-122.62715304309484,164.18727525231515
0.065,0.2232065713512162,-2.021385757910894,1.563461511263875,0.0441344522550218,0.2220875827066725,0.0136051936707816,-0.0033171931547846,0.0020947790122596,0.1211486648792892,0.9926258901982304,0.0189472908989737,0.0795962497165225,10.248843862588139,-0.1157691515036647,0.0237493188288617,1.0361321930116492,6.908950578724439,-2.428125660501145,0.1242439484283203,1123.6479610377985,1138.00488585384,1124.3177551159383,1130.880999667136,137.63266070254747,-926.7318044584946,34.3555041737545,-181.44503791395417,164.18426698894703
0.0675,0.2193734928704933,-1.610622945921829,1.4450082296309517,0.0440762130275835,0.2164705855658847,0.0185748588315506,-0.0032702342423629,0.002399924661683,0.121171017998076,0.9926225103320035,0.0146521065701996,0.079802910102258,10.225823349995315,-0.116204800190305,0.024156798388731,1.0370945137697103,6.90866395051528,-2.428121175465906,0.1268357743056369,1123.8981166511603,1135.5903661878913,1124.5723003233973,1130.3272813870835,60.62207868076251,-962.3345229223098,136.07396756569858,-252.76050701318104,164.18103251547697
0.07,0.2652616583653342,-1.1503016359747131,1.237351275350304,0.0435911605848351,0.2112390556628225,0.0225094014772295,-0.0032131944168108,0.0027033732336146,0.1211753668428228,0.9926212417087268,0.0104149369660756,0.0805205363382986,10.203281001480848,-0.1166289115025752,0.0245806684232852,1.0379944267334935,6.908378386218421,-2.4281132369460203,0.1294309395096837,1123.9510714312023,1133.1932132392285,1124.998124953767,1129.6171971320703,-30.132456511728435,-916.5226813101998,178.3784931204085,-307.01962089247047,164.17761847709684
0.0724999999999999,0.3833006395099808,-0.6456701885464852,0.9652693123098068,0.0427103883566063,0.2075869968934183,0.0250176329289817,-0.0031538745629244,0.0030082784995287,0.1211670453504097,0.992621399281734,0.0061530726629143,0.081568353860837,10.181312480214228,-0.1170500913319657,0.0250070715864067,1.0388328221571,6.9080929244678755,-2.428102860065625,0.132029706470677,1123.747454368602,1131.0077527813403,1125.4641927889993,1128.7921832826212,-147.4749563208664,-874.121828282843,174.19772949479045,-359.97551166547123,164.17399653754615
0.0749999999999999,0.5966228912382456,-0.0421773218039469,0.6246033999562322,0.04185040828955,0.2061521370146803,0.0261444293801564,-0.0030917225467679,0.0033163124882172,0.1211577985875451,0.9926215496393852,0.0018377935302737,0.0829267024740189,10.160006088846572,-0.1174713553060528,0.0254406131596088,1.0396108846364631,6.907806950361532,-2.4280914100160125,0.1346321607540379,1123.213696649598,1128.8226040978143,1125.8691136012408,1127.817319573743,-240.17243885377843,-707.6639437713759,100.88306632078448,-331.31772641422657,164.1694197852025
0.0774999999999999,0.8002982394516714,0.4063585929442818,0.3653204446898246,0.0423676704116886,0.2073370747713367,0.0257092628749203,-0.0030304600575248,0.0036302103918391,0.1211588721642148,0.9926203099519662,-0.0025890404096514,0.0844883553936354,10.1394432284537,-0.1178989690421124,0.0258775815320434,1.0403299394361558,6.907519485690948,-2.428080592493989,0.1372374326297878,1122.546592174333,1127.4694330624834,1125.9686081206032,1127.13559465055,-306.5321447635594,-427.23857112937327,-24.37568319760428,-222.66855107500285,164.16542012283625
0.08,0.9652156847174715,0.7392605479644102,0.1529505578598139,0.0451412679369633,0.2101566125166743,0.024911234082255,-0.0029693376543172,0.0039467142587456,0.1211662460382603,0.9926181960386852,-0.0070534108619685,0.0862191838743532,10.119696903023083,-0.1183267349647771,0.0263188254385361,1.040993107446271,6.907230941554232,-2.4280697832246863,0.1398444830675125,1121.68103592578,1126.6864112421674,1125.7472351852527,1126.703976818368,-416.7467565294369,-204.06028926186065,-175.0805150168615,-119.36575499144044,164.16123408277375
0.0825,1.0374051584455055,0.959581740800648,-0.0547381708584254,0.0506535360171508,0.2145919575607995,0.024811659608949,-0.0029087539521244,0.0042592492923629,0.1211757867481124,0.9926157632449104,-0.0114152538756653,0.088050428012932,10.100831722234423,-0.1187423169554161,0.0267622264718104,1.0416048720148074,6.906942648622695,-2.428058474154687,0.1424531162412297,1120.4628583916858,1126.449131616174,1125.093205545519,1126.5387658755928,-467.5305988248052,26.940292560266215,-299.3255012017923,-3.5154440957739976,164.15600131464277
0.085,0.9539075817232056,0.982236501050508,-0.2048674770286675,0.0562490100855085,0.2185006391859809,0.025580954450569,-0.0028542082835717,0.0045626276576682,0.1211861505143032,0.9926132255422152,-0.0155721821688366,0.0898117003586594,10.08290364236042,-0.1191379180229496,0.0271963144978412,1.0421700306914294,6.90665570302954,-2.4280468849561725,0.1450625471024595,1119.343382931656,1126.8211127049688,1124.250607679244,1126.686399597889,-456.5188369635958,249.91027038272452,-385.05841362534704,105.22958392502905,164.15146953943005
0.0875,0.7203946871840176,0.8509202280386241,-0.3432351662315402,0.0613221499968445,0.2216126095612006,0.0263424268928314,-0.0028013086159418,0.0048549510071049,0.121195834369248,0.9926108463426144,-0.0194609613830182,0.0915369858681683,10.065957686860797,-0.1195105614194112,0.0276310244418931,1.0426927688269163,6.906371615775719,-2.4280352514161736,0.1476725912533939,1118.1802642068678,1127.6986829680875,1123.167913477392,1127.064913795218,-461.278023653268,411.96422456382686,-458.1733093776174,175.3483999807944,164.14676347972707
0.0899999999999999,0.4016543045729494,0.6178844445039803,-0.4653549020481952,0.0642576588429732,0.2236283717005405,0.0260305870323816,-0.0027503533040545,0.0051385729124277,0.1212082786440841,0.9926082688482049,-0.0231113099599003,0.0931749325455354,10.050028962034425,-0.1198672490221636,0.0280688006029889,1.043176635437602,6.906090791508,-2.428024552529722,0.1502832469313188,1117.0369928133898,1128.8809338277879,1121.959741132356,1127.5631415977928,-438.4346732246749,509.6147305164332,-492.5720275451122,210.79817717891316,164.1419149470861
0.0924999999999999,0.0623403566232935,0.3022957312151157,-0.5447015612082474,0.0637492494193464,0.2244531658773862,0.0237441847797058,-0.0026960449031568,0.0054186981812797,0.121221722834909,0.9926057908050236,-0.0265945172809642,0.0947929387905685,10.035141365657903,-0.1202197472802195,0.028522946739672,1.0436244706148299,6.905812746875021,-2.428014157793906,0.1528948367078378,1115.9880908407445,1130.2467566206699,1120.7050533396666,1128.1189046811123,-425.1087170631759,592.8860096742022,-536.2226307197939,240.3837325461152,164.13689658184552
0.095,-0.260626056960563,-0.121248446481677,-0.5665720032463972,0.060524458422319,0.224037481137732,0.0201894014928849,-0.0026404795125181,0.0056971769272946,0.1212351934773793,0.9926036291130524,-0.0299313960376022,0.0963038814796862,10.021309604158002,-0.1205743241343978,0.0289902248781046,1.0440401880158268,6.905537148559951,-2.4280036326077954,0.1555078233471388,1114.911449228074,1131.845363876159,1119.2786279787567,1128.7650602605236,-359.52536007948726,547.4397145688267,-494.23914014942005,225.6422907028989,164.13068005233148
0.0975,-0.4054399387831066,-0.4805296995319279,-0.5254809424341511,0.0570288307269706,0.2225113828767184,0.0180511322446521,-0.0025921300165842,0.0059689515222325,0.1212434102890126,0.9926025522066068,-0.033021891365354,0.0974807628166372,10.008539989975873,-0.1209241152156803,0.0294506342259221,1.0444296305145107,6.905264319903108,-2.427992295716556,0.1581210934815739,1114.190464040347,1132.983955193514,1118.2338576389195,1129.247116134627,-254.64334823277545,391.26570610815133,-377.2398690707629,177.21672286215815,164.12533839467295
0.1,-0.4001969112017702,-0.8214261045756197,-0.4458343821235707,0.0540516241144206,0.2202908904501535,0.0171051059503302,-0.0025493331193201,0.0062332814892,0.1212436700164028,0.9926030016882113,-0.0358291010269083,0.0983137945746136,9.996828394519172,-0.121267438679726,0.029905963132727,1.04479728732756,6.904993757743969,-2.4279794407475586,0.1607340750102586,1113.63823248691,1133.8016924066997,1117.3924286334031,1129.6511438748344,-216.08811846881488,282.04401695334104,-320.9363385032245,159.6886924904537,164.1198298650357
0.1025,-0.246193596797877,-1.1960084504491308,-0.3389117554879265,0.0515475749749823,0.2171661851550874,0.0170354041951617,-0.002513287289536,0.006489208289388,0.1212406920877461,0.9926044734911736,-0.0383214350747341,0.0987419410117244,9.986162966142205,-0.1216010476618406,0.030352774588578,1.0451476199785548,6.904724228398573,-2.4279653100071874,0.1633474528918713,1113.1100234480027,1134.3941752782807,1116.6291759464032,1130.045559597079,-182.33020709030856,165.57488224166295,-242.05482662955592,130.61766800451576,164.11302657987954
0.1049999999999999,-0.0368823123683161,-1.4755330357915395,-0.2568982957476272,0.0502492811599283,0.214207085622063,0.017409870110285,-0.0024765283886834,0.0067390077639082,0.1212370155271059,0.9926066681146128,-0.0405164823416201,0.0988920543732592,9.976523577667011,-0.1219247621849784,0.03080503496372,1.0454837143595244,6.904453746136132,-2.427949199697069,0.1659626704378022,1112.7265814514583,1134.629566817908,1116.1821545002551,1130.3042322148567,-151.8221039158564,69.00936619613289,-146.70188939753672,89.9055044777471,164.10719589130085
0.1074999999999999,0.1878818210879107,-1.7164300776781587,-0.1853493740316442,0.0504053512278998,0.2108624265222868,0.0171246369149481,-0.0024366304923969,0.0069870015415712,0.1212399922355396,0.992608572432174,-0.0424908340611354,0.0988050655461377,9.96788494450878,-0.1222420471068921,0.031267124394812,1.0458079917634346,6.904180448049055,-2.4279308245420586,0.1685798985324788,1112.3509129284237,1134.7392221092612,1115.8956664994157,1130.495087119468,-150.60347690728108,48.40629039676965,-94.90189330804232,65.09412374216475,164.10119749696887
0.11,0.3673945161129176,-1.917513078974846,-0.1157769829306441,0.0523918201000749,0.206909528056171,0.0160177124426726,-0.0023960091217237,0.0072335556302869,0.1212508459669496,0.992609785442182,-0.0442636666976179,0.098427567623863,9.96021876976998,-0.1225484935405075,0.0317304323707046,1.0461238279685212,6.9039034100612495,-2.427910189812789,0.1711981620317978,1111.973564066922,1134.8715982698918,1115.7076450337152,1130.6297028335675,-142.64076199806357,87.31723640353259,-62.100798559731565,39.764428965054286,164.09506030056346
0.1125,0.4323349324251524,-2.0548223632239244,-0.044184388705732,0.0558845518664579,0.2017934144526093,0.0148761458323974,-0.0023571844353183,0.0074799678990468,0.1212706144660189,0.992609715192486,-0.0458815613456581,0.0977178657941271,9.953494443917748,-0.1228408545177598,0.0321861311479696,1.0464342625287912,6.903621935618856,-2.427887871621437,0.1738158249196286,1111.6377091184331,1135.175808291279,1115.585162506617,1130.693909264293,-113.83236355286488,200.89702956988717,-55.87348971503156,12.947783311119554,164.08875680749338
0.115,0.3396578567937811,-2.126329081892134,0.0328293210512843,0.059673801041198,0.1943145859994379,0.014660656844679,-0.0023264119951551,0.0077314283746595,0.121300835212851,0.9926073942805752,-0.0474850861923382,0.0965814146137956,9.94768096882976,-0.1231247038741665,0.0326188515755451,1.04674124494508,6.90333515161976,-2.427865206487187,0.1764310446944015,1111.4044022491576,1135.8760834177413,1115.42827758514,1130.6944417501231,-34.39846530318388,321.41219778982276,-73.713587881275,-8.256337032025833,164.08100277014327
0.1175,0.1259689245444579,-2.105240166618614,0.0735312768634621,0.0613670331320429,0.1876081144541566,0.0154301838099542,-0.0022994528243596,0.0079928091552522,0.1213357613723276,0.9926024250317408,-0.0491909191942763,0.0951417352720547,9.942747695481359,-0.1234033855957309,0.0330336242479287,1.0470458264827016,6.90304312742304,-2.4278424723253647,0.1790447533401343,1111.4657167919174,1136.782869280228,1115.2165945672107,1130.6526275791332,101.24348918743652,424.8171387461306,-119.74036790397825,-13.187866472753765,164.07438537529703
0.1199999999999999,-0.1945681404537475,-2.0212132852270353,0.0747868105485584,0.0614729603395856,0.1814101775065372,0.0166614632995207,-0.0022745994928413,0.0082665571043741,0.1213697521716204,0.9925945734230364,-0.0510781424728453,0.0934764690681072,9.93866818170318,-0.1236772979295609,0.0334300853147996,1.0473487192774291,6.902746705502358,-2.4278200928223512,0.1816589118875141,1111.9106196950947,1138.000169111472,1114.82957574562,1130.6285024177596,293.4153829114172,583.6475010604329,-229.83832842046513,18.36505653645876,164.067610280609
0.1224999999999999,-0.6481120448498096,-1.9025434287015228,0.0310308660955738,0.0605066784807554,0.1754840907299618,0.0178869436022582,-0.0022455561781865,0.0085474114916954,0.1213986897467283,0.9925852968865048,-0.0530633645019367,0.0917438152108464,9.935422085403657,-0.1239317609900079,0.0338162944166223,1.0476511760282678,6.902448666002114,-2.427796325054856,0.1842760187523741,1112.9327937064745,1139.7011067855303,1114.0674029251084,1130.7444528618155,443.62300454699795,637.1493997201463,-338.3113635668903,90.5282715590146,164.0593035650514
0.125,-1.0407647522945684,-1.8397258170509188,-0.0291330001085192,0.0587709904960869,0.1718816086020181,0.0183627543998839,-0.0022091929682096,0.008823875745132,0.121423492883766,0.9925756583764344,-0.0549447519932171,0.0900310238736502,9.932997770228257,-0.1241423029943393,0.0341939213861008,1.0479550064682066,6.902152055501495,-2.427770474803576,0.1868968086754031,1114.12873471783,1141.1859161100726,1113.1380189277857,1131.0811437755547,511.5650081898816,568.6799780878569,-434.1857201065973,214.61140220812905,164.05223897729823
0.1275,-1.3944619694335327,-1.8698527384790369,-0.0856751878091297,0.0552840485253201,0.1690971171840359,0.0183833079105334,-0.0021714113091158,0.0090853955132551,0.1214487886941769,0.9925659031829204,-0.0565542716966413,0.0882541825376308,9.931393396577139,-0.1242912498461756,0.0345476970654343,1.048261315438194,6.901859419126304,-2.427742690325375,0.1895206676674201,1115.490618747424,1142.5445066759696,1111.8964743245751,1131.817509872856,574.5492099887082,518.5552610601003,-604.937727432752,444.06397318771224,164.04503286290986
0.13,-1.7147399173342899,-2.0513316662857486,-0.1098108150146291,0.0490443196680714,0.1657187512971743,0.0179708401982294,-0.0021324259896154,0.0093271772503255,0.1214779622155745,0.9925561208045895,-0.0578141454356611,0.0864581348237444,9.930615598831773,-0.1243740279867397,0.0348762477059935,1.0485690795604767,6.901572762491133,-2.427712590413772,0.1921473495440904,1117.0014807677735,1143.7786924153731,1110.113330290622,1133.3014636414932,486.48600872916126,351.95650172950053,-683.4945567044991,653.5302417207271,164.0362293734373
0.1325,-1.8661874673065952,-2.32665873702755,-0.064099190874981,0.04325239386677,0.1622526176171076,0.0171045096572798,-0.0020971338660351,0.0095456350222241,0.1215145260376634,0.992546160542366,-0.0586688596581642,0.0845984762304717,9.930681247724786,-0.124391601042398,0.0351697095681867,1.0488770166547607,6.901292741652019,-2.427680678690969,0.1947766318608373,1117.9230487910695,1144.3042891846171,1108.4790015410529,1135.0851610814595,255.35506425753715,74.17830727458743,-654.360979390321,820.2728014464349,164.02876863339375
0.135,-1.889021087974536,-2.7044069746150856,0.0786126044013145,0.0380588533825755,0.1574838794726465,0.0157088000151051,-0.0020668745134314,0.009736273652336,0.1215530665813527,0.9925368410033844,-0.0590226260149381,0.0826971322064805,9.931616470376346,-0.1243437796729407,0.0354242740323505,1.0491841023794573,6.901019885862231,-2.4276470069808425,0.1974091593206351,1118.2782560890612,1144.149583951746,1106.8415253936703,1137.4028276487254,32.713009703093086,-186.84431451301845,-631.3171930139555,995.7928016943689,164.02118562909592
0.1375,-1.8131640589546376,-3.128221826610465,0.3107043531584742,0.0334056421285402,0.1511119171553786,0.0141811213238147,-0.0020473539954807,0.0098961640736409,0.121591967313512,0.992528411799544,-0.0588048943944017,0.0806888462002404,9.933455900154925,-0.1242345529900799,0.0356291873714307,1.0494895997404707,6.900754289167828,-2.427612481646801,0.2000452600361843,1118.0866138395852,1143.370067612052,1105.322415575983,1140.0641250899316,-201.78895551885017,-459.7560271349262,-552.0510678753449,1107.7283164843711,164.01350664291203
0.14,-1.6351209941439488,-3.5470854265387888,0.6356190574312596,0.0291203956735041,0.1425195548267545,0.0133950626477399,-0.0020451581553847,0.0100260331377102,0.1216339959073854,0.9925205107536514,-0.0580037414332911,0.078492706436135,9.936240266350962,-0.124074573327849,0.0357745441890258,1.049792778536574,6.9004944157587,-2.427577868724992,0.2026833391373017,1117.2693113114667,1141.8508038160714,1104.0812700542936,1142.9414692311473,-463.70758373122914,-813.5439827116437,-452.4726040579022,1252.6160743255775,164.00571873912406
0.1425,-1.3287027555829305,-3.967811424008656,1.0755262476169432,0.0244632156355783,0.1303646618516985,0.0149905624813653,-0.0020520549009342,0.010132130676121,0.1216808873749827,0.9925128614904832,-0.0566672941233655,0.0763249814874463,9.940012720579283,-0.1238806399155988,0.0358830729786951,1.0500921031406967,6.900237843136972,-2.4275437213314017,0.2053228862808993,1115.768075920929,1139.3023476984938,1103.0600525556936,1146.3272054615595,-589.512478785221,-1022.972245685519,-279.879844065364,1181.5705756565476,163.99625653688105
0.1449999999999999,-1.0181168860897871,-4.206973075462588,1.4231894488445587,0.0213637705338819,0.1195425913968652,0.0190622569858881,-0.0020638565005022,0.0102225063858821,0.1217343207099389,0.9925051827592192,-0.0548788049388171,0.0743169678014505,9.944818261110472,-0.1236722177200465,0.0359698409408758,1.0503871074580455,6.899981863487998,-2.42751110263998,0.2079620820054182,1114.3217489175408,1136.7359425876439,1102.6818708339667,1148.84932210943,-551.5036092380368,-1070.560722255646,-40.54563113627429,893.0413262270617,163.98828108866857
0.1474999999999999,-0.6813135236491774,-4.297980309231293,1.6824812084739627,0.0195616852695633,0.1084601725182439,0.0249593357013398,-0.0020737981668442,0.0102998583292838,0.1217874788452316,0.9924983238552094,-0.052604059695463,0.0726284699400368,9.950701183916038,-0.1234553398142076,0.036052073117388,1.0506799148526007,6.89972567465448,-2.4274792978402866,0.210600577364664,1113.0105578747389,1133.9495440872156,1102.8573244000122,1150.7924120926948,-469.8529638892974,-1219.6319343484436,207.77746150124568,672.8687962382531,163.98022046558526
0.1499999999999999,-0.2833878122395144,-4.2195014369273895,1.8462079739672403,0.0188814637474653,0.0952120518420924,0.0321037098524436,-0.0020781365610335,0.0103657826060592,0.1218342819006538,0.9924930853962702,-0.0497919323482499,0.0713466077017102,9.95770192988075,-0.1232323488548713,0.0361404599009392,1.0509742084551508,6.899468677975942,-2.427447973421946,0.213238049175207,1111.9724840980944,1130.6377829159017,1103.7207581414727,1152.2136660906212,-247.39465741617985,-1172.2021272627433,417.10059533179407,348.9490799880056,163.970459222165
0.1524999999999999,0.0219822959524047,-3.998158210274795,1.8541192210621569,0.019127927361523,0.0845208886098615,0.0376610995248394,-0.0020800417636311,0.0104218189797318,0.1218745165434433,0.9924895599636636,-0.0464084996108137,0.0704108569282275,9.965854315569082,-0.1230049408463209,0.0362323142776845,1.0512748791707098,6.899210409709599,-2.4274176005539,0.215874206953377,1111.773584587658,1128.0885334509019,1104.9428273766712,1152.5371574926348,89.75679522995952,-942.535278076729,570.0728323475681,-51.53313102537136,163.96225843331203
0.1549999999999999,0.2849864334776253,-3.629639232076568,1.7458162949079887,0.0197433004962029,0.074548362282588,0.0427363124575156,-0.00207367589686,0.0104703388884393,0.12191258052235,0.992487286950541,-0.0424204961609939,0.0699305178562856,9.975181899464337,-0.1227723292612587,0.0363446494505717,1.0515868394473484,6.898951206057352,-2.427388221545071,0.2185095277777311,1112.421268074244,1125.925106525518,1106.5711223032108,1151.9560004354944,403.39367878659647,-785.2265490302663,693.3571523828044,-366.99260854256823,163.95399754015432
0.1575,0.5069069354015794,-3.160929393566596,1.566380957743606,0.0204336314577178,0.0656084301915688,0.0468302745842147,-0.0020552857390279,0.0105137094658579,0.1219545603633344,0.9924855685114397,-0.0378099905651104,0.0699648816055761,9.985696665499539,-0.1225328941252291,0.036490004102352,1.0519154018828054,6.898690893292575,-2.4273600159937128,0.2211441603044424,1113.7905529815907,1124.1624007057503,1108.4096131385852,1150.702194449922,702.2198093806759,-598.9352042163767,751.7930035366128,-627.7737834990144,163.94569349632653
0.16,0.6718588810598797,-2.61035248084384,1.3380535201914447,0.0212838702452803,0.058503778046913,0.0491256232949275,-0.0020145358416454,0.0105584823904785,0.1219999161347146,0.9924844143790162,-0.0326405948477782,0.0707078114842537,9.99739645263019,-0.122291653105266,0.0366936350394365,1.0522645975193394,6.898429088084441,-2.4273320890408714,0.2237788608445016,1115.9323671211475,1122.930430504436,1110.3300873208939,1148.817131517999,1069.4110524507769,-417.40132513691566,825.7481713941607,-916.7622815773021,163.93734564172294
0.1625,0.7858753956103945,-1.9146417813944183,1.0432417511195289,0.0230584360170357,0.0526297355287741,0.0505839374551261,-0.001948437497624,0.0106099107743167,0.1220503849504953,0.9924834218670684,-0.0269849532780947,0.0721991109978157,10.01026519895982,-0.122052083679867,0.0369649187677809,1.0526389854896792,6.898165777557111,-2.427303737423892,0.2264150293220227,1119.1376082438449,1122.075394080066,1112.538353995556,1146.1183830420355,1230.89580123701,-213.62948395958463,776.2645614521255,-1018.5144306256452,163.92728840845936
0.165,0.7915578956592006,-1.3473551046268115,0.7863057003364817,0.0254684513326584,0.0497910644459883,0.051717098465568,-0.0018626921457584,0.0106666370043799,0.1221024303733085,0.9924826825943264,-0.0208251237964348,0.074286967771329,10.024272680943266,-0.1218062774564225,0.0372914876244486,1.0530450107554084,6.897902044864969,-2.4272741184998505,0.2290525820486062,1122.0868461273324,1121.862283084638,1114.2114101281545,1143.724559364871,1173.5475851007764,9.998687951792808,629.2869375118238,-942.0263403062099,163.91888228079532
0.1675,0.6833239827118144,-0.8288103151425121,0.5018725733928441,0.0285293787011368,0.0484834977246896,0.0534157837710998,-0.0017641792761027,0.0107286389480201,0.1221529676686325,0.9924819289328912,-0.0141925359467643,0.0767968862962538,10.039373276437848,-0.1215494113470982,0.0376583716694741,1.053488742514062,6.8976387755832445,-2.4272428840995306,0.2316910383982521,1125.0053461693487,1122.1253875198247,1115.6847886831151,1141.4082513405044,1212.0159333153413,214.89527880521544,611.7373394251894,-961.2866544132419,163.9104597666438
0.17,0.4163707789366589,-0.2795807303986896,0.1010978743917305,0.0320280741884847,0.0479662213073727,0.0560123184758121,-0.0016654585280258,0.0107978827382712,0.1222017022875014,0.9924801274868362,-0.0071924494127019,0.0794444863499834,10.055506811161484,-0.1212822054774226,0.0380393985005683,1.053975944043127,6.897375909372112,-2.427211256170643,0.2343300622165698,1128.1469257939093,1122.9367594786643,1117.2700968252805,1138.9181260928049,1058.2357279425187,372.733157205948,562.6279963720203,-843.8763628168535,163.90034490993528
0.1725,0.0961869301261478,0.1200608818781132,-0.2910957253643163,0.033835359077901,0.048052870099125,0.0581202928438842,-0.0015734951081996,0.0108841192338466,0.1222432901247469,0.9924763139391962,-9.284409284332073e-05,0.0820774051316212,10.072598507028435,-0.1210208378263141,0.0384206332223535,1.0545100676878825,6.897111669174762,-2.4271796798801497,0.2369697036416937,1130.296524809061,1123.9890533058547,1118.4979286649752,1137.18886952642,744.055975167202,490.7313363541557,484.8227678746748,-602.1321318858548,163.89191737034443
0.175,-0.2826975019014313,0.4727979324262234,-0.7226221378750016,0.0338018908617204,0.0485082774948877,0.0588161303499079,-0.0015014777754947,0.0109962788013312,0.1222769812647599,0.9924691476075864,0.0068198943747485,0.0844180790203455,10.09056176255757,-0.1207815112431753,0.0387755164769493,1.0550948578089532,6.896844482104753,-2.4271491821759006,0.2396094832873878,1131.867205669745,1125.390416160435,1119.6942106646538,1135.9074654333756,534.7683636769968,611.7600628267638,479.37949316078846,-428.51135452242687,163.88350095427376
0.1774999999999999,-0.669050887093686,0.7971588611767678,-1.1439490545350692,0.0325461713002267,0.0493240867607821,0.0570637009599552,-0.0014591776287685,0.0111218622910102,0.1223037168710954,0.9924598762327944,0.0136806265934338,0.0862068401947822,10.109298555179782,-0.1205354381054855,0.0390789290990862,1.055738864136579,6.896575762339246,-2.4271193927129913,0.2422489165015762,1132.9703666274463,1127.0478536199885,1120.8948261307792,1135.046312753808,348.23858033260126,715.2231881363638,484.0893210050604,-233.40787711013144,163.8751009004562
0.1799999999999999,-1.013855383319746,1.092615152334272,-1.4835156050690144,0.0302832787924244,0.0508113311299087,0.0520846859851543,-0.001442944089866,0.0112487441297793,0.1223250717676201,0.9924499765456292,0.0206383377234369,0.0874582603595223,10.128699366219172,-0.1202524326818339,0.0393335554655472,1.0564492183516103,6.8963072214866665,-2.4270889240529527,0.2448885605661955,1133.6083985714083,1128.9665321011169,1122.1146572696791,1134.7404260478247,211.49559611721975,890.694362506928,543.6002302951233,6.035686586619699,163.86672924795982
0.1824999999999999,-1.3181896808902411,1.40585485582724,-1.7229092727070587,0.0264505586097061,0.0537499257012677,0.0442847143599244,-0.0014492786248505,0.0113710560903255,0.1223451682522729,0.9924400675170912,0.0277078519724426,0.0882052238438869,10.148647174517794,-0.1199169098652544,0.0395433805979176,1.0572305234729968,6.89603976543682,-2.4270565215407647,0.2475284123282715,1134.0278446080324,1131.5013254325231,1123.6128272822548,1135.0764911867411,125.85046416897956,957.285362962056,560.1188897546303,250.0694079459206,163.85672739155348
0.1849999999999999,-1.4400210341345279,1.617050608701102,-1.7602665538577125,0.0221457751195842,0.0573108278262085,0.0380575470826858,-0.0014643217989644,0.0114856379542117,0.1223633147212575,0.9924309433581788,0.0348695228038446,0.088705115279187,10.169019278298014,-0.1195183945848661,0.0397333791086397,1.0580849647465271,6.8957745783702125,-2.427020958798564,0.2501694752044826,1134.2376508922532,1133.7529589159271,1124.9152517184523,1135.9907730875543,83.39866326073198,915.7663205140573,544.244026596652,509.0809514022562,163.8484376162966
0.1875,-1.3885265115195895,1.753190544876974,-1.642887340333063,0.016828234803468,0.0617321663478966,0.0331325699436831,-0.0014757945129122,0.011591387821257,0.1223804599875504,0.9924228688195595,0.0420570233770412,0.0891974476622069,10.18969184349724,-0.1190526362662558,0.0399259583131532,1.0590128694475145,6.895512813950626,-2.4269823085092974,0.2528127618161729,1134.444837924336,1136.0801570350934,1126.334047415238,1137.6218959437524,106.59011623365576,1023.5449537107788,667.0945861200374,892.7230163477808,163.84020475096196
0.19,-1.115463951276153,1.8061444162147815,-1.3699329697021752,0.0101040785090129,0.0672756367246352,0.0286508354263921,-0.001470905816404,0.0116900864143074,0.1223969104815803,0.992415938804376,0.0491490657922782,0.0899484718986464,10.210543014579939,-0.1185227168228014,0.0401453736930561,1.0600123463446207,6.895254538865707,-2.42694003045762,0.2554596389664045,1134.7706014734215,1138.870683684481,1128.2507246490525,1140.4543881692935,130.88811378852358,1008.4257385450646,743.8237676444253,1182.782150871661,163.83040304734047
0.1925,-0.7359242416026593,1.7460355495037436,-1.073418951458976,0.0054476672949647,0.0718913920653394,0.0260762523964751,-0.0014515945119314,0.0117887070829762,0.1224164092431202,0.9924095886091884,0.0558878063815157,0.0909454811463195,10.231458248594741,-0.1179472392264906,0.0403873868231649,1.0610796171412955,6.894998945285787,-2.4268948247126128,0.2581115398944481,1135.0992784932787,1141.1222857278187,1130.05316625346,1143.5358066981107,129.87692236933967,867.3876069380177,755.4304347005194,1362.2463034763755,163.82230861894234
0.195,-0.2689710716878745,1.5691267669599007,-0.7516288207267061,0.0038388522949586,0.0765741438284315,0.0248673850436068,-0.0014215621331329,0.0118899611382123,0.1224349564319834,0.9924041690186708,0.062104309325295,0.0921366718419881,10.252330804084268,-0.1173377060262024,0.0406419437664923,1.0622109840994332,6.894746441663261,-2.426847188724052,0.2607693764445884,1135.419986085268,1143.2076217191711,1132.027876822555,1147.265619686675,119.1314310756751,859.1152769127793,880.8985429940996,1739.2240883758388,163.8143014626368
0.1975,0.2814066467077928,1.223570436000774,-0.3757061346567546,0.0060191567461205,0.0820123819579743,0.0247629684249736,-0.0013848917192127,0.0119940363973475,0.1224504087725919,0.9923997956539597,0.0676912648662172,0.0934584366529397,10.273063755968883,-0.1167007810700634,0.0408988093581108,1.0634027581331185,6.894497601985571,-2.426797660456242,0.2634332704122472,1135.694935648657,1145.4178621123826,1134.4576589684307,1152.23192713999,72.25622917344474,748.6405403773452,873.1564358281948,1847.9124944800767,163.80480668295175
0.2,0.6606888735468046,0.8394185668215459,-0.0839648087566147,0.0098564237467939,0.0856780534806777,0.0251942897588008,-0.001351137486055,0.0120983902165139,0.1224622407482389,0.9923964019568136,0.0725970998299144,0.0947287730310311,10.293572256753324,-0.1160389233632306,0.0411368012707666,1.0646520348002615,6.894252460267256,-2.426747060481009,0.2661017799502508,1135.7812672311354,1146.9508244210579,1136.393659001696,1156.5051821590755,4.6591580662152365,535.992956886093,720.7652511858662,1661.455821699427,163.79699890525256
0.2025,0.9115532411422572,0.3927686912483653,0.1892043474843508,0.0138123030171948,0.0876335914730686,0.0255881481982183,-0.0013194869819342,0.0122017559857758,0.1224720675699916,0.9923936614856816,0.0767861365341368,0.0959781121684519,10.31378296423292,-0.1153543843723935,0.0413584391373007,1.0659552397667824,6.89401081450828,-2.426695580231794,0.2687738730519436,1135.718231438988,1148.097826896813,1138.06148522436,1160.539206248487,-39.04950401602033,387.8487218889401,598.9114516129115,1519.033845574903,163.7893115728437
0.205,1.052284406596362,-0.0668347409556269,0.4582748395068298,0.0170389168674279,0.0879541455523817,0.0258918251934526,-0.0012934364014949,0.0123055613770458,0.1224881300997216,0.9923904093993312,0.0801740055932383,0.0971501403718749,10.3336369408591,-0.1146554697549893,0.0415601736591168,1.0673087254575326,6.893771852023568,-2.426644389924878,0.2714481435784286,1135.586019711055,1148.8900680305023,1139.3882162597606,1164.1003513869503,-44.41441148087502,228.4002048660566,428.09498847986976,1258.2875344758563,163.78173328265885
0.2075,1.078238125605338,-0.4920468970708603,0.7345105921825428,0.0195293967796933,0.0863601061713625,0.0262780740096918,-0.0012730067310373,0.0124131646324458,0.1225157076660472,0.9923858503847168,0.0826618868568516,0.098261138380936,10.35308870670058,-0.1139535977465432,0.0417465425919303,1.068708504491442,6.893534812946366,-2.426593835989381,0.2741249164597193,1135.4961593815835,1149.2398279211432,1140.2019601667591,1166.8306439208664,10.779752463076925,57.12786545814223,229.94082328455184,971.1073459962835,163.7742973486752
0.2099999999999999,1.0068045376603199,-0.9088722945044624,1.07427152456701,0.022498509037213,0.0826521170031733,0.0274812997777525,-0.0012663870593041,0.0125247485599295,0.122565061320103,0.9923786182082212,0.0842128609337137,0.0991434534864701,10.372107004871461,-0.1132549080818953,0.0419055315441169,1.0701519649724063,6.893299506724238,-2.4265451998674017,0.276804543737987,1135.6399184733707,1149.1757073577933,1140.5379203761831,1168.9558881169316,124.25128742816072,-92.95587160631885,23.4888161348864,583.8415526455747,163.7655517815219
0.2124999999999999,0.8830850427786279,-1.1554475801115547,1.3484107991805683,0.0248587908294723,0.0787799396813223,0.0295695874932802,-0.0012736793693146,0.0126385745595503,0.1226360083123601,0.9923686810101204,0.0848656417569768,0.0997880630172538,10.390671935283052,-0.112560029184384,0.0420399793404458,1.0716365381107251,6.893066637072881,-2.426498135859024,0.2794888269080384,1136.1174158187243,1148.7750485631116,1140.3194042474336,1169.7498516840942,293.92453191639987,-211.838378119546,-166.8507053102529,137.5657666129881,163.75842031613746
0.2149999999999999,0.7184070784789646,-1.2939101834792008,1.5777626076038969,0.0265614290201771,0.0752054579424102,0.0327138150630845,-0.0012981034421117,0.0127511935272526,0.1227293391004465,0.992355926012671,0.0847029152077917,0.1001099701982569,10.408775804735688,-0.1118666065690688,0.0421458171143467,1.073160274211315,6.892836931018308,-2.4264530139735685,0.2821778367042558,1137.1095411329527,1148.1165154671955,1139.703666849632,1169.6437169499964,573.2352796136634,-319.3649734250809,-318.78326730898124,-203.16638045937887,163.7514603446674
0.2174999999999999,0.5017013884438412,-1.3524916057634273,1.7476247973980776,0.0278523082928822,0.0717691590647297,0.0374921856768278,-0.0013407143105634,0.0128585455643173,0.1228409674316668,0.992340876138614,0.0838405581161849,0.1000623862807021,10.42642138278346,-0.1111707460290776,0.0422220211512829,1.0747213984763324,6.892611163273265,-2.4264094779394707,0.2848709275879233,1138.9835922167929,1147.1782236959864,1138.725487910889,1168.734019781797,800.3044633479014,-344.2685221781173,-358.42373100576845,-417.9736427006442,163.74331570821954
0.22,0.321588792988761,-1.326429807636231,1.7593372883377532,0.0285689048325037,0.0694210639156931,0.0425964998285057,-0.0013887010118352,0.0129573978943438,0.122962877208233,0.9923245584003844,0.0824268328953056,0.0998834992013966,10.443618972783955,-0.11046678747179,0.0422958612855249,1.076317404164308,6.892389889783592,-2.4263657242443313,0.2875681043811413,1141.1110634496922,1146.3951728563047,1137.9115481946033,1167.5538487364931,949.8392200105619,-282.92537705815425,-271.54306357688233,-504.5652469073952,163.7367069828966
0.2225,0.1557542581930775,-1.2301318684309548,1.5937406947928987,0.0290452888989126,0.067101215948619,0.0488610690700864,-0.0014306525098438,0.0130480809674696,0.1230885916785632,0.9923077749381995,0.0805456035542542,0.0997875179228569,10.460387596612271,-0.1097565133257747,0.0423919446398073,1.0779453335812452,6.892172220547276,-2.4263204718630735,0.2902692504196962,1143.7327883168457,1145.7635968106956,1137.3677725930045,1166.2111935472603,1104.9274942862203,-205.40826967262527,-132.0041876883805,-527.193662170293,163.7302892494988
0.225,0.0095987534194925,-1.0709365826680959,1.2683422867975704,0.0291939596972726,0.0644644342853284,0.0553662555953903,-0.0014555062984598,0.0131331061907602,0.1232109704468087,0.9922913953443692,0.078244915095372,0.0999850026593513,10.476752771612116,-0.109045894009069,0.0425335883238756,1.0796020673763995,6.891957835112176,-2.4262724291804973,0.2929742696170444,1146.635700921123,1145.3681315079418,1137.2515272561611,1164.917880425642,1189.0221222214664,-78.42668918874544,98.41142519971972,-469.9088005417248,163.72403348303672
0.2275,-0.1045758723160187,-0.8237732862759674,0.7750134003434705,0.0287327015730786,0.0613510145081125,0.0604167091395306,-0.0014605203990352,0.0132172488139336,0.1233293042489277,0.9922754594296816,0.0755129695981809,0.1005153928458599,10.492745672097396,-0.1083465969693649,0.0427271957590788,1.0812847681517337,6.891746389600899,-2.4262211118666794,0.2956828278187682,1149.677898927953,1145.371463364752,1137.859829719003,1163.8616495445517,1317.8405457822453,114.96450890390396,467.1417434505652,-379.6732995843737,163.7179770225358
0.23,-0.1980412705237053,-0.4181955969406643,0.0757278363734716,0.0278866439610415,0.0577313375637743,0.0622591696665443,-0.0014446685507569,0.0133073142396202,0.1234465955611455,0.9922595311355834,0.0722968228066296,0.1013855908683091,10.50839988129726,-0.1076737996019496,0.0429759827496571,1.082990529520822,6.891536393434276,-2.426166771361581,0.2983960710853817,1153.2249036500343,1145.9429540524611,1139.587235973414,1163.01951392772,1249.4022759376992,312.9402681219741,800.2389319101886,-229.36325736300185,163.7109450680213
0.2325,-0.2396304657473379,-0.0010600259224471,-0.5107797566443982,0.0274160719159089,0.0557927732331,0.0597488059177393,-0.0014137957885724,0.0134102429408008,0.1235690715116751,0.992242774468684,0.0685257353952868,0.1024588289669461,10.523749677610079,-0.1070435058152101,0.0432685286355308,1.0847171260249109,6.891325862268868,-2.4261105751481815,0.3011149913378693,1155.9249103076415,1146.9361647053615,1141.861024378554,1162.7148332577367,996.1084201274833,506.9099178987922,1053.743421258422,-45.44547936939121,163.70528580239431
0.235,-0.2459812801439565,0.4597724450795743,-1.0123050681155856,0.0271240357227743,0.0557364878838507,0.0547711151609284,-0.0013744082927032,0.0135253535222882,0.123693351098942,0.9922256618543775,0.0642853491182042,0.1035699180726809,10.538825966982534,-0.106455465808579,0.04358786645922,1.0864644923644733,6.8911139816701725,-2.426052776960246,0.303839371902943,1158.205445750672,1148.4775036419553,1144.8559530797063,1162.792286530873,883.9521831577706,796.5152382329953,1419.780986032809,99.75260863943721,163.69984022355388
0.2375,-0.2121602025933864,0.9971363298102022,-1.4670838180758117,0.0264766010754652,0.0578556117680856,0.048402302029716,-0.0013332685991985,0.0136444023809159,0.123814577147369,0.9922089710313168,0.0598174996529453,0.1045308207917618,10.55365434628256,-0.1058927668333701,0.0439141285607499,1.08823482600118,6.890901572616813,-2.425993616296224,0.3065689477766282,1160.3446712234304,1150.9187408965267,1148.959929308718,1163.213596300934,676.1619750533132,979.649726159555,1530.9668311909788,187.39357007866687,163.693559287638
0.2399999999999999,-0.1467447113511725,1.3791889858673558,-1.7263498252176388,0.0255688811264746,0.0613377580434792,0.0437020536158569,-0.0012982576759452,0.0137585431101274,0.123926402610995,0.9921936930573116,0.0553711577965166,0.1051310783492116,10.56825407591288,-0.1053373943923019,0.0442247188766343,1.0900312120330968,6.890690007600033,-2.425933406661379,0.3093034252442839,1161.5862556259383,1153.375752272753,1152.5107872356612,1163.7292543812664,381.22576267169455,1045.1452927694893,1377.4762635362613,215.20571764585935,163.6885418827405
0.2424999999999999,-0.0432354076632051,1.6361864652653368,-1.8919859025703396,0.0246069201588767,0.0663923887423901,0.0398069923421816,-0.001265265656926,0.0138626062521364,0.1240229847106026,0.9921807341686204,0.0511457011084084,0.1054236658256719,10.582634372963426,-0.1047760152892084,0.0445243696837652,1.091855961217622,6.890480181909877,-2.42587204217588,0.3120425480394924,1162.2508000367889,1156.144467360374,1155.8473106263991,1164.2896248891632,162.54648966532827,1254.5672299913335,1354.9573938376386,236.63305706204463,163.68375609263927
0.2449999999999999,0.1117827315240922,1.7564654973288638,-2.023045020602259,0.0242830796946577,0.0733344158436456,0.0353049854741765,-0.0012321811137421,0.0139500390100454,0.1240978311210026,0.9921711129809438,0.0473588478826358,0.1054199909821343,10.59679425413713,-0.1041930309779648,0.0448134316745725,1.093712594592156,6.890272563481936,-2.4258097564141137,0.3147849863464447,1162.3989880742652,1159.6485884227095,1159.2855742048491,1164.9124196665766,-46.95941079389736,1288.9755664849406,1140.140771993264,214.3720071392179,163.678288915917
0.2474999999999999,0.2492502448810377,1.6902675356759704,-2.0955814152789087,0.0250542295050143,0.0790378532242434,0.0314380164796361,-0.0011948784874053,0.0140197176269116,0.1241480236980932,0.9921653364622472,0.0441133591125142,0.105190390966998,10.610721000377636,-0.1035838844676502,0.0450991942238625,1.0956040185515123,6.890067074403676,-2.425746831946507,0.3175302839055019,1162.0160029828191,1162.5893451927989,1161.5480144863657,1165.3614849248593,-243.6863994219491,1152.7469120308056,775.061252104478,168.60941513823477,163.67396796818207
0.25,0.3746189412949093,1.4672231279069816,-2.1367465462358424,0.0264087031089949,0.083631402230508,0.027202671736769,-0.0011521630814608,0.0140735728919277,0.1241739233260042,0.992163449795627,0.0414322964582752,0.104754197205489,10.624389646016612,-0.1029513068044586,0.0453843966294578,1.0975331445578271,6.889864090917889,-2.4256837272528045,0.3202778385528559,1161.1805560771554,1165.4123229828635,1163.1608804653715,1165.7554667422676,-391.9616149191367,1091.9727484106706,550.8578832964754,155.5437361052553,163.66989569151144
0.2525,0.4802995645697586,1.1416041350123467,-2.144766301548671,0.0278385156821959,0.086899792226012,0.0223645397190761,-0.0011006405341336,0.0141166842792895,0.1241736926140753,0.9921656997545724,0.0392684945309946,0.1041900152114739,10.637761778948988,-0.1023045998254045,0.0456773509633099,1.0995022338771203,6.889663862434062,-2.425619835951481,0.3230282464938957,1160.0561949082237,1168.0492089348522,1164.302303902848,1166.1392036053855,-490.0107937261505,991.4410302452317,371.5196057376485,158.50646739963835,163.6660319480142
0.255,0.558242565961993,0.732685656719707,-2.095859810490025,0.0292644780930304,0.0888101198945761,0.0167376538302872,-0.0010449744331425,0.0141546024978523,0.1241526200352534,0.9921713548712056,0.0375339926394963,0.1034085638009415,10.650787252589495,-0.1016556991651078,0.0459703512443594,1.1015138371314397,6.889466823320538,-2.425555382432196,0.3257823120279233,1158.7305021085247,1170.36952813409,1165.01847849406,1166.547999079266,-583.5706583652149,927.4297523966643,256.30460394063425,187.2773354148192,163.66242103474903
0.2575,0.6201541135117216,0.1954581477584152,-1.9533648096688567,0.0311758063649419,0.0902301491641494,0.0095602950974174,-0.0009867418199205,0.0141913769801524,0.1241147538215194,0.9921797575607724,0.0361692204871959,0.1023854502625508,10.663403388331272,-0.1010123900188406,0.0462618342610848,1.1035702507641365,6.889273433610564,-2.425490174153253,0.3285414401109973,1157.1383416163976,1172.6863576968356,1165.5838269225512,1167.0755902824596,-548.875328722806,760.5263176983491,180.8571989130085,193.8773858163129,163.6583801917914
0.26,0.6482611469880591,-0.2563411052530868,-1.76372026296616,0.0331313598515285,0.0907248436744245,0.0039902885839956,-0.0009313610075812,0.0142329186059285,0.1240667428441543,0.9921897316735516,0.0350533378652712,0.1010223138817316,10.675537880151836,-0.1003869778244527,0.0465427082723832,1.1056731493491627,6.8890835050347,-2.425424795255801,0.3313052349751425,1155.9861254649106,1174.1721597225817,1165.922764488625,1167.5173860083476,-389.4357933440912,495.4620126567984,122.16124052451949,164.77512266487778,163.65525512226668
0.2625,0.6606041837360445,-0.6663554065809788,-1.5180734932087463,0.0352507554164607,0.0896421179082291,-8.124940512900709e-05,-0.0008783125495864,0.0142857356616502,0.1240084526672961,0.9922007147074324,0.0340549393152283,0.0993541330668163,10.68710952910886,-0.0997914856157362,0.0468157287227836,1.107823145017132,6.888895846963079,-2.4253585905403323,0.334073663961259,1155.1911626496772,1175.1636677601196,1166.1946331251738,1167.899465895784,-243.73928156605848,325.128293912712,105.53647113506476,138.76876400863682,163.65237875419
0.265,0.6774132327035455,-1.050991671214288,-1.1922371950931467,0.0368342891842794,0.0859711637757574,-0.0029876441540092,-0.0008298011109026,0.0143472583732387,0.1239399420130818,0.9922119560396926,0.0332149297109678,0.0973380359680339,10.698031853749615,-0.0992179596729259,0.0470749870631464,1.110022307268126,6.888709687729817,-2.4252915871469054,0.3368466887914472,1154.7674290570803,1175.7978011921452,1166.4504468443004,1168.2112298283907,-64.35079617722289,150.8890683178832,77.56998133709197,81.59150376523024,163.64920970978864
0.2675,0.7098256426066026,-1.2455938348816151,-0.9146804279656064,0.0370556611892161,0.081416021867606,-0.0044161492367331,-0.0007920297464122,0.0144187591360787,0.1238624275727246,0.9922221423772608,0.0324693993252957,0.0948601478960476,10.708217144165728,-0.0986670425302872,0.0473067215547793,1.112271410290045,6.888523924282255,-2.425224310188219,0.3396239285101019,1154.869408668791,1175.9181131017087,1166.5824830318593,1168.30742341461,121.52704254667684,-11.515448018280939,30.407607843790142,2.44987268333716,163.6468001146551
0.27,0.7669941217002583,-1.2897591453531247,-0.6380495606149683,0.0373359935816058,0.0765453263220303,-0.0056581728665723,-0.0007688557220474,0.0145011323914873,0.1237807089392397,0.9922296734236756,0.0317563636504747,0.0918584832238072,10.717578976168571,-0.0981368715588389,0.0475024711036555,1.1145702111255622,6.888337395741987,-2.4251579283065765,0.3424043710674766,1155.3750642698135,1175.7402239520538,1166.6024848835193,1168.2234791918074,248.27085185452208,-93.60407934154856,-11.03646709775602,-56.93334871116344,163.64462559884453
0.2725,0.8305806288444993,-1.2174089514366144,-0.3564083887409117,0.0385810499680278,0.0722394387866821,-0.0069768229640042,-0.0007527278669922,0.0145919393892571,0.1237016423005691,0.9922346733689,0.0311037879618977,0.0885092685977373,10.726034982618124,-0.0976144149860329,0.0476780201154661,1.1169171138956917,6.888150106315638,-2.425091898365912,0.3451883313293513,1156.1107629280637,1175.4500927050012,1166.5273006963705,1168.0227566710544,315.6209765131732,-105.37954259420977,-46.31456526471989,-90.56850455690429,163.64264248587173
0.275,0.8687752911869688,-1.038202806684492,-0.0580955013709808,0.041221225650304,0.0689756027515772,-0.008276866113165,-0.0007345153381386,0.0146921465677848,0.1236336269478703,0.9922372247964394,0.0304609193605675,0.0850368570180421,10.733512763390523,-0.0970935688200117,0.0478535142071709,1.119308085962574,6.8879617633541725,-2.4250256748064225,0.3479770507660435,1156.9531691523796,1175.2133262390828,1166.3709120571957,1167.770636669023,347.6914240217408,-46.33127612823951,-71.0150987267752,-92.61135520232521,163.64088612569068
0.2775,0.8435567967111771,-0.7604040122222367,0.3227143513949686,0.0452485631473018,0.0663781255309734,-0.0092870657829826,-0.000705567397154,0.0147979872640139,0.1235743567308538,0.9922384504086008,0.0298668901859471,0.0816529856166084,10.739953849121536,-0.0965592872225501,0.0480446648428976,1.1217381919763956,6.887772846523263,-2.424958366840767,0.350771821578925,1157.8492200481724,1175.21843632436,1166.1722252027366,1167.5596998950427,279.356038940932,75.06251123486429,-60.966568418916665,-41.35390660594563,163.63903568379916
0.28,0.7464521840174844,-0.5250994181193183,0.6474253409394475,0.0484360955480674,0.0654700002626442,-0.0089108067880639,-0.0006574229682711,0.0149095524323681,0.1235230369030581,0.9922389365391168,0.0292724394715668,0.078580909174039,10.745317874079063,-0.0960058167379447,0.0482678786652025,1.124199724205732,6.887583444339366,-2.4248891389843776,0.3535739610530772,1158.3499493470842,1175.588638795257,1166.0660792151011,1167.5638671359932,130.37816496998846,238.48006880039043,-19.078863755703406,53.985403199794696,163.63770455172974
0.2825,0.5720365074653828,-0.3380353349298712,0.9496882307081806,0.0506650167229792,0.0658389657415882,-0.0068935559876898,-0.0005837152163128,0.0150291118115672,0.1234779909725076,0.992239126720912,0.0285734920912693,0.0760106879155784,10.749585854390842,-0.0954341347245379,0.048535351260977,1.126682788514112,6.887394505553867,-2.424816822827353,0.3563852859294241,1158.5011108730223,1176.410836668362,1166.076830883958,1167.8296269110415,-2.6321857441416774,458.4463888689693,29.96969723712934,175.94022656376168,163.6365885052329
0.285,0.2958827462657832,-0.2083111053225639,1.2443588291054053,0.052236054656929,0.0665894399281718,-0.0030962656185207,-0.0004862886212893,0.0151620706433691,0.1234421193658529,0.992238687736927,0.0275784432724542,0.0739681700779709,10.752763046545049,-0.0948555977463449,0.0488427604378332,1.129175917500472,6.887206380663812,-2.4247411756639488,0.3592079922779738,1158.3367884183635,1177.880870739602,1166.2159277012868,1168.443568268812,-85.15879485362339,596.2516069294901,58.95421704021823,260.2841539199742,163.63549386582835
0.2875,0.0330558145131996,-0.1888538850213445,1.4067715747360303,0.0527531530910218,0.0668322677864155,0.0008252405186068,-0.0003790504228483,0.015312265803105,0.1234260874044703,0.9922362338535357,0.0261023109023231,0.0722177105389423,10.754880140220939,-0.0942824083644953,0.0491599565794,1.1316679640273093,6.887019344299504,-2.4246633266427913,0.3620431456088336,1158.075316898754,1179.3920947030094,1166.3716019691592,1169.1310476806416,-71.4108267682157,617.922480434442,44.22615003964029,284.63151742126064,163.63478298283525
0.2899999999999999,-0.2334303223044078,-0.2562480224121193,1.4624331042266323,0.0523430470870432,0.0667993730388779,0.0053681820069969,-0.0002787932550109,0.0154860221156223,0.1234435806377685,0.992229901335296,0.0239082749590222,0.0704692218092309,10.75599250422281,-0.0937347512771588,0.0494520250852959,1.1341474881162414,6.886833293811834,-2.4245849931788945,0.364890392798467,1157.9797342845225,1180.970483141774,1166.4370584514847,1169.8667258559183,36.139641743784885,600.0545147472228,-10.50751154634792,280.83647660505727,163.63427872148435
0.2924999999999999,-0.4805012056547919,-0.3840059029895761,1.4258493964558738,0.0510431723690158,0.0667010623482859,0.0102399243214211,-0.0002005846799301,0.0156711415689439,0.1234952796837099,0.9922196748409639,0.0211717921379441,0.068425673917607,10.75617768889652,-0.0931938793411407,0.0496814303378925,1.1366074395819297,6.886650141389382,-2.424506668945966,0.3677475482921696,1158.256015107473,1182.3923672767455,1166.3190644114275,1170.5352300636669,241.86141591503636,481.9204646888916,-110.45729918387212,232.14431466681145,163.63394458697925
0.2949999999999999,-0.6818746278298335,-0.5617312015725998,1.2926897530388215,0.0487863792399687,0.0660541530186748,0.0147118361116997,-0.0001494856871297,0.0158596400205943,0.123574418703197,0.9922063862403476,0.0180211227212256,0.0660165828420259,10.755533342653615,-0.0926502702455518,0.0498340686086373,1.1390406940619635,6.88647239401594,-2.424428248436408,0.3706139251640861,1159.1890413640976,1183.3800854652184,1165.8847719555656,1171.0274474292523,580.6730707942273,291.19226302746,-269.583432550962,167.2735385023769,163.63381474532324
0.2974999999999999,-0.8554527358887137,-0.7924814852146335,1.0656214368841723,0.0451950233625663,0.0639728205412455,0.0182600589053361,-0.0001284023336403,0.0160375077011843,0.1236734813972048,0.9921910685063065,0.0147379699631856,0.0631989278260246,10.75417394478292,-0.0920818638385987,0.0498997438189665,1.14144318187678,6.886302320071538,-2.424350110090945,0.3734878021026742,1161.1593804614442,1183.8483285918828,1164.9711472486727,1171.3715977561787,849.1479231507576,43.22372695769442,-387.23719644376575,91.79149569386017,163.6338947222789
0.2999999999999999,-0.9464297674252752,-0.9673948079517286,0.862274839721229,0.0418077404860989,0.0610956479619916,0.0195606440423593,-0.000130383434081,0.0161959607232666,0.1237833011825374,0.9921748960541432,0.0115393477023356,0.0601499939127811,10.752226153141756,-0.0914767966858429,0.0498925292870637,1.1438114301508624,6.8861406052469585,-2.424272139182599,0.3763679222069816,1163.4347809798514,1183.596204100007,1163.9485859733468,1171.4864049077216,995.188057565564,-217.51478079509047,-427.6775413007268,30.7074603476394,163.634158125004
0.3024999999999999,-1.0054100518323863,-1.0939376855989966,0.6866359145253559,0.038895945320283,0.0576346081759722,0.0200032379249558,-0.0001509884293034,0.0163302363036168,0.1238980654403496,0.9921585866733924,0.0085709805863651,0.0569968157082491,10.749824320600238,-0.0908330312850307,0.0498229496050968,1.146143925527746,6.885986883413591,-2.4241945828654266,0.3792525396175845,1166.135320749272,1182.7607546879071,1162.832759542169,1171.5251350579167,1210.0345980846203,-458.03172845930885,-452.97682953878353,31.650678270807447,163.63462677331205
0.3049999999999999,-1.0855886806469013,-1.1734830032651162,0.5315602458130507,0.0367859270887581,0.053510380199524,0.0202836402108776,-0.0001817560417241,0.0164380570290015,0.1240086939616745,0.9921432526342154,0.0059565312713783,0.0539527373010553,10.747104414057468,-0.0901529172721895,0.0497110998383073,1.1484408799553583,6.885840446544681,-2.424117242593628,0.3821407818447191,1169.4849539702743,1181.3060454577103,1161.6837018256529,1171.6446582990757,1185.841311794046,-569.4016188787823,-341.8212823398787,79.73383114699566,163.63542847988785
0.3074999999999999,-1.19281746657038,-1.1795650646023235,0.4475608679742349,0.0360131334874455,0.0502447739073251,0.02056576401646,-0.0002165781844304,0.0165157565230643,0.1241079302140858,0.99212982479108,0.0038611346381567,0.0511683936786102,10.744198729302068,-0.0894349797827296,0.0495715131142227,1.1507052432124791,6.885700077287323,-2.424039947506478,0.3850313872740868,1172.0645273082423,1179.9137465935135,1161.1236531304696,1171.923804213652,921.5157167698172,-551.252490628121,-89.99267549879725,171.43471202343775,163.63629794690317
0.3099999999999999,-1.3580649757233119,-1.1330292033403166,0.391336929303891,0.0355764149266155,0.0473483132281891,0.0211493974903999,-0.0002426679300789,0.0165610496832375,0.1241848851931833,0.9921196821546868,0.0024528164183511,0.0489332080808083,10.74123028428197,-0.0886775300208951,0.0494335734730794,1.1529410934201139,6.885564775352225,-2.4239613015535406,0.3879244278397217,1174.0925325541236,1178.54978300457,1161.2337384481589,1172.5018318591929,706.6245429758048,-559.7986705914077,242.92480939561733,335.17900131164396,163.63737906323422
0.3125,-1.5936785829157538,-1.034082288462959,0.3199459236319817,0.0341131447610137,0.0442634878487575,0.022394186959818,-0.0002542077791657,0.0165722531378017,0.1242314419797622,0.992113857457872,0.0018780546984787,0.0473798592972879,10.738308644836144,-0.0878797039909164,0.0493109623690064,1.155154371178977,6.88543356114338,-2.423880577946423,0.3908194828033728,1175.597650023121,1177.1147532405564,1162.3382771774477,1173.59969922021,372.2693422830613,-481.4545735241604,574.8840609822305,466.1219616340528,163.6389244283135
0.315,-1.7642144185616313,-0.9293602438459002,0.2293238994647445,0.0306884942273789,0.0418084513862149,0.0238904833498147,-0.0002449621779452,0.0165526411313932,0.1242433218122119,0.9921128318805572,0.0021830663542923,0.046653227654345,10.735525726104383,-0.0870488672936493,0.0492199803136729,1.157351007861781,6.885305223846375,-2.4237971968139584,0.3937162988229427,1175.9538792655387,1176.142510136949,1164.10815875307,1174.8324416673631,-50.18238408420071,-343.23469051855653,863.3973768755815,539.9346143820362,163.64042154965273
0.3175,-1.8157416993339928,-0.8183738810854235,0.0818309014332243,0.0245983537038768,0.0394696079255617,0.0255525758557143,-0.000216705090277,0.0165051536137274,0.1242205556837998,0.9921165578588402,0.003398118454798,0.0467168162743693,10.732953223467144,-0.0861906678190491,0.0491589104362776,1.159538028608551,6.885178460717126,-2.4237115982290125,0.3966146767460877,1175.3467381027003,1175.3985797879636,1166.6552640618256,1176.2993722921203,-390.3915267633234,-267.0774281218198,1110.5257113430516,602.128539152954,163.6421393204217
0.32,-1.705701688403194,-0.7169238926195519,-0.1180338658506413,0.0175752690143151,0.0375292256711535,0.026870991003414,-0.0001730716248506,0.0164393452528238,0.1241708600438559,0.9921239207721224,0.0053998038904173,0.0475012948420331,10.73064087639296,-0.08532286052751,0.0491247611479053,1.1617212524361564,6.885051865582857,-2.423625031002771,0.3995152942914789,1174.0019216317223,1174.80712299634,1169.6607873097853,1177.843084363128,-683.7905834829593,-211.5640917586004,1249.4484715259648,600.5348046582179,163.64404277755165
0.3225,-1.3593170048695156,-0.6472702623027483,-0.3672513282397331,0.011166141502477,0.0365395477619309,0.0273188628064915,-0.0001236800738973,0.0163684865088769,0.1241080109286063,0.9921329882532096,0.0079562790978933,0.048809573237841,10.728616328382632,-0.0844702315550047,0.0491028312002155,1.1639056487291952,6.8849234265498955,-2.423539217435919,0.4024190694880547,1171.9277851852855,1174.3407593291706,1172.9025064194554,1179.3020463154114,-1024.4575580540632,-190.5576101708901,1391.7409897896039,575.4908610099842,163.64617364086365
0.325,-0.6713830127470014,-0.620539190111094,-0.6824364059333866,0.0054405723917553,0.0361545346632181,0.0266198099946623,-7.456448775359165e-05,0.0163068198378168,0.1240427254422755,0.9921421990874486,0.0108064261026414,0.0505164763873793,10.726885624718868,-0.0836568299916327,0.0490868138039432,1.166094695216351,6.884791888407829,-2.4234553597262396,0.4053276668756677,1168.879633841452,1173.8543349454856,1176.619492258733,1180.7205386681778,-1163.78768473014,-174.93917068763935,1275.092657732829,436.06521402743925,163.6489983170956
0.3275,0.0922034046730525,-0.64735177789922,-0.9163978642225912,0.0026427616707902,0.0358052215394583,0.0247631966428512,-3.4744590112427095e-05,0.016267898248941,0.1239877414216152,0.9921497497713267,0.0136737780096838,0.0524226718938236,10.72543494437302,-0.0829042692973406,0.0490637701759264,1.168290941768675,6.884655634594417,-2.423374655344235,0.4082422011531759,1166.1088467616348,1173.4660634757324,1179.2779697081196,1181.4823723855486,-1100.786259645246,-160.17524364915502,921.8483386342989,196.84139090004447,163.6515785934345
0.33,0.9736296662432304,-0.7072858903430963,-1.0645521767979191,0.0025521745335558,0.034898115552501,0.0213148410019572,-2.367478208063222e-06,0.0162596769771872,0.1239473985061794,0.9921549685219008,0.0164053834655495,0.0545408287449086,10.72423195752552,-0.0822182110116445,0.049043347345956,1.1704957359980124,6.884514869717569,-2.4232966517398085,0.4111637180638249,1163.3757025432255,1173.0534587272396,1181.2287339519048,1181.704745622678,-1138.3810314181565,-194.35459334686112,669.9304434551772,-28.911518230188424,163.6543971023548
0.3325,2.0390394267244085,-0.7771723042364477,-1.0893806850887275,0.0072999001291328,0.0325724547000365,0.0157510978393502,2.3029793588697035e-05,0.0162876398016873,0.1239279734319859,0.9921569788672224,0.0188715317255586,0.056839794104869,10.72322859370513,-0.0815991708110306,0.0490314981834761,1.1727097074955053,6.884370298604137,-2.423221279591196,0.4140929874640962,1160.416941604544,1172.494290508998,1182.6276219253955,1181.3378147943977,-1000.1372511596846,-219.3489890545605,359.4474077530773,-227.3534676586676,163.65805733488347
0.335,2.831912939930925,-0.8003381732596818,-0.9654586765070924,0.0154587818440014,0.0294467461514257,0.0108559685314439,4.612035507298112e-05,0.0163458179698712,0.1239297175885273,0.99215583734768,0.0211725130865114,0.0593439753124764,10.72236300433669,-0.0810216320257132,0.0490396879431406,1.1749341063193524,6.884224232369188,-2.423147378355561,0.4170291555651354,1158.3750162874271,1171.9567137819668,1183.0259709906702,1180.5679782843847,-704.0132738339701,-232.45685460251457,22.346051702334055,-376.4769921261628,163.66134023401375
0.3375,3.42884700409119,-0.759153584985892,-0.7085541523086805,0.0258854344444038,0.0260432025972646,0.0071888697199827,6.875654139386986e-05,0.016425371915793,0.1239543805439538,0.992151460093888,0.0234395157459425,0.0620050110764747,10.721562700553182,-0.080455945321994,0.049071812699319,1.1771700722086,6.884078792456792,-2.423074543182112,0.419972313121684,1156.896875235374,1171.3320062359855,1182.7393521839072,1179.4554298337669,-488.2223990143752,-264.784633339468,-205.00142956789188,-476.559758245548,163.66486479519494
0.34,3.823616351213845,-0.6610800349493923,-0.3805594271051237,0.0365860104613732,0.0232113316284742,0.0053306031937046,9.735797216374952e-05,0.0165186710354071,0.1239981339719253,0.9921444408188896,0.0257710084569545,0.0648741654790786,10.72074690501802,-0.0798767510827558,0.0491415979533531,1.1794175594466407,6.883935354604631,-2.4230023859238647,0.4229218741735403,1155.9339042923555,1170.6327906152696,1182.0009638428307,1178.1851794931567,-259.230717488708,-295.21977878753177,-376.65085055195925,-516.7172063700486,163.6685890170684
0.3425,3.9641389614511695,-0.5103184471065667,-0.0308016887727908,0.0470609293829298,0.0214408598067822,0.005770633007926,0.0001412106682225,0.0166222129043289,0.1240585996189938,0.9921351257767488,0.0281707921635376,0.0680729305907831,10.719829238692398,-0.0792698547686319,0.0492702991045741,1.181675148116222,6.883794295574443,-2.4229302675188644,0.4258774496945086,1155.6007216479306,1169.8559073420479,1180.8560979311471,1176.8718438019166,-10.510197988469365,-349.2116244089172,-570.7534069480057,-558.0024476510966,163.67255208622927
0.345,3.8555229887095033,-0.3028554636742661,0.3371757071396935,0.0593670746109023,0.0205100929895491,0.0082202888614254,0.0002074515840496,0.0167307788741797,0.1241276793370709,0.9921246053840208,0.0306641421607079,0.071675672630295,10.718720169886636,-0.0786207519802292,0.0494722855778952,1.1839415178036419,6.8836568051416736,-2.4228572650792537,0.428838538793282,1155.8813533024131,1168.886732493225,1179.1471968080907,1175.3951672549015,200.8253027913268,-346.39511218060727,-672.4862399145871,-510.9897767610614,163.67758011391507
0.3475,3.5603985774651927,-0.1342243119488299,0.5629412692560642,0.0691575124116562,0.0205350836248146,0.0109696039917062,0.0003028211228372,0.0168434339684667,0.1242000303812807,0.992113554563284,0.0331804534267424,0.0757614303195681,10.717329403402388,-0.0779272928795553,0.0497618938578725,1.186214331453666,6.883523479863939,-2.42278224239688,0.4318053919244415,1156.6048481618873,1168.1239317811448,1177.4936667315744,1174.3168949181113,363.4968788908278,-270.11028401129784,-709.4863612347119,-391.14404213742057,163.68199355274655
0.35,3.098916826831879,0.0050871740047243,0.6883435922644626,0.0777329565112967,0.0210762770370774,0.0138079314263164,0.0004270553312045,0.0169541679740743,0.1242695848167828,0.9921028276878476,0.0357400779535242,0.0802518259320314,10.715568082988458,-0.0771797337778386,0.0501347214447488,1.188492335148562,6.8833952417679924,-2.422704350177165,0.4347776464895796,1157.6988376968673,1167.5361810731683,1175.5997650019171,1173.4394470442144,529.1760119905175,-186.01929361893968,-900.3981438042138,-335.31292156276663,163.68663438179823
0.3524999999999999,2.422095930199219,0.1226467036619419,0.735821566839415,0.0855767255934964,0.0218564335477915,0.0167140500186678,0.0005772583666293,0.0170568952532974,0.1243330481943606,0.9920929405383004,0.0383646440011598,0.0850176498260832,10.7133506578829,-0.0763704249363105,0.0505798538522692,1.1907741742941382,6.8832734431591085,-2.422623702547035,0.4377555981539799,1159.2507282218398,1167.19383531305,1172.9916760125532,1172.6403303102975,582.8032190117087,-46.88357722279809,-1022.4310882282784,-248.468887568836,163.69246109912217
0.3549999999999999,1.8100250356449468,0.1761116711135804,0.7134882868924652,0.0899189559928413,0.0222918976628118,0.0184017693851186,0.0007436390029411,0.0171485497436968,0.1243880671227684,0.9920842500939672,0.0410041275519305,0.0897988318115935,10.710597363440309,-0.0755020295254127,0.0510705764150067,1.1930582630168276,6.883158369629878,-2.422540476320084,0.4407399486560221,1160.6128537919255,1167.3017631870543,1170.4876095607758,1172.1971026063702,535.0385892639673,132.51428457701863,-1077.411446683435,-127.78096206152428,163.69752775729955
0.3574999999999999,1.2056143038707468,0.1844103849821055,0.6608357823271915,0.0924451383409493,0.0224568953368957,0.0193811423528541,0.0009145972332918,0.0172281811404199,0.1244340629184899,0.9920768658440376,0.0435731462573361,0.0943111992813464,10.707235279746268,-0.0745832206677812,0.0515762587382823,1.1953426481777571,6.883049166501976,-2.422455103296352,0.4437307270047562,1161.9259211681597,1167.8564067359353,1167.6046187791362,1172.0014254999899,505.5063128528668,287.473515348074,-1212.7679426967904,-34.20260109242005,163.70280911360476
0.3599999999999999,0.6393349676800879,0.1550361994492573,0.6043111202160323,0.0938799562147589,0.0225375779738684,0.0200007939883403,0.0010739923869721,0.0172959497433329,0.1244738734222192,0.9920704572165056,0.0459676523161005,0.0981861022127706,10.70319986245722,-0.0736264192135122,0.0520557734387148,1.1976255489812795,6.882944083043702,-2.4223684686830182,0.4467268067710991,1163.14038535619,1168.7391307637947,1164.4237698472919,1172.026089600908,454.14528888122686,403.5242095190821,-1324.3732436227208,66.50937870199408,163.70826526260316
0.3624999999999999,0.1434722181235988,0.0753729109114421,0.5569416248699678,0.0942397805230941,0.0226351443246841,0.0205457820120392,0.0012176812538452,0.0173510708441201,0.1245069103648318,0.9920651209979732,0.0481537235861992,0.1013200319808056,10.698433281099566,-0.0726382429557096,0.0524954902495507,1.1999043163554812,6.882842293166153,-2.422280602325696,0.4497274522526166,1164.1966476125658,1169.8740277835307,1160.9827525610226,1172.3339723934998,420.8345306532916,503.694049296882,-1526.066093450116,203.55918526338408,163.71392826273373
0.3649999999999999,-0.3514025954436157,-0.0894953886722383,0.5115322691649133,0.0934248053459906,0.022830798484632,0.0215727587462944,0.0013350180979323,0.0173947816990883,0.1245372522430296,0.9920603319068776,0.0500560672363832,0.1034861867838566,10.692887579153943,-0.0716311264371082,0.0528671502221852,1.2021764185481607,6.88274331199476,-2.4221918662442548,0.4527325905332968,1165.2445580094563,1171.2576010102791,1156.7934393800413,1173.043885527225,340.96849079432985,468.393758481579,-1497.7127011528396,315.76941376779325,163.7209579070786
0.3674999999999999,-0.6731930334881236,-0.2928951100241667,0.4748829458275453,0.0919091128531139,0.0230400077996669,0.0229667090752964,0.0014297214117068,0.0174277529047891,0.1245662506222231,0.9920558920039724,0.051667620100219,0.1047737528192294,10.686521690197203,-0.0706115416532447,0.0531760967782177,1.204437885854209,6.882647516555758,-2.4221013542288548,0.4557431224751795,1165.9014900665375,1172.2159965759383,1153.4941890552584,1173.9128194623388,206.620968008019,301.1692938427129,-1215.3192418610147,396.0884313295989,163.72700722622133
0.3699999999999999,-0.8984020633383248,-0.5679776113591803,0.4277534809628597,0.0900918872339178,0.0229578433823451,0.0246826590217504,0.0015096018242201,0.0174531345685232,0.1245940459333728,0.9920517157920942,0.0529561901636172,0.1053763591426389,10.679303213202932,-0.0695901252955119,0.053438142518752,1.2066835989682163,6.882555231006527,-2.422008346503432,0.4587600193445747,1166.2776628494967,1172.7634474794927,1150.716843170736,1175.024327683873,84.88994967528917,119.55230988478424,-1031.6927868925623,519.6632859382585,163.73325053868479
0.3724999999999999,-1.056207932744538,-0.9676522486636304,0.3544591484643826,0.0875725597262755,0.0219799585315925,0.0264602499233447,0.0015894146967032,0.0174679058347405,0.1246139805257233,0.9920486768146424,0.0540528968540256,0.1056308201620048,10.671207195184207,-0.0685605036895117,0.053683546879036,1.2089083877968607,6.882467946594136,-2.421912352193771,0.4617845790177892,1166.325939814914,1172.8137581253625,1148.3357251207956,1176.51113589203,-60.293113178568035,-84.41704838287471,-675.2623434007995,540.6862734599595,163.74096138002062
0.375,-1.0907641659689724,-1.3350382324219956,0.2844781075763507,0.0849093265720618,0.0201727382127454,0.0273869816771301,0.0016775103507798,0.0174699460012072,0.1246230080594323,0.9920472018008292,0.0550643780623172,0.1057465840082169,10.662218547869942,-0.0675188633986401,0.0539284488024634,1.2111073562384407,6.882386122418958,-2.4218134764578587,0.4648171899775282,1165.9761972836038,1172.3413622375783,1147.340531453732,1177.7277590511728,-228.6561125011756,-278.9914564619264,-166.85893492904128,437.0337017545349,163.74756541587212
0.3775,-1.019330050059006,-1.6938595784743207,0.217205342911031,0.0816252482059996,0.0169356552880493,0.0276423256216033,0.0017793313860355,0.0174618336577082,0.124626072693585,0.9920466552078429,0.0559988061359879,0.1058862558755143,10.652331238713252,-0.0664712142900106,0.0541848974026206,1.2132754061845104,6.8823085709082905,-2.421712006903589,0.4678569328448314,1165.182659252408,1171.4188008430528,1147.5014304461504,1178.6963044008028,-447.49912800211814,-474.8087496446256,334.54270155611965,318.3947735741637,163.7543495650494
0.38,-0.8138256175928068,-2.0495451787060586,0.1515738949227949,0.0777134830032401,0.0109518152631223,0.0274945585216899,0.0018932706287106,0.017447650343979,0.1246340252960326,0.9920456655865116,0.0568191027481908,0.1060687335586621,10.641547666060008,-0.0654268780677609,0.0544497757106532,1.2154084507579277,6.8822335232568275,-2.42160907028174,0.4709019047862877,1163.7387016435932,1169.9673184893554,1149.0132449615128,1179.3197329190436,-595.410992660299,-561.2636189853215,744.9043289322609,113.52115043823676,163.76269274896313
0.3825,-0.5576156013505312,-2.236728183922812,0.1117955055637734,0.0752614977071706,0.0042370344139051,0.0273886258885446,0.0020191920915209,0.0174332865012719,0.1246550279740995,0.9920431888245392,0.0574552037493525,0.1063523210082584,10.629876045576456,-0.064397378536904,0.0547247099695179,1.217502747145882,6.882158506904015,-2.4215055540586046,0.4739512765737344,1162.2056042891063,1168.6124827481262,1151.2259520908117,1179.263910152994,-645.9149496282402,-544.8898126602667,1015.4667755153232,-150.96964806339187,163.7698093516345
0.385,-0.246416651794018,-2.2725690360123387,0.0819788530087542,0.0739792086474583,-0.0033354956984012,0.0276815414071984,0.0021529628540592,0.0174247307908921,0.1246969063076544,0.9920382514212222,0.057822677653492,0.1067114125598271,10.617329687079623,-0.0633939570047975,0.0550026806213219,1.219555607823428,6.882081282720566,-2.42140339330026,0.4770052559746066,1160.509126895452,1167.242869426054,1154.0905788390894,1178.5648846787267,-668.7179949718933,-539.648913181099,1184.5593762802753,-378.1476689685402,163.77709047938825
0.3875,0.0781820156380146,-2.1779941467056054,0.0536831466027502,0.0734467299476621,-0.0104319504475309,0.0282925595598816,0.0022902199665242,0.0174230703772883,0.1247552633848809,0.992031513454182,0.0579345804625023,0.1071064771314551,10.603924386426966,-0.0624160471722991,0.0552745663853192,1.2215656276137719,6.882001700834738,-2.4213029238591166,0.4800645396709106,1158.862014314247,1165.9142381822207,1157.148748972213,1177.3731718081513,-596.7325367997995,-521.2804824606333,1177.9622570301387,-574.1311574359311,163.784503698921
0.39,0.3749633247233309,-1.9498606336545987,0.0229272864479156,0.0738499299068955,-0.0159670504327269,0.0289072471261008,0.0024224836012646,0.0174304186177609,0.1248284327291039,0.992023292851988,0.0577647655752754,0.1074089359094428,10.589678214108028,-0.061466026862656,0.0555227356462276,1.2235321733164868,6.881920450329766,-2.4212045109501097,0.4831291978157191,1157.525464211453,1164.6364670137507,1159.98039012424,1175.694228891547,-456.78363546808174,-559.9463790214027,1088.8759641990407,-819.77745576687,163.7920711564708
0.3925,0.6378988058763488,-1.574132538526724,-0.0126803391147247,0.0759583713315336,-0.0206999806986805,0.0292618379272676,0.0025382750879737,0.0174429260109375,0.1249150446535117,0.9920139773646374,0.0573962965480767,0.1074062160704019,10.574609343714776,-0.0605329061585801,0.0557211516652077,1.22545624151108,6.881838379580199,-2.4211089386719777,0.4861981864410241,1156.5780961369067,1163.1145062871135,1162.5931287932083,1173.274284529317,-206.95134106531424,-563.4945799159136,775.4571191906499,-933.9825002722127,163.80132445625935
0.395,0.7373736978217095,-1.2166236236008496,-0.0324749035431032,0.0791306704417404,-0.0234272864265106,0.0290807018950215,0.0026349108484304,0.0174599901560289,0.1250109470313622,0.9920041956019026,0.0568581552383872,0.1070739271114589,10.558733866706229,-0.0596119885572944,0.0558663493809655,1.2273380306920585,6.881756778431614,-2.4210162622182163,0.4892715478242452,1156.4907075061265,1161.8189941141711,1163.8576757201931,1171.024316390186,124.08527869661144,-524.5962887144738,295.0424332937925,-928.2672330692086,163.80917521113994
0.3975,0.6800105602182447,-0.8533586039764766,-0.0302593641020673,0.0830438723509382,-0.0253017759674897,0.0283606733445904,0.0027058548190022,0.0174771859704813,0.12510955824618,0.991994896766642,0.0562405784887216,0.1062904117973112,10.542066263829547,-0.0586920365975108,0.0559442545418088,1.2291790109651528,6.881677493138828,-2.420925832982314,0.4923485668817715,1157.1985225303897,1160.4915248435411,1164.0683409596772,1168.6329483639709,474.36849043560824,-575.769155912712,-125.40214492810252,-1065.5973137364062,163.8171666560789
0.4,0.4314118042180163,-0.444649233346597,0.0033191468199609,0.0866652092480105,-0.0266062915376922,0.0274172132100547,0.0027562524213633,0.0174860004513347,0.1252022498432309,0.9919872180043278,0.0557419549989956,0.1051607163004444,10.524616347388163,-0.0577499672432747,0.0559676667062741,1.2309803110690436,6.881602579966636,-2.4208361155833207,0.4954283554726134,1158.8625499583045,1158.9401483346076,1163.2306649955528,1165.696329821504,706.8516314051515,-539.5417565790917,-446.56083485688174,-1074.5506116047627,163.8269145318568
0.4025,0.1030591729123988,-0.1442104853349204,0.051076250094524,0.0874601758475938,-0.0267680651332513,0.0271940038932483,0.0027945315391602,0.0174787003753055,0.1252821552774457,0.99198189078087,0.0555457799270277,0.1038509520605943,10.506390945466554,-0.0567648158285195,0.0559573909207264,1.2327426624915938,6.881533409176376,-2.420746471585906,0.4985102972250308,1160.7327806874155,1157.793816060646,1161.8355367853928,1163.260195305947,780.501152030137,-394.684699736035,-642.2434460845574,-956.1890134648813,163.83516652420704
0.405,-0.302041247852003,0.1023746285772033,0.1034206861241115,0.0860030458835569,-0.0260859436709035,0.027633098694058,0.0028349453177407,0.0174571571918242,0.1253422027953998,0.9919792570229617,0.0556450045729023,0.1026655456912592,10.487394544631806,-0.0557384248632076,0.0559508986731053,1.2344647821649264,6.881470526298052,-2.420655686529123,0.5015951897985393,1162.7650557184552,1156.9667248359276,1160.01944776513,1160.9153847541795,781.2123826274266,-255.23603241331304,-755.3249594989658,-911.5223800396046,163.84354887418607
0.4075,-0.7401195848554604,0.3031603024110261,0.1470686268798452,0.08377591433039,-0.0250618036570884,0.0283045999739785,0.0028847499260073,0.0174271011054036,0.1253813322440545,0.991978555158044,0.0559309334017495,0.101762851529758,10.467631318813694,-0.0546843568541836,0.0559695169649876,1.2361451808635369,6.88141358381908,-2.420563617248291,0.5046836617829255,1164.6388426005526,1156.517635898579,1158.058911987898,1158.702583405749,644.0740762219315,-74.99026007449166,-784.1674627270996,-841.3502684909864,163.85203702446407
0.41,-1.1973452746809992,0.4568043312199833,0.1697507193853005,0.0814809956192432,-0.02397058956845,0.0290009438844082,0.0029475589523848,0.0173994926372021,0.1254019596265503,0.9919781391000548,0.0561755143259278,0.1012321641471519,10.447105564017747,-0.0536300130505279,0.0560267338805389,1.2377815825436596,6.881360907243449,-2.42047058640957,0.5077762517571585,1165.9854260995648,1156.5917735355551,1156.0986104514943,1156.7086334117243,403.9841078973492,142.1648357705634,-838.2807993598353,-812.4038975997331,163.86064992598335
0.4125,-1.7498388690487796,0.6035930415579797,0.165946412908392,0.0784299519796129,-0.0226914906033145,0.0297942933382036,0.0030196711118769,0.0173821272312461,0.1254109462989224,0.9919760837961487,0.0561978149888707,0.1009975550806321,10.425822565937116,-0.0525967121381079,0.0561165161238287,1.2393723102077976,6.881310722109268,-2.4203775686986204,0.510873411693151,1166.6587631400391,1157.228460077432,1153.8675079910988,1154.6405639177503,62.183226477054575,293.694824786098,-792.43816350563,-692.9601725593324,163.87112573332416
0.415,-2.1927044102956303,0.7065805664387087,0.1360145619827815,0.0747620416171385,-0.0216505269973743,0.030474211741497,0.0031037820543774,0.0173744053446151,0.1254180701585897,0.9919723558398444,0.0560087414812483,0.1010911716199459,10.403787329289623,-0.0515824234486361,0.0562451521790434,1.240915579874224,6.8812624798701165,-2.420283542669604,0.5139753943813937,1166.29634223195,1158.0602476594856,1152.1364196339664,1153.243832548928,-343.50120357426374,338.7271990993248,-668.8670429210629,-476.43785559130754,163.87996946371447
0.4174999999999999,-2.576029639034132,0.7975923168492691,0.0820026596361213,0.0689262770498418,-0.0205395730010437,0.031126357107323,0.003198224292738,0.0173783627621258,0.1254371262992075,0.9919665913106172,0.0555536693294021,0.1014604750650206,10.381008603545668,-0.0505921566972345,0.0564083477564514,1.2424093238831773,6.881215938315342,-2.420188048635204,0.517082573741236,1164.941257122168,1158.9220960729288,1150.5231727764935,1152.2583746397938,-807.0983950362543,315.20369072204954,-694.251092981456,-325.6410771767184,163.88892752412875
0.4199999999999999,-2.9099286803322224,0.8894141655266244,0.0010708358928265,0.05995357692492,-0.01880795306727,0.0313811886803377,0.0032944885841596,0.0173870384692423,0.125469940299507,0.9919596999086868,0.0549455452303701,0.1018968787300439,10.357499539927929,-0.0496117715797211,0.0565806154732335,1.2438529295166951,6.881170611302326,-2.420090387987299,0.5201936236429293,1162.260850256769,1159.6362661130959,1148.6651641690592,1151.6156271630443,-1134.3296486025783,165.44510579246875,-680.974942219836,-144.56083776444743,163.8998044864422
0.4224999999999999,-3.0485034565567,0.9397492906202528,-0.0676443889619309,0.051799455952424,-0.016757304506548,0.0309357766827306,0.0033846294378475,0.0173921198126123,0.1255141699670869,0.9919527866487065,0.0543258989297742,0.1022066877727886,10.33327873286884,-0.0486237628471109,0.0567366607285666,1.2452457101206,6.881126226716843,-2.4199908163032484,0.5233077752135741,1159.2696088791552,1159.749321601891,1147.1182980653944,1151.5355704509716,-1320.4391002793716,-89.24041107243275,-636.2017340536107,48.611445822098126,163.9089708256709
0.4249999999999999,-3.0174479062158737,0.9430272009383392,-0.1253605227182332,0.0434748288675763,-0.0139085153293093,0.0302038091155813,0.0034593216742923,0.0173831070272572,0.1255643664717493,0.9919470719810548,0.0538767070088291,0.102169355799802,10.308371714746144,-0.0476058342278691,0.0568467076139415,1.24658716165496,6.881083269501657,-2.419889468153276,0.5264237828293208,1155.658654755372,1159.1900640577337,1145.484155498791,1151.8586843921548,-1522.1946448024012,-349.14904522629485,-680.7856515189991,173.07710990517063,163.91823822836216
0.4274999999999999,-2.84057065503146,0.8948068628581854,-0.1701374481081791,0.0351922664747338,-0.0106013529259797,0.0295382299359065,0.0035200878246262,0.0173584177009195,0.1256149742512075,0.9919432741479256,0.0536250517325071,0.1018149361430754,10.2828112193733,-0.0465543563642721,0.056910713189737,1.2478743728633963,6.881042103018321,-2.4197861186460354,0.529541706552709,1151.6586356551431,1158.0035763757596,1143.7143698077991,1152.4009560004974,-1664.1131609923816,-632.6175116146709,-751.7752018344246,228.86051899372407,163.92758545422257
0.4299999999999999,-2.4994453921292905,0.7822177464116447,-0.2008175876201049,0.0275271134261384,-0.0075791464334651,0.0290595192382882,0.0035670876170301,0.0173246329155976,0.1256659544053133,0.9919409453740896,0.0534291838841539,0.1011679877190713,10.256639905036357,-0.0454859598423097,0.0569285473689444,1.249103216661975,6.881002937169792,-2.419681290567455,0.532662299194077,1147.33808895041,1156.0269764996603,1141.7252794896187,1153.0029869871234,-1936.4149857380637,-1050.6969702186316,-931.4676452682297,216.6675214587938,163.93702435530452
0.4324999999999999,-1.9403099349403023,0.5904713087876914,-0.2263038280232259,0.0198760204939482,-0.0053020688813741,0.028736756490367,0.0036077628095307,0.0172849216591141,0.1257149530442057,0.9919396021418196,0.0532379287615147,0.1003962565306865,10.229908792498968,-0.0444069928283053,0.056917603602412,1.2502686107169223,6.880966898999558,-2.419574866896926,0.5357865220908534,1141.9765607264528,1152.7500915246665,1139.0570315814582,1153.4842936077914,-1967.0820495777643,-1342.313666633844,-1021.24800138913,91.53523883524022,163.94845187043228
0.4349999999999999,-1.3955140775126156,0.4054178425082624,-0.2401910677954332,0.0155367478630333,-0.0046895762469286,0.0285562423465094,0.0036450433603895,0.0172414949181589,0.1257600741838876,0.9919383194744325,0.0530098261417557,0.0995741401075008,10.202679702443364,-0.0433229568359322,0.0568846684360235,1.2513654578663127,6.880934297774533,-2.419467494359272,0.5389148741727193,1137.5026787025213,1149.3154081664911,1136.619039482673,1153.4606631812997,-1758.0422563016311,-1494.6163298907309,-1004.8235663273308,-139.63049732187744,163.95805558401665
0.4375,-0.8347872112181884,0.2172857202396824,-0.2436326034324724,0.0139822457521332,-0.004903900562405,0.0283200522938419,0.0036824706984366,0.0172042326515089,0.1257988006768784,0.9919356373983956,0.0525519744884993,0.0988086386818355,10.175025227377468,-0.0422583070889075,0.0568413720617224,1.252387442785851,6.880904346227389,-2.4193602010550075,0.5420485706414986,1133.1863494449447,1145.2770098752128,1134.0329137498215,1152.786141121182,-1827.159106090674,-1869.2821136692128,-1144.432361898588,-469.0465520073299,163.96773989276167
0.44,-0.2116266797881724,-0.0011978408163629,-0.2248087170475227,0.0145361568880512,-0.0049571714368408,0.0277524254549551,0.0037206005849904,0.0171847538971826,0.1258305331668387,0.9919299531890922,0.0516325780139422,0.0981488535346562,10.14702813472554,-0.0412425853239957,0.0567934767218421,1.2533283888051823,6.880875878075979,-2.4192543749398747,0.545188601514987,1128.366883172068,1139.968997598145,1130.8968776731804,1151.1154304212628,-1683.5751492149923,-1979.7768705055184,-1131.8083166456736,-749.2413846084665,163.97945123226071
0.4425,0.2362488373137801,-0.1781207199737037,-0.1789200382204256,0.0159434134734722,-0.0044618657382616,0.0268971907604812,0.0037608327624136,0.017181781764383,0.125855843141116,0.9919223857282464,0.0502858988453332,0.0976251816736732,10.118778331599696,-0.0402728815043593,0.0567455402509483,1.254183755061803,6.880849670959687,-2.419149196149584,0.5483337842063875,1124.7684736988697,1135.3781255226852,1128.3738721665932,1149.0399341981397,-1328.5803229761302,-1814.9027555712548,-964.495338066762,-938.5062350170749,163.98928410539227
0.445,0.6007221493777203,-0.3475515734364775,-0.090802327995653,0.0175890868801735,-0.0040356722256488,0.0257501307597846,0.0038027275475295,0.017189917252324,0.125877877059034,0.9919142701002748,0.0486252146348685,0.0972164608641763,10.090372293761469,-0.0393364716932168,0.0566969169691505,1.2549504758418084,6.88082645312954,-2.4190446599571636,0.5514825463099113,1121.7239815571872,1130.8944838202888,1126.0744009828463,1146.4228992461776,-1190.4700971731916,-1887.3866963365783,-939.6241102448122,-1217.8963071239639,163.9991916646619
0.4475,0.9523442226476372,-0.5212811143076497,0.0636524980805277,0.0196677424975394,-0.00460501687424,0.0245121996052579,0.00383584723246,0.0172021883271606,0.1259004003059487,0.9919064482064328,0.0467695109209012,0.0966943018145502,10.0619121437058,-0.0384199966492692,0.056621982778161,1.2556278746286906,6.880806400469802,-2.4189416954712795,0.5546326300137133,1118.8161232130035,1125.9411920410023,1123.675751615369,1142.9504526625199,-933.2876216449213,-1710.7061547462747,-813.8027267234057,-1283.546904502508,164.0111660100785
0.45,1.1849243940697607,-0.614464885183375,0.2199313315802919,0.0216208056113968,-0.0063464412487579,0.0241518965156813,0.0038652152230608,0.0172121061697422,0.1259226734773427,0.9918998468698972,0.0448663814774796,0.0961394706920735,10.033499574908804,-0.0375069605508187,0.0565338160693224,1.2562149545125811,6.8807901074212605,-2.4188397401583868,0.5577828563023934,1117.0575434489626,1122.3409530465572,1122.0053873492295,1140.005164723665,-566.1206786932321,-1306.9873013851054,-605.8186803224083,-1144.8650901844749,164.02121548812667
0.4525,1.361673126313221,-0.6204931509748953,0.3753103175333253,0.0240150719067248,-0.0092753866903857,0.0252742920330838,0.0038982956151597,0.0172167716258158,0.1259462143096237,0.9918947107736886,0.0429967229325183,0.095683770810597,10.005234975260944,-0.0365888414594452,0.0564528052902051,1.2567113677741015,6.880777656101312,-2.4187384596093344,0.5609327937724523,1115.9855198195376,1119.4062555340768,1120.646658213757,1137.2261272115975,-324.809660563005,-1059.1294533884584,-505.13021722731486,-1064.0588744814058,164.03133895967886
0.455,1.4893590316921443,-0.5399022101849597,0.5053413126810987,0.0268527031504618,-0.0125132052339204,0.0276848156811171,0.0039405765031727,0.0172175457514561,0.1259712880671232,0.9918911134613924,0.0411506236247638,0.0954252079597017,9.977214924791271,-0.0356683746602954,0.0563955095457425,1.2571176474631607,6.880768753914098,-2.4186374060320563,0.5640834062737232,1115.4334951461476,1117.045305779615,1119.4797362630927,1134.684870351258,-117.80037698199511,-812.9976799762964,-444.17501315365325,-952.506302682331,164.04152465409996
0.4575,1.545090033857524,-0.3622727051746006,0.5885155542102501,0.0303536657487289,-0.0149520505530465,0.0306771581159937,0.0039871289620182,0.0172161861496098,0.1260010562032564,0.9918885527543624,0.039282947869717,0.0952509628024398,9.949529960169864,-0.034752034246782,0.0563523251025591,1.2574363102325457,6.880763490598308,-2.4185368758530603,0.56723518359399,1115.3965179346276,1115.3412671341953,1118.4257831479888,1132.4635956981858,65.2075475275978,-615.8212485034704,-470.2829287664823,-912.8914314082512,164.0517870720803
0.46,1.505959150418762,-0.0773524377776923,0.6433036246573217,0.0354578773287566,-0.0161367854952532,0.0333239210459943,0.0040323663086896,0.0172125641978703,0.1260327869319231,0.9918870733240034,0.0373821792862608,0.095031145450366,9.922260220052765,-0.0338419131795524,0.0563107015122988,1.2576710219427496,6.880762306997008,-2.41843630170864,0.570387991147255,1115.7595328837856,1113.9661995370975,1117.1283216192603,1130.1204131942168,171.85239109548988,-408.2704022373488,-500.9040847629417,-819.9407515910472,164.06419362924345
0.4625,1.37153422919854,0.1775147607095194,0.6751641744021155,0.0402026584044778,-0.0156487717456043,0.0340748174411173,0.0040753734560926,0.0172053972189261,0.1260647095601009,0.9918863445369152,0.0354678743279192,0.0947236989508647,9.895472262500473,-0.0329349515967462,0.0562687992389895,1.257826026749896,6.880764887818423,-2.4183347772648047,0.5735406209169376,1116.255779890105,1113.2999151230083,1115.921262724174,1128.3638919402304,207.4209202322434,-186.1198988853628,-521.8706259818185,-680.3845997395449,164.07461148245685
0.465,1.1311285755009444,0.3996891743320554,0.7201408084974384,0.044504915240898,-0.0139080325212255,0.0336872546394695,0.0041125457904461,0.0171975997581849,0.126096817463232,0.9918854480586172,0.0334661132105448,0.0942434426748703,9.869218155970918,-0.0320383338873451,0.0562188059676753,1.2579064424890651,6.880769119665453,-2.4182330474929534,0.5766905573485736,1116.7966374849468,1113.0356000426707,1114.5189684893514,1126.718490195519,220.6702045172731,-45.18442133426102,-660.9707930694634,-713.7595899675937,164.08511515438875
0.4675,0.7471395555217116,0.5848449943108402,0.7907974288336738,0.0478538202934187,-0.0107444024053932,0.0338142491936932,0.0041499539927781,0.0171996591338166,0.1261220636947711,0.9918838252329936,0.031174637731252,0.0937173800319396,9.843532261495016,-0.0311747547733004,0.0561787060743981,1.2579164822318962,6.880773317375616,-2.418131422574969,0.5798370056515997,1117.3591309126912,1113.0739930163372,1112.6164087588268,1124.7950939903926,178.47685279625676,58.32236738974638,-723.7898010660039,-701.4089922176021,164.0978237328698
0.47,0.3804375100294543,0.6570562108736206,0.8379352698491064,0.0487029009502908,-0.0078880084151264,0.035662913350787,0.0041886644420498,0.0172226413159431,0.1261391013981119,0.991880419612553,0.0283640071256341,0.0931751153356101,9.81843166363946,-0.0303685616770872,0.0561537380473101,1.2578610924873155,6.88077607712237,-2.4180301129178705,0.5829798296856599,1117.689021748928,1113.3272118796197,1110.9000194840214,1123.211445234431,95.19826182718124,131.81917169299584,-693.7118471937076,-626.9575874211563,164.10850482559707
0.4725,0.0043331363096315,0.6509557429840273,0.8270899039683491,0.0481338611563448,-0.0057615986655995,0.0392806861574217,0.0042330960734459,0.0172667119173708,0.126149836462751,0.991875985180046,0.0250220210934643,0.092686428120163,9.793914206509028,-0.029615015487689,0.0561535302286378,1.2577453988294227,6.880778326347908,-2.4179282309279935,0.5861214481373306,1117.8351222218273,1113.7330888748022,1109.1478495228582,1121.6603060532868,27.69696620875945,178.8468794931303,-689.363408531744,-608.3045704973296,164.11928451770092
0.475,-0.3597522323921989,0.597839098159277,0.7423178613449222,0.0472585756714505,-0.0044228937922863,0.0431203198263295,0.0042900228192403,0.017329528072552,0.1261609318864752,0.991870910649282,0.0211856340812664,0.0923631070722311,9.769959425773743,-0.0289018997556227,0.0561924030490886,1.2575737819478399,6.880780999557921,-2.4178252750924916,0.5892636744776992,1117.827506579972,1114.2214462770853,1107.4532024413627,1120.1699223819444,-34.42843449756762,208.0466185150724,-643.1753688786551,-569.6560481199408,164.13014933612405
0.4775,-0.696485270652548,0.5128391309371556,0.5639343057358657,0.046096059670933,-0.0035876907029859,0.0459671214291189,0.0043552993420302,0.0174037987415574,0.1261809151335822,0.9918650936719609,0.0169557493721099,0.0920981914014767,9.746531049593097,-0.0282082954898947,0.0562555613594052,1.2573513689616629,6.8807839131426975,-2.417721389968493,0.5924062046081163,1117.6629800493395,1114.7733219673776,1105.9319726784647,1118.8120258126871,-96.29760941102273,251.48933731070684,-605.208932679722,-549.7390243650954,164.14112078512267
0.4799999999999999,-1.0551573967468588,0.3990936399934469,0.2670839446616481,0.0436072154411012,-0.002759830722324,0.0480303281535212,0.0044263981720021,0.017480425949919,0.1262149146821212,0.991858538832443,0.0124683416882186,0.0918208912347243,9.723576977579997,-0.0275092030144785,0.0563314900868232,1.257082589699681,6.880786794197976,-2.417616952261453,0.5955488403916154,1117.3460185329168,1115.4788929636388,1104.427157777964,1117.4212272601187,-126.36658927090268,262.12026989565214,-484.4097793482028,-458.0459156585267,164.154414769344
0.4824999999999999,-1.3050788208054056,0.3066100191045978,-0.0163959854384473,0.0403882050667272,-0.002383693154424,0.0485999597021482,0.0044965113768154,0.0175519980063598,0.1262687205101976,0.9918508280262344,0.0078145632319005,0.0913901986805544,9.701031822992295,-0.026786047689977,0.0563985633886391,1.256771661882049,6.880789638735122,-2.4175132985464054,0.5986906833500157,1117.0311471029847,1116.0839233168558,1103.509923781724,1116.5217962343943,-128.45646030350497,239.64518811694668,-287.45608407402847,-293.707774498034,164.165603427106
0.4849999999999999,-1.4941477276014627,0.2234695156887224,-0.2902207570672649,0.0364697441079096,-0.0024110390242759,0.0478864077282588,0.0045657195610242,0.0176118087980782,0.1263369059137046,0.9918426025345392,0.0030902131924004,0.090811951599974,9.678817538816256,-0.0260221469043306,0.0564525205642234,1.2564215140362651,6.8807935225074255,-2.4174094144825373,0.6018308805215415,1116.7037362313993,1116.6771189042236,1102.989877357594,1115.9526883876288,-146.85464115250383,249.62287334396913,-138.37459793389814,-165.16150591669415,164.17691052500763
0.4874999999999999,-1.6489715570586163,0.1304448494411539,-0.553981609446827,0.032140667305114,-0.0026323813247719,0.0456633953962709,0.0046353492757254,0.0176544461256494,0.1264155166157126,0.9918339591905044,-0.0016264996365866,0.0901257909646001,9.656846421604973,-0.0252050002527201,0.0564927688285038,1.2560342820273471,6.880799529917623,-2.417304558551799,0.6049685251837518,1116.2968738972224,1117.3320376835757,1102.8180507920545,1115.695988704811,-158.410351055454,224.80399233068036,1.9583964641697076,-21.05266944458888,164.1906199918227
0.4899999999999999,-1.7193649391316097,0.0465872344097909,-0.6887969538786702,0.029036789628855,-0.0025310564155924,0.0430199190783367,0.0046969636567284,0.017675223801153,0.1265019322086675,0.9918244881192294,-0.0062877341020681,0.0891927006275033,9.635024817378893,-0.0243284858759816,0.0564948194064953,1.255612323681186,6.880808383657958,-2.417199109658016,0.6081025730178528,1115.911684476122,1117.8011388658767,1102.9996693399148,1115.8474250404058,-177.4429449187208,167.27557619551575,118.04884832517916,133.42895241980827,164.2021639159008
0.4924999999999999,-1.72147715584568,-0.0642539452742937,-0.7153641786075569,0.0257350573148833,-0.0018579843889784,0.0402628124525089,0.0047552478747957,0.0176777768671471,0.1265851386552835,0.9918142315827422,-0.0109618386916918,0.0881542902417562,9.613252885075795,-0.0234053361221208,0.0564697636204928,1.2551550412109806,6.880821033054124,-2.4170926587299193,0.6112349061370893,1115.4096591726288,1118.1684155645532,1103.4082950336804,1116.36313346691,-230.77428510541705,128.14688341090903,180.5773382473033,259.91521337850804,164.2138320410664
0.4949999999999999,-1.650391097752336,-0.2096083076711749,-0.6513519516944468,0.0217009079025027,-0.0010875746036527,0.0377327601220962,0.0048121849898759,0.0176680138449793,0.126657224906806,0.9918029704201144,-0.0157527600193332,0.0871091220238376,9.591429077752828,-0.0224557642639423,0.0564230466112805,1.2546608040131448,6.8808383900851,-2.416985309653907,0.6143674072678535,1114.757813050595,1118.4418732829315,1103.902556031151,1117.1470011072984,-304.21821025674916,83.51084106739101,193.5705107477132,362.2012903867468,164.22560179110363
0.4974999999999999,-1.4650194166427115,-0.3977803549564661,-0.4920480403433901,0.0166005556597219,-0.0007350550071208,0.0356911620399472,0.0048707174923608,0.0176483776268233,0.1267130063275011,0.9917921618891222,-0.0206792848130495,0.0861676328263529,9.569452588772368,-0.0214916482709647,0.0563617574328506,1.254126987846799,6.880861234340328,-2.416876077525864,0.6175013010712606,1113.888568121345,1118.58596976989,1104.3761475874187,1118.1741399188438,-429.7207960365991,25.255011667468327,176.71624278550536,474.3509855661155,164.23749044598608
0.5,-1.0922272659349928,-0.6532666115129065,-0.2236837557851584,0.0099645982974671,-0.0013124450185562,0.034223269631602,0.0049276798599819,0.0176196093181485,0.126753348788777,0.9917827694537265,-0.025726015723002,0.0853203383486176,9.54722651743749,-0.0205224726708132,0.056277693739082,1.2535509252538035,6.880889476717081,-2.416764914848264,0.6206370579759098,1112.609209070412,1118.5681483412689,1104.7861372450789,1119.5187560351287,-496.31646012866753,-47.04894316373555,110.44800701770195,477.60189596846766,164.2518870424582
0.5025,-0.6703207129912098,-0.8631768790952319,0.032900806504963,0.005368100501697,-0.0029137428277694,0.0339307578191601,0.0049726337278234,0.0175803901996577,0.1267842452118389,0.9917748264093534,-0.0308396947094821,0.0844153711700473,9.524660087202047,-0.0195544056518227,0.0561444721011361,1.2529304934234795,6.880923182723032,-2.4166531950147725,0.6237735892685106,1111.4069858207015,1118.3507250540715,1104.9283876225074,1120.562149398686,-486.2436418874945,-139.98495372011337,8.698240124112992,354.0298592242831,164.2639857036806
0.505,-0.1908152500395383,-1.0289241795887452,0.2830199568508928,0.0037950484745841,-0.0058388068521093,0.0343690255420822,0.0050094538137311,0.0175316237344374,0.1268084486040147,0.991768374936761,-0.0359586358135302,0.0835780727420719,9.501668034010452,-0.0185943388903368,0.0559726274077559,1.2522619889717164,6.88096172910552,-2.4165410275691377,0.6269088696310778,1110.1779908609744,1117.8682235726683,1104.8296284456994,1121.2889053312504,-518.7383128210054,-283.4801907140897,-95.26291077581838,193.68939697415027,164.27617931377574
0.5075,0.3525256822618407,-1.134147158512291,0.528536813394403,0.0058979336391076,-0.0105229164905693,0.0357336669664571,0.0050381577638866,0.0174751141336372,0.1268331762773365,0.9917626771787232,-0.0410332818244915,0.0828591546093954,9.478173806382872,-0.0176512137475122,0.0557639295398526,1.2515423783863426,6.881003971125115,-2.4164293428944554,0.6300407031078503,1108.8132942565967,1116.933324100501,1104.4520730686284,1121.5305963835567,-466.8333496083501,-406.650366032181,-173.1648696900264,-46.00105079375676,164.29090658704231
0.51,0.7136860156115526,-1.1265892657281602,0.6544872085127751,0.0097193890071917,-0.0146324000818177,0.0378186309028497,0.00505673003729,0.0174129262168646,0.1268645050380382,0.9917570033410112,-0.0460116954305105,0.0822680386313283,9.454110424571487,-0.0167340492975331,0.0555156613500444,1.2507690556442543,6.881048764969932,-2.416318404995178,0.6331674385725964,1107.8438241129327,1115.8349717425072,1103.9638040972493,1121.0589000772816,-347.4290046612242,-507.8341960373672,-219.85056968524543,-345.7164191792873,164.30324644113685
0.5124999999999998,0.9375262969100692,-1.0226222689513949,0.666427103686889,0.0139297354857916,-0.0181111953567126,0.0409131204951696,0.0050678293020236,0.017353175794562,0.126906406225286,0.9917506689125029,-0.0509346818747508,0.0819111894907292,9.429420040325965,-0.0158640827147426,0.0552390174685288,1.24993854499793,6.8810951615906095,-2.416208236166629,0.6362903587226157,1107.0761492332906,1114.3941531203143,1103.352820220202,1119.8020142876603,-304.9629604931849,-710.6166882494556,-289.07541309135894,-728.0042431012126,164.3156414523307
0.515,1.0489159287866656,-0.8137952066037559,0.5348246539732987,0.0181573180746172,-0.0213034934004585,0.0451832098854272,0.0050687344540129,0.0173005268259381,0.1269604034824071,0.9917433344227244,-0.0557845477167903,0.0817789960309792,9.404056301086792,-0.0150543747756658,0.0549310547134643,1.2490476958844992,6.881142770963755,-2.416099111706664,0.6394112305281096,1106.3190093104668,1112.28188830126,1102.5184270317925,1117.4188788617755,-273.14845218565983,-831.7687548521,-323.62597390615485,-998.2200598491536,164.3305624197323
0.5174999999999998,1.0354912322783563,-0.5994025122083783,0.3189562472318798,0.0207407420883729,-0.023169279075285,0.0481057665881488,0.0050674031092186,0.0172578977033541,0.1270222866847889,0.9917353375486418,-0.060482902840911,0.0820492170055585,9.377983332902962,-0.0143093057361542,0.0546150228440187,1.248091767119288,6.881191509540701,-2.4159907074482927,0.64253229341181,1105.7104069723623,1110.2353093460536,1101.7346903506711,1114.8109139884148,-275.6583260479599,-863.1485111808151,-341.9773300524864,-1132.1126559609174,164.34302340165783
0.52,0.9514070276440408,-0.3834693362566442,0.0446903012029861,0.0227834704078167,-0.0241265716454453,0.0490478092975544,0.0050663867742102,0.0172274052047933,0.127092736921785,0.9917264204330204,-0.0649514379953848,0.0827848195190805,9.351177136765038,-0.0136311864205299,0.0543005812867651,1.2470662905033525,6.881240663450312,-2.415883685951006,0.6456546139585042,1104.9407176802267,1107.966145745356,1100.80854038153,1111.7583155819707,-363.6560404678672,-928.3618892870882,-407.03460288309515,-1258.5948464785347,164.3554975140094
0.5224999999999999,0.8371053944918506,-0.1963901359216343,-0.2231719216998022,0.0244143073611476,-0.0241830365876059,0.0476986097561698,0.0050706360057237,0.0172047744575229,0.127162562002079,0.9917176934288972,-0.0689933639681677,0.0840684003876482,9.323625543816604,-0.0130054766500628,0.054001486870016,1.2459668991023995,6.881290408140896,-2.415777556973343,0.6487779569389573,1103.8921267700227,1105.5934998996183,1099.699517336256,1108.517939756022,-516.1196395431938,-950.5028771907283,-505.7180967726249,-1296.4790741057175,164.36797142250327
0.525,0.7139936961867269,-0.0739209066192659,-0.4221519158692219,0.0254300747641004,-0.0233710806439573,0.0441238344850946,0.0050836714707043,0.0171830785350134,0.1272267311505898,0.9917098081018368,-0.0723775048820713,0.0859366699169744,9.295327582203855,-0.0124102144727056,0.0537270577575774,1.2447900984667863,6.8813406884775485,-2.4156720737499158,0.6518994231640112,1102.3601194825108,1103.2136313594024,1098.2799498976667,1105.2759202114423,-808.0644941121584,-1018.1243481913032,-716.2298859979267,-1374.3412757978135,164.38043149634692
0.5274999999999999,0.5780659289427647,-0.0222290477919901,-0.5430480497582927,0.0263456068357647,-0.0222115583996807,0.0396363516299741,0.0051024509828777,0.0171585725203647,0.127286032046088,0.9917026711183196,-0.0749617808920305,0.0883000225010469,9.26629212179004,-0.0118321203322642,0.0534712846118027,1.2435338959231752,6.881391119099068,-2.4155675070771836,0.6550159785317489,1099.851804299462,1100.5028781586618,1096.1183679062663,1101.646233377033,-1032.2875862631,-950.6264514543992,-876.6975074581742,-1257.5216205592812,164.3953498243808
0.53,0.4791734728560518,-0.0581005257698493,-0.5556756519354086,0.0272875997702377,-0.0215993795795501,0.0371524869725881,0.0051300874975337,0.017134266018315,0.1273379649547207,0.9916964780925904,-0.0767302624383611,0.0911873614754222,9.236534979502816,-0.011272321080484,0.0532454996629951,1.2421963224471813,6.881441373019774,-2.415463281512345,0.6581269945539149,1097.1986815511955,1098.4604991021304,1093.896462360376,1098.988312108646,-1159.8014815935119,-757.4322707901495,-973.1582668647651,-967.1152701670045,164.40774091158198
0.5324999999999999,0.3912106482986976,-0.1605780931111737,-0.5204582920950546,0.0284924496145405,-0.0216582725627845,0.0364380254422206,0.0051613100520345,0.0171152544632217,0.1273858426973337,0.9916906988468628,-0.0777427339302747,0.0944664633380246,9.20607981983527,-0.0107387767693214,0.053040875904654,1.2407768554264342,6.881491117096746,-2.415359562798735,0.6612319372482311,1094.0527968914946,1096.715716804711,1091.2525765719424,1096.810657026198,-1456.6498737305196,-697.0607769911561,-1240.4726161490532,-850.6634914045654,164.4200755100945
0.535,0.2918988279192938,-0.3332409019048664,-0.4798477945849912,0.0297769901832776,-0.0225593529821329,0.0368895812069686,0.0051905337758967,0.0171026351254996,0.1274266546439318,0.9916857022589468,-0.0780055723919852,0.097981479845218,9.174957628248062,-0.0102300077535709,0.0528467185718766,1.2392754092684104,6.8815414481493695,-2.4152559245244967,0.6643314673591986,1089.9154321825429,1094.9751952171744,1087.6940992796308,1094.734994651623,-1539.3707921617065,-589.3428088053491,-1345.0167524192227,-693.5043318553647,164.43479697557467
0.5374999999999999,0.2127715802281563,-0.498424241269511,-0.4736307251570328,0.0303337465717529,-0.0238641270824313,0.037304210686256,0.0052180075206295,0.0170951062364035,0.1274598177398033,0.9916815729784278,-0.0774888997381779,0.1016679990377327,9.143205012639703,-0.0097364874055461,0.052665973935935,1.237691317368476,6.8815933213615885,-2.415152380075239,0.6674258714664397,1086.355942930686,1093.7690027606843,1084.5274928098463,1093.3431353669212,-1400.44038896517,-455.3271696421685,-1274.7836779170473,-530.9426311979673,164.4469883273839
0.54,0.1373507065171551,-0.6660921287265189,-0.5008730174372719,0.0304047039659879,-0.0254999463721343,0.0367309439308503,0.0052421976038812,0.0170907641030789,0.1274916116615289,0.991677546144456,-0.0761780870861749,0.1054184005576854,9.110863943671369,-0.009247143401069,0.0524969450563774,1.2360238150438836,6.881646795493917,-2.4150502778973983,0.6705153255605574,1082.913230237717,1092.6985593689635,1081.3201808900455,1092.0802814956332,-1327.6338041634503,-428.27718922981114,-1265.632332399672,-521.9371451114962,164.45908954747205
0.5424999999999999,0.062693112955227,-0.8248290312247718,-0.5451551009842422,0.0304223616535963,-0.0274184634600574,0.0353663987654458,0.0052691273155843,0.017091467494771,0.1275265492128802,0.991672987857502,-0.0741306032008378,0.1092634445249873,9.077979230309722,-0.0087578390665062,0.0523576331110489,1.2342707994498898,6.881701022463834,-2.414950504561589,0.6736016926538082,1079.7177739098688,1091.6276168145353,1078.199331147848,1090.7334496413637,-1194.3217032708603,-455.79725840584575,-1204.39406953078,-597.5882897648711,164.47110885274557
0.545,-0.0179621432190063,-0.9625396535635328,-0.593156666958612,0.0306447384523842,-0.0297094412311202,0.0337432117389645,0.0053013348474548,0.0170981211357134,0.127572726405507,0.9916668451635594,-0.0714150596923562,0.1131616445195362,9.04460002389305,-0.0082628777753806,0.0522567580136656,1.2324301727110691,6.881755111314618,-2.414853573973881,0.6766865561008883,1076.9416217213627,1090.4195730769345,1075.2982105423916,1089.0923400468089,-1114.5019692291035,-592.1846282757537,-1206.2782818423318,-817.067041994232,164.48302166280163
0.5474999999999999,-0.1305789408975495,-1.0932128674148043,-0.6372926405138328,0.0310968298501207,-0.0329372435366756,0.0319346071946076,0.0053318016995504,0.017101833610879,0.1276300163597665,0.9916593330545472,-0.0679660829286052,0.1168755270715953,9.010781621474198,-0.0077365898990863,0.0521761752738092,1.2305009742786308,6.8818084008414875,-2.414759342095296,0.6797686819839353,1074.1452640637233,1088.6666936731565,1072.1679397386363,1086.6481144313923,-945.5335572109552,-707.6729198780861,-1082.8774301469812,-975.4818527771922,164.4971851066433
0.55,-0.2389165295558259,-1.168428663277986,-0.6519411110302834,0.0314506934976144,-0.036046097334305,0.0304504943961258,0.0053651743724279,0.0170981778789185,0.1276917028141202,0.991651361498594,-0.0637906905134814,0.120388383058719,8.97657935845517,-0.0071617755990801,0.0521269539411358,1.2284811369151967,6.881860626572434,-2.414666430092346,0.682847157528523,1072.213953935308,1086.881208477544,1069.8838233916567,1084.2149307829227,-718.8882935112808,-789.9885815677854,-846.6871169340258,-1035.6219830009184,164.50887240067877
0.5524999999999999,-0.3525430432575406,-1.2082777928170136,-0.6305251556393494,0.031430960615479,-0.0392756133010141,0.0286198650359056,0.0054019820141595,0.0170819587938047,0.1277557535153552,0.9916432721401996,-0.0589074392764026,0.1236094757272885,8.942050759816993,-0.0065213002238422,0.0521086264644745,1.2263695159320296,6.88191235342381,-2.414573982245482,0.6859206825486464,1070.5508225961669,1084.7167507653176,1067.934504153966,1081.470004516388,-719.0878646127196,-1038.4956658392628,-787.7964962765867,-1240.6294890109154,164.52043386562903
0.555,-0.4680999953302154,-1.2230394686974717,-0.5507980738201225,0.0303831538266783,-0.0426903209401867,0.0259181623437039,0.0054410547571166,0.0170450487590418,0.1278176790063044,0.991635787805689,-0.0532996624849932,0.1264174983395374,8.907254604736616,-0.0057930449687755,0.0521145723496277,1.2241657857877353,6.881964827109273,-2.414481018435867,0.6889880969765996,1068.6185146122443,1081.6887301483475,1065.9448409102736,1078.0117833378683,-736.540568944246,-1173.4607300127195,-679.4972898184363,-1262.9540136846103,164.53415627895623
