t,ang_acc_x,ang_acc_y,ang_acc_z,a_vel_x,a_vel_y,a_vel_z,quat_x,quat_y,quat_z,quat_w,acc_x,acc_y,acc_z,l_vel_x,l_vel_y,l_vel_z,pos_x,pos_y,pos_z,mot_1,mot_2,mot_3,mot_4,dmot_1,dmot_2,dmot_3,dmot_4,vbat
45.5925,-1.1049761954323378,-0.7136643799605084,-0.1494095453985843,-0.0071920583658936,-0.0307341357807833,-0.0136324278693499,-0.0074896102037992,-0.0053136892175103,-0.6245331157783758,0.7809436747405843,-0.0190329148085475,0.0212374218784825,9.853035457765827,0.0241725113100431,0.008184729187954,0.0044640529552092,6.347036344064044,3.794409416244053,3.944123640693961,1106.5760138478552,1113.0397615543536,1097.6462870630771,1103.7395896305632,723.428332923298,-337.63053050396377,1258.1041092476953,38.183865703457,155.55660093835982
45.595,-0.7756811268941451,-0.3529166855342182,-0.1644283058662153,-0.0093433856789005,-0.0313400706200153,-0.0155967867376714,-0.0075325163228914,-0.0053949622103483,-0.6245987349964987,0.7808902099082118,-0.0191688016751975,0.0188390846967973,9.852404222630051,0.02411127932528,0.0081129489373844,0.0045899218098417,6.34707982986518,3.7943493550733143,3.9441339848253594,1108.3010308291798,1112.0469675503373,1100.833840328056,1103.8163417860203,710.6933800150275,-521.8702141242434,1336.9136303407668,1.824548929197566,155.5549380802263
45.5975,-0.3867197241648004,0.0566714222327728,-0.0685029534047661,-0.0105879766332176,-0.0314410222260569,-0.0179043852483328,-0.0075695870236152,-0.0054711916501055,-0.6246648551889318,0.7808364362294133,-0.0193693258574081,0.0167048453447763,9.851438727259676,0.0240351302369458,0.0080262240373205,0.0047230010151248,6.3471242170738735,3.7942855727471407,3.9441449217197726,1110.1294807479323,1110.430410483731,1104.3308552147844,1103.7487123752092,633.1921565002575,-662.4792015338493,1170.94293401041,-61.17264549276624,155.55284213345215
45.6,-0.1016561917097115,0.3748032318407308,0.1058744779251477,-0.0109136972369994,-0.0311042643238843,-0.0192211240356756,-0.0075970317359647,-0.0055350884199594,-0.6247245538502076,0.7807879772065058,-0.0197596375045937,0.0148316069093585,9.85011475314065,0.0239418976676724,0.0079255627337299,0.0048622716988368,6.347166862871884,3.794220094379552,3.944156489324029,1111.4669916116827,1108.7345715426663,1106.6885549981112,1103.5104785585563,507.92042574208415,-729.6062005594009,779.7639270569377,-130.9618278812022,155.55101531248803
45.6025,0.1079080042590747,0.6653381271757451,0.3528701601863618,-0.0103163925234971,-0.0302644759356385,-0.0195462195384945,-0.0076098284046944,-0.0055779507411944,-0.6247775336436048,0.7807451811209982,-0.0205002180230076,0.0132113046146442,9.84841354593845,0.0238311489345437,0.0078136175903656,0.00500651956824,6.347206157360101,3.794156392070208,3.944168029284529,1112.6690828766405,1106.7823794809372,1108.2296748500655,1103.0939032358035,511.7919128958075,-871.1684509237875,470.11495506643365,-203.06851815415556,155.54910926582875
45.605,0.2407742758129595,0.9719153486782024,0.6802686115204154,-0.0082994596722905,-0.0284290418066856,-0.0185400132429865,-0.0076061728495914,-0.0055976334401391,-0.6248257665235197,0.780706504968029,-0.0216118340409333,0.0118589440170665,9.846320721159705,0.0237043244143071,0.0076941204428077,0.0051538737067948,6.347242050640737,3.794095993481787,3.9441800381212584,1114.025951176163,1104.3787292880452,1109.0391297734443,1102.4951359677852,487.3619842047227,-848.1864470470762,135.99207972172144,-209.76830632096787,155.5467347918597
45.6075,0.2425974246892662,1.1788060670105636,0.9313007913951687,-0.0060074491308666,-0.0260211638287122,-0.0164292839068326,-0.0075914743825553,-0.0055942135344793,-0.6248664090137825,0.7806741696034253,-0.0229959422971835,0.0106963447249553,9.843826798923194,0.0235644691975161,0.0075710135986913,0.0053019520120443,6.347274169761861,3.7940389529195793,3.944193814049665,1115.105892797665,1102.5414472456998,1108.9096352486745,1102.0450617041984,413.0512754017337,-648.8181007000993,-177.38373163299673,-132.12618039113488,155.544686390679
45.61,0.1440268639667481,1.3143516770858643,1.1015999635440774,-0.0041474371544156,-0.0226837092005207,-0.0130779253948791,-0.0075720295409148,-0.0055753896496245,-0.6249000857604154,0.7806475535528455,-0.0244303222235152,0.0097168319724669,9.840929353632514,0.0234155367829471,0.0074486543491626,0.0054478503641589,6.3473029460511246,3.7939841303792705,3.944209240164119,1116.0912075531699,1101.1346387845476,1108.1522111152804,1101.83450506583,383.6921030327487,-473.2569464037022,-412.49915380587294,3.578961774108381,155.542569052655
45.6125,-0.0432502059417749,1.3724681340635825,1.1571572768498293,-0.0034152838070462,-0.0180056339921935,-0.0081914139641096,-0.0075525518227125,-0.0055468785602784,-0.6249246115121986,0.780628317349637,-0.0257492881678955,0.0089045905753303,9.83763569602188,0.0232619352447423,0.0073309966449402,0.0055888316059214,6.347328453691395,3.79393174423576,3.944225736463352,1117.02435331283,1100.17516251368,1106.847139479644,1102.062956513069,271.94517937063847,-212.36549521861937,-496.92744031478514,183.8357177007734,155.53995222157857
45.615,-0.2093135214541904,1.3248826719042417,1.054929055793419,-0.0043356337760379,-0.0139420150868493,-0.0039311871094008,-0.0075414265569779,-0.0055130087319686,-0.6249364567355529,0.7806191760356122,-0.0267705152388378,0.0081623586117189,9.833961746985699,0.0231081161342283,0.0072212653476025,0.0057223561377154,6.347351036402567,3.793881676990567,3.944242243458908,1117.4509334500235,1100.072811308454,1105.6675739137052,1102.7536836543345,63.23264219878477,103.65391807481832,-447.32305846336874,384.20493657075366,155.53771069554136
45.6175,-0.3306747624313923,1.1796231359307932,0.7940976772451241,-0.0066886092786251,-0.0103767429361727,-3.2974211634046184e-05,-0.0075405875523205,-0.0054780179202592,-0.6249333660721141,0.7806218918006844,-0.0273994223108657,0.0074845483827875,9.82993504867352,0.0229580701859403,0.0071218794965218,0.0058462340386235,6.34737210376968,3.793833428990344,3.9442578506397927,1117.3405165238237,1100.6934321040535,1104.6105241873292,1103.9839811959207,-151.69493282455886,353.1167081929226,-384.91731857442113,567.108204972844,155.53540885611116
45.62,-0.3877073929204342,0.963928051994656,0.419078201399717,-0.0096617570487465,-0.0077027447963125,0.0030917272929756,-0.0075485719287465,-0.0054446203155076,-0.6249133746011475,0.7806380406398477,-0.0276132898736458,0.0068941640904615,9.825594109118239,0.0228150259167716,0.0070341405777712,0.0059585360268658,6.347392661082513,3.79378648512436,3.9442728494741384,1116.6924587859016,1101.8383948494168,1103.7429873208348,1105.589224679196,-394.9974296452436,553.4149279892415,-299.05178516931466,695.2299968857996,155.5330589884861
45.6225,-0.3628837170288415,0.6811688397695396,-0.0474660586324989,-0.012126661103317,-0.0058832280178601,0.004615931186122,-0.0075683197091412,-0.0054190968552775,-0.6248785768055357,0.7806658768907427,-0.027285993864466,0.0063879541037685,9.820985503020529,0.0226812898412999,0.0069583547884472,0.0060570874899446,6.347414323041313,3.793738766870259,3.944287851723274,1115.3655293755965,1103.4605067440011,1103.115265261482,1107.4601311803517,-725.3675268850129,776.7038674489532,-236.23802899057148,820.672227317062,155.530653465932
45.625,-0.2681075136233089,0.286812948968893,-0.6277267008859191,-0.0134257626328291,-0.0042744131989816,0.0035051755004847,-0.0075965263860878,-0.0053989269383415,-0.6248346654007447,0.7807008922003885,-0.0265074531678771,0.0059498311483663,9.816168040095128,0.0225580671824792,0.0068938797331454,0.0061401111524291,6.347437279269705,3.7936912878356153,3.944303146093244,1113.0656211514747,1105.7219141866635,1102.561797175881,1109.6925858157836,-935.2414937956704,847.0917822067323,-188.02630578110256,768.0873716436673,155.52770524797785
45.6275,-0.1697888024672236,-0.0707481809956452,-1.0589695753239015,-0.013287298462895,-0.0037462440552913,-0.0001046635703017,-0.0076298232221424,-0.0053830113048128,-0.6247905338672226,0.7807360109138906,-0.0253494773800819,0.0055834969349012,9.811209463316436,0.0224456889356779,0.0068393156392726,0.0062056373671127,6.3474617034928205,3.793645670728804,3.944318816988688,1110.6893219066224,1107.6959656550312,1102.1751337325773,1111.3005680385663,-1003.1827812356692,771.3568052873289,-161.71368048099703,544.2088361261028,155.5251989676701
45.63,-0.0898084294612214,-0.4347442791359357,-1.3681459631581667,-0.0125086772487938,-0.0044065448829715,-0.0053793101166681,-0.0076671891501634,-0.0053765722889586,-0.624757414738211,0.7807622156245603,-0.0237599946047475,0.0053370929870068,9.806184548015693,0.0223436577799611,0.006792748230312,0.0062512804937082,6.347488705042549,3.793600989091973,3.9443356385177415,1108.0497072452938,1109.5786982131024,1101.753228773476,1112.4136299964155,-1166.4547413337857,773.7313488430707,-213.6485073605216,347.10564167917687,155.5226435135609
45.6325,-0.0412030490413445,-0.8495160056402715,-1.5612182292080723,-0.0113688435961332,-0.0063968914110995,-0.0119753242996536,-0.0077071363518445,-0.0053765329850149,-0.6247426705928003,0.7807736420084292,-0.0218212746004921,0.0051675867906446,9.801176610311956,0.0222505312552754,0.0067516656410961,0.0062750258297993,6.347518215807392,3.793556114584263,3.9443540191451167,1104.8570481999504,1111.5646223992485,1101.106891195774,1113.036096246963,-1135.3429710913,666.212549536309,-268.0602501711001,108.50464075152422,155.5195224537235
45.635,-0.0438335889216321,-1.1563835818636095,-1.5773714060110315,-0.0108947586116652,-0.0089218975110233,-0.0167869048326722,-0.0077461339152382,-0.0053838079940625,-0.624748107506866,0.7807688647168702,-0.0195800515831806,0.0051161194323101,9.796275397278999,0.0221641216272147,0.0067133848211236,0.0062748986211636,6.3475499051040245,3.793510197159237,3.9443734806572,1102.3729923898425,1112.9097609607809,1100.4129275226217,1112.9561532001724,-916.5157454844434,465.2533726622444,-309.355192375393,-136.66934874520223,155.51687776019665
45.6375,-0.0815116701387132,-1.401161321173954,-1.472950045251882,-0.0111904341326362,-0.0124010698181143,-0.0204525553084044,-0.0077837463207613,-0.0053989731877298,-0.624771941089166,0.7807493067287339,-0.0170499920270041,0.0051766995574762,9.791574456966966,0.0220816688765431,0.0066754234742884,0.0062492630191971,6.347582932452152,3.7934623962434304,3.944394544211204,1100.2744694725259,1113.890889262561,1099.5601152338963,1112.3527495032367,-799.4985568349877,350.3713923201785,-397.61973932275055,-344.96956772009605,155.5141894353082
45.64,-0.1512862156124064,-1.6037726909008074,-1.254207417866338,-0.0116129294495788,-0.0171668377136104,-0.0237507148253745,-0.0078247770821993,-0.0054249061869386,-0.6248120010365465,0.7807166340244474,-0.0141445066793413,0.0052961364765395,9.787168205457927,0.0220001555297019,0.0066359112577476,0.0061968944648176,6.347616799612989,3.793411257562568,3.9444178303861137,1098.3754996056655,1114.6616179223827,1098.424828826007,1111.2313053615712,-576.49635622122,221.72491255480207,-415.1500737779908,-440.0710583015917,155.5109150439473
45.6425,-0.2198330158230737,-1.6880350079827142,-1.0240817596330338,-0.0116829117547974,-0.0213537432668326,-0.0259214065983245,-0.0078715458842227,-0.005458114369398,-0.6248649899690574,0.7806734856533698,-0.0109042426664135,0.0053855673125478,9.783153160020957,0.0219166411420663,0.0065936440067288,0.0061177735904322,6.347650727196712,3.7933564978116183,3.944443026225052,1097.3919876914224,1114.999513825334,1097.4843648650083,1110.152394211731,-258.6308251889518,79.83619611755337,-342.80428861380386,-415.7598047562861,155.50814748456386
45.645,-0.2849446539565397,-1.6796120595809003,-0.770754982406308,-0.0119521175307227,-0.0257869623564324,-0.02762358832882,-0.0079238837567016,-0.0054967969154483,-0.6249284140497366,0.780621876076475,-0.0073742757536431,0.0054187555818115,9.779624651770288,0.0218288705591448,0.0065482274141453,0.0060130633041435,6.347684142613461,3.7932982904132135,3.944470017490667,1097.08234547972,1115.0607989029706,1096.7108073829368,1109.1525063377887,-10.315002877854745,-18.962975220337583,-255.38726201007768,-357.2955710014403,155.50534120782928
45.6475,-0.3322082328634354,-1.5948313182422496,-0.5115742859870978,-0.0128938968355292,-0.0303415266907375,-0.0289380044254718,-0.0079788126682347,-0.0055437317211891,-0.6249950995014815,0.7805675655028186,-0.003566000592806,0.0054705284602835,9.776674089427152,0.021735945677098,0.0064996658301549,0.0058852907765759,6.347716750686457,3.793237564362157,3.9444976940129135,1097.340412677033,1114.904698949232,1096.2074285549572,1108.365916356723,235.3819796806741,-117.45614144071392,-109.89483145914154,-240.37691143365953,155.5025040333778
45.65,-0.3390616713762464,-1.4265002613380804,-0.2564699388820886,-0.0145505680271248,-0.0345184790756498,-0.0297639396398294,-0.0080303520725111,-0.005596139117347,-0.625054416053113,0.7805191533872045,0.0003843118912109,0.0055950561331734,9.774388145663588,0.0216386448844159,0.0064481669867775,0.0057389754687236,6.347747259499067,3.7931770705208887,3.9445237626337457,1098.2592553781224,1114.4735181957676,1096.1613332256416,1107.9506217806215,541.1270933177053,-261.65342838526414,101.48054764840064,-90.74380943115916,155.49963103783568
45.6525,-0.2872826436160134,-1.1505852586736363,0.0333034118028697,-0.0165108191791549,-0.0382101396630896,-0.0301213989111965,-0.0080767062788051,-0.0056522160519989,-0.625101285937634,0.7804807432330922,0.0044027281835902,0.0057969984774051,9.772843575571052,0.0215395223047777,0.0063943937677831,0.0055801831958455,6.347775077989408,3.7931197349194608,3.94454555610456,1100.046048143623,1113.5964318073052,1096.7148312931995,1107.9121973095669,749.7836675915352,-387.8125944601669,299.26533376368,48.85155640147106,155.49614386912026
45.655,-0.1966091429500327,-0.8796543648716227,0.2528507604219664,-0.0176005730992951,-0.040056687974405,-0.0298588962924023,-0.0081196825490825,-0.0057191648135113,-0.6251366649653635,0.7804514953480519,0.0085915434407587,0.0061384855474168,9.772104483759271,0.0214426870102339,0.0063392954319214,0.0054158117675981,6.347801434901422,3.793066144594824,3.94456135536998,1102.008173716082,1112.5344552234656,1097.6576598944607,1108.194879562629,850.3604166237894,-494.8330809409024,452.58116665777607,144.42586636109303,155.49320621241785
45.6575,-0.0710969040312929,-0.5856283037744907,0.4389492531825368,-0.0179481680892758,-0.0413611108485823,-0.0289717924185163,-0.0081577975946532,-0.0057927312065458,-0.6251606324788315,0.7804313845612911,0.0128309215001519,0.006592838788345,9.772227020523847,0.0213531664621983,0.0062834637807497,0.0052538713866857,6.3478269717174385,3.7930160316877832,3.9445720826719106,1104.297850226738,1111.1222664026027,1098.9777371264863,1108.6343266413717,1034.0000285645312,-688.5712144733249,625.6276487903034,180.39452292637043,155.49023696892618
45.66,0.0972631860858374,-0.2183102929175169,0.6110595723891356,-0.017725407789329,-0.0429190895908435,-0.0271824997983691,-0.0081883898869059,-0.0058643663529631,-0.6251743054336145,0.7804196043541327,0.0169139641017752,0.0071000836477265,9.773257934918883,0.0212763851349215,0.0062272368717115,0.0051023802129965,6.3478514227712335,3.7929704565036366,3.9445782120038504,1107.1781738589073,1109.0915991510972,1100.785798138414,1109.096852177261,1037.3899457709435,-778.411572560992,667.9112861145079,126.61728943456072,155.48663838961463
45.6625,0.2367881016168006,0.0914060124323017,0.704549533960978,-0.0172172957811721,-0.0438642864448316,-0.0252206517104227,-0.008210150216704,-0.0059250391084254,-0.6251811633524444,0.7804134503939953,0.0206363490830753,0.0075751791002407,9.775234086476623,0.0212175645325416,0.0061707898301838,0.0049684835706953,6.3478748690302895,3.7929294985441895,3.944580783028992,1109.4847999555955,1107.230208539796,1102.3172935570603,1109.2674130885448,855.3540302196828,-741.6331693544558,586.0414536214065,-0.7383437708547156,155.48361043247633
45.665,0.3594267680936711,0.3856438631026378,0.7427645987842946,-0.0163692020551905,-0.0434498132922463,-0.023181334951823,-0.0082249450492047,-0.005967717679342,-0.6251809872202325,0.7804131323787911,0.0238569102687799,0.0079091551710667,9.778182958486365,0.0211811547234827,0.0061138273731468,0.0048577711888354,6.347897233673361,3.7928922317865967,3.9445813162658214,1111.4549440100016,1105.3834333043285,1103.7160054065184,1109.093160458407,746.0073115370326,-759.3865480486537,564.3322354291128,-161.89918191708688,155.48055237650303
45.6675,0.4710623046943017,0.6890191937163243,0.7280091929356071,-0.0150978814779542,-0.0409058763381405,-0.0210110472409546,-0.0082348466519227,-0.0059943366209288,-0.6251784672118098,0.7804148549192044,0.0265709642804854,0.0081014214434664,9.78212441134341,0.0211701000345876,0.006056130407283,0.0047736877117102,6.347919577807222,3.7928564042198007,3.9445815603155,1113.2148365132823,1103.4332757995508,1105.1389547342076,1108.4579171789587,527.5551983696489,-638.4357763707984,477.34045040422774,-293.6568438963921,155.47684763983426
45.67,0.5241628017461591,0.8817989450073803,0.6700003166458509,-0.0138180257571995,-0.0374929693227871,-0.0194136785431136,-0.0082418503375872,-0.0060081897826687,-0.6251792784877783,0.7804140285214267,0.0287931336828774,0.008170260022719,9.787074617586702,0.0211854556630056,0.0059973286996704,0.0047177274594264,6.347943003160715,3.7928200735643847,3.9445836782762176,1114.0927200018511,1102.1912544224729,1106.1027076585408,1107.6248762389243,227.93118597162717,-392.12519632173286,350.90190693554257,-371.4529743678863,155.47373065307053
45.6725,0.5249652772532318,1.0101092857379272,0.5699596288368455,-0.0118977420342529,-0.0338656639646368,-0.0178571663656563,-0.0082489764037905,-0.0060166604275651,-0.6251834352694052,0.7804105581496343,0.0306149943500555,0.0081676842676295,9.793047698019288,0.0212264555204986,0.0059366718806173,0.0046894581650746,6.3479683870413455,3.792782052861466,3.9445892728036895,1114.3544924431396,1101.4726498179439,1106.8934642688837,1106.6006523071212,-8.113561898558542,-188.55378044158343,330.8871861616934,-457.9292884971368,155.4705819376146
45.675,0.4611768289395897,1.1174731374902336,0.4078009464498212,-0.009057366059508,-0.0301978316334623,-0.0159284659268778,-0.0082567068649418,-0.0060223454206196,-0.6251850431686754,0.7804091449689152,0.0320292210663265,0.0081248238813469,9.8000611109421,0.0212906194332153,0.0058731862537758,0.0046873514540924,6.347995331561114,3.792742458641616,3.9445985566838497,1114.0521521923583,1101.2484855202645,1107.75714358935,1105.3352297964375,-191.36586004987504,14.313821585475988,318.9913305407304,-442.48452881661353,155.4667654655906
45.6775,0.364058950307976,1.201640392454416,0.2459852338878496,-0.0070453788076105,-0.0279550716876102,-0.0144467082126634,-0.0082707253353893,-0.0060235501004796,-0.6251796578811027,0.7804133036115131,0.0330359414037287,0.0079408533354011,9.808134669947018,0.0213739739013689,0.0058062292152517,0.0047091769183215,6.348022706045455,3.7927012231595216,3.944611776735496,1113.3976631428895,1101.5442189258713,1108.488420921588,1104.388229663037,-315.35006158234444,193.1010542689756,307.46450273373506,-327.1991453645361,155.4635524180255
45.68,0.2516953308556888,1.3202866278903396,0.0757576449189402,-0.0061400837553031,-0.0263474733306471,-0.0137632409906305,-0.0082935265925171,-0.0060259969208622,-0.6251683918135075,0.7804220705984517,0.0337225380527044,0.0076554033852138,9.81729234146507,0.0214713173484149,0.0057359660445403,0.0047522516943648,6.3480503049605685,3.7926567072969903,3.944628307007586,1112.4754018844483,1102.2139907916085,1109.2944661030172,1103.6992340696163,-391.6403618169094,304.1675033365702,335.9517613722673,-216.05819228376828,155.46030444457767
45.6825,0.1574753611691685,1.48607229033471,-0.0805131096265626,-0.0060726455701885,-0.0248000127114101,-0.0141815868812032,-0.0083211620939305,-0.0060328841719733,-0.6251558035295653,0.7804318127190402,0.0340735317715525,0.0073759618232451,9.827565884002835,0.0215765425732867,0.0056632235019905,0.0048144350551046,6.348078143333441,3.7926082092286486,3.944646933383827,1111.439461333807,1103.0650564425528,1110.168179728448,1103.3079387016192,-419.7782231409873,349.599088486278,356.38424815119794,-73.5267189155444,155.45702685413139
45.685,0.1205950872215495,1.707153157556544,-0.1956126372947032,-0.0066626080761842,-0.0226190553530702,-0.0155734980299297,-0.0083453005723069,-0.0060445765536348,-0.6251473753888926,0.7804382291781621,0.0339918449978058,0.0072417767173497,9.83899383450765,0.0216831734895959,0.0055892837447796,0.0048945002794391,6.348105726642437,3.792557393973704,3.944666576661681,1110.3765107687423,1103.9619862340408,1111.0763873437743,1103.3316004750384,-454.04376736018514,363.29253225885213,384.1910472668896,106.35870598943272,155.45371291228344
45.6875,0.1745940971689894,2.0012876903650016,-0.26983075070655,-0.0079779505405043,-0.0186052690442226,-0.0174311121354175,-0.0083621808791931,-0.0060595703403644,-0.6251429496576388,0.7804415042355776,0.0334232002332326,0.0072964032879797,9.85161694167268,0.0217849332524298,0.0055153685748778,0.0049921494637199,6.348131821019794,3.7925055337043214,3.944686534838692,1109.1692424970047,1104.881519103848,1112.0891349647832,1103.8397322315664,-423.9032932388672,286.7708020791604,336.56204223824403,255.00273354460205,155.44969354749537
45.69,0.3082595274386686,2.2257464279122274,-0.2807943110051674,-0.0090326477056951,-0.0136996658815092,-0.0186871050160185,-0.0083748210335307,-0.0060710953013912,-0.6251404043610109,0.7804433599245983,0.0323315500050276,0.0074120151065663,9.865476343859182,0.0218758826081619,0.0054426252606568,0.0051081888691191,6.348155872317816,3.7924527226424902,3.944706914605836,1108.2569943025499,1105.3958402444352,1112.759197554964,1104.6066141427602,-344.06645113895723,136.32672317769294,205.48937160327517,352.64222338050934,155.4463082693783
45.6925,0.5166985308997258,2.36585454275979,-0.2549906821908016,-0.0089315680266337,-0.0069151362224324,-0.0194640402643193,-0.0083838393621765,-0.0060772580293877,-0.6251448507872175,0.7804397085239841,0.0307424619962348,0.0075573168830086,9.880612702562928,0.0219504015816573,0.0053725238363348,0.0052443056951991,6.348178921237238,3.792397898615696,3.9447275772821295,1107.4489102413092,1105.5631527197368,1113.1165818228003,1105.60294334847,-335.70298514110726,-8.845468742943035,61.51314917284744,452.98739962035614,155.44288570282782
45.695,0.8071094671167176,2.376298758798548,-0.2079000565180494,-0.0071357420242557,0.0026296173306223,-0.0198803123350816,-0.0083907035331727,-0.0060813140886994,-0.6251626965067422,0.7804253769146389,0.028785484811557,0.0077499928523113,9.897062577473518,0.0220034632116913,0.0053062754035323,0.0054029976141584,6.348202387031113,3.792340017512831,3.9447486559694895,1106.5784793768435,1105.3516129007205,1113.0667633008284,1106.8715511408632,-306.9162572800514,-136.0654380462948,-105.62225982817436,449.41091545301737,155.43873565922323
45.6975,1.0423312789020391,2.235051192312789,-0.1739671494395224,-0.0046212969980087,0.0103597639929428,-0.0198887195964595,-0.0083941986057658,-0.0060927699864401,-0.6251937901309824,0.7804004235320354,0.026664944966533,0.0081239426072668,9.914856975790135,0.0220310627919667,0.0052443308335532,0.005587582019216,6.348227381603489,3.7922794699875646,3.9447696847507,1105.9143289549104,1104.882825529506,1112.58847052366,1107.849997925733,-256.7998284958372,-223.59045104737945,-275.8863432246879,349.43637786555286,155.43524179447107
45.7,1.224904177934572,1.953803433248616,-0.1623142861048165,-0.0010919960696579,0.0164896111622688,-0.0196790586834795,-0.0083901060871501,-0.006113968884963,-0.6252309635247669,0.7803706080775888,0.0244457845370948,0.0087692851519133,9.93402149591786,0.0220305113853839,0.0051863269673552,0.0058026926349596,6.348253766655463,3.792218227799679,3.944789213744891,1105.2944802343636,1104.233660645483,1111.6873315847042,1108.6187330301918,-262.37252991941426,-287.86556347794254,-468.5041874680669,276.8139067585656,155.43171170927107
45.7025,1.342639856517493,1.5079895928275076,-0.182313086300488,0.0044460758755137,0.0216667511367564,-0.0193563851879204,-0.0083777634521852,-0.0061367226576043,-0.6252696324173759,0.7803396493972258,0.0220795795548485,0.0095909523684739,9.95457202774691,0.0220005831279165,0.0051316969791149,0.0060540962129964,6.348279848355532,3.792157485782968,3.944807042027701,1104.6024663053126,1103.4434977121155,1110.2459495863184,1109.2340674595266,-240.46951272129303,-260.1955733032448,-561.3292335693235,178.08019294955383,155.4274347966562
45.705,1.3434543903869696,1.094638867280006,-0.2242476369376393,0.0094133020876422,0.0243129081616248,-0.0191993628593573,-0.0083581501738681,-0.0061601618319069,-0.6253112059588478,0.7803063761680025,0.0196542780840572,0.0105603462420927,9.976509752472214,0.0219416680294527,0.0050801108649777,0.0063476986746932,6.348305355708494,3.792097280514509,3.9448245773807535,1104.0921326707582,1102.932682778968,1108.88068541686,1109.5091339949388,-178.7093483624171,-138.80308184959353,-544.7404126952221,79.48048591838896,155.42383770984756
45.7075,1.2556321126292471,0.6926129281272179,-0.2778350525731024,0.0134322826240205,0.0253675864254481,-0.0194438208916881,-0.0083279124354543,-0.0061817050661526,-0.6253597365074656,0.7802675725027993,0.0171758989210038,0.0116957575766436,9.999823065479369,0.021855619064558,0.0050312715668256,0.0066897930426464,6.3483305029137025,3.792038381203232,3.9448429158789446,1103.7089195635,1102.7494823028671,1107.5222475228409,1109.6314698891188,-119.18377676705217,2.181328503637608,-517.514140035163,46.02655635132952,155.42020788893979
45.71,1.1209313617865315,0.3316242516938537,-0.3237653815555677,0.0162193629728116,0.0253296063747286,-0.0202895790300112,-0.0082852101575823,-0.0062013860049861,-0.6254168577449529,0.7802219802964677,0.0147045534251707,0.0130248589367489,10.024483222118548,0.0217457673363026,0.0049846073965134,0.0070866708782835,6.348355931031263,3.791981081507759,3.9448616069166498,1103.4962137869227,1102.943589421486,1106.293114716683,1109.7392667766956,-24.0072446019658,186.2408410743103,-435.1439118221925,71.87161430262847,155.41655228674813
45.7125,0.968411739931618,0.0407709804753863,-0.3379726297183128,0.0177774984987259,0.0245557714512521,-0.0218946638759826,-0.0082312181830876,-0.0062166087629647,-0.6254755727238664,0.7801752502003592,0.0122880687115571,0.0144944494854929,10.050443794030436,0.0216167696179608,0.0049389255371913,0.0075447490783026,6.348381403521183,3.791926264007055,3.944880553228865,1103.5888833404904,1103.6806865082378,1105.346527963732,1109.9908279606316,139.96252748663326,461.90481528359686,-324.480901278655,183.30074436143775,155.41286754623107
45.715,0.8041101310346698,-0.2244489377810883,-0.2993866227973135,0.0189840904308469,0.0234239408226344,-0.0240860168750051,-0.0081726924214976,-0.0062192817453833,-0.6255275580403685,0.78013406760131,0.0099477706325657,0.0158944833802314,10.077639798985768,0.0214742182781557,0.0048928560864872,0.0080705432553634,6.348406742067418,3.791875436062889,3.9449000322751377,1104.1960264243562,1105.2531134979051,1104.6707102102887,1110.6557704985032,325.3323262329713,691.9182198919868,-155.8771351070048,325.02702534381314,155.40841524877055
45.7175,0.6972694829070927,-0.3869183420743453,-0.2202376934294304,0.0197858904675573,0.0225724871857281,-0.0255831664832293,-0.008110328924151,-0.0062097396407198,-0.6255667175266322,0.7801033180467256,0.0077493194658148,0.0172159253120005,10.105988898363266,0.0213242085020761,0.0048454456611594,0.008670227221173,6.348432164757167,3.7918292663229,3.9449195405834465,1105.215544971656,1107.1402776076995,1104.5671422881965,1111.6159630873515,532.9178347876522,864.6234029082412,66.23534807041891,477.8273662762584,155.4046827198584
45.72,0.6212957501783272,-0.5090550163964295,-0.107683304294026,0.020619776699584,0.0219026235661368,-0.0262677274986704,-0.0080485053463128,-0.0061893102440076,-0.6255884947615628,0.7800866051082465,0.0058083465997625,0.0184046738561067,10.135389947160956,0.0211727798035382,0.004796081585559,0.0093495965760769,6.34845656727794,3.7917878185353775,3.9449391029616687,1106.860615598292,1109.5762305124426,1105.0018869506407,1113.0449073298823,877.8695475418374,1172.2379029789777,320.6015492730964,728.4394184044597,155.40093283196015
45.7225,0.5472249719934738,-0.6296956694002238,0.0359920244902,0.0219439108645144,0.0210483656997657,-0.0258924254353027,-0.0079947279007735,-0.0061643286642156,-0.6255965222146382,0.7800808879261638,0.0043485687752002,0.0194214357495403,10.1657233932645,0.0210252769867948,0.0047449794311599,0.0101137272259142,6.348479625468278,3.7917488485551054,3.944959051038873,1109.6048927093675,1113.0014671225974,1106.1701500345628,1115.2581601793756,1131.1365033423624,1311.6560413486807,532.568481722274,879.2893788611357,155.39642219648223
45.725,0.4790546267306343,-0.7161605609980422,0.1417121900980582,0.0234436834873912,0.0200672032064821,-0.0247220602343069,-0.0079493077214914,-0.006138409729764,-0.6255983295738616,0.7800800939817805,0.0034489729576106,0.0203063556514691,10.196857140365504,0.0208856845030043,0.0046929734829016,0.0109672595072198,6.348501320412647,3.7917107484335175,3.944979808736039,1112.5162981150067,1116.1345107191892,1107.6647293592534,1117.4413542241903,1277.1550822624952,1273.0149019111404,693.2962508980776,921.6413904650576,155.392662882868
45.7275,0.3794639308226165,-0.7863412371150219,0.2191539278475853,0.0252478443198193,0.0186364301796047,-0.0232609301583194,-0.0079150381811288,-0.0061120774345796,-0.6256000602002469,0.7800792623067945,0.0031602708724078,0.0210199096059424,10.228645263797947,0.0207565293300496,0.0046409580768042,0.0119140316296303,6.348521970045978,3.7916724566560256,3.9450024582906615,1115.990668120674,1119.3665416321471,1109.63663128905,1119.8663671316967,1625.139309959546,1405.4063333444533,954.4760116616208,1099.2697524133123,155.38891535207296
45.73,0.2061104237460215,-0.839409965688297,0.284329363935344,0.0271699168515985,0.016262077263527,-0.0218320757728777,-0.0078933827141639,-0.0060932143460614,-0.6256080030440154,0.7800732684129459,0.0036245575078612,0.021637048413982,10.260929454655543,0.0206389831037576,0.0045900538981957,0.0129566355003475,6.348543231351044,3.791631963848052,3.9450279038727984,1120.6419946648086,1123.1615423859153,1112.437109417564,1122.9377029862596,1755.7508790687848,1358.196149385718,1078.3224145366999,1138.8744048592428,155.38444879706702
45.7325,0.0159132232245786,-0.8463209876654799,0.330442566760865,0.0280800182032847,0.0138117188536234,-0.0210892114359023,-0.0078786727638602,-0.0060838686592107,-0.6256249310472786,0.7800599241385469,0.0047913653920681,0.0222716415265983,10.293545427834056,0.0205328017129232,0.0045413158648472,0.0140970063378423,6.3485657088834,3.791588675167588,3.945056058010812,1124.7694225160224,1126.1575223790794,1115.0282433617363,1125.5607391559959,1667.2694896824098,1155.8387903696307,1063.124352986336,1049.75603448006,155.38076613370552
45.735,-0.2100774976517208,-0.8048882618145076,0.3908610274578074,0.0279936495912064,0.0113783913059886,-0.0207580005096119,-0.007868805515473,-0.0060837881353858,-0.625650025149763,0.780039908558859,0.0066112516375481,0.022950454817406,10.326321640139769,0.0204369504875966,0.0044956238678059,0.0153360818559629,6.348588368906199,3.7915424355035263,3.9450866074631215,1128.978342113213,1128.940736337758,1117.7527311824908,1128.1864831586552,1674.3816085731924,1082.9708626219515,1092.3109668380544,1044.6423583721867,155.3771430084313
45.7375,-0.4517613376570013,-0.7218275811699653,0.4773803738996327,0.0270875257873418,0.0093164257207571,-0.0206065520381443,-0.0078670282328493,-0.0060924675932941,-0.6256764175175245,0.7800187004837362,0.0090929953219774,0.0236091209121476,10.35908107221693,0.020350227285911,0.0044535163492589,0.0166736419470708,6.348609975573687,3.79149276013468,3.945119957219253,1133.1413305588928,1131.572376692192,1120.489798195929,1130.7839509478595,1634.347089178055,1031.0708690378942,1077.1427655322386,1028.1855215050396,155.3735834049637
45.74,-0.6952798046458876,-0.592076965284069,0.6019436608705915,0.0253438232252724,0.0073806158534873,-0.0203804449158956,-0.0078723077951759,-0.0061024483448196,-0.6256962624441564,0.7800026585108041,0.0120719723160268,0.0241606949520631,10.391648126863586,0.0202713353526638,0.0044153618035675,0.018108658607303,6.348629493772436,3.7914410236178626,3.945156428464869,1137.1500775591076,1134.0960906829503,1123.1384450101548,1133.3274107661828,1712.0406451775234,1106.8108899025508,1124.8902470138771,1103.2982801029475,155.37011657872924
45.7425,-0.9728203914807232,-0.3930326546441076,0.7847148733797986,0.0223494023641243,0.0051399158671516,-0.0195571742610539,-0.0078816491233422,-0.0061085718262474,-0.6257077596624979,0.7799932937881134,0.0153892667803365,0.0245799941117886,10.423848878258,0.0201994188173392,0.004381567442302,0.0196388521602703,6.3486474542274385,3.7913881139330248,3.9451974916126713,1141.7015337847727,1137.1064311416997,1126.1142494309936,1136.3004423483692,1618.9852362579304,1110.5531079079904,1048.6766881104347,1073.9194664804236,155.36608314444734
45.745,-1.1857191820459307,-0.2064885329379443,0.9426463468238888,0.0192678358664861,0.0039746447659574,-0.0180400632631729,-0.0078939262739844,-0.0061054641006449,-0.6257107686851922,0.7799907724609991,0.0189005760341017,0.024809011987329,10.455512697527007,0.0201343646634579,0.0043519007050737,0.0212607681506953,6.348664997574077,3.7913353925860607,3.9452447264363566,1145.2450037403898,1139.6488562224852,1128.381828450702,1138.6970080985802,1360.3604431387655,1020.6360051365444,859.6422547279568,936.5256075837561,155.36284080796227
45.7475,-1.3809810304683952,-0.0262487508422279,1.0677023976401931,0.0159209432337501,0.0040921186945234,-0.0152869945388217,-0.0079045929217912,-0.0060925314042993,-0.625708737427649,0.7799923815797,0.0224889514696466,0.0249096125521268,10.48647488647724,0.0200768985654753,0.004325753725329,0.0229699298063079,6.348684014711436,3.7912842048468978,3.9452992760354393,1148.50333600047,1142.2096111673848,1130.4124607046356,1140.9830703862904,1360.635244130876,1102.2958019173348,841.8184211972643,973.4531215736318,155.35973645870683
45.75,-1.604862498113293,0.1502480137115911,1.1332521793230892,0.0121218800667005,0.0056664698412007,-0.0105020477792286,-0.0079119153147286,-0.0060700712944862,-0.6257037303096655,0.7799964873079183,0.0260829770114798,0.024911437224191,10.5165769657197,0.0200286402816951,0.0043017406430504,0.0247612775255043,6.348705832784506,3.7912357113353456,3.9453617152083047,1152.0481799610477,1145.1603352320747,1132.5909205566907,1143.5642737064509,1231.540117454489,1025.1704273435055,760.7490305392373,916.0551550809176,155.35618626508628
45.7525,-1.789194573073729,0.2513043277573123,1.0955082460197931,0.0093578798549368,0.0076490081922763,-0.0058019236381697,-0.0079167515918107,-0.0060393650480351,-0.6256913200250281,0.780006630083774,0.0296556864100531,0.0248153766181149,10.545667723044136,0.0199919981027616,0.004277792428496,0.0266296755864652,6.348729592402047,3.7911902089300007,3.9454315945498974,1154.6610365877368,1147.3354633040979,1134.2162058573283,1145.5633461616908,964.4215404462169,757.8401453631828,618.2973855708517,768.0537402658209,155.35338398090718
45.755,-1.96517585025519,0.3115648114409985,0.9641169746104908,0.0063126357378786,0.009199618013337,-0.0016227794412347,-0.00792127325579,-0.0059949256612581,-0.6256690199453258,0.7800248287058725,0.0330814482210723,0.0245134360890074,10.573605934034543,0.0199694090510966,0.0042517565921321,0.0285706980207031,6.348753286170587,3.7911487494985487,3.9455071684842737,1156.8702876632813,1148.9495359588925,1135.6824074845465,1147.404542407782,870.2696408053366,524.4224375894237,619.5827070479495,778.4285851658407,155.350755082389
45.7575,-2.131655147196392,0.3695505958795364,0.7401258367297225,0.0009013428901307,0.0097876903988128,0.0015079058360211,-0.0079304557424587,-0.0059382098727175,-0.6256445727648317,0.7800448029774303,0.0363825859400301,0.0239465810354819,10.600257106004616,0.019963423063837,0.0042224359305614,0.0305803937178786,6.348776586327757,3.791109885341488,3.9455868059426447,1159.0123847917655,1149.9575754920463,1137.3141193925696,1149.455489087522,698.4658198192377,190.95791601152172,588.4772967640752,730.6521600298134,155.34781256325792
45.76,-2.194702127210448,0.4336457215219204,0.545022841706529,-0.0055760958990386,0.0096236304429005,0.0022133500032923,-0.0079423532723179,-0.0058773095729653,-0.6256257221700453,0.7800602896200498,0.0395968324159178,0.0232600389366883,10.625496772578728,0.0199761144791842,0.004189696437711,0.0326555029138068,6.348800099940776,3.7910709312782176,3.945669765384855,1160.3626167623743,1149.9043255389493,1138.6247939683642,1151.0578032079277,452.06804236199395,-204.56219764831525,533.9374803131246,624.1704811719491,155.34554495327035
45.7625,-2.1411810430788014,0.5350337653572321,0.3946746856203262,-0.0129302624131554,0.0096948247615965,0.0017308154005934,-0.0079484828062199,-0.0058166937202156,-0.6256191198702906,0.7800659980500821,0.0426132461786023,0.0226617387688953,10.649212902629927,0.0200083929695006,0.0041541840587677,0.0347936330455152,6.348823744355468,3.7910309031132705,3.94575529539836,1161.2727250035769,1148.9347645038042,1139.9838067941366,1152.576341493383,295.4283389877526,-514.5836068901285,570.5551267768707,595.887746489384,155.34347695765968
45.765,-1.9839377130409928,0.6692340408386575,0.3067675605606104,-0.0195606540904824,0.01022082498927,0.0010861343514576,-0.0079420179220424,-0.0057567310939832,-0.6256259664380815,0.7800610266443839,0.045273066483139,0.0222780873599623,10.671303504285088,0.0200603170292646,0.0041166862686912,0.0369927853550123,6.348846544958439,3.790989714894325,3.945843474784057,1161.8397584573136,1147.3314075044973,1141.47756960225,1154.037241940376,152.00908234592316,-742.3530674528979,652.0690109990047,570.8371748735962,155.341579766878
45.7675,-1.7220563859238542,0.8303338226591575,0.3017098310438603,-0.0245279664998875,0.0117061168674599,0.0007138582222584,-0.0079221985933291,-0.0056933564699738,-0.625643370367368,0.7800477293111333,0.0474245150871282,0.0220743388909119,10.691675533921533,0.0201313658875172,0.004077752465305,0.0392508769877595,6.348867956612184,3.7909470203574895,3.9459351941193535,1162.0327704153055,1145.222999166543,1143.2441518491287,1155.4305273677487,12.402330529578668,-964.9053902156147,855.2608323857555,595.7251257949017,155.33989397073407
45.77,-1.3337929061979747,1.0274539115503523,0.3766361669769791,-0.0285078279125617,0.014905711967109,0.0009186874067592,-0.007890517024893,-0.0056218468058696,-0.6256658552370153,0.7800305191184129,0.0489368913871156,0.0219670757349297,10.710245963475948,0.0202206137809996,0.0040378498449612,0.0415653043040003,6.348887483597216,3.7909036705575234,3.946031234953171,1161.9017701099615,1142.5068805534167,1145.7538737641808,1157.015867569352,-95.77319073632329,-968.6978255237183,978.3934625447267,565.0212200252846,155.3381212134272
45.7725,-0.9845240139452396,1.1761261620840175,0.4837283324382548,-0.0304140003460934,0.0183055872090348,0.0017879062671568,-0.0078538919428219,-0.0055355153594433,-0.6256881705273658,0.7800135865309139,0.0497237040645795,0.0217535949355735,10.726941865192403,0.0203268771237569,0.0039968996242121,0.0439326631317949,6.34890547581986,3.7908608068219767,3.946132763475565,1161.553904461624,1140.379510038922,1148.1361191618548,1158.2556334678764,-172.3592571546963,-761.1307990111172,979.9400975198112,476.7935248404927,155.3368557899598
45.775,-0.6409875281893175,1.2968780726008755,0.6036834010475571,-0.0313509789065016,0.0219756115614371,0.0034335034181594,-0.0078166217311984,-0.0054366633223079,-0.6257095008151483,0.779997523117016,0.0498206406427993,0.0213943835962885,10.741701737852928,0.0204489888947372,0.0039553499403902,0.0463483678156457,6.348923656627788,3.7908183228235113,3.946241087850831,1161.039973824189,1138.7012265583646,1150.6535742517756,1159.3998351935525,-247.36842840294304,-579.4066703025002,1075.6840900268753,478.8267835436552,155.3358133096474
45.7775,-0.253455062358607,1.4117252964208022,0.7258587708617731,-0.031891656485047,0.0263679942151284,0.0060396026644394,-0.0077801711159116,-0.0053290139610822,-0.6257295163999597,0.779982552930972,0.0492578800102739,0.0209150371820946,10.754478765462167,0.0205852827554927,0.0039136287172349,0.0488069613169688,6.348942541313604,3.7907764608830066,3.9463569199008632,1160.3170623196083,1137.482476687408,1153.514539611992,1160.649767385596,-272.8953938083091,-286.9576615189895,972.0876618356243,436.3021312434781,155.3348224692269
45.78,0.0468048662696057,1.4921255107604707,0.7894043618695972,-0.0320975229861918,0.0297149632386083,0.0083418574821205,-0.0077430544262561,-0.0052193496125793,-0.6257414892610313,0.7799740435422253,0.0480868462290492,0.0204286716456998,10.765241817918039,0.0207336763067867,0.0038720447448984,0.051302210149074,6.348961612632508,3.7907352461269577,3.946479864291247,1159.6754968551468,1137.2664382507687,1155.514012560956,1161.5813458497707,-255.78995911778816,96.69937112853104,672.5383122204425,349.8787049245947,155.33421474208626
45.7825,0.3266976748465902,1.5709225526740955,0.7984745761674297,-0.0320900864088288,0.0324355201010297,0.010596508839,-0.0077015954922366,-0.0051150377268972,-0.625739457940129,0.7799767688229153,0.0463509723477066,0.0200922137285843,10.77397704342388,0.0208913421053984,0.0038311105497285,0.0538273513870841,6.348980277573596,3.7906943931534944,3.9466093757330647,1159.0381125240208,1137.9659735430503,1156.877231173091,1162.3991609102175,-270.1699384756903,520.1602504487322,428.39810204951294,338.6933735143516,155.33383411642438
45.785,0.6384966684657378,1.6691682156351648,0.738460541646903,-0.0315323587689638,0.035489121135753,0.0132959381503272,-0.0076555911442213,-0.0050254144282056,-0.6257258167656911,0.7799887503281819,0.0441871890993865,0.0200319813457936,10.780686541957236,0.0210550298299607,0.0037916228363763,0.0563750299036721,6.348999389916539,3.790652596746237,3.9467454779014015,1158.3246471627676,1139.867239503014,1157.6560030712049,1163.2748127173436,-245.4459375250389,861.0134199472355,147.23256850167417,312.02073746387623,155.33364018698
45.7875,0.8696448061344298,1.7421998995324752,0.6289713061178953,-0.0302178504627583,0.0386724402526278,0.0154975737240016,-0.0076060699703966,-0.0049552480121682,-0.6257042730457179,0.7800069775502764,0.0416860800748703,0.0202906931025818,10.785391527080815,0.0212204871763061,0.0037540122131492,0.0589376384319079,6.349020153041409,3.7906085764781694,3.9468886688221407,1157.8108828363947,1142.2710406427886,1157.6133940155999,1163.9592645975376,-178.16641554661888,1097.865457854639,-134.75283404303332,279.76199726816026,155.33369732089105
45.79,1.05100361863248,1.7734738047907839,0.4652831866236671,-0.0278302771766432,0.0429774966405235,0.0173184968536121,-0.007557536424784,-0.0049002590983875,-0.625680148282949,0.7800271677002095,0.0388469640762385,0.0207288565357284,10.788132933372056,0.0213823465327295,0.0037178202961145,0.061507515324313,6.349043437484792,3.790561919656764,3.947038978419576,1157.4338150850351,1145.356566792282,1156.9822389009903,1164.6736227036831,-119.65294748795957,1308.3760359801672,-322.1118267571172,303.14391023578486,155.33398061395377
45.7925,1.1732869802196455,1.7402803234227475,0.2690704667937144,-0.0247049649058548,0.0479131180834331,0.0185074093486989,-0.0075149574212957,-0.0048610385644204,-0.625658738866948,0.7800450245519273,0.0357710930500499,0.021262728112064,10.788969241515783,0.0215355517142571,0.003683047866771,0.0640765814720653,6.349069066710669,3.790511369637735,3.9471965164170175,1157.2126180989549,1148.8129208226928,1156.0028348818134,1165.474984148717,-42.08998800807088,1412.0045943775092,-439.7552652607397,351.4621944634676,155.33445037079588
45.795,1.207025795521854,1.599628512264477,0.0547332449566605,-0.0209442905041633,0.0531222300172812,0.0187503837603687,-0.0074822184369,-0.0048362871709842,-0.6256398571026964,0.7800606768639187,0.0325259068674079,0.0217976957456568,10.78797816884942,0.021675206783438,0.0036497707436791,0.0666367417785557,6.349096515466214,3.7904570055164433,3.947361576270312,1157.223365144995,1152.4165897641733,1154.7834625746855,1166.4309336760011,63.17113398196231,1535.9158453942528,-548.904461027222,455.20066570079973,155.33514314680323
45.7975,1.1369576110671096,1.2882416020005079,-0.1951635920233963,-0.0161761547944921,0.0592108552241115,0.0179647352325456,-0.0074591696146422,-0.0048204374611933,-0.6256181304577564,0.7800784809396785,0.0290639100651184,0.022246295386568,10.785257145747249,0.0217965815900996,0.0036184259337057,0.0691801826765219,6.349123719843253,3.7903999262704176,3.9475339627532655,1157.5284737688644,1156.492500049657,1153.2583125766798,1167.7509874772193,156.5909872700212,1395.7875188045953,-541.3518037294539,499.3067536289064,155.33622897672174
45.8,0.9950886676307334,0.916611245716,-0.3810188796508526,-0.0124581228652563,0.0634774006866354,0.0165828752445232,-0.0074460368747804,-0.0048043991399297,-0.62558930343865,0.7801019188451643,0.025293727003141,0.0224661222642267,10.780919962757393,0.0218958395080657,0.0035897376227906,0.0716994094405626,6.349148573208902,3.7903419018743616,3.9477139565936854,1158.0063200813452,1159.3955273581998,1152.0767035560368,1168.9274674441472,222.51586720487907,1004.0215880308872,-423.28004083561774,456.24010091714206,155.33734244292444
45.8025,0.79617493323844,0.4633180290356109,-0.5342626024770465,-0.0098553234184182,0.0658872881362418,0.0149200240209581,-0.0074439198814067,-0.0047815421744636,-0.625554423635131,0.7801301947100207,0.0211858906526447,0.0223337685957605,10.775093168850175,0.021970886325497,0.0035651467667388,0.0741871877270894,6.349169922188817,3.7902837436957593,3.9479024328566745,1158.6410531048891,1161.512607989814,1151.1419123725007,1170.032187981806,287.2618495630716,710.5785563527758,-322.0179846907031,424.34723618196074,155.33866690005345
45.805,0.5428595810681048,-0.1097654695478735,-0.6827469192746656,-0.0085582387111308,0.0661209241763955,0.0132839109445215,-0.0074524988689382,-0.0047391105748762,-0.6255170328777078,0.7801605594060333,0.0165951154982535,0.0216676031981413,10.767915887705232,0.0220201846890598,0.0035456860153939,0.0766371924357925,6.349186715871789,3.7902271749994134,3.948099488366719,1159.4426293291594,1162.9484201399605,1150.4666136325848,1171.049203625055,276.4664709212197,332.10748378417713,-154.70326287609595,290.1410832181592,155.3404919761527
45.8075,0.3566895859725846,-0.5599805481268788,-0.7818516382677153,-0.0084937702263055,0.0642147035114295,0.0121774150801272,-0.0074675284021459,-0.0046711947231921,-0.6254819672132108,0.7801892144480703,0.0114425585446644,0.0204455415508688,10.759534634552471,0.0220437299448922,0.0035328818672307,0.0790439051546237,6.349199344877048,3.790173151291675,3.9483046995678746,1160.023385459494,1163.1731454087335,1150.3683960581209,1171.4828933978956,187.4330958442848,-101.30159736281075,66.90465439556861,62.83760084517294,155.34220215468915
45.81,0.227612684630754,-0.9319774124143536,-0.855214516765605,-0.0086639211663191,0.0608119617735055,0.01057796493471,-0.0074831029411928,-0.0045772050989422,-0.6254503505892584,0.7802153115967079,0.0057181516493977,0.0187462350029375,10.750099381690504,0.0220427677169608,0.0035276549241108,0.0814029693301898,6.349209822389021,3.790122657771239,3.9485177529707536,1160.3797948083811,1162.441912153146,1150.8011369045628,1171.363391629281,84.22855205144754,-501.89810306102817,300.50154715243565,-184.09083813080215,155.34409886245794
45.8125,0.1552012789413439,-1.2587941766551318,-0.9031688154235188,-0.0091324368695715,0.0563314932564003,0.0076579865994135,-0.0074933401137504,-0.0044697596896275,-0.6254271890769286,0.7802347910336254,-0.0003658580059515,0.0168295106820859,10.739758042960627,0.0220204739080229,0.0035310928992316,0.083711164234755,6.349220956990281,3.790074783905205,3.948738224587259,1160.4445282197516,1160.663654893427,1151.8709037938838,1170.5624392072411,-40.80489595311592,-755.4977613825082,456.01863477855295,-388.07050838930815,155.346577246687
45.815,0.1638049804646231,-1.4291211692390309,-0.9021024653222754,-0.0095797207109525,0.0528713050111049,0.0049019536279509,-0.0074978402979466,-0.0043653757331019,-0.6254172732219944,0.7802436734743033,-0.0064602849099189,0.0149195834408724,10.7286529951863,0.0219811229188701,0.0035426433519697,0.0859669166075023,6.349234948586713,3.7900280161011897,3.9489651738237304,1160.175770328616,1158.664423346237,1153.0812300784535,1169.4230390873363,-164.14193401870548,-839.2072496761812,498.2144473376318,-518.5541982318758,155.34880035705183
45.8175,0.2305975266243375,-1.5022093235705927,-0.857227510301594,-0.0092411615948536,0.0496075501957037,0.0025320907535476,-0.0074967222416974,-0.0042822278369256,-0.6254212640228934,0.7802412544586269,-0.0121853205666458,0.0132588311986538,10.716919265861314,0.0219291877099021,0.0035605748171901,0.088170652099066,6.34925267008583,3.7899820625713625,3.949195281371672,1159.6238185496577,1156.467618645044,1154.3619760305733,1167.9696682160804,-250.41846199138408,-860.4374270394292,478.2159411767506,-599.4643809635024,155.35117397842956
45.82,0.3292736247363789,-1.5016570087219632,-0.7807673022969017,-0.0080261386041823,0.0461228753664223,0.0006231676998319,-0.0074873781655955,-0.0042320815840725,-0.6254408858150675,0.7802260104344324,-0.017309315989608,0.0120558199414682,10.704682842602024,0.0218677543243665,0.0035823028636942,0.0903250348844433,6.349273855943744,3.789938069858732,3.949425761711684,1158.9236780186584,1154.3622362110375,1155.4723097843384,1166.4257171825172,-290.1981746435378,-770.9150182452693,352.02142949510926,-597.365914395002,155.3536632818317
45.8225,0.4497694076687617,-1.4184242581119595,-0.6736787991995571,-0.0065336872895399,0.0420999020910733,-0.0008795643426785,-0.0074651061819926,-0.0042136946646591,-0.6254747912252742,0.7801989978002836,-0.0218505573932291,0.0113864213492135,10.692057590400507,0.02179745437608,0.0036038259646174,0.0924346807191262,6.3492981430958135,3.7898960972026714,3.949657412649292,1158.172827676441,1152.6130435538212,1156.1220831780472,1164.982838644108,-315.1184288989705,-652.6844318089687,133.71314367707308,-567.7377618551697,155.35628239773604
45.825,0.6090914980796033,-1.2357533092164337,-0.5165124292187744,-0.0051356634965859,0.0374337601512854,-0.0024954394642215,-0.0074259081299174,-0.0042223878967194,-0.6255204211547352,0.7801624220275946,-0.0258790372212408,0.011275954945486,10.679140276051564,0.0217178298838687,0.0036209578744892,0.0945050607460841,6.349325508968596,3.7898534210316814,3.94989133270048,1157.3480858741627,1151.0988140519912,1156.140875502724,1163.58702837324,-280.6231928486269,-457.12696738154847,-132.5636157244166,-438.31135598148046,155.3595646302981
45.8275,0.7496154689185198,-1.0327730698205546,-0.3644818634657832,-0.0039116941379018,0.034460033925257,-0.0037842051352185,-0.0073704600942724,-0.0042484482170353,-0.6255735950489442,0.7801197772584183,-0.029489928516616,0.011611160380365,10.6660080560183,0.0216275909597147,0.0036289401618794,0.0965419174282695,6.349355125939759,3.7898083704937777,3.9501277471376968,1156.7697117121975,1150.3274087169123,1155.4592650994248,1162.7912818641996,-213.04183595476664,-232.70929568837596,-405.86423234854544,-241.9403807997168,155.36240927236292
45.83,0.8888112768068275,-0.8069163045632662,-0.1951267155492987,-0.0021793819409347,0.0326005108179069,-0.0048075405419263,-0.0073040000366296,-0.0042813651623369,-0.6256244832388139,0.7800790178848727,-0.032735150835229,0.0121974663503493,10.652717540132876,0.0215256039643278,0.0036229785501609,0.0985506554430093,6.349385612610444,3.7897606928199914,3.950367068768648,1156.2828766943899,1149.9352675735504,1154.1115543409833,1162.3773264692425,-212.55889724591765,-136.82566983968448,-705.1288426098412,-116.51979179935957,155.36536106342191
45.8325,1.0371358153781605,-0.5433963046455274,0.0168478930956827,0.0004530677880029,0.0311955055090654,-0.0050480143149708,-0.0072306820592877,-0.004307258148319,-0.6256652643976119,0.7800464921116906,-0.0357411275092828,0.0128179489882737,10.639307090596928,0.0214101776521488,0.0035993004675079,0.100536177014624,6.34941568259627,3.7897120987530295,3.950609262970236,1155.7069172259671,1149.6432803677135,1151.9336208863735,1162.2086829052023,-227.43489032752407,-118.81262781424373,-849.6229171782234,-32.28172039305886,155.3690214185905
45.835,1.1302093917658471,-0.3496008887855059,0.1900182296531892,0.0031530582289712,0.0305164931326548,-0.0042979458971173,-0.007156999427835,-0.0043207945499411,-0.6256914752100367,0.7800257659054916,-0.0384656968858881,0.0133329368297342,10.625795836805075,0.0212816394509892,0.0035561845071405,0.1025020209586023,6.349444581119027,3.7896633531929096,3.950855298872512,1155.1457022427517,1149.3412044344789,1149.86343975509,1162.215917867277,-258.24027830027103,-173.82141173131805,-826.6626481691006,2.869775469119185,155.37216727159495
45.8375,1.174014902521159,-0.1988529609954668,0.3511895376441865,0.0063895085189285,0.0302991398601409,-0.0031915357491984,-0.0070903743226084,-0.004316803348798,-0.6256996557010388,0.7800195801332502,-0.0408578473632545,0.013588772898283,10.612186878758195,0.0211410867674622,0.0034929204004649,0.1044504758727193,6.349472049178677,3.7896153531685126,3.9511064659355855,1154.4157158344672,1148.7741733090577,1147.800307645532,1162.223031782548,-367.62981800174487,-334.83174011308773,-850.7287779587582,-24.74370340017784,155.3754099615904
45.84,1.1557786326620088,-0.077878347208506,0.5309133421063427,0.0106630850279787,0.0304540782380258,-0.0019562452667046,-0.0070317163400628,-0.0042973295015603,-0.6256879442621655,0.7800294058778781,-0.0428406765440579,0.0136322192529641,10.598470841516315,0.0209905521473405,0.0034118452548808,0.1063824039866374,6.349498231150758,3.789568286271304,3.9513635914684095,1153.307553152742,1147.6670457339123,1145.609795865294,1162.092199350276,-441.4956050512516,-475.7530927347783,-727.6624154971075,-84.02389098728483,155.37941105511175
45.8425,1.080339702915867,-0.028349956165762,0.6723423668229226,0.0141707365278908,0.0308041107714606,-0.0010236999541851,-0.0069785126575131,-0.0042676227854409,-0.6256551598076571,0.7800561824003828,-0.044337856517703,0.013602803454524,10.584628025405756,0.0208326843050885,0.003317251577445,0.1082974322448216,6.349522655649646,3.789522276217401,3.9516273645026816,1152.2082378092095,1146.3954078453824,1144.1619955680446,1161.8029123276115,-465.05865089149216,-560.0340358161337,-488.81879371659926,-160.01136856203627,155.38283544239252
45.845,0.9543013294543742,-0.0259649633648214,0.8044671448716829,0.0169385077493142,0.0311710034424419,5.806865517956331e-05,-0.0069260475456179,-0.00423700786794,-0.6256051213525756,0.7800968357897903,-0.0452434481411133,0.0137222810482521,10.570630688554324,0.0206709056631552,0.003215425936472,0.1101941268157988,6.34954497159,3.789477131162448,3.9518978990174927,1150.9822598982867,1144.8668755548345,1143.1657018967132,1161.2921425074667,-501.5063059386356,-629.113144087156,-333.01444485288147,-241.46548692261985,155.38635180349803
45.8475,0.8029513829993585,-0.0524639648222997,0.9211638266519656,0.0188927653464664,0.0313153564581852,0.001557702589756,-0.0068739293758303,-0.0042089312480861,-0.6255439629505131,0.7801464300771705,-0.0455007603448018,0.0140536835648067,10.55644486411505,0.0205085111751001,0.0031117998114532,0.1120705053692864,6.34956401246383,3.789433101741388,3.9521743399503615,1149.700706279515,1143.2498421249452,1142.4969233437791,1160.5955848929975,-515.5112866019954,-634.9351758332822,-220.09686787416848,-320.84539936269675,155.3899433051947
45.85,0.642679408409702,-0.0966370181226473,1.000707223768526,0.020008563530683,0.0309084451606228,0.003900304409582,-0.0068286362496848,-0.0041828690030913,-0.6254865959591442,0.7801929443373294,-0.0450369371137153,0.0144857839064382,10.542031941898433,0.0203491177678271,0.0030106203665212,0.1139241424462259,6.349580253933601,3.789389936411333,3.952455490245267,1148.4047034652751,1141.6921996756664,1142.0652175573418,1159.6879155106524,-562.7598464596873,-632.7041944344116,-191.56504462129448,-442.9070010551577,155.39362410668292
45.8525,0.4600514183706451,-0.1485256677392801,1.02517341173479,0.0207420274720158,0.0298886065466898,0.0078302795694267,-0.0067938421151378,-0.0041588134520239,-0.6254447429049077,0.7802269380925226,-0.0438185011909108,0.0149515434880016,10.527352924304584,0.0201960432708587,0.0029162225159443,0.1157523080949002,6.349594644958446,3.7893466527743342,3.952740947789533,1146.8869070472194,1140.086321152776,1141.5390981206735,1158.381049887724,-543.5624572984527,-523.1736634807073,-236.023834243558,-510.31453942661113,155.39814266724213
45.855,0.3214344876884954,-0.1807111540047184,0.9722539677371808,0.021115346647614,0.028835804184827,0.0116648579171233,-0.0067662075026412,-0.0041275969036314,-0.6254255527181934,0.7802427467171461,-0.042065472556794,0.0153703866476706,10.512372319977157,0.0200498217981441,0.0028320534425973,0.1175524075041806,6.349607335957261,3.78930315479662,3.9530321236207855,1145.6868911787817,1139.0763313582615,1140.8850983861234,1157.136342813518,-458.564337183354,-321.4418560303049,-341.81168952905654,-522.304217579773,155.4019916267312
45.8575,0.1927693421359472,-0.199645613142797,0.8454528570603131,0.0214677376505314,0.0278800944545388,0.0148279444989247,-0.0067420640880062,-0.0040828224357545,-0.625426328097684,0.7802425886357252,-0.0399667658209659,0.0156962395929164,10.497057014671608,0.0199112601769436,0.0027607073967298,0.1193214992581943,6.349617785025937,3.789259893553409,3.9533297857671874,1144.5940853613015,1138.4791118726237,1139.8300396730276,1155.7695287998235,-446.44724837921456,-168.30808368810568,-566.7420261804334,-619.1210068592401,155.40592578409152
45.86,0.0364859894268673,-0.2171611941334848,0.6357450092477758,0.0219384793791233,0.027297902721826,0.0166695238347254,-0.0067201264135526,-0.0040219864270664,-0.625439442394988,0.7802325967014712,-0.0376255780334907,0.0158896619000983,10.481376653726363,0.0197820466003848,0.0027036101343062,0.1210564340963372,6.349626397941823,3.789217098449837,3.953633400568061,1143.4546549368877,1138.2347909398216,1138.0513882552239,1154.0407377792246,-382.8865830785022,-23.756898286853023,-722.7424389109668,-641.5571476481447,155.41074319257808
45.8625,-0.1059801451377039,-0.2382679696682771,0.4385722694632521,0.0222538544563044,0.02736545025649,0.0169539353413423,-0.0066965759412176,-0.003955106667538,-0.6254607292033235,0.7802160856291137,-0.0349820545489793,0.0161139944322203,10.465304741922793,0.019665627494339,0.0026634604694391,0.1227539307330432,6.349634988307243,3.7891739281773305,3.9539420220171007,1142.679652445908,1138.360327381189,1136.2163274784707,1152.5617430615814,-269.6070050603324,91.23464141853101,-771.2807374810073,-593.6627686259418,155.41483617045435
45.865,-0.2696568384016791,-0.273918617983486,0.2379663201879929,0.0221890570607399,0.0274958756226476,0.0170727641036838,-0.0066691631593881,-0.003893175829512,-0.6254849691932345,0.7801972042632515,-0.0319490743122479,0.0165177841961588,10.448819086076487,0.0195658165303607,0.0026414602805801,0.1244110761160852,6.349645070599167,3.7891295488769994,3.954255342726596,1142.1066199115853,1138.6909641469147,1134.1949845678168,1151.0724239360934,-208.00195731540768,153.61926678151903,-882.4972195888972,-654.8663535643799,155.4190079007259
45.8675,-0.4922658418333142,-0.3285219116145734,-0.0011956243721488,0.0215573365898086,0.0270784093706833,0.0174320922328579,-0.0066367927893384,-0.0038411788231919,-0.6255037585367823,0.7801826811109926,-0.0285310051783503,0.0171523626399555,10.431902840615976,0.0194855781661717,0.0026362572135908,0.126025670716331,6.349657332983184,3.7890841533342527,3.954573232581111,1141.639642659332,1139.1284237150962,1131.8038413805305,1149.2874112937625,-142.34878595815857,139.9488656515495,-838.4005737319407,-654.0134097226692,155.42410129248208
45.87,-0.6954011306984654,-0.3724361723661748,-0.1996426940814366,0.0205729465943555,0.0260523679896833,0.0175500102223571,-0.0065946495682134,-0.0037984481523283,-0.6255150042167572,0.7801742462890732,-0.0248787503119176,0.0180597939838135,10.414545917816527,0.0194264122023646,0.0026455718383461,0.1275963728185768,6.349671350651617,3.7890399625741455,3.9548943947765913,1141.3948759817952,1139.3907084751716,1130.0029816991607,1147.802356887483,-83.58657506232974,59.676116511506216,-654.220123033776,-593.8838721360444,155.42841541478163
45.8725,-0.9053138360501412,-0.3996439676004151,-0.394710586163792,0.0189500032853083,0.0244812770560751,0.0171475709347548,-0.006544980733333,-0.00376654096283,-0.6255238479821492,0.7801677522987225,-0.0210191822879888,0.0192026787478878,10.396741081568447,0.0193916400320637,0.0026656291380051,0.129122188442851,6.349687837281562,3.788998435978164,3.9552180295002737,1141.22170978402,1139.426804297654,1128.53274076536,1146.3179919330807,-72.0064042916506,-32.59010296458807,-525.555007921825,-592.7736357446216,155.43279756366593
45.875,-1.1077219785298191,-0.4067000845532026,-0.5809875601849607,0.0166206360979505,0.0228580034576607,0.0163170957007671,-0.0064936797405616,-0.0037465492385733,-0.6255282758974517,0.7801647549496523,-0.0169439974957245,0.0204842730700804,10.378484997857745,0.0193853192380316,0.0026910548377574,0.1306024836379973,6.34970712741764,3.7889606496444865,3.955543690068268,1141.0348439603367,1139.2277579603488,1127.3752066595505,1144.8384887087584,-96.80961028493294,-139.32145621023602,-391.4235332911098,-585.9596871807171,155.43723256028463
45.8775,-1.2826781836273229,-0.3916181431864018,-0.7444260057543702,0.0133691377888494,0.0215766696524098,0.0151433010417956,-0.0064445964519165,-0.0037312368248517,-0.6255271001251748,0.7801662054451912,-0.0128081743307378,0.0217408061578619,10.359780951115521,0.0194092564916049,0.0027155588629326,0.1320371337001248,6.349727921792812,3.788928034139454,3.955870908950245,1140.7376617325958,1138.7301970166031,1126.575623098906,1143.3881934971798,-178.5312616887491,-287.135982225926,-284.71079735553747,-618.4457615615903,155.44172650930625
45.88,-1.4409321671254516,-0.3599808796617066,-0.8911195606330735,0.0088462129912939,0.0205654182929169,0.0129761055675015,-0.0064008542713802,-0.0037165742505165,-0.62551637593496,0.7801752623025544,-0.0087233269339563,0.0228694117784627,10.340637080848342,0.0194649623962622,0.0027338242723605,0.1334258363093673,6.349749486368781,3.788899586055552,3.9562003557373298,1140.1421876518923,1137.7920780492184,1125.951652672772,1141.7462599009489,-269.9924318023005,-401.21655662294353,-187.84101204705104,-571.4573961385017,155.44718084567242
45.8825,-1.521599790112283,-0.3330766378509117,-0.9512038568870548,0.0051193407049415,0.0200786708349901,0.0101992484358254,-0.0063679219112328,-0.0037011521473593,-0.6254894068144027,0.7801972592782875,-0.0047251383426526,0.0237697898759909,10.321065648222024,0.0195534470478315,0.0027411238689045,0.1347678332872749,6.349771422599134,3.7888727012956753,3.9565330182152274,1139.3876995735836,1136.7241142334876,1125.6364180386704,1140.5309065164859,-360.0739592554965,-491.2295193821512,-102.03394038872104,-435.8057022517058,155.4517725158931
45.885,-1.5455782013863169,-0.3150627878471242,-0.9253060976136646,0.0015073269842551,0.0197742098134995,0.0068247184440059,-0.0063494890554331,-0.0036909828901748,-0.625449632363487,0.7802293746425293,-0.0007459895622183,0.0244740587539506,10.301083538224995,0.0196750743190094,0.0027358077761418,0.1360617107179735,6.349793623188102,3.788844000192624,3.956869069220226,1138.3418178556167,1135.3359304523099,1125.4414829708287,1139.5672313896923,-517.5819229964953,-693.4647197505545,-77.97193376773625,-350.8060396090538,155.45640626386094
45.8875,-1.5065372324559438,-0.3062071552010726,-0.7878300875358517,-0.003118962801296,0.019383098588506,0.0031971232145478,-0.0063466452234459,-0.003690016706162,-0.625403008753169,0.7802668050855724,0.003223517938424,0.025033905453525,10.280714272227351,0.0198275050548607,0.002717618794412,0.1373057133150081,6.349816187717192,3.7888109492689033,3.957208783324399,1136.7997899585998,1133.256790634733,1125.2465583698315,1138.7768763184397,-595.8597669042455,-834.9387633626341,-78.19504167578636,-227.18351296509556,155.46200811021944
45.89,-1.4170210346021754,-0.3050852924647581,-0.5941952836628477,-0.0071922703605879,0.0188915714466792,0.0009857509864739,-0.0063560466877911,-0.0036986439808141,-0.6253539048954792,0.7803060798850118,0.0070899491474359,0.0255278556050275,10.259989221082835,0.0200054447538924,0.0026876040016389,0.1384978746465853,6.349839521604998,3.7887733327857993,3.957552262364172,1135.362519021094,1131.1612366354943,1125.0505077624496,1138.4313138248663,-577.9990495271504,-907.4179721434641,-98.94907893553768,-83.45409855004023,155.46670526567604
45.8925,-1.2743114282035473,-0.2998214347268952,-0.3424629484706566,-0.0109441363454993,0.0181398211659975,-0.0002943341699863,-0.0063736405129716,-0.0037105109869968,-0.6253049431059509,0.7803451721025618,0.0106571172249797,0.0259587224519007,10.238947399152364,0.0202011256378099,0.0026466848181933,0.1396361377998704,6.349862324118835,3.7887328006318346,3.9578991413247726,1133.9097947109667,1128.7197007740199,1124.7518129751543,1138.3596058256899,-610.0090753457215,-1127.8964452345604,-166.65236320091594,9.776457150378064,155.47142566177843
45.895,-1.060137091714786,-0.2742337295625791,-0.0087094987138036,-0.0142768678519821,0.0170242956011079,-0.0008531483199792,-0.0063962418686342,-0.0037134338546276,-0.6252593986704252,0.7803815524441755,0.0136636987052988,0.0262396715751224,10.217634893562856,0.0204051965139509,0.0025954298037309,0.1407183855562397,6.3498833758648106,3.788690693442215,3.958249273958197,1132.3124736443635,1125.5217544093189,1124.2172459464448,1138.480196110618,-544.4125862464659,-1186.0396208038608,-229.87436108835087,60.96747806679168,155.47710878349577
45.8975,-0.8632115334492863,-0.2282424010062937,0.2683283783083311,-0.0161132538588078,0.0160331470261299,-0.0005512994130348,-0.0064174342033719,-0.0037050141885582,-0.6252233207414222,0.780410445959219,0.0159812655178835,0.0264585444834068,10.196102679184373,0.0206096692685993,0.002537578006389,0.1417420610763909,6.349903044584896,3.7886466850568254,3.9586026984804064,1131.1877317797328,1122.7895026699975,1123.602441169712,1138.664443216024,-398.7934935682904,-1061.5341610722785,-280.70985732945763,73.04307488081852,155.48185413661275
45.9,-0.6637512101442868,-0.1517475796962475,0.5113870761681162,-0.0176164955970661,0.0149447776378192,0.0005895896985044,-0.0064291993923017,-0.0036856494941362,-0.6252033016186594,0.7804266435409946,0.0175226270660899,0.0267592759596065,10.174406587439009,0.020806906799896,0.0024781437322591,0.1427044601524276,6.349921939628555,3.7886005545223136,3.9589594673218858,1130.318506176524,1120.2140836039623,1122.8136966597988,1138.845411485022,-307.32864876011,-970.1818231738836,-339.365061464977,62.35666716480857,155.4866023956108
45.9025,-0.4696773778951506,-0.0525660369827634,0.7029278646974066,-0.0190151018321764,0.0139503354452473,0.0025026674145907,-0.0064322460064384,-0.0036596473505351,-0.6252009781837526,0.7804288126194396,0.0183890712266153,0.0271891937933801,10.152602684669825,0.0209919889485367,0.0024208175367052,0.1436025724784948,6.349939875323907,3.788551453501843,3.959319811096029,1129.6510885359316,1117.9385935541256,1121.905615862386,1138.976226551848,-227.2287949019957,-804.7601815625488,-381.13881350239853,33.44371409214653,155.49134858274786
45.905,-0.2891188454269851,0.060524779255298,0.8093534367215817,-0.0200385329031927,0.0136967852270414,0.0053510332045625,-0.0064330464184052,-0.0036345766046028,-0.6252132991593389,0.7804193093129099,0.0188191383466332,0.0277380917243126,10.130746853259918,0.0211624040208955,0.0023682625124768,0.1444333258300969,6.349957162717268,3.7884980676583138,3.9596848860732106,1129.1823622020136,1116.1902826961475,1120.9080025922858,1139.0126300554828,-175.7401686733608,-623.4180987232534,-443.0927058437583,-10.572337457106707,155.4960876847002
45.9075,-0.0989196390140529,0.1857340816273265,0.8244055636132392,-0.0205896451026342,0.0146062254214713,0.0094171956008223,-0.006436863493024,-0.0036133098951824,-0.625234126986082,0.7804029887336323,0.0189714216358507,0.0283486339676847,10.108896898290883,0.02131544887911,0.0023220761139093,0.1451943185708544,6.349973989371224,3.7884410948704534,3.9600552376100073,1128.7723876925656,1114.8215030605122,1119.6901523331694,1138.9233648645627,-137.33030323266823,-379.9350555276636,-439.53508885611217,-56.6309280404022,155.5017615264646
45.91,0.0285792656788287,0.2633600746590918,0.7499987675258547,-0.0204648422677336,0.0159331784111111,0.0126225941739478,-0.006450215189089,-0.0035933293757669,-0.6252538799550108,0.7803874696207916,0.0189428479799046,0.0288695598729065,10.08710985400928,0.0214489609297268,0.0022818639124394,0.145884233003972,6.349990238709717,3.7883822194795975,3.9604310864118264,1128.4957106858499,1114.2906074185082,1118.710327148004,1138.7294754152806,-112.33135826085964,-105.7661995535368,-378.6357179847864,-102.76669250423964,155.5064759894893
45.9125,0.1150290812426387,0.3024533253157772,0.6165258429220059,-0.0198991609701144,0.0171102670404161,0.014799618949201,-0.0064779585391465,-0.003567398918057,-0.6252666260733986,0.7803774611596825,0.0187405739931892,0.0291136662802296,10.065440380326063,0.0215611896357804,0.0022462177145777,0.1465033988432637,6.350005798131149,3.788323714534785,3.960811017373764,1128.210730901261,1114.2926720627443,1117.7969737432445,1138.4095314020412,-143.6266438623021,81.41345790184587,-391.743773231148,-167.80837529096772,155.51117365026036
45.915,0.1673127041222679,0.3057251734829135,0.4436841164727091,-0.0189048854980681,0.0180189593154031,0.0156987921817564,-0.0065184757301058,-0.0035381263383115,-0.6252725157172628,0.7803727781296717,0.0184475228915469,0.0291182326498988,10.043936688374583,0.0216532683381667,0.0022165405770847,0.1470538187042798,6.35002153585752,3.7882670060311217,3.9611922622953935,1127.777577466539,1114.697674708017,1116.75160828185,1137.8904335388263,-183.02065415209384,178.89587784497903,-386.4908554282762,-209.13099339730468,155.51678950350845
45.9175,0.1711468868921539,0.2763797096713896,0.3299027779279459,-0.0179762327438061,0.0184424824982278,0.0151296589191516,-0.0065685905518306,-0.0035102789060415,-0.6252723471014427,0.780372695429669,0.0181592071906228,0.028968914005691,10.022638220024367,0.0217282113680219,0.0021942869663262,0.1475394870354711,6.350037763047552,3.788213524202,3.961571365450984,1127.2956276305,1115.1871514519696,1115.864519466102,1137.363876435054,-221.803763264302,187.21154978110889,-376.0932168527583,-222.67655517650812,155.52145075676583
45.92,0.1458493200686711,0.2167398859010361,0.2791884730689384,-0.0172779597835028,0.0188523751306441,0.0139267014081904,-0.0066283396131614,-0.0034898734297545,-0.6252637485157555,0.7803790260155842,0.0180257518650275,0.0287133833179979,10.001572408046904,0.0217912147061762,0.002179626332702,0.1479660228967843,6.350054752318692,3.7881639104417855,3.9619447015042697,1126.6685586502167,1115.633732456923,1114.8711421975854,1136.7770507629434,-302.866257458484,154.70280461513963,-477.4954426510498,-260.7468498673468,155.5260917125599
45.9225,0.1045071111790826,0.1089527895568803,0.2921831086628365,-0.0172339201451383,0.0194427778325046,0.0132475497659891,-0.0066972409450239,-0.0034799194963548,-0.6252466170767838,0.7803919289690662,0.0181362543559481,0.0283692819304006,9.980755450799604,0.0218474271900838,0.0021719979378422,0.1483401528853332,6.35007262818069,3.788117107513113,3.962311811553581,1125.781296343209,1115.9606654750446,1113.477042252849,1136.0601421857186,-337.04417330383006,74.07629143368315,-547.1638528613241,-256.8211217450476,155.5316357155937
45.925,0.0778154991235049,-0.0124493425280609,0.3429840422308219,-0.0177860551451511,0.0198326572794067,0.0140916043801094,-0.0067705544756136,-0.0034735909177802,-0.6252211524802558,0.7804113963563849,0.0183646478533947,0.0278980007801128,9.960194484701706,0.0218991734679883,0.0021698261801875,0.1486690343278928,6.3500909518037645,3.788072275992551,3.9626750726311912,1124.9833377836967,1116.0041139140917,1112.1353229332772,1135.4929451542175,-316.79697394481246,-31.411513096265782,-563.0366350573544,-213.90421729195597,155.53623309880587
45.9275,0.0706116521949406,-0.1653330912782191,0.3999666990169609,-0.0183626069053676,0.0199166042138789,0.0159685609575211,-0.0068393982202896,-0.0034705803945064,-0.6251897515270298,0.7804356370993065,0.0186260210772438,0.0274081122343948,9.939884736487745,0.021949369172304,0.0021738282012114,0.1489587650918975,6.350110431008272,3.7880280722433466,3.9630371947758256,1124.1973114734842,1115.8036079095632,1110.6618590775608,1134.9906210992583,-304.75547445776533,-116.98952331245616,-594.3774356325724,-188.81278388138415,155.54080447059903
45.93,0.078575925669984,-0.3398821464162462,0.4418205998440482,-0.018639370272015,0.0196224709620805,0.0179276718076167,-0.0068914128902423,-0.0034697831368963,-0.6251547597825597,0.7804629183279946,0.0187705033566392,0.0270528091584728,9.919812288536491,0.0219997709038654,0.0021855668419607,0.1492141134187801,6.350131588901921,3.787984379426218,3.9634000229370834,1123.4595604114095,1115.41916629753,1109.1634357551172,1134.5488812348115,-282.9910172085265,-194.0389880699004,-581.2788525857569,-165.38907189389226,155.54535195840023
45.9325,0.094580386306967,-0.5307299969406942,0.4554598710385224,-0.0183752932432573,0.0187403295552141,0.0195248126780516,-0.0069181683603859,-0.0034708023486405,-0.6251176107526094,0.7804921883314666,0.0186989893939434,0.026933891865189,9.89995355566047,0.0220526271146594,0.0022061695206671,0.1494381059728967,6.350153228242041,3.7879419944132215,3.9637637828822374,1122.7823563874429,1114.8334129692144,1107.7554648146347,1134.1636757397896,-297.1254183335376,-304.47016718842747,-574.4317382928119,-166.36156945297117,155.54986731614233
45.935,0.1066955361504264,-0.761622976425579,0.4403790744449752,-0.0174315623730557,0.0169157516124186,0.0210570185723867,-0.0069221044017633,-0.003470289683612,-0.6250770720874185,0.7805244356253038,0.018392591244176,0.026949887786679,9.880276407143095,0.0221110084758217,0.0022340648743631,0.1496320023852958,6.350172781791592,3.787901642503072,3.9641285137215863,1121.973933319741,1113.896815461587,1106.2912770636517,1133.717073387546,-313.4359241008712,-387.4144330905274,-493.17869354729055,-171.4571343327894,155.55524360128004
45.9375,0.1031974408467681,-0.9418954887655808,0.4076511578724731,-0.0163185349018189,0.0148437970383296,0.0221418688869066,-0.0069075925404223,-0.0034674856689617,-0.6250297127050753,0.7805623750733521,0.017888296829792,0.02700441615231,9.860744669690558,0.0221781430095712,0.0022680351466917,0.1497953761424193,6.3501889508627904,3.7878637239370097,3.9644949206677422,1121.2151767669377,1112.8963408037607,1105.2895713468968,1133.3063900681252,-345.72695944056767,-456.16313079208896,-365.24582040575774,-186.1292737246332,155.55968456538025
45.94,0.0882232039426243,-1.0936441665291468,0.3634649080084938,-0.0154327148149658,0.0123438119318195,0.0230522323467337,-0.0068757925561078,-0.0034646251217279,-0.6249793626462052,0.7806029145459146,0.0172238363748364,0.0270931554127784,9.841322514777497,0.0222560646793615,0.0023086956546394,0.1499263700553303,6.3502027129745615,3.787827212246292,3.964863836954056,1120.2452985225395,1111.6159998076287,1104.4650479616244,1132.7864270189239,-498.7091771610444,-641.1243533230294,-352.18952914315366,-268.9841909652829,155.56407933247166
45.9425,0.0758189501762426,-1.2256474655708467,0.3087863431601667,-0.0153764664257021,0.0086940235870639,0.0237183848159821,-0.0068341601041702,-0.0034628240671622,-0.6249316923888711,0.7806414339759123,0.0164931010807622,0.0271056079602083,9.821974943005948,0.0223460892005359,0.0023548474420906,0.1500218792795126,6.3502152038613415,3.7877902797958,3.965235602573967,1118.7216308811312,1109.690719037144,1103.5286237011803,1131.961469113298,-626.8491899716057,-777.3327810573508,-363.02410857124033,-344.11662561170164,155.56929297388302
45.945,0.087408847646824,-1.2837428223338558,0.2685379638538081,-0.0159828029552145,0.0052109432430213,0.0239083358088372,-0.0067951975720801,-0.0034688818618778,-0.6248889872808411,0.7806759494611686,0.0159362087781744,0.0269277480247394,9.802669042200083,0.022450069318261,0.0024044767028429,0.1500776767713637,6.350227436802396,3.787750012894713,3.965610157498108,1117.11105257268,1107.72933590234,1102.6499274187674,1131.0658438908645,-711.9824190482741,-858.5428463527101,-402.28665560535075,-405.8423592197922,155.573582529776
45.9475,0.134371279217507,-1.282254088610956,0.2355840318299103,-0.016622121847554,0.0017329259894234,0.0241724881184584,-0.006767177466706,-0.0034858587121864,-0.6248540908544655,0.7807040846263743,0.0156829724374308,0.0264702673725829,9.783380476933447,0.0225666462598808,0.0024551773032925,0.1500893865559244,6.350240721956047,3.787704442243876,3.9659875384135854,1115.161718785893,1105.3980048053843,1101.5171904231552,1129.9322573172008,-918.1713378375056,-1097.229637689709,-573.168169860062,-550.7572846620772,155.5778085156362
45.95,0.2284158759092632,-1.2144840153770304,0.1979258819066098,-0.0170382136752564,-0.002106143309769,0.02491571087519,-0.0067565303705367,-0.0035152867525867,-0.6248297107393127,0.7807235979137945,0.0158183832939161,0.0256594016225617,9.764093297349577,0.0226928163251932,0.0025038860960864,0.1500527522884665,6.350256875626963,3.787653151178524,3.966367690992727,1112.5201958834903,1102.2431877138883,1099.7840865694657,1128.3120574675527,-999.4179261288425,-1196.1296758200451,-690.1451209080385,-630.4256374582523,155.58279849564428
45.9525,0.3240079806043712,-1.1095399411344868,0.1617842256602937,-0.0167498440886636,-0.0049312482861497,0.0257145124771103,-0.0067623604225743,-0.0035547756117222,-0.6248149167651348,0.780735240592562,0.0162805331811848,0.0244906185842765,9.74480253746263,0.0228231924263166,0.0025476284037207,0.1499642792817679,6.35027742003332,3.7875972642172986,3.966749943409032,1110.1646291552463,1099.4173564262812,1098.0664648186134,1126.780129129908,-946.9902758965391,-1137.8286034121516,-711.5610904428754,-639.4165318107656,155.58688326041553
45.955,0.4111437274248799,-0.9640934010514056,0.1171230922089818,-0.0154588283571449,-0.0071680972052985,0.0263182237695927,-0.0067812612457342,-0.0035991780323369,-0.6248075780279193,0.7807407621049267,0.0169387418197613,0.0229698708434943,9.725512352472116,0.0229520022510459,0.0025830826910808,0.1498214507968729,6.3503024210119925,3.7875385371869887,3.967133149493831,1107.7852445040119,1096.5540446968328,1096.2262811172543,1125.1149748085015,-1019.7010619754805,-1225.0221951488684,-781.1277619285289,-751.7954814600917,155.59088433763816
45.9575,0.4760868560457728,-0.7521624708361325,0.0561775533994246,-0.0129048325155161,-0.0092889114384689,0.0266086907492512,-0.0068101595243064,-0.0036432228546455,-0.6248041465834517,0.7807430472075351,0.0176682422703302,0.0211021347083008,9.706233991212232,0.0230749003378115,0.0026068865280699,0.1496228116574995,6.3503300537044804,3.787479023948789,3.967515599017077,1105.0661238453663,1093.2922454505335,1094.1608260089688,1123.0211517226055,-952.1121199002794,-1137.8236438930887,-689.5147701343486,-778.4239299248494,155.59558009467915
45.96,0.4858507736221284,-0.5475996808021671,0.0032789244915989,-0.0105155821182933,-0.0110113925937663,0.0265528429334443,-0.0068442255178463,-0.0036788533175205,-0.624799268944016,0.7807464563182738,0.0182836506562301,0.01889017513402,9.686986020354071,0.0231883100397343,0.0026160396323758,0.1493681884656465,6.350358002575336,3.787420767881028,3.967895900289916,1103.024683904508,1090.8649264773646,1092.778707266581,1121.2228551588755,-748.2008418689913,-884.9946849577782,-440.3342876679656,-728.645078514663,155.59939936024895
45.9625,0.4554713399285889,-0.3166150970531381,-0.04782849170963,-0.0086182686220172,-0.0126963808465739,0.0264542837461506,-0.0068792059105572,-0.0036964267571809,-0.6247869306003854,0.7807558812777349,0.01858482764805,0.0163133346627851,9.667792144456259,0.023290121234166,0.0026078852818962,0.1490584524802373,6.35038525112057,3.7873654612009937,3.968273614269105,1101.3251196360247,1088.867272025749,1091.9591545706307,1119.3779263300355,-611.9942523991137,-718.1404385372352,-218.35434952252143,-746.4598074776678,155.60311566101564
45.965,0.4091824371617929,-0.0704513455903245,-0.0955932112640029,-0.0074976662489141,-0.0140304779103657,0.0263632257065592,-0.00690659261891,-0.0036886404610624,-0.6247670119178212,0.7807715197511335,0.0183575164636531,0.0134486965943997,9.648680791588701,0.0233793115945364,0.0025824078629674,0.1486952306706306,6.3504114733507855,3.787314179371992,3.968648353326532,1099.964712642511,1087.2742242846766,1091.6869355189679,1117.4905561214853,-456.4878541401352,-540.0390728513196,18.646934385232736,-765.921195238815,155.60674371379056
45.9675,0.3710862811408056,0.1745663169609551,-0.1368234559282825,-0.007510937529678,-0.0142752152116379,0.0261934121415,-0.006922895658879,-0.0036537391676104,-0.6247379279730437,0.7807946705111116,0.0175318180651322,0.0103660679413033,9.629680299025392,0.0234578868211304,0.0025402454609522,0.1482802423865664,6.350436152808779,3.78726785801198,3.969020261456464,1099.042680365323,1086.167076661491,1092.0523892425572,1115.5483203538397,-307.2766667733115,-388.6869135827407,272.23972109752344,-865.2529286782877,155.61026341742726
45.97,0.360587102539905,0.4307115249499213,-0.1737136288771986,-0.0081821129333589,-0.0127394078659876,0.0256383493601414,-0.0069333826036945,-0.0036006071017203,-0.6246947470998119,0.7808291750346998,0.016301394991577,0.0071313576775126,9.610815756394622,0.0235319946899112,0.0024826122067215,0.1478146960794362,6.3504583911345325,3.787225258500482,3.9693891950989353,1098.4283293086455,1085.3307897167647,1093.0481341244542,1113.1642914780975,-153.2532234853659,-241.7693220337824,415.2061478023974,-878.5304422447606,155.6143612317341
45.9725,0.3832211420483863,0.58709494551976,-0.1901303283380105,-0.0083543449939301,-0.0101597068402242,0.0248144950230444,-0.006940209251264,-0.0035402518891432,-0.6246375122857835,0.7808749092286852,0.0148520617199432,0.0038834999875837,9.592114028203648,0.0236069196058701,0.0024127822940799,0.1472996497044867,6.350477663577936,3.78718423661808,3.9697555779613265,1098.2764142478957,1084.9582300513212,1094.1284199815702,1111.1556681426136,-6.67412300612909,-105.52002613425488,425.67499371358326,-799.2330770075117,155.6176721799852
45.975,0.4200344849346309,0.6699725190791763,-0.1910836599544822,-0.0074106749039998,-0.007267863632105,0.0239798445851013,-0.0069460250249458,-0.0034769505311906,-0.62457187530633,0.7809272844650293,0.0132733684292731,0.000673150264091,9.573603587474317,0.0236851745190467,0.0023333576673454,0.14673604534681,6.350493426251015,3.787143303969704,3.970120345233384,1098.394958693615,1084.8031895860931,1095.1765090930232,1109.168126093058,82.98711932146306,-41.6737836824647,394.020782759384,-857.2107623886561,155.62087804825046
45.9775,0.4481065649463623,0.696658989374054,-0.1816193278614747,-0.0052462849265652,-0.0045459377673434,0.0233867583911504,-0.0069539386324252,-0.0034257745456135,-0.6245071451875092,0.780978734033056,0.0118213830316805,-0.0023279289031863,9.555311142364673,0.0237702711032309,0.0022489833171373,0.1461238935323347,6.3505073343778,3.7870997506022417,3.97048440475792,1098.6913498445026,1084.7498611329092,1096.0985238953651,1106.8696143306743,109.71375749853748,-7.564328262101976,253.3390627644235,-819.6957224210917,155.62460873264516
45.98,0.4397210745866825,0.6812286534768504,-0.1731531383910402,-0.0032502059012577,-0.0030392966543125,0.0232476375869672,-0.0069687874411427,-0.0033983903304144,-0.6244509594779095,0.7810230419197244,0.0107208745826173,-0.0050179672225112,9.53726332919804,0.0238637901851219,0.0021627275605972,0.1454628370534362,6.350521531900043,3.7870508755693777,3.970848638014548,1098.943527481108,1084.7653679447826,1096.443204406846,1105.0696474809506,75.54529344711909,16.46141224208872,38.954476998449614,-688.1842465785329,155.62762525801642
45.9825,0.3908601180139911,0.65813102673314,-0.1719215751729961,-0.0016587630047507,-0.0019992317250835,0.0233122066942801,-0.0069903022068739,-0.0033933081596568,-0.6244098832188953,0.7810549712341953,0.0099400353795784,-0.0073786901825419,9.519490077126163,0.0239624382391342,0.0020756940670778,0.1447528997585498,6.350537755543834,3.786996847366296,3.9712132017199457,1099.0690763117384,1084.8321681941195,1096.2932962803577,1103.4286930977798,3.5779700132057566,46.455414819225965,-164.56616085730687,-680.4797607451569,155.63055178333389
45.985,0.2929377134180221,0.6507441525010542,-0.1800142401764758,-0.000390846026051,-0.0010649541514367,0.0231276097324762,-0.0070154451316362,-0.0034022640027436,-0.6243872462658885,0.7810719602632243,0.0093153164139843,-0.0094339078521363,9.502022156448211,0.0240607427171059,0.0019875590787786,0.1439944474773448,6.350556075020933,3.786939483794992,3.971577731837716,1098.961417331174,1084.9976450188783,1095.6203736025602,1101.667248677228,-92.61433158794524,78.58155445642822,-304.57189458259444,-610.1445652872433,155.6339667578212
45.9875,0.1899974625254514,0.6734519669570954,-0.1903875194681329,0.000191388152623,-0.0003977076428334,0.022529839792645,-0.0070396744458502,-0.0034150702295266,-0.6243838242434153,0.7810735543539395,0.0086394665046151,-0.0112101057418488,9.484889434724831,0.0241530640405016,0.0018973898202025,0.1431882433675149,6.350576281809865,3.786880846461084,3.971941350260296,1098.6060046537984,1085.225075966402,1094.770436807444,1100.377970271342,-203.48215437037243,108.61418919984216,-366.60303290072426,-478.5485327455088,155.63673733233867
45.99,0.0803940071585901,0.7262160732914766,-0.1984172343403152,0.0004224944492431,0.0004740224685514,0.0217406145881579,-0.0070591724080554,-0.0034290202500684,-0.6243911963444759,0.7810666577770816,0.0078257697801263,-0.0126598652396384,9.468118128344386,0.0242365489338422,0.0018046756946959,0.1423352119327457,6.350598060646246,3.786821203492351,3.972302545511474,1097.9440065593217,1085.540715964878,1093.7873584380557,1099.2745060134991,-317.2093826207103,134.6539120124677,-393.83081683812975,-410.39399509050816,155.63943660260873
45.9925,-0.0236422360949145,0.7932053588777723,-0.2028235317053042,0.0004582483806079,0.001795728432994,0.0210408373166408,-0.0070669167655549,-0.0034404826595642,-0.6244017265563273,0.781057651436063,0.0067373384916065,-0.0137012021874884,9.451732798261924,0.0243086809417521,0.0017095091428931,0.141436924745091,6.350620874279715,3.7867610738260526,3.9726595348969935,1097.0199577406963,1085.8983455264636,1092.801282723255,1098.3260002958912,-431.4964977276136,139.44310141545378,-378.41117588934907,-341.15288277461434,155.6420819974173
45.995,-0.108441476831095,0.8548611529834541,-0.2049012492495699,0.0003261776562711,0.0039309328035868,0.0205548009591289,-0.0070603769963193,-0.0034450315339773,-0.6244100697577089,0.7810511318333336,0.0052796686059596,-0.0143295874951532,9.43575280904294,0.0243687852031484,0.0016112022004598,0.1404952199903107,6.3506438988077445,3.7867019991269126,3.973012547097436,1095.7865240706856,1086.2379314719547,1091.8953025586106,1097.5687415996276,-606.8868148471744,122.03254348990536,-371.257445587654,-287.3836242661022,155.64466899333183
45.9975,-0.1717357233504378,0.8915355577129557,-0.2092317410881167,-5.2746464960494e-06,0.0074560175184689,0.0201925522707599,-0.007039157617023,-0.0034422722553989,-0.6244089790763048,0.781053268071726,0.003442142663529,-0.0145272105421493,9.420191896656778,0.0244186078412811,0.0015095763774894,0.1395118243399691,6.350666258249508,3.786645418616037,3.9733631607136735,1093.985523666459,1086.5085082439136,1090.9449954953159,1096.88908217456,-703.3146047128452,57.693621835612745,-326.8165348901368,-210.16395189965968,155.6477145954001
46.0,-0.1798434787453279,0.8755086908843837,-0.2163372977584368,-0.0004431915160376,0.0107491005919644,0.0199926904584522,-0.0070024899308745,-0.0034299915254997,-0.6243968481086924,0.7810658180854823,0.0011827467525744,-0.0142934949748911,9.405059359800166,0.0244602304690831,0.0014050029932479,0.1384885420263914,6.350687024907708,3.786592532506616,3.973712386119572,1092.2699510471195,1086.5263995811329,1090.2612198841591,1096.5179218401288,-712.9975428863992,-56.87923474711796,-258.6278698017473,-108.3363643854303,155.6502099586912
46.0025,-0.1261705828986982,0.8096878046960572,-0.2252334938889491,-0.0010688828017456,0.0134450316657526,0.0197710617208937,-0.0069519173180718,-0.0034077706231464,-0.6243809067954182,0.7810835076651917,-0.0014867223366354,-0.0136417864500376,9.390358203438797,0.0244968109480063,0.0012986344699791,0.1374271051150429,6.350705935807086,3.786542573542538,3.9740599014936926,1090.42053595203,1086.2241120701783,1089.6518561463083,1096.3474003526335,-822.297252322585,-224.8453674358857,-264.22618703713977,-32.608545997192465,155.65266818637562
46.005,0.0246217454790508,0.6910135608082635,-0.2294207701408867,-0.0019776084325581,0.0155175481175871,0.0193343806238459,-0.0068883058383994,-0.0033740945784247,-0.6243633843146068,0.7811050967105455,-0.0045805734315773,-0.0125932394897591,9.376086310756614,0.0245309328865933,0.0011916228919148,0.136329513367303,6.35072251151264,3.7864952238213543,3.974405058474975,1088.1584647855043,1085.4021727439529,1088.9400889489727,1096.3548791101427,-822.9783151965303,-383.7687733574368,-268.76323363567167,31.94238116692034,155.65558257673558
46.0075,0.2270210298151033,0.576428491123737,-0.2178328524256225,-0.0026949162391794,0.0166225189319807,0.0187526830691513,-0.0068203665965553,-0.0033303944482374,-0.6243458852474046,0.7811297109156091,-0.0079787332081789,-0.0112534429924381,9.362232855041656,0.0245663739289951,0.0010840997712725,0.135197729651868,6.350737047351657,3.786449464012725,3.974747400980696,1086.3056443760452,1084.30526820339,1088.3080399781293,1096.507112258468,-723.8882031671654,-520.7369249875417,-273.87717528279046,79.2338086637112,155.65798654531503
46.01,0.5013248064926736,0.4621663371417316,-0.1779650949669815,-0.0029084683184179,0.0176363721807182,0.0179451739178876,-0.0067573102825581,-0.0032914972271931,-0.624335587001265,0.7811517950441051,-0.0113586381248644,-0.0095814694665266,9.348779900920857,0.0246085672221408,0.0009787017078402,0.134033496238541,6.3507510043485595,3.786402897254393,3.9750857459004494,1084.539023769672,1082.7984881190175,1087.57070307256,1096.7510481534607,-750.6049114593022,-739.9967269445676,-362.1226687027468,108.45668224273048,155.6603700358905
46.0125,0.8828380789948584,0.3381263274113109,-0.0868445090298414,-0.0016697264604709,0.0186200895604989,0.0169361527732066,-0.0067030973226342,-0.0032689801626878,-0.6243378071172555,0.7811670317920258,-0.0145063363577125,-0.0075030985403241,9.33570661885187,0.024659969079012,0.0008783400422308,0.1328390719222556,6.35076625300398,3.7863540357822054,3.975419381900839,1082.5526198187467,1080.6052845686654,1086.4974266346146,1097.049395669682,-701.7717589372344,-847.4164866889837,-433.6006629660516,92.61116665179352,155.66321166345864
46.015,1.209890490302412,0.2525127146198306,0.0268470222777502,0.0010729670925141,0.0190780926566497,0.0164473934950592,-0.0066574863280817,-0.0032614343755139,-0.6243521025223924,0.7811752833562164,-0.0174443745294952,-0.005040427597492,9.322990216915482,0.0247184843147295,0.0007841640100903,0.1316173893144629,6.350783218885342,3.7863026664862094,3.9757493397294,1081.030164974984,1078.5614056855704,1085.4026997577287,1097.21410398672,-573.7763814671996,-831.0959183191981,-489.37075068437423,26.809678543556227,155.6655673714371
46.0175,1.5026615201310956,0.1902810859385604,0.1740654955777555,0.005282786572086,0.0191504252853436,0.0166932330438387,-0.0066167499490505,-0.0032679189747449,-0.6243690550670192,0.7811828289270739,-0.020225067793939,-0.0021655906217121,9.310604719662221,0.0247808288542935,0.000697633993209,0.1303713178729176,6.350800653000562,3.7862491616483513,3.976075527327701,1079.6837379114136,1076.4498049770732,1084.0505728811947,1097.1834440623995,-501.2397083987872,-831.3038123295267,-590.656214098515,-58.5457432477752,155.6679133817665
46.02,1.741572156481694,0.1468968867973699,0.3420805685300145,0.0101221445082578,0.0189978823581212,0.0173320481475236,-0.0065775876371721,-0.0032860904129939,-0.6243794249086374,0.7811947679390848,-0.0229093025190005,0.0011225133890419,9.29852089826178,0.0248431164391805,0.000620062906931,0.129103500621073,6.35081717298395,3.7861940545264536,3.976397660073189,1078.5239664329888,1074.4048866239207,1082.4494186872344,1096.9213752704811,-407.8092933867271,-776.1719514213504,-707.2977853314588,-171.38489431095294,155.67025330654687
46.0225,1.89925269439851,0.1179936710707288,0.5268184642818413,0.0148951515499676,0.0187973483981494,0.0181824089538498,-0.006538857445831,-0.0033144725083609,-0.6243819955416636,0.7812083761425603,-0.0255115667399544,0.0048012992363944,9.286706845557427,0.0249018412598928,0.0005530976269334,0.1278160862215958,6.350832662490633,3.786136873331956,3.976715777062683,1077.644691444479,1072.5689452199645,1080.5140839545359,1096.3265195908443,-310.56852922703047,-736.4327925698365,-931.5995313726778,-341.86290920819545,155.6725882371868
46.025,1.9865675821098367,0.0791239662404015,0.7552402759617085,0.0202347268199988,0.0188962315714771,0.0194999335967073,-0.006502536439652,-0.0033506452656951,-0.6243704944519538,0.7812232495528095,-0.0280169504166832,0.008787519474854,9.275129559083416,0.0249539108261045,0.0004973027958695,0.1265106384812876,6.350846600941099,3.786077445691976,3.977030471342053,1076.971123786855,1070.7227226610748,1077.7914210303754,1095.2120607244417,-180.15037227068993,-609.3486456398816,-1060.264279765946,-469.2572296800664,155.67538753990635
46.0275,1.9700227730999396,0.0232719371142939,0.9375725422732174,0.0246483656399795,0.0193530971260785,0.0210780053281524,-0.006468530041957,-0.0033870332831449,-0.6243417845852263,0.7812382328115481,-0.030501788597113,0.012965962380569,9.263758736732333,0.0249952099873362,0.0004527266000514,0.125188376317691,6.3508589077583695,3.7860167869750367,3.9773416036444704,1076.7439395831248,1069.5222019917635,1075.2127625557034,1093.980233442443,-26.15395810360977,-409.97652435882566,-1080.210387765003,-539.1735794237745,155.6777205079368
46.03,1.8512456714439305,-0.0792799002260616,1.0882802861973668,0.029379295693207,0.0199513138719861,0.0234993554975622,-0.0064344121937462,-0.0034203810068308,-0.624303518359912,0.7812522163457399,-0.032999952056881,0.0173044334894264,9.252567557478732,0.0250226213845994,0.0004204625912571,0.123849754033819,6.350870509995718,3.7859560070872766,3.9776484737475895,1076.8403539963367,1068.6728400392797,1072.3903690915477,1092.5161928273214,101.67387994615788,-301.27854914403656,-1268.036004655885,-670.3843058265833,155.68005665131875
46.0325,1.5782971166145872,-0.2717444119134673,1.201250340567352,0.0353138484289557,0.0205305190147399,0.027564421083053,-0.0064015580567045,-0.003450279174724,-0.6242613236300478,0.781265718657534,-0.0354548087322914,0.0217464388517702,9.241532964129703,0.0250347378345926,0.0004004889391086,0.1224942306691167,6.350882330467372,3.785895550433128,3.9779508779381616,1077.2523089828553,1068.0158092460447,1068.8725825324295,1090.6283119133132,184.91685743737975,-190.7039510196616,-1283.4096837477118,-691.7479610286235,155.68286722492155
46.035,1.2403998824790878,-0.4902363490458211,1.2205056554639937,0.040049885098135,0.0206809121910582,0.0316532950490044,-0.0063722101367051,-0.0034748881478516,-0.624218265682008,0.7812796847688958,-0.037816131865287,0.0262050903694548,9.230638787404857,0.0250305132894062,0.0003915915068656,0.1211203889320942,6.350895429683477,3.785835842160447,3.978249644314823,1077.7649382835243,1067.7193202841809,1065.9733206728058,1089.0574530221763,221.05688970693848,-82.05651145672513,-1115.2886935599079,-604.0101614491598,155.68521800835242
46.0375,0.8038237115146882,-0.7533036198721264,1.155626884285565,0.0435913132416839,0.0201675964480501,0.0355302902102812,-0.0063435730879824,-0.0034985459426658,-0.624179761838369,0.7812918712222388,-0.0399993918627199,0.0307373303866931,9.21987781004186,0.0250097422011957,0.0003940745518443,0.1197257332426944,6.350911038037918,3.785776600938504,3.9785460221216224,1078.3575934313903,1067.6055266887608,1063.2961390646271,1087.6082611060658,260.149036203493,-29.1782425586727,-1082.9114198587677,-592.6680507713105,155.68758096800758
46.04,0.210110331024963,-1.0810090396676764,0.9962963800842835,0.0454717818604257,0.0183240930881147,0.038595291458717,-0.0063143261314445,-0.0035243472856526,-0.6241486205924369,0.7813011220473379,-0.041919950073644,0.035363711041549,9.209252046206087,0.0249726037318492,0.0004073261278736,0.11830685010145,6.350928544499528,3.7857177862606206,3.9788407293769374,1079.0656834645404,1067.5734290713876,1060.558763573517,1086.0941127683227,248.08535304715443,-10.505871366735018,-896.1210926334351,-515.7840718068745,155.69043438544955
46.0425,-0.3001412896826328,-1.3237343457184536,0.814253291197562,0.044949246393947,0.0154358415657175,0.0396817354788935,-0.0062883927783965,-0.0035488971058651,-0.6241227567565676,0.7813094586864584,-0.0435269557244854,0.0399541217439397,9.198773325461856,0.024919257797531,0.000428564457536,0.1168597219849856,6.3509468900669965,3.785659461344576,3.979134413303437,1079.5980201966267,1067.5529973319271,1058.815533601458,1085.02934074703,190.469696114308,-23.814146650999287,-559.3026791436254,-394.7191842259399,155.6928299203996
46.045,-0.7766971002521463,-1.4818999662341017,0.5939472372256592,0.0427120838128555,0.0109874583691799,0.040359620851088,-0.006271951695048,-0.0035781807223685,-0.6240985302073963,0.7813196019448462,-0.0446110267084396,0.0444541113356831,9.188462249355174,0.0248523038027692,0.0004562224183321,0.115379540534251,6.350966525193456,3.785600324681405,3.9794278533650744,1080.0180319451126,1067.4543583381324,1057.7622501777971,1084.120516847192,142.43653731800117,-61.02016212959008,-294.2066668183035,-350.8406327625842,155.69524718370292
46.0475,-1.1964444355843,-1.5366526865251835,0.338442324435265,0.0394230626949019,0.0055755032739915,0.0415796721869071,-0.0062707123746912,-0.0036129138359605,-0.6240709747482593,0.7813350939875932,-0.045048275636807,0.0487554411778561,9.178349906767853,0.0247737440175022,0.0004884547101234,0.113861825612225,6.350987151655217,3.7855399747595655,3.979720794776662,1080.3102028832163,1067.2478965212795,1057.3445002673675,1083.2751375832188,77.67733836604413,-111.47697088562136,-7.956464590547987,-339.58059829465947,155.69768499729392
46.05,-1.5270448491825255,-1.4483481029044836,0.0297933748949502,0.0351846765843529,-3.3407774062215205e-05,0.0434500250424187,-0.0062843113598757,-0.0036475774514671,-0.6240364461724596,0.7813583680832251,-0.0448795598611053,0.0527655645055299,9.16847772580161,0.0246842631189535,0.0005243059073531,0.1123031266640801,6.351007169397397,3.785479991832624,3.9800122742562047,1080.406418636943,1066.896973483704,1057.7224678548444,1082.4226138557178,-13.296161528062404,-181.2709993615936,344.14661781971193,-391.0106707873456,155.70015066316768
46.0525,-1.8127526571541528,-1.1912464671098835,-0.3991671929393657,0.0297324298302192,-0.0058226613260975,0.0453131907514637,-0.0063086762597155,-0.0036814259029734,-0.6239925944283565,0.7813908023475055,-0.0441268984247059,0.0564990697864044,9.158893295992128,0.0245856800077401,0.000564810917858,0.1107009501348254,6.351025551494385,3.7854210689361776,3.98030190905422,1080.243722075576,1066.341541524471,1059.0652333564672,1081.320084229281,-111.88860701837427,-215.57281101496807,624.7629333339089,-419.00563330088426,155.7031456274656
46.055,-1.9630458469793288,-0.8875531737552764,-0.7790804296530717,0.0252202524129258,-0.0090331586928109,0.0452916685117054,-0.0063401686642421,-0.0037121719535474,-0.623935979796454,0.7814346853433046,-0.0428382888842488,0.0599450147818753,9.14964769589618,0.0244803300539715,0.0006110420284318,0.1090542355463957,6.351042236254826,3.785363468282041,3.9805890496709457,1079.8469756018517,1065.8191094286303,1060.8462825215113,1080.3275856892153,-215.9018576510479,-205.87062180525743,816.6258610089395,-403.3980081641888,155.70567445147933
46.0575,-2.0325067666046275,-0.5540858241085762,-1.1231156902549235,0.0208625525279011,-0.0099320452977394,0.0423592292303861,-0.0063730405990736,-0.0037367744664109,-0.6238704808033761,0.7814865562510168,-0.0411067435480761,0.0631133228557046,9.140792871684964,0.0243706698084271,0.0006649643030795,0.1073636711763518,6.3510581327955755,3.78530712508698,3.98087204107658,1079.1642127873215,1065.3121884154457,1063.148362661508,1079.303094188462,-363.1185607935965,-202.8117514964705,1078.470079602169,-439.4930068969214,155.70824096218433
46.06,-2.0302328051042555,-0.1915235828070621,-1.4187261763874497,0.0155215192173085,-0.0090514601535828,0.0360133356223272,-0.006398381725043,-0.0037494974408795,-0.6237998437224991,0.7815431940858623,-0.0391110492653455,0.0660266364239423,9.132378935096563,0.0242586511097552,0.0007286998302186,0.105631907368211,6.351072186419314,3.785253403634168,3.9811491567866657,1078.0313827978828,1064.8050506711475,1066.238632919525,1078.1301206547296,-460.02475198510297,-160.7954164597773,1140.196371622195,-406.3518622399637,155.7113680792016
46.0625,-1.956834250361156,0.043790817704914,-1.532487923712203,0.0107191667276934,-0.0077657632710812,0.0299938238420176,-0.0064069458235042,-0.0037460171714616,-0.6237272192354598,0.7816019292959582,-0.0370252725529034,0.0687269534021363,9.124449858374893,0.0241465131824978,0.000804388688282,0.1038631929773174,6.35108377549364,3.7852029559575806,3.9814189103046975,1076.864089027395,1064.5082113331464,1068.849344519622,1077.271334877261,-498.1263241129437,-89.87131181815118,992.51937156768,-306.0016975937342,155.71401564256223
46.065,-1.8058675154328232,0.1936017163833175,-1.5069825531007703,0.0057469791858331,-0.0065509679049222,0.0248902509122785,-0.0064037849182985,-0.0037343521205881,-0.6236584526337579,0.7816578134159349,-0.0346969087813842,0.0711923188788186,9.11703598438371,0.0240399399976612,0.0008932009847688,0.1020622052332949,6.351094668108062,3.785152899500764,3.9816813521479784,1075.5407511773203,1064.355694112057,1071.2012297773588,1076.6001121667623,-594.2858363815646,-40.72201455130843,914.4590713198209,-245.77464347240647,155.7167081840457
46.0675,-1.5366803568566771,0.2811164183325107,-1.3551711765831267,0.0002602498069588,-0.0051462104592416,0.0204017100299022,-0.0063899431876262,-0.0037179085570652,-0.623597775464201,0.7817073020404285,-0.0320974992367874,0.0734051491618606,9.110157677790454,0.0239425183970043,0.0009956896542563,0.1002348086961581,6.351105975936975,3.785101441851984,3.981936156666444,1073.8926598454857,1064.3046012603895,1073.4216398762235,1076.0424616598984,-594.5123246061172,-7.996518038540217,682.8525228063571,-164.68592183992527,155.71999213518964
46.07,-1.247702899262162,0.2925947388565335,-1.1692371347950528,-0.0036793945002895,-0.0041851581296898,0.0179025466638666,-0.0063666648378039,-0.0036985104269929,-0.6235527699630548,0.7817442407996767,-0.0292308113121236,0.0753285148910107,9.103822352092827,0.0238568638824277,0.0011117418316971,0.0983873446915541,6.351118791493879,3.785048828374648,3.982183022733524,1072.5681895542882,1064.3157115218644,1074.6154923913923,1075.7766825575623,-497.3533774819292,-2.813884017271279,326.39488403990646,-72.64768979750681,155.72277273650596
46.0725,-0.911708642008744,0.2658549946343477,-0.9691143935319868,-0.006763425864344,-0.0035947519789841,0.016439658132876,-0.0063387551412497,-0.0036788231705125,-0.6235273883275886,0.7817653820000687,-0.0260591410352871,0.0768857878537122,9.098022406004024,0.0237856475553953,0.0012400405885864,0.0965259457837416,6.351133728080404,3.784995429998452,3.9824222330762873,1071.4058929580783,1064.2905318403034,1075.0536142964215,1075.6792232109112,-425.517065515906,-30.968702876982732,56.480985069009165,-19.760814793415996,155.72559793085597
46.075,-0.5588630620900455,0.227961949466642,-0.7830406915379142,-0.008749408472698,-0.003436226553344,0.015738253840098,-0.0063091084517073,-0.0036595830916736,-0.6235179161471756,0.7817736458846462,-0.0226037086564016,0.0780072238596892,9.092736478904861,0.0237307340934813,0.0013785466691437,0.0946563264438482,6.351150932048768,3.7849410516706654,3.9826555881049663,1070.4406042267076,1064.1608680074792,1074.8978973167375,1075.6778784835951,-331.1632674570899,-92.57826392526832,-179.53469808803584,10.272423077043843,155.72845862106135
46.0775,-0.2178770825429469,0.197423977449587,-0.626327175809435,-0.0091764542648045,-0.0037691174802556,0.015437718587158,-0.0062796011950895,-0.0036344329466622,-0.623520688544102,0.7817719758772019,-0.0190069871345235,0.0785608720377821,9.087930942097657,0.0236927781286305,0.0015244720103302,0.0927836350864916,6.351169989488559,3.784886427030636,3.9828837986999415,1069.750076620792,1063.8276405206768,1074.155940805981,1075.7305853262965,-240.16285623351007,-206.0536690193258,-415.3144876794752,19.290823914179132,155.73135946243588
46.08,0.1393742931545478,0.1832127542956612,-0.4614418689684554,-0.0085037345148291,-0.0042116563878887,0.0144972242662195,-0.0062509305410501,-0.003600018972686,-0.6235296098339764,0.7817652689728969,-0.0153896777750035,0.0784697527570769,9.083559070981485,0.023672920733927,0.0016756041793156,0.090911918497172,6.3511897728867535,3.7848327649449,3.983107180789359,1069.2397899455411,1063.1305996623837,1072.821324878342,1075.774332603166,-139.086735907287,-306.1279109327896,-527.7485756046673,1.8339219896906511,155.73488235708933
46.0825,0.3736705262104891,0.1885016110075794,-0.3223611933132949,-0.0072037223401087,-0.0041532381093961,0.0128717831061835,-0.0062252111897323,-0.0035549868195295,-0.6235380819866116,0.781758819697912,-0.0118345910857872,0.0776646370064393,9.079562294330742,0.0236728984996955,0.0018300339719677,0.0890440443657045,6.351208789100705,3.7847802867067175,3.983326464050736,1069.0546429412552,1062.297000966012,1071.5171979279562,1075.7397549362447,-34.385151211773206,-376.3049889012457,-525.1404399246027,-38.55726490353692,155.73784889253324
46.085,0.5294637643015061,0.1996441737502074,-0.1580225199216417,-0.0052509695357294,-0.0034330781927571,0.0106923678603735,-0.0062062372774295,-0.003498698221502,-0.6235394475737543,0.7817579663243587,-0.0084007261359059,0.0760667617884783,9.075872306889439,0.0236947012311409,0.0019859783399536,0.0871817911685125,6.351226209664881,3.784728737078736,3.983542663852536,1069.067864189482,1061.2490747178765,1070.1956226787177,1075.581546278648,36.4640756673784,-488.3441156048669,-555.8322260824351,-103.86431433485436,155.74084150891747
46.0875,0.6274164328851012,0.2045944004827481,0.0715807056058611,-0.0027836317402284,-0.0022006284574172,0.0088050946252861,-0.0061938723562972,-0.0034398464886104,-0.6235321310700775,0.7817639913443672,-0.0050632538405273,0.0737671673703797,9.072412414716087,0.0237408662536716,0.002143579006586,0.0853258211463025,6.351241873898098,3.784677414176541,3.983756178758647,1069.236963319592,1059.85528038799,1068.7380367975463,1075.2204333645711,75.5985086907526,-513.7361772618633,-500.362603127604,-160.68567626508377,155.74445474018424
46.09,0.6468132418461164,0.1963047767422902,0.2703797081551286,-0.0010081491554611,-0.0012532930919332,0.0088315628699404,-0.0061904162509924,-0.0033877380907387,-0.6235168279800867,0.7817763629988183,-0.0017633020320741,0.0708380936609833,9.069100535589433,0.0238137540888553,0.0023025326095281,0.0834761009296339,6.3512547542944,3.7846263118872985,3.9839663108581354,1069.445856732936,1058.6803938315659,1067.6938096630784,1074.7781178973223,84.08763787001836,-448.7971617003018,-377.65352539903466,-201.3655040124256,155.74747746238424
46.0925,0.6234636234827966,0.1772409045748534,0.4383018483408945,0.0003640737696339,-0.0005943684661616,0.0106983238724539,-0.0061995449238693,-0.0033499308276839,-0.6234949881616381,0.7817939252368558,0.0015486972894539,0.0673222005517685,9.065852333756968,0.023914948380678,0.0024615430862248,0.081632248653866,6.351265565456119,3.784576461735952,3.984171611913128,1069.6574015089423,1057.611294579487,1066.8497691705504,1074.2136058445085,79.77573439164169,-422.0678950170368,-331.90235224045125,-266.86512646353265,155.75050331583907
46.095,0.5724842824045607,0.1515911603056405,0.5659610534067779,0.0016012771519045,-0.0001510777601765,0.0139452645242857,-0.0062237275389225,-0.0033321058144428,-0.623469259602978,0.7818144776585939,0.004884316359845,0.0632690714924912,9.062584230866978,0.0240447831553506,0.0026183423201378,0.0797936799490571,6.351277163733328,3.784526270245701,3.984370832645612,1069.844735404894,1056.5700543564826,1066.0342979018776,1073.4437922650059,48.90119128515152,-328.30795026644887,-277.26006226275246,-289.0807024680611,155.75412622981426
46.0975,0.5263302652588616,0.1363484184435122,0.6006185371785223,0.0023041248885194,-1.2850404628672964e-05,0.016494151628486,-0.0062604330421669,-0.0033320630492675,-0.623443546750359,0.7818348874794647,0.0080917163217426,0.0587221522430361,9.059218169478925,0.0242011671587801,0.0027694454010242,0.077959852270644,6.351291680561686,3.784474757024068,3.984564858783626,1069.901907465368,1055.9697548281542,1065.463468859236,1072.7682023321674,-5.684809521377977,-175.32345202403246,-222.1782320377088,-266.7932367583034,155.75712916115674
46.1,0.4862993142606116,0.1356003133101388,0.5710049548902311,0.0028204649997638,-1.8071341196204936e-05,0.0183154767038563,-0.0063048552875757,-0.0033406636967725,-0.6234229330420151,0.7818511434647237,0.0109025564157125,0.0536915412489502,9.055683208965426,0.024380213176458,0.0029101038570152,0.0761300420193775,6.351309390255558,3.7844228418016232,3.984755083576476,1069.816311357287,1055.693437096362,1064.9234067416885,1072.1098260812137,-61.59548838692135,-55.7249708226261,-221.9854778839108,-253.54648305429103,155.7601034231539
46.1025,0.4506275666532981,0.1496963339253357,0.50615922569171,0.0034852613957136,-6.578125985060662e-05,0.0194940191104251,-0.0063519935951901,-0.0033575135834004,-0.623409096627261,0.7818619243222062,0.013180064481612,0.0483005552896495,9.051913584635743,0.0245785569653545,0.003035654011261,0.0743026477577947,6.3513306388666,3.784371135684404,3.984941463225612,1069.5939300234338,1055.6911299740411,1064.3535414698174,1071.5004699168971,-123.48225770891126,58.49210911666624,-243.29626034247045,-225.912731071251,155.76304514438067
46.105,0.4107821863589538,0.179690231800874,0.423070445538048,0.0044613765750314,-6.943855900126076e-05,0.0200694179540428,-0.0064004051867733,-0.0033831146750968,-0.6234040179977883,0.7818656453477694,0.0148522756292663,0.0426444204040019,9.047851424113901,0.0247927382876703,0.0031409603529793,0.0724755117726083,6.351356418687672,3.784318878853132,3.9851239907025433,1069.1989000687422,1055.9858976419455,1063.7069254399755,1070.9802624258568,-212.134277800015,180.85111302552676,-304.129473016409,-204.08496818621205,155.7659375659622
46.1075,0.3415653539817735,0.2238330347140074,0.3267339789549073,0.005779157977696,0.0001090402731692,0.0203709334287039,-0.006443561413462,-0.0034092949724156,-0.6234090682716619,0.7818612904691132,0.015681089709543,0.0368032989187849,9.043452916782421,0.0250174310968398,0.0032210585725874,0.070646665820002,6.351386469012044,3.7842658429957545,3.9853022479309463,1068.5332586344332,1056.5953855391695,1062.8328941047344,1070.4800450759656,-271.79810807471927,249.45580053922592,-332.66205309272,-161.72756349411583,155.76933919045547
46.11,0.2550165811184858,0.254800279515035,0.2588570254739582,0.0069693201187091,0.0005110058168288,0.020517553325404,-0.0064751078428238,-0.0034303712003948,-0.623425273837236,0.7818481144841118,0.0154815411676227,0.0308921370497373,9.038685798385345,0.0252474168674125,0.0032721699633512,0.0688137997064951,6.351418954558761,3.7842126913348215,3.9854753456760914,1067.8399095283698,1057.2331766446405,1062.0436151745134,1070.1716246083868,-296.39579968569086,261.83529749460166,-319.9077677221067,-101.0253501963172,155.77210767998207
46.1125,0.1310087368202791,0.2605609629922828,0.2052152712854923,0.0083432044437353,0.001278013361499,0.0207701032371104,-0.0064943548200423,-0.0034433895659583,-0.6234534531347882,0.781825486383909,0.0141884540755888,0.024983442843819,9.033528698597209,0.0254781166672813,0.0032915771675237,0.0669740893876575,6.351452170826037,3.784159316025253,3.9856436877130776,1067.051279636004,1057.9045620266431,1061.2333552661232,1069.9749183249835,-351.1750795413285,283.5676421861904,-351.9738518814865,-61.93898333559915,155.77479794173382
46.115,-0.0551025588756722,0.2160380911065459,0.1499372561584247,0.009487103397094,0.0026381465756888,0.0213516129719943,-0.0065053427292087,-0.0034471764036523,-0.6234905832027037,0.7817957944933576,0.0118330006625465,0.0191061577387516,9.027972305431522,0.0257053454217933,0.0032776776662889,0.0651242164146974,6.3514847217495145,3.784105442173048,3.985808283668803,1066.0840341306623,1058.651014855572,1060.283745915105,1069.8619296917088,-342.0976558936601,253.83496473282673,-340.1959494300083,-22.72823431910431,155.777925494988
46.1175,-0.2242438133198006,0.1247858462186011,0.1044593026175964,0.0091737837443189,0.0039928861075766,0.0220880200015358,-0.0065089345561347,-0.0034443282088786,-0.6235283814536045,0.7817656316668155,0.0084818724753591,0.0133765837021064,9.02202208706588,0.0259247812111221,0.003230856149275,0.0632605300339323,6.351515078670976,3.7840504407706215,3.985969142194599,1065.3407913565372,1059.173736850306,1059.5323755189747,1069.8612771533883,-265.8844172560438,182.0543591354017,-291.2100915591429,14.916373981818573,155.78044075638067
46.12,-0.3804322797460895,-0.0236690830334909,0.0554380227695341,0.0074243764264722,0.0050702043965634,0.0229279018600993,-0.0065086769176111,-0.0034347880218066,-0.6235576869024609,0.781742284136079,0.0042130773670746,0.0078418095542967,9.01569796702356,0.0261317200351959,0.0031523801063893,0.0613792940546322,6.3515424401028735,3.783993506369768,3.986126206660784,1064.7546120443833,1059.5612866512483,1058.8276954573107,1069.9365115616179,-207.46367198092528,137.2708385999183,-302.1736821721606,42.10636827767877,155.78285363737817
46.1225,-0.531522661080938,-0.2492192461621922,-0.0009245823601683,0.00478579646207,0.0053138043289727,0.0235488722319142,-0.006511912758191,-0.0034200896516577,-0.6235701308919276,0.781732367154539,-0.0008116426041197,0.0025098551187076,9.009032972109276,0.0263215907916086,0.0030443872894106,0.059476604094178,6.351566696332572,3.7839340848808014,3.986279978077005,1064.303472996632,1059.860091043306,1058.0215071081132,1070.0718089947768,-120.2558154944039,82.37579573306324,-292.73440322084326,48.75985043351881,155.78562224626324
46.125,-0.6265134745971602,-0.4526123936373036,-0.0331756000694817,0.0028598616171734,0.0045428649956478,0.0233540402615892,-0.006517671809545,-0.0034074963571002,-0.6235626803115935,0.7817382775330894,-0.0064245778217595,-0.0024345227655399,9.002076232367427,0.0264894944879954,0.0029111442337181,0.0575487168917319,6.351589247118314,3.7838715156685137,3.9864307351479153,1064.1533329669107,1059.9731656299139,1057.3640234412055,1070.1803108137856,-17.836773160313747,17.918070815101522,-264.5848601368603,32.17514058204158,155.78781795426787
46.1275,-0.7026236007508307,-0.6386995593153403,-0.032489825003195,0.0014664496153944,0.002936384518947,0.0225325555515868,-0.0065210575966915,-0.0033978961965729,-0.623534978061413,0.7817603393521156,-0.0125743040854738,-0.0068310037240385,8.99489243308619,0.0266297466130929,0.0027570619989667,0.0555927082878183,6.351611037612063,3.7838064837886334,3.9865773650569376,1064.2142891308304,1059.9496813973815,1056.69858280743,1070.2326846976869,51.40167718920664,-32.34989716182263,-269.52701164350253,5.818861397935257,155.7898915944007
46.13,-0.7757754151873917,-0.7868124772426429,0.0035323817124643,0.0003887904093831,0.0007204390868382,0.0216377372332255,-0.0065158081185192,-0.0033912657642738,-0.6234913031749799,0.7817951955737804,-0.019220890072009,-0.0105198015270147,8.987558476427559,0.0267369204218153,0.0025867596375751,0.0536063300130161,6.351631727996867,3.783740605982699,3.986718342136707,1064.4103413528571,1059.8114161441047,1056.0163883829875,1070.2094051207753,99.07263574963896,-85.57665718904158,-275.4466640973488,-29.71567836223884,155.7918596197248
46.1325,-0.8541572968639897,-0.8667698476085984,0.0799586451031276,-0.0006460129508896,-0.0019539899549135,0.0210897184443235,-0.0064963031933898,-0.0033971387006279,-0.6234394783557194,0.781836608883806,-0.0261686194149797,-0.0132544830090221,8.980159992288742,0.0268070415654626,0.0024053649946996,0.0515874937125433,6.351652403111182,3.783673543529439,3.9868538131220097,1064.709652309579,1059.521798111436,1055.3213494869426,1070.0841063058756,140.9682520114902,-168.88376138892352,-299.56209870347226,-73.69164867484294,155.79369541637072
46.135,-0.9497976137937436,-0.8670842541878782,0.2011527950113671,-0.002322809571447,-0.0050630200914479,0.0211399994719781,-0.0064640077370952,-0.0034198131750115,-0.6233829092681454,0.7818818247597212,-0.0332064363432269,-0.014960914671134,8.97278890988007,0.0268368700648704,0.0022163996325343,0.0495346784037333,6.351674300716986,3.7836036545493856,3.986984887239231,1065.115182612914,1058.9669973371608,1054.5185778894715,1069.8409468774012,148.1588472680111,-243.99019005423972,-276.70382935284067,-95.80691273781312,155.7957397598657
46.1375,-1.01579124983848,-0.7837949489784036,0.3075308471315422,-0.0043475050231007,-0.0073759002987011,0.021863822090376,-0.0064174889786634,-0.0034574248437346,-0.6233251112308342,0.7819280567048273,-0.0402353862561009,-0.015606453131705,8.965544089593296,0.0268234763857422,0.002023021864379,0.0474472777569843,6.351697332571168,3.7835310900478185,3.9871120827729536,1065.4504465459195,1058.3018471611642,1053.9378303401777,1069.6050717421863,127.7719325783238,-313.94589346839285,-194.09784636908697,-87.38376262563254,155.79730740042888
46.14,-1.0407427697577567,-0.6162183251812403,0.3953726485070225,-0.0070863866996903,-0.0095705045915638,0.0232412252198214,-0.0063544848442629,-0.0035072848290801,-0.6232728305121985,0.7819699584735111,-0.047173551797119,-0.0151689535187193,8.95852750279793,0.0267652568520621,0.0018285701420691,0.0453254340559953,6.3517208734186985,3.7834571064195086,3.9872354216313086,1065.754042275806,1057.397267869818,1053.5480886576256,1069.404028064273,124.26707841739176,-453.7684530858803,-103.35820745349643,-65.22000875608248,155.79872985246988
46.1425,-0.9919398398872676,-0.3296846901967772,0.45837529979658,-0.0110726520936764,-0.0116367859324113,0.0253323850285848,-0.0062824257910198,-0.00356329461808,-0.6232292502526426,0.7820049634161172,-0.053880295950788,-0.0138139925471618,8.951838707372966,0.0266627200648376,0.0016353693523552,0.0431700209155038,6.351744083827368,3.783382364991644,3.9873547647530514,1066.0717819380059,1056.033004895737,1053.4210393029107,1069.278971698406,108.84308403023059,-540.6259899845699,23.14091521683348,-18.95245661697967,155.80026510217098
46.145,-0.8710543260986503,-0.0363474333667047,0.4690555890566992,-0.0145162816109458,-0.0125485720165662,0.0270979119682254,-0.0062138172499451,-0.0036208637862402,-0.6231925653832988,0.7820344405521441,-0.0601437721842024,-0.0117743872965568,8.945573862091537,0.0265186644684764,0.0014454500128357,0.040982746985559,6.35176608299272,3.7833087871326665,3.987468541506424,1066.298257695957,1054.6941379198938,1053.6637932337098,1069.309265781188,81.69986446814985,-562.1192686460142,173.46715230533158,43.30695153337332,155.80139929703444
