t,ang_acc_x,ang_acc_y,ang_acc_z,a_vel_x,a_vel_y,a_vel_z,quat_x,quat_y,quat_z,quat_w,acc_x,acc_y,acc_z,l_vel_x,l_vel_y,l_vel_z,pos_x,pos_y,pos_z,mot_1,mot_2,mot_3,mot_4,dmot_1,dmot_2,dmot_3,dmot_4,vbat
39.0825,-1.3603151245521399,-0.976675114060736,-1.5346237136493928,-0.0187659828758468,0.0430257964248183,-0.0127158577697313,0.0033119031141961,0.0004236197737353,0.0210664054743354,0.9997721850073212,-0.0049955584103608,-0.0065479473035705,9.852995236014786,-0.0302781149630669,-0.0240207877203637,0.0005759746190831,-0.3463336827751932,-3.810434238953816,2.0134438953226526,1120.4613031412619,1133.6717939790376,1115.3658795028048,1138.1644511547595,-347.2454426082592,-241.72477448243083,471.4799265995087,-250.76281680690855,151.3118275430272
39.085,-0.9871045979378013,-0.9927225056053016,-1.2574391595117311,-0.0221023463109273,0.0388436756010058,-0.0165672540172921,0.0032737940662138,0.0004781908538922,0.0210435447389584,0.999772753069832,-0.003891265196056,-0.0051593027219374,9.848988607711169,-0.0305069311997314,-0.0241549314694373,0.000666876960624,-0.3464089123044366,-3.8104890660512174,2.013448114470488,1119.7090034224354,1132.873174685119,1116.9343212206345,1137.270198310866,-200.63675426281463,-328.9490671539433,644.9859954248905,-387.0449294690271,151.31418650688306
39.0875,-0.6471221378483336,-0.9325023506021876,-0.9695688958411381,-0.0236678663785668,0.0356543151979243,-0.0187939125868669,0.003235207651584,0.0005355447513515,0.0210266186854216,0.9997731832406314,-0.0024504167935412,-0.0036219764439734,9.84491085726984,-0.0307099636859171,-0.0242884656898763,0.0007360071151701,-0.346487149816214,-3.810544589377397,2.013451664497925,1119.4581193699487,1132.0270486432692,1118.5908094799263,1136.2292265074163,-29.84622234697164,-356.6067049317548,681.3847053722081,-449.664700445007,151.31599060506252
39.09,-0.307658586951078,-0.8076086271535178,-0.6582209716221603,-0.0241416217809119,0.0331063410742328,-0.0201159046494292,0.0031906293764413,0.0006010639377973,0.0210108183345917,0.9997735925988402,-0.0008736859925009,-0.0020656492079527,9.840825246210816,-0.0308809054946171,-0.0244198684783719,0.0007842892689799,-0.3465692878959784,-3.8106025245441697,2.013454841769371,1119.5597723107005,1131.090141160459,1120.3412447474973,1135.0218748086395,104.77341226923367,-413.8887475228032,726.1228018288342,-532.6026941385866,151.31762432919487
39.0925,0.0747215546606699,-0.6109798169072889,-0.2874776400550487,-0.0238760205842474,0.0309162552411842,-0.0209055371462454,0.0031366181564781,0.0006771348546541,0.0209857577744924,0.9997742122453102,0.0006872076656021,-0.000584761529,9.836791757356083,-0.0310140978554125,-0.0245468545401605,0.0008132235964956,-0.3466567658840338,-3.810664933483325,2.0134583282605334,1119.9819864312951,1129.9576049056543,1122.2214234890723,1133.566213036722,183.11415190563196,-405.9541272827627,609.9499353535612,-507.8657444823492,151.31938642178892
39.095,0.3627126477311797,-0.4328998103964727,0.0047032021745329,-0.0232056633195781,0.0297927895218834,-0.0210722065705185,0.0030763217364267,0.0007653302949703,0.0209434982672425,0.9997752017859458,0.002092403577255,0.0008515720434819,9.832865154651913,-0.0311055901055741,-0.0246663121386502,0.0008249652731587,-0.346749867614302,-3.8107325259971834,2.013462353361477,1120.4753430702278,1129.0603705240471,1123.3909944242623,1132.4825460862303,196.92425864858637,-338.67727900002086,347.5244032529231,-378.2924216069088,151.32068949454393
39.0975,0.612769413492587,-0.2693763451453419,0.267967764681372,-0.0222127190207885,0.0292306523667188,-0.0208253026597059,0.0030186119264664,0.0008582521798124,0.0208876111093461,0.9997764614275664,0.0033786633914007,0.0023797388240665,9.829094607236705,-0.0311543494607962,-0.0247743536614981,0.0008228254449576,-0.3468449917746182,-3.8108038213580144,2.0134662210479806,1120.9666077245383,1128.264218510653,1123.9590455053378,1131.6747509286863,182.4309927731496,-313.13411125695336,90.56372293825831,-267.22641615556284,151.32182199986767
39.1,0.8616679392099432,-0.1198067304007003,0.5380728409341174,-0.020450052892514,0.0290268260538895,-0.019994116829351,0.0029743437315347,0.0009476623529763,0.0208233080980057,0.999777854084961,0.0046031492872025,0.0041708626324943,9.825522092617154,-0.0311623366226846,-0.0248675248854393,0.0008105951672054,-0.3469386783133334,-3.810876910616381,2.0134687241404308,1121.387498034094,1127.4946999677616,1123.8438130389538,1131.1464140054516,108.66090044351829,-238.2177013558596,-170.8532284162364,-109.3791994345878,151.32298566983908
39.1025,1.0175197123275652,-0.0520132683212539,0.7131724963930864,-0.0182940935161911,0.0291953672210228,-0.018731763935418,0.0029492455268313,0.0010268924757425,0.0207568271325958,0.9997792395787508,0.0057983577577804,0.0062931660237609,9.822182088923505,-0.031134549063983,-0.0249432542503835,0.000791910608699,-0.3470291876516075,-3.810950708597383,2.0134696482712737,1121.5099122267557,1127.0731300038751,1123.1047793632574,1131.127854931514,-4.5661097737114975,-104.67800932623607,-400.772240708488,83.39878770343884,151.3237939514446
39.105,1.1060628738175176,-0.0591364656204953,0.818125913609115,-0.0153621247474631,0.0296091606876527,-0.0167350490311703,0.0029478901128016,0.0010871483817772,0.0206976653119703,0.9997804182188385,0.0070511793603092,0.0087903242533642,9.819101693839526,-0.0310787829208183,-0.0249999084164115,0.0007704592391783,-0.3471140139458011,-3.8110247225586695,2.013469186323236,1121.3646674852255,1126.9713099211303,1121.8399518354104,1131.5634079439692,-93.96638199918664,25.630032482272856,-557.2695763052584,243.77126754239984,151.32443615264737
39.1075,1.1300634369850215,-0.1346714601024246,0.8505517371407119,-0.0119463551822616,0.0300180395895847,-0.014152247947217,0.0029694486334741,0.0011237384602377,0.0206499286351908,0.9997813155473751,0.0083827549791734,0.0116018853240152,9.816300648553455,-0.0310045301049053,-0.0250374300987752,0.0007491584194048,-0.3471916482715602,-3.811098851739404,2.0134677327885746,1121.0400803167595,1127.2012801662863,1120.3184314817297,1132.3467112692267,-150.0833995063659,181.76998584270385,-616.8992259773103,379.1023179168216,151.32494166577123
39.11,1.0741676130835969,-0.2915200953788619,0.7838197989490763,-0.0085032284515576,0.0301578796678982,-0.0111410879425346,0.0030077077126997,0.0011356082556752,0.0206199286639765,0.9997818269351546,0.0097605383158454,0.0145660672416051,9.813792214545748,-0.0309223988052584,-0.0250568945441673,0.0007300125690448,-0.3472620773424272,-3.811171343238057,2.013465957519238,1120.6142504876943,1127.880159850343,1118.7554557055266,1133.4589195335516,-174.63713278111916,398.41369795369775,-627.8171091538724,528.2676903243581,151.32528350603087
39.1125,0.9273445710761677,-0.5597781391000541,0.5907151222888067,-0.004915135359998,0.0296778861714167,-0.007513387070061,0.0030555583251928,0.0011240122505144,0.0206160601012617,0.9997818041401154,0.0111276976486368,0.0175091894757366,9.811584046495865,-0.0308430212563015,-0.02506039867237,0.000714333179398,-0.3473254454261399,-3.811240259822125,2.0134638001202254,1120.1668946528534,1129.193348656056,1117.1793459359587,1134.9880497208499,-129.45499528011823,545.81369946822,-485.8250874979847,558.9467523968193,151.3255058600352
39.115,0.7576224409562494,-0.8310164403884415,0.3539131992141139,-0.0024690816350269,0.0284850459119223,-0.0049757910804853,0.003102548527048,0.0010983183579277,0.0206331136944278,0.9997813696946232,0.0122878184506496,0.020200609814722,9.8096790824758,-0.0307752147175762,-0.0250516810390378,0.0007022234756192,-0.347384924498344,-3.811305514310957,2.0134615366695847,1119.9669755112934,1130.6092283476855,1116.3263302680355,1136.253653295537,-25.634785743591816,592.2234751274048,-215.24024302913423,463.16413894684337,151.32553551505976
39.1175,0.5698729718987309,-1.1205496102486583,0.0831563378675653,-0.0006663128838785,0.0262219548664319,-0.0037025127084172,0.0031431836870163,0.0010641669756692,0.0206589467890966,0.999780776896024,0.0131391418239164,0.0225124703406444,9.808077064183273,-0.0307254964816496,-0.0250352010967068,0.0006936973582618,-0.3474437368726082,-3.811368910271396,2.0134591431743933,1120.0387207241356,1132.1544660316904,1116.103144720814,1137.303870415582,97.54102934584584,647.0847388798549,48.84803371960411,376.19248145476934,151.32540466144104
39.12,0.3665028129515902,-1.447575767731263,-0.2064966867185167,-1.227378513521118e-05,0.022247393846033,-0.0042306617893847,0.00317544770754,0.0010245546797379,0.020682432723076,0.9997802539101062,0.0136503963537994,0.0243921966028774,9.806775562025686,-0.0306981290780019,-0.0250152604558866,0.0006885135702424,-0.3475041004888017,-3.811432001638804,2.013456400868961,1120.454680658022,1133.8446520420819,1116.5705704366333,1138.1346157028092,197.12045041968767,545.6369075895901,270.7316090677047,220.72191664781332,151.32506371391912
39.1225,0.2441603856122946,-1.673939508366339,-0.3606732965917804,-0.00056502193888,0.0180341053275739,-0.0063988081232371,0.0031988324863635,0.0009823063953709,0.0206967218957144,0.9997799394939229,0.01380854446507,0.0258251541621325,9.80577096843212,-0.0306953336775035,-0.0249956257665525,0.0006858947518971,-0.3475665222473674,-3.8114949555543425,2.0134538343079824,1121.0243229762343,1134.8826505696395,1117.4568027661533,1138.4074799988216,249.85243939791823,293.91536498818334,405.37206406677063,25.66796723780095,151.3246280919468
39.125,0.1895473689526281,-1.8241777094556688,-0.3705249205482595,-0.0011614652580103,0.0130230469183496,-0.0097834128568222,0.0032109247778253,0.0009408879101511,0.0206964670807353,0.999779950591562,0.0135979049188748,0.0267676255005678,9.805059702538621,-0.030717417440432,-0.0249796474071418,0.0006843052021893,-0.3476313192546435,-3.811557494048952,2.013452353594725,1121.7039428550124,1135.3142288670235,1118.597430756968,1138.2629555389983,267.01195126540097,54.179192955829585,448.33645420071514,-112.88976476422512,151.32403806009373
39.1275,0.1900967602270182,-1.8983872657075311,-0.2448808248677073,-0.0014864851132646,0.0076280474789033,-0.0131854423408496,0.0032098076308438,0.0009045255363974,0.0206805229709061,0.99978031712541,0.0129952932214928,0.0271935161941224,9.804638658802205,-0.0307632610159948,-0.024970040001932,0.0006816781732087,-0.3476995788947865,-3.8116196760483767,2.0134536395027687,1122.3593827325603,1135.1535465344186,1119.6984850371548,1137.8430311750008,228.64956087757616,-207.05221148999365,370.4378304679191,-208.27034446322872,151.3233226508795
39.13,0.2416787244430601,-1.878755731206584,0.0244999596013806,-0.0013555530015504,0.0023973673393397,-0.0152727128713495,0.0031978106149769,0.0008746569798492,0.0206548348503386,0.9997809095293402,0.0120377856812184,0.0271657366420673,9.804505461986007,-0.0308308851277837,-0.0249686153816941,0.0006761180756691,-0.3477703172907006,-3.811680629446144,2.013458433424794,1122.847190659401,1134.278967809573,1120.4496199093087,1137.2216038166816,147.8757778756215,-525.7631133016314,189.54187804478656,-281.6916902891913,151.32245994698175
39.1325,0.3319425948365051,-1.7600611824731636,0.4459273400317461,-0.0003526721437727,-0.0033096663081322,-0.015326069016445,0.0031791866784593,0.0008518889927825,0.0206217526262194,0.9997816673391304,0.0107797949286401,0.0267896367734512,9.80465855977532,-0.0309173465161893,-0.0249768008638348,0.0006661193745987,-0.3478435918503198,-3.811740546250976,2.0134656346907245,1123.0987616219388,1132.5247309679091,1120.6461944273792,1136.4345727235543,25.650933100201335,-730.936796296265,-67.00975520345038,-268.59197555024235,151.32126029920227
39.135,0.4068788399176583,-1.5995038933620496,0.8122215438552117,0.0012203456561915,-0.0075265182577501,-0.0132098375430105,0.0031582213914515,0.0008375676476776,0.0205885761878405,0.9997824282548669,0.0092591967159642,0.0261758219760096,9.80509694279967,-0.0310195337189322,-0.0249949431674774,0.0006508025489373,-0.3479190002900431,-3.8118005052639536,2.0134734084202206,1122.9754453249016,1130.624283828095,1120.1145711332915,1135.8786439389316,-117.8817948643279,-808.8395801034447,-350.53853277109084,-176.41972103156215,151.3201284981134
39.1375,0.4603038365672704,-1.4008211606099539,1.1154358606669743,0.0031478362278292,-0.0109513174888548,-0.009364290145669,0.0031420902848007,0.0008291750582145,0.0205655596289718,0.9997829621550364,0.0075865443089952,0.0254928264077053,9.80581962296292,-0.0311343602839505,-0.0250223329298967,0.0006305647821623,-0.3479942104637326,-3.81186120039638,2.013479546263928,1122.5093526476169,1128.4805330673898,1118.8935017635229,1135.552474118396,-267.84843513942116,-949.5002787282973,-650.7212758865844,-77.31599969056924,151.31886610111357
39.14,0.4916521247000859,-1.1488746523266813,1.337871012383955,0.0052304849824063,-0.0142467707154701,-0.0039697642068516,0.0031348610124438,0.0008230890973529,0.0205523741914285,0.9997832648346447,0.0058865292427894,0.0248482019042103,9.806825176971055,-0.0312582076430703,-0.025058102748418,0.0006065502397381,-0.348068988865012,-3.8119236451318033,2.013483360532827,1121.636203149204,1125.8767824344511,1116.8609647538572,1135.4920639404786,-352.8870289166688,-926.352939562254,-788.5954794822634,27.29081859036095,151.31720815547675
39.1425,0.4952093535594767,-0.946843301535034,1.3770097909121564,0.0064111103374176,-0.0164680136780665,0.0005821872132893,0.0031380596402482,0.0008142956807718,0.020542511511579,0.9997834700867604,0.0043032115839127,0.024298366354721,9.808110768587131,-0.0313871101709326,-0.0251011477192404,0.0005804354227315,-0.3481450960152822,-3.8119885307200576,2.013485542065077,1120.7449175030351,1123.8487683695828,1114.9505243661151,1135.6889282113475,-361.97843158065217,-747.7290852019264,-742.392306645372,103.68103497375311,151.31571303750297
39.145,0.4859193877421016,-0.7708520226274505,1.254587201103816,0.0067603767190815,-0.0179791830883604,0.0050039347259139,0.0031536084974766,0.0007988871274695,0.0205324865632578,0.999783649003195,0.0029522739641813,0.0239068219684485,9.809670682864093,-0.0315172725091901,-0.0251498481821933,0.0005541421470401,-0.348223872166555,-3.8120558101654898,2.013486557588956,1119.8263109912998,1122.1381370084396,1113.1490032206284,1136.0104691153476,-374.8759301546116,-650.1833551473139,-702.985662164751,122.17737681765472,151.31410685241804
39.1475,0.4634827746107011,-0.6016129366554419,0.9371863339476872,0.0067704120050872,-0.0188778835112558,0.0098589246774868,0.0031801320963662,0.0007764043142506,0.0205279668911476,0.999783687926134,0.00187398543407,0.023672448675259,9.811495578013519,-0.0316456366364275,-0.0252020033253208,0.0005292853451823,-0.3483055307184744,-3.8121239003942016,2.0134866408124763,1118.8705378522611,1120.5978515938443,1111.4355960552896,1136.2998150954363,-300.85271423904567,-466.8861618170166,-523.9245449453609,52.462651037969835,151.31205873369416
39.15,0.4240911949352029,-0.4942407449120456,0.5614976193648221,0.0073175217676569,-0.0193971564512457,0.0129268725893516,0.0032127033638881,0.0007504471290607,0.0205295281189225,0.9997835831934736,0.0010212366978955,0.0235230460609177,9.81357171027596,-0.0317695491245911,-0.0252559281913844,0.0005069733697676,-0.3483907036112154,-3.812191900070663,2.0134868301844295,1118.322047420106,1119.8037061993566,1110.529380495904,1136.2727823705372,-142.4232181553815,-213.3861282723319,-241.84218402052824,-102.02276142603532,151.31025694371706
39.1525,0.3358990235272493,-0.4062609124161467,0.1292035543034913,0.0090353240691967,-0.0204798819690923,0.0141474109213869,0.0032494394813577,0.0007210898778516,0.0205377756301822,0.999783324402923,0.0004122733863005,0.0234418732428968,9.815880568967085,-0.0318874394154514,-0.0253101581520571,0.0004885679600266,-0.3484778035251576,-3.8122594971778656,2.0134877069515595,1118.1584217614839,1119.5309209524823,1110.2263851351863,1135.7897012883059,10.977205123430236,-30.37784347196331,-25.918924345738034,-281.788691402327,151.3083630778083
39.155,0.1877126251536788,-0.3173504010643217,-0.2951198226685762,0.0114483762146977,-0.0219388835351405,0.0135843213206227,0.0032886898199216,0.0006842148044994,0.0205572218335632,0.9997828239271208,0.0001442144506973,0.023412651886775,9.818398865313197,-0.0319993348320788,-0.0253631499419005,0.0004756391221558,-0.348563044285587,-3.812327377397109,2.013489000445724,1118.3769334457231,1119.6518169819967,1110.3997858741752,1134.863838913525,182.9235315219493,123.13370751678409,169.09363041597234,-471.8495643338628,151.30639770484257
39.1575,-0.037023618091142,-0.2111705088764213,-0.6433596625894119,0.0134893604358946,-0.0231055760681079,0.0111173195053392,0.0033268415609409,0.0006352474832525,0.0205870617051001,0.9997821103514632,0.0003200539783059,0.0233773822066276,9.821098087069393,-0.0321063510303908,-0.0254138612016398,0.0004697076070226,-0.34864442390244,-3.8123967301770745,2.0134905817286506,1119.0730394190928,1120.1465894900657,1111.0718532872654,1133.4304534666387,402.9942249535664,269.1524124033991,388.785489808862,-715.8469781015787,151.30435189435983
39.16,-0.3649862866647669,-0.0540233614473979,-0.905532989390188,0.0139832364022194,-0.0237086242679398,0.0065106379578329,0.0033645357893299,0.0005707395810653,0.0206221831182212,0.9997812865618502,0.0010214512395453,0.0233595489665624,9.823943593782232,-0.0322103158090247,-0.0254618081400479,0.0004725384158587,-0.3487227131168808,-3.8124675896244526,2.0134926693714648,1120.391904570492,1120.9975790440144,1112.3437133232203,1131.2846040230152,542.4867176672659,328.06368336793224,528.9548461382788,-820.457075730918,151.3018109886397
39.1625,-0.6453772702093031,0.1037645946144101,-0.9679345019032844,0.0123283849643044,-0.0236314657490037,0.0019888972249754,0.0034027243859478,0.000492892584258,0.0206592647884325,0.9997804152171216,0.0022193977439952,0.0233897841401541,9.826894534181124,-0.0323135475331647,-0.0255068883267211,0.0004857165861145,-0.3487991439179645,-3.8125392929043698,2.0134952155767047,1121.7854730074305,1121.7869079069062,1113.716627517958,1129.328168087982,585.7821676813144,305.49095705446734,596.9246802614606,-765.2079330203517,151.29962647434823
39.165,-0.8803978252958873,0.2906981310175867,-0.8726216096364497,0.0089377435391987,-0.0230957437085541,-0.0020682591978129,0.003440859086376,0.000407607903583,0.0206981540573842,0.9997794989267283,0.0038122077423589,0.0234703327521566,9.829904513006813,-0.0324185007792757,-0.0255494526353398,0.0005107362138959,-0.348874114131408,-3.8126105396203007,2.013497403950854,1123.320815408896,1122.5250338292851,1115.3283367245251,1127.4585643579169,673.900535858157,293.0083634981067,740.7240246821251,-744.5808565398065,151.29737684416042
39.1675,-1.0701342165369743,0.5510096210243023,-0.6243333807951412,0.0039999784484683,-0.0221734301165705,-0.0051001567366115,0.003477359899826,0.0003236635885062,0.0207379724619344,0.9997785600215772,0.0056417138899486,0.0235841859557497,9.832922199263368,-0.0325272578672231,-0.0255905788482124,0.0005490652583337,-0.3489477957790056,-3.812680748303346,2.0134980148519883,1125.1549756867228,1123.2519497243975,1117.4202476413707,1125.605263805281,655.0392716833644,233.36624425307372,771.2347108524829,-582.583321923332,151.29460617274344
39.17,-1.1457861333839183,0.7983487918531378,-0.3593525113960079,-1.7129341846368183e-05,-0.0211661895768309,-0.0055538272558763,0.0035112917438884,0.0002493052314173,0.0207806197090351,0.9997775639171697,0.0075606304427403,0.0237274898753709,9.835892349688578,-0.0326414385520986,-0.025631721859055,0.0006022848715673,-0.3490198589718743,-3.812748941634249,2.0134959092402864,1126.5960117673144,1123.691865050551,1119.1845102787895,1124.5456477482987,552.1608196364942,141.88333833543936,678.0528247320744,-306.65968326580395,151.29224034856233
39.1725,-1.155767623896876,1.0710896371351128,-0.0975552838496887,-0.0033357380730587,-0.019611979966364,-0.0044974447190957,0.0035381743007352,0.000193412883862,0.0208298362660976,0.9997764500879268,0.0094071221192916,0.0238277963484085,9.838757218596015,-0.0327618672896999,-0.025674534400237,0.0006714580985171,-0.34908962823227,-3.812814513928169,2.013490955553578,1127.9157797849027,1123.961366416074,1120.810511765028,1124.0719653889535,557.7958669404654,89.05049969644088,644.9137008258615,-86.72241684016737,151.28981738385147
39.175,-1.1353868833219682,1.4073148416144847,0.1637338193924772,-0.006095525514868,-0.0165891788693211,-0.0028191886947569,0.0035573385553575,0.0001631500211064,0.0208789512787885,0.9997753584769988,0.0110527215192227,0.0238867449217363,9.841457495819744,-0.0328876217243879,-0.0257213136258893,0.0007572467523751,-0.3491599136378444,-3.8128777379135905,2.0134845610260843,1129.384991102018,1124.1371175490335,1122.4090787829205,1124.1120356640977,526.0633308966627,52.414997578962826,504.5347696058945,86.25229555318718,151.28684499854603
39.1775,-1.124151200366705,1.6720501961539396,0.3219007550861557,-0.0076977447252821,-0.0127984790309979,-0.0016742819978559,0.0035681837783147,0.0001605085857052,0.0209159807517547,0.9997745420506636,0.012467931398887,0.0239053136970361,9.843934594090241,-0.0330161389658154,-0.0257743032463327,0.0008596034289484,-0.3492340268222415,-3.8129396616659457,2.0134786871102923,1130.5460964393876,1124.2234414039688,1123.3331856130587,1124.5032268667196,456.3799018129488,41.23582143451243,271.0639300088324,181.22339795962145,151.284314259189
39.18,-1.1450035173548379,1.891098818139311,0.4155823378843656,-0.0095314957203264,-0.0077673874414667,-0.0010397286951694,0.0035703715541223,0.0001832177682661,0.0209326179484058,0.9997741785938036,0.0137037836371429,0.0238881808437711,9.846132314149719,-0.0331439409653328,-0.0258348093078656,0.0009776176714979,-0.3493137517612839,-3.8130022042491647,2.01347451264452,1131.6668906110808,1124.343296656206,1123.7643984329632,1125.0181526538947,441.27903670145434,68.50660160177404,92.70633735395012,189.1843050538584,151.2817277902953
39.1825,-1.1995434603792836,2.0553918444060817,0.4564535597800161,-0.0117717774323143,-0.0021883565747457,-0.0004881165954897,0.0035624027417278,0.0002230312676099,0.0209318661639761,0.9997742109099113,0.0149245060893489,0.0238147230730031,9.847998929118445,-0.033267642113722,-0.0259025821794953,0.0011096763843369,-0.3493974341669951,-3.8130661434413065,2.0134729279423462,1132.7524916228929,1124.5659744119775,1123.796717299828,1125.449148391988,419.6990876857525,128.67629850591368,-67.0527738369058,121.24732909663344,151.27909539851484
39.185,-1.2923296864181748,2.1456701771644715,0.4291549435672702,-0.0141962886910994,0.003599346421679,0.0008517741120281,0.0035403460826244,0.0002754864215927,0.0209195862867229,0.9997745310385489,0.0162142326870503,0.023616322763912,9.849488235511023,-0.0333841919599433,-0.0259764507620682,0.0012530419295032,-0.3494837268758458,-3.8131316169478415,2.0134741979816817,1133.7653860495107,1124.986678148736,1123.4291345637787,1125.6243892993784,415.6879731495485,239.75348065756873,-220.08470985076764,8.262686902203633,151.2764084335592
39.1875,-1.4341647773778463,2.174136635882067,0.3107054212094586,-0.0173367331022251,0.0104208316136185,0.003608236593302,0.0035042656513862,0.0003387251157017,0.0208997729125522,0.9997750567674758,0.0176026393849826,0.0233012144656434,9.850560559695683,-0.0334911117506799,-0.0260547843390396,0.0014046198441175,-0.3495715003139431,-3.813198352280823,2.0134774570110454,1134.8309314886417,1125.764741815266,1122.6962937505737,1125.490461826499,354.97117702039304,326.55637278419505,-286.50141827805464,-91.7213031592307,151.27312261380436
39.19,-1.5594099831375559,2.1446341333649017,0.1475797423838542,-0.0203098158526862,0.0155912624153755,0.0058107618509634,0.0034593060207317,0.0004097006084439,0.0208806830242972,0.9997755972816796,0.0191405419903816,0.02297397657993,9.85118413601297,-0.033587075325659,-0.0261352384866714,0.0015615707361331,-0.3496584247393378,-3.8132658419141614,2.0134815915383992,1135.540241934611,1126.6194600126555,1121.9966274723895,1125.1657827835827,236.70773767527572,366.08740215246513,-259.86745111772854,-138.94441896729572,151.2703348364281
39.1925,-1.660028830116954,2.0803283906008168,-0.0486598753595716,-0.0239112773971404,0.0200980833592885,0.006308249562368,0.00340976326547,0.0004850403722605,0.0208623852735494,0.999776134159568,0.0208806280006922,0.0227176732804061,9.851336437319832,-0.0336712884401472,-0.0262157326324333,0.0017211124121952,-0.3497444446433813,-3.8133343395122066,2.0134862462068206,1136.0144701770187,1127.5951788260293,1121.3969564949844,1124.7957397316623,149.70557043281204,423.9104417253762,-201.59437521555137,-125.67529425230468,151.26749804660258
39.195,-1.706697296395606,1.9812990056564153,-0.2624473711589011,-0.0292473698885253,0.025231642814805,0.0044071885747499,0.0033595821249854,0.0005553937970246,0.0208434078720966,0.9997766865409616,0.0229897627443697,0.0226014381835256,9.851004960748798,-0.0337436752403874,-0.0262941350923488,0.0018809778397376,-0.3498297359899245,-3.8134046876023135,2.0134912636254074,1136.2887697867754,1128.7390122212835,1120.9886555963114,1124.5374063123209,52.24146537839464,389.67962222776777,-77.86225559559885,-34.529512628054846,151.26404077732428
39.1975,-1.6518153076092683,1.8862440775619704,-0.3846728451553021,-0.0345326751847623,0.0296108751370051,0.0015754613576482,0.0033118471032592,0.0006119630556595,0.0208229614948636,0.999777264232362,0.0256206822375648,0.022673145236354,9.850186917467607,-0.0338048500701437,-0.0263683095738912,0.0020389609579167,-0.3499135760799942,-3.813476718028751,2.0134963401991866,1136.2756775039104,1129.5435769371663,1121.0076452170067,1124.623092168522,-52.726208182885195,269.46636157986035,91.06120168144002,116.54197155524749,151.26111848107817
39.2,-1.4755850845826175,1.7781588068170433,-0.4313081081849909,-0.0400218286006266,0.0341315950453749,-0.0008835636188715,0.0032637284433696,0.0006547602837489,0.0208036816438086,0.9997778187321364,0.0287477105251664,0.0228634943814513,9.848889127599737,-0.0338560954519337,-0.0264361915267195,0.0021920625179006,-0.3499948724502885,-3.813550064823664,2.01350166705887,1136.0251387458609,1130.0863440291835,1121.4439616047189,1125.1201161700972,-164.05045799570664,172.13278220797582,277.50486316044214,314.3163494291668,151.25815737619973
39.2025,-1.1278923483509424,1.6325272403336892,-0.4165088785327572,-0.0454392070197264,0.0394161276060201,-0.002199179958404,0.0032087439177503,0.0006899109312524,0.0207851330434269,0.9997783734190714,0.0322208451565015,0.0230296057027137,9.847127817110513,-0.0338987154719882,-0.0264964422604371,0.0023367609957554,-0.3500744049019163,-3.8136245356951144,2.013508002100997,1135.4554252139314,1130.4042408482067,1122.3951695328096,1126.1946739156688,-255.86140754999712,69.61664774923484,399.6850793462724,461.43312223786,151.25456407136429
39.205,-0.7498733910771613,1.5008719927700522,-0.3680742025952845,-0.0483434322178266,0.0432777500078961,-0.0024359947790916,0.0031456804200762,0.0007245446517042,0.0207692018507002,0.9997788864801836,0.0358701890726232,0.0231295094487132,9.844927594262542,-0.0339339806922958,-0.0265482068413494,0.0024698786325607,-0.3501530448279972,-3.8136987217068543,2.01351596135044,1134.745831708112,1130.434427267929,1123.4423870014484,1127.4272817812844,-338.1443775953447,-15.957646814232268,438.6730024364199,539.3761773040266,151.2515400388863
39.2075,-0.3270902780737673,1.3659587213950564,-0.3038609184639206,-0.0494537989542055,0.0463808824720636,-0.0025587081019746,0.0030770009671067,0.0007639433945979,0.0207614675785026,0.999779229800885,0.0395611976632789,0.0231902178740963,9.842320898966216,-0.0339629558821366,-0.0265910595318239,0.0025888309682399,-0.3502307744903988,-3.813771595833461,2.0135258728210044,1133.7647033259539,1130.3244526141355,1124.5885345449929,1128.8915548021903,-441.8490122454854,-50.389654303600445,448.29011804504063,604.1569372902906,151.24848986610863
39.21,0.0942031710999728,1.2330373762843658,-0.2341189723770731,-0.0492036880098886,0.0489185710534947,-0.0027176533468184,0.0030063042318579,0.0008104824905699,0.0207626293533732,0.9997793762028166,0.0432136051770933,0.0232577827944735,9.839347147070905,-0.0339858765087485,-0.0266254700775531,0.002691767341541,-0.3503085120976081,-3.813842882484296,2.0135367337096888,1132.5365866468835,1130.1824789964112,1125.6838375916748,1130.4480664677376,-552.1572108654274,-50.91704577003012,395.7081688520663,622.5068373048293,151.24542158987788
39.2125,0.4723886969813636,1.101627381947008,-0.1578803406220629,-0.0475613033838061,0.0510639716006091,-0.0029233916175764,0.0029380476221558,0.0008641479374659,0.0207705796612459,0.9997793574736804,0.0467904234004796,0.0233929169042854,9.836051406075576,-0.0340021712136303,-0.0266524366083853,0.0027776782889159,-0.3503866900190827,-3.813912490429052,2.013547347905996,1131.0039172716292,1130.0698673852855,1126.5670753892512,1132.0040889887116,-736.4175310819389,-39.2112092137067,305.19377374955934,660.8925872557195,151.24233599056592
39.215,0.8381731632504831,0.9328559046160396,-0.0521620792708378,-0.0444777696885863,0.0537040410256092,-0.003469916643017,0.0028770942126082,0.0009228114693488,0.0207870667496794,0.9997791247432344,0.0502918068295172,0.0236627860049913,9.832483008995142,-0.0340108008358712,-0.0266727687385019,0.0028463576004538,-0.350463844002573,-3.813980221491928,2.013556407066767,1128.854498991472,1129.9864229503423,1127.2098064604231,1133.7525294040179,-824.9026453901806,-28.25046296896663,144.5229309223748,607.2289546213673,151.23861931793863
39.2175,1.0553321356676744,0.7676302102244147,0.053092102959064,-0.0415430869096246,0.056199115946589,-0.0042204080753146,0.0028228983022904,0.0009855163700042,0.0208065278360939,0.9997787937180156,0.0536869580916925,0.0240285516252849,9.828694681514932,-0.0340096221592578,-0.0266876171853011,0.0028976981362222,-0.3505406786487608,-3.814047490922469,2.0135634765709303,1126.8794040446762,1129.9286150704406,1127.2896900438636,1135.04023376182,-802.3205850859562,-32.967197187402206,-83.21162278005725,463.7306152252347,151.23551508151422
39.22,1.178695499447118,0.5604751182387798,0.1745569955454152,-0.0385449076715227,0.0588017277559689,-0.0048690831717245,0.0027721054421414,0.001053972663174,0.0208203488659323,0.9997785512624984,0.0568855794378031,0.0243977693038036,9.824741036571224,-0.0339955628335159,-0.0266980071598255,0.0029314530140251,-0.3506198199019218,-3.81411579311336,2.0135693673942234,1124.8428960660456,1129.8215869644057,1126.7937483465234,1136.071182480142,-877.7184302223361,-70.54687315427174,-364.79974089497296,373.13493502923853,151.2324092199538
39.2225,1.2257102458464204,0.2599495635185398,0.3197805985589495,-0.0348120119740083,0.061034357765345,-0.0046178404802924,0.0027220107454844,0.0011310794040949,0.0208216912149294,0.999778546136018,0.059768575439379,0.0246920063772897,9.820677062788334,-0.0339650465157613,-0.0267045104055136,0.0029472771549695,-0.3507033148978569,-3.814185776100578,2.0135754562891313,1122.4908118935623,1129.575880704669,1125.4656913393878,1136.9059084369671,-827.0380428968425,-112.62897372961255,-608.6642372253733,222.9471166993104,151.22868677914596
39.225,1.1899907950759667,-0.022741119498384,0.4170043651134862,-0.0318811138367029,0.0615532863394536,-0.0033790613858054,0.002670347308811,0.0012125909921287,0.0208107834459308,0.9997787851099296,0.0623523314641438,0.0248391767324067,9.816556844005962,-0.0339147239154247,-0.0267070500344406,0.0029451881981074,-0.3507908913181448,-3.814257296805843,2.0135831949562695,1120.7077058515595,1129.2584420957571,1123.750427160395,1137.185918063639,-660.0392670789097,-144.44801099875295,-795.9974123142237,10.162221055825432,151.225593169375
39.2275,1.08980406049815,-0.3165965561172912,0.4615864171551794,-0.0292876649427778,0.0609414962977561,-0.0015981643661418,0.0026151658565824,0.0012937373421156,0.0207898313859969,0.9997792365394916,0.0646593005039581,0.0247741128400754,9.812432362852004,-0.0338418887964867,-0.0267054497100607,0.0029252458614765,-0.350882202541989,-3.8143295266040407,2.0135934868935066,1119.1906155581707,1128.853640649676,1121.4857042778203,1136.9567195422462,-595.1428627739144,-180.51414406695443,-1082.3054402313949,-226.017326981785,151.22251364909903
39.23,0.909556605160682,-0.655731512114013,0.4332399809804395,-0.0264351297719141,0.0594901179515967,0.0007481144550259,0.0025601679296657,0.0013704254368349,0.0207627265425833,0.99977982007555,0.0666981406140939,0.0245439071127347,9.808351855718897,-0.0337450855655296,-0.0266995642155882,0.0028880583932769,-0.3509752410904066,-3.8144017546535616,2.013605572140455,1117.7319915376884,1128.355871375422,1118.3388999592353,1136.0558314287296,-469.0406142712492,-167.42579013035157,-1182.7498480494655,-429.8636896289356,151.21884055676907
39.2325,0.7188994576745598,-0.9093203218588776,0.3373571602868112,-0.0242738025661921,0.057579118942702,0.0027353057153461,0.0025119162510568,0.0014338273350623,0.0207377037610509,0.999780360858659,0.0685708211620866,0.0242509599844126,9.804358855114105,-0.0336246400514495,-0.0266891586135832,0.0028352954766929,-0.3510665647544345,-3.814472981756005,2.0136179208945544,1116.8454124868133,1128.0165116990236,1115.57195503757,1134.8074010941004,-279.1215981986435,-99.99589298631689,-1078.604588588522,-582.8768666888053,151.2158025724933
39.235,0.4990536662693114,-1.1126476721447198,0.177831740658877,-0.0226505513543873,0.0546511684615997,0.0045024255545365,0.0024738759003381,0.0014835597683681,0.0207174799887582,0.9997807906663084,0.0702135136656551,0.0239423934577483,9.80049208926508,-0.0334822487655674,-0.0266745465814953,0.0027686493562765,-0.3511545030287325,-3.814543113230585,2.0136291399901247,1116.3363835466964,1127.8558919104908,1112.9458770162976,1133.141447095288,-134.15522190132336,-23.327633535643034,-984.9289490333794,-710.932510602652,151.21279343782936
39.2375,0.266945315526858,-1.262539570485098,-0.0121201490710694,-0.0217108037114559,0.0511403922515908,0.0056419695707755,0.0024474630666384,0.0015202429220414,0.0207054559561155,0.9997810340898614,0.0715457510716139,0.0236278320325062,9.796784362885647,-0.0333209346997654,-0.0266560297840193,0.0026903427274297,-0.3512376186689464,-3.81461172174204,2.013638053965036,1116.1746363773063,1127.8998735313455,1110.6473102924003,1131.2527385410851,26.90759095265536,72.49426926865382,-799.5833314053472,-771.511487989088,151.20981194211987
39.24,0.0358457335115148,-1.3426593296924667,-0.1962185847507307,-0.0216114812069476,0.0474233186840493,0.0052304839069,0.0024286929080156,0.0015490765399977,0.0207056815558801,0.999781011417638,0.0724012662841081,0.0232157200542647,9.793262341218977,-0.0331444767626877,-0.0266337484573183,0.002602480602942,-0.3513149518176203,-3.81467870513601,2.0136439939479716,1116.4709215014595,1128.2183632568344,1108.9479603592688,1129.2838896553408,239.58406960427016,198.86185599452696,-577.0404520348866,-833.7379936723516,151.20686830855814
39.2425,-0.2225947284182255,-1.3636072386100535,-0.3493096503315091,-0.0223923991624597,0.0432737924682782,0.0028006516329858,0.0024087057141843,0.0015780126900641,0.0207130248442107,0.9997808410749016,0.0725655781150515,0.022524207677721,9.789946043115043,-0.0329561452789383,-0.0266081460282452,0.0025068585252657,-0.3513888058893607,-3.8147456983272345,2.0136480645998165,1117.3725567253266,1128.8941828113173,1107.7621080322288,1127.0840485727272,415.5815095834128,285.86390939452565,-286.4809461055179,-745.4286767076568,151.2033859049626
39.245,-0.41396894673382,-1.3281703986244455,-0.3865871558016477,-0.0237729732373376,0.0404591748852875,-0.0001249083647906,0.0023791833055751,0.0016125904997765,0.0207180687870382,0.999780735459192,0.071881243476154,0.0213853921787756,9.786847976804019,-0.0327583430887183,-0.0265795400942823,0.002405290122241,-0.3514632731186045,-3.8148149794978496,2.013652312670147,1118.5488290493747,1129.6476828038055,1107.5155556287425,1125.5567462718059,540.9894637374653,322.6917369299085,42.07534759414224,-516.3527173347206,151.2005303570446
39.2475,-0.5795490384457734,-1.2480280488111934,-0.3186091938713179,-0.0256354475575538,0.0379710289138226,-0.0028731494591623,0.0023326808484326,0.0016616930056777,0.0207137532098125,0.9997808493993576,0.0701370495416226,0.0196541430360044,9.783973442999942,-0.0325528512134984,-0.0265478768936465,0.0022991492917948,-0.3515411914031906,-3.814888172635332,2.0136571867620847,1120.0775040440153,1130.5076414959676,1107.9724847701996,1124.5022849860525,724.3904989466432,380.2053878578009,325.4176446368701,-337.01439214706664,151.1977291725364
39.25,-0.7610135787996628,-1.101877748452727,-0.1434486861229672,-0.0277927786772949,0.0345587364703349,-0.0046607750797024,0.0022698037567725,0.0017229014482188,0.0207035095482491,0.9997811057935938,0.0673591140090469,0.0173426266491316,9.78131986964443,-0.0323415491055393,-0.0265126114427249,0.0021907686625782,-0.3516222301005732,-3.8149637901820745,2.013662365188912,1122.17078154411,1131.5487097430955,1109.1426438519277,1123.8716743110697,786.761383727741,368.00945897327256,493.63864479236656,-128.1769783370948,151.19443823488223
39.2525,-0.9131073436068576,-0.9359353253545658,0.0399794846198456,-0.0292254498162547,0.0315331512300009,-0.0043192950024292,0.0021907718814722,0.0017967618887883,0.0206917535776942,0.9997814029467627,0.063528985413238,0.0144625547000646,9.778879001972792,-0.0321265318568276,-0.0264738359812684,0.0020821481590342,-0.3517047727747648,-3.8150404983032824,2.013666706239312,1124.0113109626504,1132.3476887908323,1110.4406779941592,1123.8614000943676,729.3641670001667,290.58986991980106,534.3832246671803,79.90433323698657,151.1917604382664
39.255,-1.0813028257629682,-0.7263555149977822,0.2102794204725194,-0.0304204526046562,0.0288179650058314,-0.0027445852085139,0.0020958217661265,0.0018826135773808,0.0206792633452177,0.9997817208014707,0.0586665604422045,0.0110327016645846,9.776637843418916,-0.0319102887865837,-0.0264328530868326,0.0019752385461174,-0.3517875571735052,-3.8151170319801953,2.013669606228724,1125.8176023791127,1133.0016590926955,1111.8145599752647,1124.2711959772548,762.2595200165699,242.3991896933,567.5861455693217,232.31357149867955,151.18915722678315
39.2575,-1.3010619770749865,-0.4408566382143154,0.3573054094568997,-0.0325737953742054,0.0263406669470012,-0.0007028424138045,0.0019913760324659,0.0019731181872841,0.0206687022809319,0.9997819974118431,0.0529409688096458,0.0071979534025497,9.774579670571763,-0.0316962090723931,-0.0263918734839219,0.0018724867787185,-0.3518696352991956,-3.8151918630508974,2.0136712014848097,1127.8226085627352,1133.5596847392994,1113.2786087220072,1125.0229679518616,695.6127646433703,162.0260784768216,477.4234212536407,282.8098728895682,151.1861287509982
39.26,-1.4827513074566294,-0.1966739059256326,0.4172657090977461,-0.0356616416988971,0.0253156116289234,0.0008611087128797,0.001883035449967,0.0020656132638214,0.0206599921664744,0.9997822223453686,0.0464467389745332,0.003097859496368,9.772686514475105,-0.0314884390311406,-0.0263542254697164,0.0017755647699307,-0.3519509053902765,-3.815264486928631,2.0136713223525047,1129.2956662023264,1133.8117894850789,1114.2016770815308,1125.6852453417011,538.7913148691013,56.05157528213428,291.87754645830483,237.71753636507697,151.18369100026987
39.2625,-1.6328336613141596,0.0201210211707039,0.4086136588776815,-0.040039908244729,0.0256856912437558,0.002371959284607,0.0017756115063976,0.0021565802260798,0.0206567985904086,0.9997823165306416,0.039313017174864,-0.0011347404324411,9.770940793538102,-0.0312921561814308,-0.0263236792685183,0.0016855375509828,-0.3520306004949622,-3.815335025674516,2.013670231992937,1130.516565137082,1133.8399426157102,1114.7379964542995,1126.2115556336876,442.1495237673765,-22.273792658359046,153.35894113142217,174.96142969171305,151.1813489583817
39.265,-1.7363078599093829,0.1902975237984002,0.3477853120208573,-0.04490815665041,0.0270061360053614,0.003846441774861,0.0016723622019248,0.0022383603861192,0.0206651621204731,0.9997821665225036,0.0317677025241567,-0.0053897742235947,9.769327325262038,-0.0311133550966024,-0.0263042196994776,0.0016028606802283,-0.3521077980181315,-3.8154023409968953,2.013669000654028,1131.5064138211644,1133.700420521787,1114.9684717871885,1126.5600524901604,336.0908549730412,-87.87996238687617,37.73110177793363,99.53564375232376,151.17908989854183
39.2675,-1.7700644363404299,0.2877119875345511,0.2379994547525919,-0.0496103304171662,0.0288437515472457,0.0049968420351576,0.0015746298625041,0.002304333605257,0.0206821747782056,0.9997818463324952,0.0240358872838327,-0.0095855290956683,9.76783503763579,-0.0309580356301349,-0.0263003499317134,0.0015269849882735,-0.3521836560686714,-3.8154659431560938,2.013669142032716,1132.1970194119458,1133.4005428037763,1114.9266519631888,1126.7092338524487,229.49700554083475,-155.93310305613366,-42.271533672443375,43.93944092878453,151.1769337980548
39.27,-1.7254919985072452,0.3221599263838069,0.0772931597343426,-0.0546154384992631,0.0309755873178258,0.0053313522655002,0.0014826038901081,0.002351965364598,0.0207026652592122,0.9997814729842962,0.0162801065742928,-0.013654247547322,9.766458147837648,-0.0308323250024228,-0.026316163727958,0.0014563383005388,-0.3522582383788446,-3.815526799239039,2.013671389686701,1132.6538988488692,1132.920755006506,1114.757114118826,1126.7797496948044,102.08745241256344,-187.703756446212,-48.31628728918333,34.474655120475845,151.17446737505304
39.2725,-1.6176482384727022,0.2995147403991855,-0.0581362654921289,-0.0584015533411847,0.0323099223702163,0.0047512698235323,0.0013975904791532,0.0023830582557069,0.0207294264852544,0.9997809885128468,0.0085947323410937,-0.017499351205513,9.765197022157537,-0.0307428028004121,-0.0263542396882993,0.0013887069953748,-0.3523289941834923,-3.8155864261841215,2.013674812078987,1132.7074566740089,1132.4620240215447,1114.6850705267427,1126.8816071280512,-48.96489719435428,-192.023098201018,24.72661232752646,82.00785877409726,151.1725127931446
39.275,-1.4346035396600136,0.25774386919096,-0.1742567854748423,-0.061893903534722,0.0327196876701632,0.0039012947804152,0.0013200226358056,0.0023985798485605,0.0207691304684432,0.9997802569410948,0.001103584169803,-0.0210384828516156,9.764059351752179,-0.0306958787512842,-0.0264156012594983,0.0013217021857614,-0.3523935199596914,-3.8156454825962407,2.013677877084475,1132.4090743628976,1131.9606395155015,1114.8807471804637,1127.1897889886743,-211.6099223635783,-237.21081594882577,182.73011600030915,208.69932990365905,151.1706612572812
39.2775,-1.122195237822332,0.2285152163440119,-0.2793948398856473,-0.0656675614793152,0.0322566183629741,0.0028449540380123,0.0012495520052272,0.0024027009123262,0.020816617090783,0.9997793746058172,-0.0061219083635688,-0.024203718291729,9.763060212898033,-0.0306962846712499,-0.0265005510402714,0.0012526278654342,-0.3524542353325951,-3.8157054436939863,2.0136804522089915,1131.6494070621904,1131.2759699418,1115.5987211067447,1127.92510377757,-341.38364758019446,-276.3154910531235,357.04886053072113,334.97701271054353,151.16855477736752
39.28,-0.7798761365260006,0.2442344512307819,-0.3361062350980805,-0.0683798411036364,0.031661668416317,0.0019252154091818,0.0011906836004555,0.0023971013693753,0.0208662649506331,0.9997784468370148,-0.012953366741625,-0.0268367069558921,9.762222705989384,-0.030746945403654,-0.026607992440062,0.0011791241915718,-0.3525128745713983,-3.8157673296001016,2.013683576430173,1130.7021561249956,1130.5790620602354,1116.6659914831182,1128.864674052228,-435.4022050426332,-321.7739320594062,522.9225688158048,430.158218338038,151.1668916779134
39.2825,-0.3508512562483576,0.310689567752847,-0.3622002826537407,-0.0704370050399399,0.0314054380350004,0.0011235483828955,0.0011466173471827,0.0023828604018523,0.0209144259228149,0.9997775432341865,-0.0192497346443328,-0.028810858130607,9.761577570532868,-0.0308486338061458,-0.0267354949322319,0.0010987705286219,-0.3525697754161185,-3.815831373957744,2.013688345841979,1129.4723960369793,1129.6671002815044,1118.2133339508216,1130.0758948692583,-592.6910561741958,-466.87569570193534,769.538686137791,561.4076638152112,151.16531938466176
39.285,0.2541488329391236,0.4377871928947589,-0.3613499887329173,-0.071385524191577,0.0318378476735784,0.0003753060430203,0.0011154113023903,0.0023642529460134,0.0209531460766506,0.999776822727874,-0.0249379821688636,-0.0301079223555912,9.761161718770467,-0.0309993568939661,-0.026879971394272,0.0010088384491209,-0.352628122818738,-3.8158977320944554,2.013695297067157,1127.7387008441233,1128.2446835817243,1120.5136849138091,1131.6717123713056,-667.2908947365837,-581.3777781778508,890.3727328970936,578.9163932968899,151.16353194007073
39.2875,0.8162143580793234,0.5647065232781783,-0.3341546573287207,-0.0704812364273368,0.032897643684874,-0.0001371584127003,0.0010935473007274,0.0023480930895583,0.0209750190941594,0.999776430921746,-0.0300042784330994,-0.0307506098873131,9.761016923928295,-0.0311946036629346,-0.0270376612608196,0.0009068262409364,-0.352691603823261,-3.815965624296509,2.013704215711967,1126.1359415632946,1126.7602113906137,1122.6651976153091,1132.970476835744,-659.6142876058908,-651.4214772855224,869.1306118426556,482.21999330820125,151.1621211559439
39.29,1.409780238613069,0.6860560260704055,-0.2750179277139164,-0.0678742332300597,0.034527604058818,-0.0006718482920315,0.0010784323879468,0.0023423409922623,0.0209798032748576,0.9997763598441696,-0.0344711264405968,-0.0307552857144344,9.761188429659954,-0.0314281452733043,-0.0272039327806628,0.0007910027860557,-0.3527616191920338,-3.816034918903472,2.0137138577104587,1124.4406294060968,1124.9875761952999,1124.8593379730185,1134.0828123378444,-682.9977532085794,-744.5560761890475,851.4062962824673,400.08957960974374,151.16078750760704
39.2925,2.005412265182876,0.7822003075114123,-0.1827132192403135,-0.0639992292527149,0.0363444006330185,-0.0013170874709815,0.0010663622607115,0.0023502375094636,0.0209747254199317,0.9997764556851156,-0.0382882810622799,-0.0301751457370527,9.76172413070282,-0.0316928271601351,-0.0273733881381537,0.0006608823035245,-0.3528363353737234,-3.8161051502171577,2.01372288594973,1122.72095279725,1123.0374310096663,1126.9222290967239,1134.970924733794,-682.891118745434,-797.3307337987094,750.8972193558544,297.46517235656273,151.1595145144408
39.295,2.5726388117179884,0.8245542469742905,-0.0416112730829906,-0.0586513307896093,0.0384023035548748,-0.0021217511099869,0.0010538923958791,0.0023759294848969,0.020966909534215,0.9997765653401914,-0.0414454388483921,-0.0290729135753777,9.762671677766468,-0.0319809132116399,-0.0275404109722691,0.000517006323599,-0.3529127533820061,-3.816176732470975,2.0137299864231903,1121.026173812368,1121.0009225263043,1128.6138240697996,1135.570138199628,-730.264245512881,-872.150325713321,602.4355759253034,206.17304286088816,151.15831082205935
39.2975,3.177693223887227,0.785208204366939,0.1887071521251112,-0.0504285642831613,0.0414854002659394,-0.0030844576203275,0.001043827645153,0.0024172198502852,0.0209620911804465,0.999776572638674,-0.0438310600790525,-0.0274075001924475,9.76407778536549,-0.0322844196988319,-0.0276993469151326,0.0003616059373385,-0.3529895475950123,-3.8162504443914576,2.0137349459884755,1119.069631569689,1118.676679381104,1129.9344069763476,1136.0017899480974,-700.3202247610317,-795.604691941437,327.9575144022742,124.29615384578943,151.15694176068072
39.3,3.586370822464103,0.6622916023079117,0.4241090181963801,-0.0420038665457657,0.0444012733565572,-0.0035003692866605,0.0010416255799833,0.0024647651588163,0.020964066580291,0.99977641515626,-0.0452200443340602,-0.0251044035131096,9.765986287641132,-0.0325951825020242,-0.0278447462658561,0.0001982452141267,-0.3530661018258758,-3.816326264768227,2.013738676281282,1117.5245726885607,1117.022899066595,1130.2536116418119,1136.1916189688573,-595.1922249381053,-558.8229196672597,-67.54834850618136,61.52760654792054,151.155860378339
39.3025,3.860370802605321,0.4430021272350203,0.6784416783585256,-0.0321809868646695,0.0467828263905316,-0.0027582316685573,0.0010498188537683,0.0025135142958809,0.0209690884076465,0.999776179829554,-0.0455002746863667,-0.0221599237294272,9.768433783669982,-0.0329044801448024,-0.027972004082721,3.059220282714132e-05,-0.3531428742509969,-3.816404259888336,2.013741331631573,1116.0936704449969,1115.882564782766,1129.5966652338163,1136.3094279808372,-592.0722461003535,-340.50989448168406,-523.5803710605737,59.70045879981599,151.15483700700582
39.305,4.006080283953784,0.0886291149782491,0.9572692213113512,-0.0195645393115951,0.0482188928422805,-0.0001287596539129,0.0010641494044062,0.0025638183711959,0.0209703878466198,0.9997760107142482,-0.0446964047841168,-0.0187140897440906,9.771447588462019,-0.0332032047200314,-0.028077356141678,-0.000138030108439,-0.353222561962406,-3.816484489611976,2.013742406592396,1114.564211458062,1115.3203495941882,1127.6357097865111,1136.490121262856,-517.1194959441136,-52.66897567921903,-895.087458675148,87.87078524686683,151.15367192689467
39.3075,3.9691757013389695,-0.2565790381528273,1.1299913067776588,-0.0090996643961645,0.0479982437493102,0.0032918496770959,0.0010783365819178,0.0026197411881746,0.0209638559539949,0.999775989473394,-0.0429345025100419,-0.0149553646189513,9.775044788835027,-0.0334823354407586,-0.0281577788957181,-0.0003044243578097,-0.3533074582880832,-3.8165668802873447,2.013742187564995,1113.5080729652786,1115.6192199043703,1125.121227940445,1136.7487819070711,-360.00406358002465,281.95838509990733,-1136.0197756954776,137.16384964388712,151.15275067573688
39.31,3.778302476276568,-0.6185243875408498,1.2059927941302706,0.0007606347946463,0.046304520500778,0.0075887611821829,0.0010899144629837,0.002683140943272,0.0209545150999156,0.9997760060707174,-0.0403223792801637,-0.0110056651613056,9.779232364566008,-0.0337338024742916,-0.028210805567499,-0.0004649482291226,-0.3533973356666995,-3.8166503118154327,2.013741163281869,1112.7641911401608,1116.7301415196885,1121.955610908031,1137.1759405110759,-234.0546677083861,565.7397797263291,-1319.6670748776412,199.82784177090036,151.15187779706176
39.3125,3.477559238764675,-0.972071384535497,1.1907164314672152,0.0098706547727466,0.0436120413536405,0.0120228086949179,0.0010980508185154,0.0027571558441067,0.0209507284937304,0.9997758769322888,-0.0370158225828343,-0.0069597781106752,9.784005788362215,-0.033950807458551,-0.0282350723026477,-0.0006159763491084,-0.3534904689903706,-3.816733461169626,2.013738649005312,1112.337799626736,1118.4479188030034,1118.522892566053,1137.747921115926,-83.96047506265309,801.187676344672,-1365.8669230260018,253.2277361711324,151.15104282727472
39.315,3.073749809801382,-1.2994634639997156,1.075064947054177,0.0176059137058309,0.0403529819295648,0.0156879580218064,0.0011039544151429,0.0028439750333002,0.0209571509093486,0.9997754983577428,-0.0331715524810647,-0.0028764187877154,9.789349068097527,-0.0341279502954922,-0.0282308174713506,-0.0007538664239451,-0.3535849825709959,-3.8168155458669695,2.013733585229262,1112.344388764848,1120.736079901408,1115.1262762929073,1138.4420791919304,109.18519359082764,1083.2050837535833,-1402.6562742218275,305.4584220078852,151.1502510971852
39.3175,2.5110003008993926,-1.6542168862122124,0.8567107293267692,0.0250733915910464,0.0363162069676669,0.0186664211736499,0.0011127187047506,0.0029387600498015,0.0209743244580498,0.9997748666971408,-0.0288235580267617,0.0012584058616126,9.795235579107985,-0.0342614838459399,-0.0281997982373902,-0.0008746852862377,-0.3536788131453382,-3.8168952800083096,2.013726442597035,1112.8837255946903,1123.863944221774,1111.5096111949404,1139.2752132259664,286.1858421161187,1165.2589095817295,-1203.3865619432372,278.4317663032592,151.14934806481838
39.32,2.003251683828843,-1.9147254661566524,0.6429884091068315,0.0299114257756523,0.0324827290073901,0.0200476539591157,0.0011263266594911,0.0030335802803198,0.0209956020509288,0.9997741397905316,-0.0239585436087038,0.00539871958373,9.801627707394696,-0.0343491302729825,-0.0281452354783265,-0.0009751524787634,-0.3537714473786001,-3.816971962106869,2.013718557357573,1113.7753179754293,1126.5623744493198,1109.109343483188,1139.8342380234471,443.600412792233,1044.917847138181,-801.9338202684611,164.53037473071575,151.14863277509252
39.3225,1.4777532530065727,-2.1299839357597574,0.435126004595551,0.0335003407998747,0.027796104470754,0.0206036881372872,0.0011450969509827,0.0031194507622364,0.0210161837645764,0.999773443119876,-0.0185503206289951,0.0094711207233601,9.808476974221993,-0.0343903977244593,-0.028070814889793,-0.0010528626602829,-0.3538626445074273,-3.8170462456557033,2.0137114948182178,1115.1017276586497,1129.0885334574602,1107.499942093602,1140.0978650996192,672.7910129291754,1017.5618538984304,-523.7784112617695,25.51632452381059,151.14795401172907
39.325,0.8410644604505854,-2.319994876702866,0.2254679856380319,0.0366047964049832,0.0213440793681233,0.020706155208126,0.0011674861570972,0.0031904403047137,0.0210354107569871,0.999772809429697,-0.0126356041178462,0.0133744568328388,9.815724201726498,-0.0343864448150282,-0.0279801462116262,-0.0011065422491621,-0.3539522179546235,-3.8171190740677736,2.0137063641855217,1117.139273040077,1131.6501837188143,1106.4904514268778,1139.9618196460665,808.4929948895435,831.0048474090605,-236.9300430544324,-127.04570536086842,151.1471795411242
39.3275,0.3110744462113174,-2.4090113504448465,0.0980595192567386,0.0384261258772865,0.0153992297786949,0.0205418340596845,0.0011929371927258,0.0032419934445492,0.021056142984614,0.9997721936247012,-0.0062755625812237,0.0170360606356937,9.82330049347482,-0.0343397749621793,-0.0278765355931378,-0.0011355403680664,-0.3540399019411208,-3.8171903348885294,2.013704246005316,1119.1441926330995,1133.2435576945077,1106.3152918783292,1139.4626365728143,843.9749511050595,503.8199831973578,24.87504702769445,-264.9622192096239,151.14656611726824
39.33,-0.2098388950893098,-2.414447107597777,0.0260930322504423,0.0391722646415455,0.0089994023177333,0.0202900409152588,0.0012196764983714,0.0032730671182822,0.0210800303352814,0.9997715676660234,0.0004049958808346,0.0203698987005808,9.831128004587567,-0.0342536908224853,-0.0277631145493029,-0.0011397112513784,-0.3541262815164741,-3.817260736338047,2.013704950454591,1121.3591477955983,1134.169283634799,1106.614826662016,1138.6370085500196,990.830453793608,247.64289574601267,182.33249758068035,-407.04607168538234,151.14598442950222
39.3325,-0.8035254934009863,-2.320922344634428,0.0011563283874353,0.0378797900428678,0.0014292993392313,0.0199957862697555,0.0012455731627186,0.0032858077535167,0.0211070525033028,0.9997709293068904,0.0072275161509887,0.023293853772769,9.839120875788185,-0.0341320458532143,-0.0276427459570318,-0.0011189042222413,-0.3542120418041823,-3.817331134726885,2.013707160845416,1124.09834490207,1134.4817721732384,1107.226954366233,1137.4274062143863,991.6487542398884,-11.080920278658384,230.0177371005435,-452.99067538334856,151.14532170729643
39.335,-1.2510573713188329,-2.1662627719356533,0.0250313903844747,0.0349315376058978,-0.0042912302774329,0.0198053678576109,0.0012664137876509,0.0032827280917808,0.0211405646712796,0.9997702057016484,0.0140176473274189,0.0256949499286967,9.847186541483948,-0.0339793916226116,-0.0275176488536316,-0.001072549479711,-0.3542961068975405,-3.8174014470568873,2.013708982799909,1126.3173915668003,1134.1138790334055,1107.7649153475195,1136.3720551731017,844.0187190933046,-258.1187121540171,198.54846105426853,-402.1599409633856,151.14479804081367
39.3375,-1.6278531442316593,-1.9483287308371728,0.0834954748999267,0.0308574552868175,-0.0093231995775387,0.0197265535308719,0.0012769288265237,0.003268886413066,0.0211790618817362,0.999769418299876,0.0205645434453419,0.0274500272215072,9.855226256737264,-0.0338003811859385,-0.0273899995628543,-0.0009996617423097,-0.3543787833150897,-3.817471548572615,2.0137086689476447,1128.3184384975327,1133.1911786124695,1108.2196966715035,1135.4166065095715,745.6389493561624,-440.4735840698797,171.31081361885992,-349.9498199198598,151.14430332110254
39.34,-1.9367733092134705,-1.6933866916650275,0.1592182675429023,0.0262981911329627,-0.0137635679045222,0.0197975717216426,0.0012748768796567,0.0032488690564866,0.0212194331085466,0.9997686207381928,0.0266839272886866,0.0285050044493891,9.863135842211545,-0.0335997902905257,-0.0272617467467728,-0.0008986034069514,-0.3544597927546997,-3.817541222478423,2.013705416339702,1130.045586313583,1131.9115111130552,1108.6214694156142,1134.6223060735015,610.7765281680772,-568.5519689694322,172.07038137158017,-271.9741878229315,151.14383225019012
39.3425,-2.159674100365331,-1.4140594458862437,0.2387975323295953,0.0213585296084265,-0.0171438674361017,0.0201489644112954,0.0012601063304349,0.0032267973773036,0.0212558183772462,0.9997679247254124,0.032218847087571,0.0288563411393214,9.870806809889064,-0.0333822800242842,-0.0271346938632938,-0.0007675356231201,-0.3545389369808205,-3.817610531284707,2.013699500012356,1131.3723211383747,1130.3484187676208,1109.0800485783618,1134.056735570456,485.5363724669456,-714.9496848506851,257.39238752008293,-201.6571240949376,151.1433896780886
39.345,-2.325259568392159,-1.074088775554708,0.3137177738359247,0.0154061317231263,-0.0199583602207539,0.0210439498001326,0.0012343999026434,0.0032088682833646,0.0212837829643696,0.9997674032038076,0.0369906324879797,0.0285487285527934,9.878127728638852,-0.0331524405988774,-0.0270102244551875,-0.0006050499359445,-0.3546173251846346,-3.8176801851580975,2.013691720333194,1132.4732681759156,1128.336762688805,1109.9084313532135,1133.6140204530277,325.55445389800013,-736.2199542631841,377.8507828555007,-134.24988834988153,151.14289225060543
39.3475,-2.3738101664030116,-0.7973420563557708,0.3404110721683563,0.0103019268111138,-0.0215610996271246,0.0222650270913653,0.0011986431989382,0.0031989698171663,0.0213034087285077,0.999767042188025,0.0408848027927038,0.0276167027317293,9.884986594921113,-0.0329148582989847,-0.0268891632268519,-0.0004104233741582,-0.3546958166063526,-3.817751158018555,2.0136837714380036,1133.0000934078655,1126.667318996303,1110.9693024926403,1133.3854861287064,139.96044991269744,-646.7058898998732,518.9844252890526,-78.52920549535686,151.14250684895225
39.35,-2.3166201715383337,-0.52921731600851,0.312296138757659,0.0042356557145032,-0.0227781198985735,0.0239332186830716,0.0011540819967172,0.0031985167202066,0.0213163993775617,0.9997668016105102,0.0438545984465311,0.0261088330278564,9.891272789115025,-0.0326739823925762,-0.0267721523827362,-0.0001837578298171,-0.3547743680477326,-3.817823707141775,2.0136769029084194,1133.1730704254794,1125.103233239304,1112.50335347966,1133.2213744255507,9.11788627100497,-654.1050030795342,778.6406051017625,-72.98502033652127,151.14215361115822
39.3525,-2.110762400908277,-0.2091566528287774,0.2087865380874377,-0.0038365023889829,-0.0239864106744929,0.0260075037293971,0.0011056385544441,0.0032041941721211,0.0213284011802778,0.99976656608488,0.0459667298081344,0.024151848148062,9.896879173781892,-0.0324343292321699,-0.0266597581259793,7.4313376352845e-05,-0.3548516035386615,-3.81789744051936,2.013671311972368,1133.0456828392205,1123.3967939809083,1114.8625055181456,1133.020561027024,-92.14143055564652,-596.8411089218209,930.6510208147542,-80.47020116578528,151.14176998961847
39.355,-1.8274821745803316,0.0636249301668572,0.0737779162895264,-0.0099159809132662,-0.024658994840543,0.0272054821924023,0.0010550221653951,0.0032134238394034,0.0213408513058697,0.9997663110326632,0.0472888068051262,0.0218166994751575,9.901705293990984,-0.0322000369064341,-0.0265532530971226,0.0003619721818309,-0.3549272188749446,-3.817971675719441,2.0136671601147844,1132.7123632727007,1122.1190276946932,1117.1566085837362,1132.8190234197216,-170.34966736314726,-483.63881326488627,948.0833722458253,-88.57707629608755,151.14148665662023
39.3575,-1.4547068140559916,0.3465705590548396,-0.0843722189725365,-0.0141961976302613,-0.0246433783528548,0.0272908197519319,0.0010032931102342,0.0032240559842842,0.0213564095771317,0.9997659866021602,0.0478954720296654,0.0191684135444741,9.905659808361877,-0.0319750488078849,-0.0264544327032157,0.0006764964591083,-0.3550013835702084,-3.818045069530704,2.0136651470778353,1132.1939345024043,1120.9785999145827,1119.602922379377,1132.5776756455434,-262.57498683481805,-470.45046409918575,1063.3834216255887,-111.0614728556912,151.14124504910328
39.36,-0.9528225466833286,0.6921314627855327,-0.259188785206259,-0.01718698983577,-0.023558446975238,0.0259287901004351,0.0009561223833226,0.0032315993849845,0.0213823797331406,0.9997654450524888,0.0479239184257665,0.0163683514979181,9.908662676304495,-0.031763130826187,-0.0263653981698414,0.0010148823204241,-0.3550730750543817,-3.818115741395287,2.0136651792685214,1131.399488338528,1119.7667753741996,1122.473525691859,1132.2637160554436,-315.52561112400554,-414.3640986958116,1010.5428243701512,-114.07259782484817,151.14100865759846
39.3625,-0.5248893546342224,0.9750710682680144,-0.3663161031235057,-0.0180348272275073,-0.0218829209674118,0.0237769135786509,0.0009188561891604,0.0032370127293343,0.0214208495368256,0.9997646321539853,0.0474147151883394,0.013579528095908,9.910647997248327,-0.031567153831118,-0.0262889705455935,0.0013732761620114,-0.3551440624101703,-3.8181834402572297,2.0136666070653,1130.6163064467835,1118.9067794211023,1124.6556365012304,1132.007312656419,-333.9206466959351,-303.38127795123853,801.5388840825373,-93.15327912722532,151.14086010826827
39.365,-0.1180752323085985,1.2356845999505903,-0.4203546627086963,-0.0175256308935624,-0.019488531722161,0.0213079045544817,0.000893710534825,0.0032423642888598,0.0214702465392651,0.9997635730015962,0.0463944693208546,0.0109078627152747,9.911566427348609,-0.0313890310097848,-0.0262282067984391,0.0017472269007836,-0.3552154660263604,-3.818247689453808,2.013668303825602,1129.7298851050475,1118.2498689844426,1126.481220112274,1131.7979496598073,-368.6595362187461,-220.20622907927665,658.3889254217487,-67.9794911097524,151.14076586882683
39.3675,0.2615664495461615,1.4614825335946409,-0.4390155585552175,-0.0164839987982878,-0.016396767658203,0.019358694838236,0.0008813158855346,0.0032463164376265,0.0215283377894542,0.9997623201072238,0.0449638556440561,0.0084290445589958,9.911386925812833,-0.0312298672087946,-0.0261857415510995,0.0021320435642269,-0.3552866808310873,-3.818308401282287,2.013669946219003,1128.7730087656914,1117.8057482757072,1127.947581128336,1131.6674152008704,-395.99215244802144,-117.31083821807016,492.32518222942633,-23.03230174240801,151.14071922009148
39.37,0.6126527403245094,1.6228419652560644,-0.4437439914820011,-0.0157351302375149,-0.0124191731789418,0.0186313549421057,0.0008770721042738,0.0032520189871516,0.0215868424859349,0.9997610448860168,0.0431370009583057,0.0061179328368281,9.910098376329536,-0.0310897563678319,-0.0261636556946005,0.002522001962427,-0.3553578075854497,-3.8183675103739136,2.0136717045952635,1127.7499243428092,1117.6633147933528,1128.9428460234187,1131.682788151095,-459.69495577123,12.707299783999453,324.2825937492103,49.52499029361401,151.14073249816093
39.3725,1.0104441952989602,1.7150801356284404,-0.4746848731704742,-0.0150423136471066,-0.0070796122890426,0.018730690457402,0.0008748969386045,0.0032634797291711,0.0216341177235763,0.9997599915975935,0.0409128923962009,0.0039189598514625,9.907710471539197,-0.0309679626424747,-0.0261629502673703,0.0029106422645662,-0.355429670437703,-3.818427511623948,2.0136744521078054,1126.474533986834,1117.8692847746272,1129.568994097083,1131.9150401523386,-470.7475959352316,137.45776815432936,132.52041434050213,120.02867126223688,151.1408202912637
39.375,1.3170767879644778,1.6930102017369724,-0.541066302175594,-0.0136225937210573,-0.0026013700012036,0.0189601139580292,0.0008721590464386,0.0032856331708881,0.021663192737336,0.99975929821474,0.0382742837308466,0.0018412831334578,9.90425415938111,-0.0308634516341527,-0.026182968136571,0.0032909692792219,-0.355502905003331,-3.818490008422755,2.013679121213188,1125.3961863631318,1118.3506036341248,1129.6054480951218,1132.2829315074068,-428.4110112482526,251.04423208063147,-87.86544034477434,168.44395838167515,151.14095471159862
39.3775,1.5689215911332917,1.5583482970118063,-0.650924214739028,-0.010407298792533,0.0019538563944591,0.0186940314144477,0.0008693512950488,0.0033155662173378,0.0216757473095943,0.9997589357678816,0.0353592702178164,-5.3797100299231994e-05,9.899782252279197,-0.0307752360254528,-0.0262213685071451,0.0036560395146414,-0.3555766284474596,-3.8185547288515895,2.0136867391466606,1124.3324789305948,1119.1245059350292,1129.1296668953596,1132.7572599442462,-456.3363090305696,398.6882706918784,-323.7418185049754,197.1892339498837,151.14115376219732
39.38,1.7576572429216335,1.2668600945883213,-0.8072333260287045,-0.0045185146877592,0.0075436007119221,0.0172492672464436,0.0008684654938074,0.0033458530343647,0.0216742113197209,0.9997588735602776,0.0323919755438332,-0.0016853272346428,9.894369228772849,-0.0307021409265986,-0.0262749503905066,0.0039988964000334,-0.355649760364594,-3.818621288363969,2.013697992237988,1123.1145048179778,1120.3440449875852,1127.986739002596,1133.2688776771568,-428.79174656069046,489.2663252115879,-503.5839772757906,143.99800728826355,151.14146785371435
39.3825,1.788502378917686,0.9297785786260608,-0.927095713178539,0.0012999530239574,0.0116661808435739,0.0148749814327618,0.0008715412257592,0.0033732646687679,0.0216615863963964,0.9997590561515384,0.0295076800600609,-0.0029794259234446,9.888109880648344,-0.0306429057534069,-0.0263399745725505,0.0043123241214494,-0.3557217806896613,-3.8186896353925306,2.0137127082339528,1122.1885201977902,1121.5708375610884,1126.6117470089791,1133.477249980688,-339.3204395941114,529.1756812773921,-613.6941407685879,-0.9821265398395392,151.141792359363
39.385,1.6712244685561013,0.5345733501017434,-0.9977878068740031,0.0069561171298909,0.0141772833356578,0.0113899171359448,0.0008789358069769,0.0033950968810825,0.0216422299553625,0.9997593992808876,0.0268233704257573,-0.0039063622061729,9.881117487938832,-0.030596131867276,-0.0264123949627559,0.0045893890980138,-0.3557923983950085,-3.818759052009361,2.013730713679608,1121.4179026200088,1122.9899233939695,1124.918268298756,1133.2639670444576,-287.29994362587456,665.2011902876218,-780.6296501432925,-221.9687954427401,151.1421818988209
39.3875,1.3722398083697287,0.0627158909190965,-0.9970933167927276,0.0123342761664333,0.0148850405605322,0.0068375362014789,0.0008875702513469,0.0034117732694024,0.0216148449525115,0.999759931789276,0.0243842347769631,-0.0045147176276224,9.87352091733723,-0.030559801232722,-0.0264885074652939,0.0048235990982075,-0.3558625378570618,-3.818828995644932,2.0137520318641635,1120.75202047966,1124.8968435125282,1122.708598758261,1132.3674060034737,-191.8292050031069,730.0684957516198,-810.2180102793628,-441.97207109869066,151.14272417845532
39.39,1.0172953262066446,-0.2729743002144318,-0.92265002189299,0.0152169630657409,0.0136478050755393,0.0036097055449607,0.0008950020686968,0.0034226493722789,0.021581356657208,0.999760616158262,0.0222476885919,-0.0048531091797794,9.86546111201021,-0.0305316174211746,-0.0265644756723067,0.0050097866803098,-0.3559338458479375,-3.81889898859549,2.0137769015412315,1120.4587565949928,1126.6402658727295,1120.867178247357,1131.0541066889627,-57.888954156222,721.4609617368945,-705.7315856751353,-628.6638575275252,151.14323803202115
39.3925,0.5903399029020826,-0.4924744481180259,-0.788060448140166,0.0166624288448544,0.0108004763666653,0.0014286069385937,0.0008985332412095,0.0034303869534385,0.0215470018576479,0.9997613322742054,0.0203960168903334,-0.0049857662001299,9.857086713135674,-0.0305091327519346,-0.0266363520026989,0.0051442346713955,-0.356007414909869,-3.818969146995251,2.013804699111076,1120.4625757088793,1128.5041483212094,1119.1799408298884,1129.224086715839,49.68065450654836,754.4893500206632,-632.7652120390159,-792.5145085666866,151.14381552896413
39.395,0.1293671748473331,-0.5911265828854105,-0.6232787369824808,0.017142215318329,0.0073257159466871,6.225294763073793e-05,0.0009018754819037,0.0034342516542179,0.0215174886547095,0.999761955131396,0.0188710796156909,-0.0048635044785414,9.848549593678214,-0.0304897952028691,-0.0267001698527404,0.0052258591959512,-0.3560833131267499,-3.8190401427613754,2.0138344604075207,1120.7071598675257,1130.4127126228348,1117.7033521871604,1127.0915341461275,149.63135569247774,754.6388036729472,-528.4618908172913,-885.2030843437678,151.14444517316394
39.3975,-0.3481548135091405,-0.5452267286868049,-0.4445552076934369,0.0165536380020346,0.0043112123635356,-0.0005784197306955,0.0009078632629881,0.003432265302771,0.0214959823778929,0.9997624205218676,0.017728523294022,-0.0044657528010193,9.840000173378527,-0.0304711473286478,-0.0267522472433454,0.00525599617477,-0.3561602258370399,-3.819112935422552,2.013864277168531,1121.210732487342,1132.277342339576,1116.5376313758006,1124.7980712941176,269.55628163124817,781.1895430484412,-434.4746221720784,-993.0909275447384,151.14513677251392
39.4,-0.915606631005933,-0.3612167874014256,-0.2332420317722317,0.0145785277902918,0.0021601956137832,-0.0008585961573426,0.0009154231797372,0.0034276260029982,0.021485005725386,0.9997626631146052,0.0169105602127885,-0.0038559371096166,9.831582243708992,-0.0304512561494965,-0.0267892740149581,0.0052379510897079,-0.3562370535073006,-3.8191880173571473,2.0138914342085408,1122.0549412756807,1134.3186603380736,1115.530979076302,1122.1260795084083,339.73575735199927,695.7596805717991,-302.50669831878423,-933.9225000049505,151.14603692404071
39.4025,-1.3688467181617208,-0.1447397393932434,-0.0654021551677051,0.0118075939141034,0.0017916730875868,-0.0008783678592813,0.0009221480068721,0.0034209024781944,0.021488136716241,0.999762605069372,0.016401438710608,-0.0031320271611547,9.823428971287356,-0.0304288151415675,-0.0268084532405161,0.0051773931996391,-0.3563127973966499,-3.819264335085757,2.0139142860094017,1122.9094112741027,1135.7561407424369,1115.025097884206,1120.1284587940906,362.27547154416806,501.4171710966074,-134.6506339607224,-723.8279487650678,151.1468445300329
39.405,-1.7858323156407943,0.0811069487330776,0.0949879588444411,0.0078522154930231,0.0028103545866952,-0.0007955907294089,0.000925039218891,0.0034158553734353,0.0215044782859923,0.9997622545242189,0.0161138843687292,-0.0024071934663956,9.815658690275168,-0.0304028403881979,-0.0268080748947236,0.0050815332405795,-0.3563872889594681,-3.8193410277650655,2.013931591250817,1123.8663186334024,1136.825746193558,1114.857725906498,1118.5069397645811,435.4423554457621,370.46567633176016,-1.138785833110104,-606.4057074209417,151.14771072116383
39.4075,-2.2284919612498304,0.3121252249284534,0.2842002081200339,0.0020193652893628,0.0051736866686622,-0.0005690350287527,0.0009224073345015,0.0034126276536806,0.0215317134586867,0.9997616623957648,0.0160245500702114,-0.0017728364826127,9.808372491353724,-0.0303726041855889,-0.0267874478681088,0.0049588983715955,-0.3564607207799763,-3.819417951380897,2.01394234773237,1125.0866230513295,1137.608469124094,1115.0194039550404,1117.0964302569887,454.8198089513282,195.7953916647874,112.1839437913758,-418.955580463002,151.1488169160129
39.41,-2.539271445942505,0.4524753855104517,0.4414116174414559,-0.0035647103883253,0.0074501123083585,-0.0001802890193871,0.0009141919085448,0.0034075133825031,0.0215723928459706,0.9997607856794474,0.0161794084346786,-0.0012897555942765,9.80165247329533,-0.0303377912038204,-0.0267465835922975,0.0048184822104874,-0.356532259687718,-3.819495066041688,2.013947379503491,1126.1404176781602,1137.8047231518824,1115.4186456254552,1116.412161862265,423.6262660228583,-22.138291322869502,201.72998086635428,-166.98728123920415,151.14979386635747
39.4125,-2.7777915087608047,0.5404635935739924,0.5947098472911307,-0.0098876699417102,0.0093652839047884,0.0006026296702324,0.0008977691543905,0.0034027534694256,0.0216258679951875,0.9997596315049088,0.016500499447067,-0.0010635451548899,9.795560578303169,-0.0302979552156297,-0.0266867791164192,0.0046680658046452,-0.3566032369827701,-3.819572226537141,2.0139489202328646,1127.2047543814451,1137.4977776674796,1116.0280538593727,1116.2614938507922,460.2797693920004,-252.95482727283607,297.7441459813215,53.332613647310914,151.15082763261523
39.415,-2.965444974860904,0.6097408709961034,0.7603766653406285,-0.018261608638464,0.0111560521008573,0.0022299222893406,0.0008703163175998,0.0034016620146739,0.0216918768610194,0.9997581975884948,0.0168836161509366,-0.0011975167797246,9.790139325836256,-0.0302524943008955,-0.0266104018651888,0.0045139927675799,-0.3566740658399565,-3.819648192224806,2.0139492025254224,1128.441816525118,1136.5399490155191,1116.9073663553604,1116.6788249305012,435.39467186201824,-445.6918391435914,331.72194351492493,242.52407752275172,151.15213364386656
39.4175,-3.0291624865528983,0.6608668601368812,0.8679461744083168,-0.0258031661059848,0.0120347872186323,0.0042418544428602,0.0008325960510551,0.0034063626905468,0.0217721290730172,0.9997564397757048,0.0172451153473157,-0.0017171819648051,9.785413162604689,-0.0302006379600295,-0.0265206847928761,0.0043611892171449,-0.3567436995249454,-3.8197218046314543,2.0139498336380206,1129.3817277407563,1135.2693184717605,1117.686663576948,1117.4741142384066,339.90666514001424,-594.3250688043606,303.7007563964191,390.29753579841827,151.15327659654508
39.42,-2.988362476514076,0.7290113644371699,0.9241285078436892,-0.0334787472804625,0.0124964512975066,0.0067607031011143,0.0007814069770742,0.0034233408497644,0.021860213357096,0.9997544764630096,0.0174106480032335,-0.0027137157149087,9.781390403401913,-0.0301408719236558,-0.0264221814557792,0.0042123994502404,-0.3568131166690634,-3.819793310119696,2.0139519532740007,1130.141349850819,1133.568323671496,1118.4258701373433,1118.6303126094945,260.6644485833028,-736.1330207418051,278.34682866362374,502.6946765226082,151.15447643328778
39.4225,-2.8601645559863207,0.8179616740656318,0.9255455448275448,-0.0408847423322009,0.0133787382574103,0.0094403854229144,0.0007133532013288,0.0034568010558502,0.0219448080007908,0.9997525441779243,0.0172479224453991,-0.0042713270763612,9.778065898552867,-0.0300709947863436,-0.0263202480484574,0.0040689837281154,-0.3568842366957464,-3.8198637115169047,2.013956793719297,1130.6850499836717,1131.5886533680548,1119.078397720265,1119.9875876210172,152.1484037319755,-831.780627051132,232.31346269664687,567.5269445137753,151.15572348861346
39.425,-2.632526808322872,0.9240492023320356,0.8525804183385377,-0.0476914092590632,0.0153067881508481,0.0121219039864109,0.0006284667886989,0.0035088036627239,0.0220146286850133,0.9997508837346448,0.0166669285257492,-0.0063954796590839,9.775423349691204,-0.0299885342021147,-0.0262204926930319,0.0039314718511869,-0.3569589988259136,-3.819933306893805,2.0139643505688687,1130.9020918694791,1129.4094205362383,1119.587437450827,1121.4679473320648,9.223788632511798,-960.638074797416,188.05040449541977,654.6085515891098,151.157027030055
39.4275,-2.2585255261056614,1.0509851311151064,0.6783990218835055,-0.0548278925867557,0.0183777333943636,0.0149793330649361,0.0005322785458624,0.0035734489828871,0.0220717168413626,0.9997494575248468,0.0157363013500251,-0.0089747369676974,9.773438176933784,-0.0298918048524358,-0.0261278116805258,0.0038004536280288,-0.3570364965641458,-3.820001016887959,2.0139736626782945,1130.7311689268342,1126.7854629940653,1120.0186497427424,1123.2606303789646,-137.7528200730355,-926.5918250978089,130.69531682015685,647.3600048457205,151.15865523517343
39.43,-1.8757301541445657,1.1420487208441659,0.4683764254094087,-0.0598111239925795,0.0212171726818094,0.0168018728309902,0.0004314647585027,0.0036468339616285,0.0221204784557285,0.999748170181356,0.0144882390910616,-0.0118620747010644,9.772079337787364,-0.0297798919015145,-0.0260468823216692,0.0036761356403223,-0.3571157177153479,-3.82006596298418,2.013983612364951,1130.2133277691148,1124.7764614107534,1120.2409140349273,1124.7047473562905,-285.1034628687877,-721.0656934711288,67.24646748777309,558.6516013729203,151.16006383202844
39.4325,-1.4353225465259807,1.2044079763910107,0.2078759302774871,-0.063745024591167,0.0241451380430876,0.0179738911387059,0.0003333646721189,0.0037236142617583,0.02216284514332,0.999746990954499,0.0129874938825615,-0.0148868083939247,9.77131166612619,-0.029652746845228,-0.0259821249804196,0.0035587465422628,-0.357196097556974,-3.8201279606899026,2.013993096335473,1129.3056516124916,1123.180134526713,1120.3548820801811,1126.0538883858267,-487.615137562512,-559.6115731499006,36.42654756584262,568.7281077630633,151.16152365772692
39.435,-0.8593146091495762,1.2342045172467446,-0.1348774595153125,-0.0669711169154883,0.0275121159557189,0.018589438484083,0.0002417664732823,0.0037971449710891,0.0221998933870763,0.999745918251029,0.0113290906296329,-0.017938507404065,9.771097668560385,-0.0295115164562606,-0.0259372147963882,0.0034483611005081,-0.3572759483631565,-3.8201865320031407,2.0140011813634344,1127.775252081301,1121.9784035450025,1120.4230467727566,1127.5483878951072,-633.0462409311111,-296.71836433306737,23.797031764785615,529.3258640385395,151.16333093459636
39.4375,-0.3534273541389763,1.2129532539873311,-0.4192791238062573,-0.0682734161903958,0.0301817947702576,0.0182160652250853,0.0001580121383542,0.0038670624414373,0.0222296389531194,0.9997449988126924,0.0094929160121351,-0.0209443761040454,9.77139814827936,-0.0293585609253987,-0.0259147380862548,0.003344445546362,-0.3573549896940762,-3.820242790494537,2.0140087971854124,1126.1404204078344,1121.6965427050468,1120.4738672390051,1128.7005177060207,-725.0253328775898,48.165661421260815,33.72970422804767,447.4223470256197,151.16487994497143
39.44,0.1651216679911079,1.1306460425539135,-0.6653195364542736,-0.0683222695799446,0.0329955501178828,0.0167654414082969,8.335892179272482e-05,0.0039329225466772,0.0222470165848093,0.9997443532530792,0.0074711185024828,-0.0238285982773531,9.772173655781442,-0.029197358316523,-0.0259157833135553,0.003246273281232,-0.357433193990537,-3.820299326911519,2.0140166232734944,1124.1501254169164,1122.2192318521084,1120.5916952938967,1129.7854996302333,-946.723634649304,400.0747406777236,86.32136688984377,468.2977925602577,151.16646895098197
39.4425,0.7888466504266837,0.9437628439919068,-0.8719475458540324,-0.0672278797521564,0.036831635465611,0.0138357182287614,2.093607985593886e-05,0.0039901518675946,0.0222505546699545,0.9997440416731433,0.005349714712744,-0.026478718586575,9.77338560836525,-0.0290327279982642,-0.0259394075334579,0.0031532600014047,-0.3575087145532241,-3.820358445594037,2.0140242546783704,1121.4068022345855,1123.6969164084364,1120.9054740734543,1131.0420066688232,-1048.4147693545858,651.6131900930153,155.96536476310783,453.23518099985,151.16841605622577
39.445,1.2994542384683587,0.7069833029885944,-0.9430502643245284,-0.0652654740528345,0.0402554332985997,0.0104371074760117,-2.680204915530813e-05,0.0040321291935492,0.0222468891276063,0.9997439513033696,0.0032677734674803,-0.0287972326039617,9.774996580044755,-0.0288708273235854,-0.0259826115272406,0.0030647548818407,-0.3575776229868921,-3.8204207807537065,2.014033216379775,1118.9080515701407,1125.477297802575,1121.3715221177126,1132.0516755352337,-1011.9294906239356,768.9645628033932,235.22496062181307,386.5651352926184,151.17006763523136
39.4475,1.782373038627914,0.394815546307613,-0.8920830038763742,-0.0618178899606743,0.0429729509037355,0.0064631392897134,-6.212373176682844e-05,0.0040566107763473,0.0222363330778567,0.999744090776808,0.0012904493936871,-0.0307807407849714,9.776969640190671,-0.028717834713884,-0.0260416447287576,0.0029796176808777,-0.3576405593623597,-3.820485893295921,2.0140449981848247,1116.3471547814704,1127.54173922245,1122.0815988765623,1132.9748323452843,-1003.5897449576036,823.3231428838615,319.11518459298395,340.10685551639534,151.17174355886763
39.45,2.2238994859275567,0.0445536729015678,-0.7456450555527709,-0.0569509301930909,0.0442245508657341,0.002800543085732,-8.905214148283731e-05,0.0040727007847649,0.0222212877298074,0.999744370714319,-0.0007266013232304,-0.0324609973601837,9.779267182211568,-0.0285796090983334,-0.0261119708121355,0.0028963198944016,-0.3576998735345153,-3.8205533747278735,2.01405838080343,1113.89010284535,1129.5939135169967,1122.9670980406784,1133.7522098128163,-916.4006205191384,762.07252554702,376.1229453918881,252.64468288897467,151.17343517099337
39.4525,2.5921509004364367,-0.306389599410028,-0.5171689839369832,-0.0507223710521,0.043286249203796,0.0002686498855208,-0.0001067538828898,0.0040856561365823,0.0222112197236057,0.999744555725094,-0.0028388575761213,-0.033783632874447,9.781851951437936,-0.0284611959646573,-0.0261883560335176,0.0028145098263559,-0.357756695649322,-3.8206223144514615,2.014072356640461,1111.7651516788724,1131.3521018501867,1123.9622136035227,1134.23805575973,-809.5598639531177,654.1842806283095,424.7584710344424,119.94233790912396,151.17513999979553
39.455,2.925250404553166,-0.6706473103276058,-0.2165769487466387,-0.0421161755046881,0.0400517004634454,-0.0008978341540219,-0.0001153660851801,0.0041018823804271,0.0222089557166152,0.9997445538608828,-0.0051149656928022,-0.0347211392892686,9.784685733300028,-0.0283657281326617,-0.0262659921107634,0.002734625216735,-0.3578128281086646,-3.8206930108652495,2.014085515555528,1109.8423035255882,1132.8648349201353,1125.0908903958486,1134.3519215023616,-575.4129081325358,439.70181780373673,373.8231545770211,-46.35159279362045,151.17719337037525
39.4575,3.1017332597014806,-0.899729333971214,-0.0020313277538457,-0.0343253223666329,0.0365389711753427,1.0029249824133977e-05,-0.0001183829101023,0.0041267653402967,0.0222149306515327,0.999744331856504,-0.0075979197515768,-0.0353207593146424,9.787728708402147,-0.0282944556744762,-0.0263405056745132,0.0026578918616441,-0.3578705079135533,-3.82076565483962,2.0140964717598795,1108.8880871382082,1133.5506109392068,1125.831329376409,1134.0062977957618,-235.99144693873063,164.88479483810556,229.3680341874924,-225.17160514537255,151.17890495660842
39.46,3.1708446290534527,-1.0461006661728027,0.1154266689965691,-0.026443771948306,0.033228610124747,0.0026334808439856,-0.0001147386736008,0.004159279861457,0.022233427597797,0.9997437960654652,-0.0101989791953139,-0.0355513637054451,9.79093962397792,-0.0282471489299679,-0.026407805090854,0.0025868510792001,-0.3579305291650257,-3.8208397727655568,2.0141049585217825,1108.662346290894,1133.6892588943263,1126.2377305667867,1133.226063476634,56.51762569069116,-26.263484909328564,92.78140150726611,-418.5374630439752,151.1806096985019
39.4625,3.137374467195012,-1.1475064239609472,0.1135244313583285,-0.0171961867788407,0.0298312656294247,0.0061640162220492,-0.0001048243980519,0.0041963530255266,0.0222629031834876,0.9997429913754652,-0.0127881837780208,-0.0354187534203458,9.794274803165017,-0.0282219238747558,-0.0264648893245173,0.0025244788985535,-0.3579927169309088,-3.8209157000508416,2.014111391887804,1109.1706752666614,1133.4192935146602,1126.2952363839447,1131.9136104805439,293.4416087782073,-134.6083366138594,-43.1944259323479,-516.9540001481066,151.18263860934525
39.465,3.021996344492996,-1.1940115060864185,0.0067506436492982,-0.0096962440221691,0.0273758151986501,0.0079114553316426,-8.858317415940665e-05,0.0042285914833143,0.0222974370922229,0.9997420869885424,-0.0151124666828572,-0.034928988803201,9.797688705213849,-0.02821566566539,-0.0265099838905686,0.0024742015325633,-0.3580571193454205,-3.8209941521334416,2.01411596778366,1110.1295543347856,1133.0162172112566,1126.0217584371248,1130.6412934758923,458.6003872057445,-156.3864066983679,-157.02560024798157,-511.6385514412852,151.18430865085696
39.4675,2.829588169439074,-1.2282996724218596,-0.1572165329918535,-0.0026641054243397,0.0251607390191498,0.0072952514024304,-6.54914964277854e-05,0.004251036746384,0.0223313425876676,0.9997412313454176,-0.0170087145614871,-0.0340815006089288,9.801132805327063,-0.0282247079383318,-0.0265425616849449,0.0024390188019119,-0.3581248683112666,-3.821074031492107,2.014119134968533,1111.463677202691,1132.637361481168,1125.5101083827046,1129.355417723336,630.0218770927404,-126.42993481597516,-256.0163152346431,-534.1479128342909,151.18594883076798
39.47,2.5277053799632894,-1.2761404952298907,-0.3476893144484763,0.004849975314736,0.0226045187522862,0.0046850084978056,-3.467557182513252e-05,0.0042624424290482,0.0223617565619348,0.9997404983033203,-0.0183918701981754,-0.0328696807257571,9.804556214551235,-0.0282454076161054,-0.0265634239181771,0.0024212934987861,-0.3581956911245627,-3.821152482603301,2.0141206300095105,1113.2796637202466,1132.384067537177,1124.7416768609528,1127.9705539117233,673.103606941569,-45.5050251067627,-293.4717359998876,-461.89482611574954,151.1878724123403
39.4725,2.229595333198081,-1.3258803984263952,-0.462672161693917,0.0105328095839356,0.0201759561538536,0.0023469569167763,2.2102273847998675e-06,0.0042624328109425,0.0223891221125009,0.999739887347922,-0.0192021786278996,-0.0313367424457966,9.80790697837596,-0.0282746150957787,-0.0265746248061537,0.0024225251136583,-0.3582679216303171,-3.8212261966510694,2.0141212391475367,1114.8291952374009,1132.409836355634,1124.0427497027044,1127.0459435927562,600.7210376320128,64.87630171992669,-279.6946887041419,-306.3292390909534,151.18943054320872
39.475,1.8967925559122836,-1.3782318153528559,-0.5114961919127584,0.0156956043030354,0.016978639917627,0.0005084084389295,4.3655538030732496e-05,0.0042533154915134,0.0224131985534432,0.9997394013221996,-0.0194407118766855,-0.0295213655398796,9.811133193999645,-0.0283097725576284,-0.0265792044662359,0.0024432165012855,-0.3583397842356058,-3.8212943664326,2.014121971679482,1116.2832689084082,1132.7084490457771,1123.3432034174311,1126.4389077162675,552.9880529557913,163.4418721860706,-272.67113516579474,-183.7414532497712,151.19093263867916
39.4775,1.5468107113478036,-1.422203520623796,-0.5033982099558401,0.0200266531805068,0.0132172560980321,-0.0009776490999084,9.07350818135501e-05,0.0042309642356792,0.0224384823017774,0.9997389555957203,-0.0189903888090815,-0.0274124948246031,9.814185889169822,-0.0283491759528413,-0.0265801194251468,0.0024834502896928,-0.3584081789669282,-3.821358237689732,2.0141235687034302,1117.594135502177,1133.2270457165637,1122.6793940268767,1126.127236326508,482.48418154028394,254.750485132178,-248.72850849429605,-52.38906592368997,151.19238092752727
39.48,1.1934706680735996,-1.446230223604448,-0.4315134200600971,0.0231012593829823,0.0092952514275187,-0.0021963799805096,0.000140850251153,0.0041987689896886,0.0224619819711279,0.9997385937274572,-0.0178928890343268,-0.025066326909185,9.81701854715675,-0.0283910681712221,-0.0265802507083323,0.0025418434022109,-0.3584728937750628,-3.821420334876609,2.0141264540580703,1118.6956898161109,1133.9822014714387,1122.0995608749593,1126.1769623866492,434.17823946452313,373.26205933121855,-226.81418036260985,97.38240228379728,151.19375513934253
39.4825,0.7878554111554131,-1.4485087358006368,-0.281162212886595,0.025331564446142,0.004810953164633,-0.0033909548776106,0.0001915063049567,0.004159885635308,0.0224794216472604,0.9997383909424716,-0.0161957203615097,-0.0225353399937475,9.819589936039204,-0.0284334142549271,-0.0265815932899137,0.002616323851308,-0.3585364686178665,-3.821482638559369,2.0141303485692648,1119.765026699501,1135.0933560132207,1121.545323125063,1126.6141483379274,352.07894315785967,425.704229937515,-175.8715360020468,209.64648021091276,151.19530640146428
39.485,0.4768311871057426,-1.43132196120116,-0.1111734980574628,0.0262767603390179,0.0014891631270067,-0.0039459215156295,0.0002382561860173,0.0041165891401024,0.0224899413057406,0.9997383528768896,-0.0139408595644931,-0.019909148166265,9.821865725579123,-0.0284737780056365,-0.0265848705261979,0.0027042004224913,-0.3586007193214963,-3.8215458434364975,2.014134606165941,1120.4560845318983,1136.1107226211243,1121.2202031949498,1127.2251947877028,241.1653427578716,399.70557838444176,-101.90575455243804,270.8643336373349,151.19650873383276
39.4875,0.1985758314624522,-1.3994455551224467,0.0932732407941657,0.0268232316097241,-0.0015036791681659,-0.0037259381524292,0.0002767841675596,0.0040707417217778,0.0224922243600293,0.9997385004670222,-0.011173239485662,-0.0172743817068858,9.823819731975217,-0.0285090485400974,-0.026589813678868,0.0028023389438411,-0.3586664677341412,-3.8216105285032897,2.014139575942102,1120.970853413291,1137.091883905144,1121.0357943523006,1127.9684700061148,197.9395997135622,386.7985350266576,-55.39646382946452,324.12207501626443,151.19760668819208
39.49,-0.1004023319024936,-1.3450813792850629,0.3663678617915104,0.0271529649657874,-0.0050866675957311,-0.0029013847714949,0.0003045281528202,0.0040247183720944,0.0224853088600945,0.9997388467906808,-0.0079582276011046,-0.0146831777165727,9.825434764235764,-0.0285356365877541,-0.0265952889554689,0.0029072752234699,-0.3587342627471044,-3.821677814466903,2.0141466516585704,1121.4457825304669,1138.0447152962583,1120.9432208758024,1128.8458051627847,161.9716684465056,285.0551637944455,-21.74625400718628,298.2707289660523,151.1987913731263
39.4925,-0.3229522496250026,-1.2823028144947075,0.6109352669598367,0.0269313204856225,-0.0081877640115538,-0.0020095767326623,0.0003178078968985,0.003984745156588,0.0224686410823598,0.9997393815989616,-0.0044481765811232,-0.0122088909597145,9.826702930527176,-0.0285497794978222,-0.0265996127033741,0.0030150476026392,-0.3588050787371911,-3.821748237515092,2.014155719895096,1121.7807117555228,1138.517159724115,1120.9270630822648,1129.4598236509437,137.22442960760165,95.54378633756237,-9.512016803100332,207.52045152599524,151.19965903712406
39.495,-0.5172071715700166,-1.1938483707265206,0.865018132294963,0.0260003973166808,-0.0113780856055523,-0.000842825585927,0.0003158222846755,0.0039536240308416,0.0224441602292371,0.9997400522561676,-0.0007369746132562,-0.0098713609751219,9.827626760541026,-0.028548003683983,-0.0266008182043101,0.0031220704808927,-0.3588783123168203,-3.821821577722466,2.0141659198920614,1122.1319046785043,1138.522434227946,1120.895660791787,1129.883407420414,155.71234155287348,-87.09502226320275,-28.98422201831972,138.24522215865932,151.2003920588545
39.4975,-0.6851012440695559,-1.0795653160436027,1.115813868603142,0.0246091967222242,-0.0145800755873355,0.0008047809676771,0.000303541612059,0.0039288764780959,0.0224165819095464,0.9997407623418496,0.0031789201042819,-0.0075813894355906,9.828218982648307,-0.0285275260276311,-0.0265970487809028,0.003225599279445,-0.3589519385126206,-3.8218967393869727,2.01417720731686,1122.5592734632876,1138.0816846127987,1120.7821419721731,1130.151049761737,203.9910599043517,-283.4961535545886,-80.75691977674485,80.70843778523756,151.2010055896905
39.5,-0.8166307395194469,-0.9341684759079292,1.3393641939145327,0.0228882982010705,-0.0175559659233857,0.0034311322481783,0.0002858914947157,0.0039071225691048,0.0223881177806987,0.9997414764238424,0.0073132171624691,-0.0052535438451382,9.828501481635064,-0.0284862200035214,-0.0265872279706891,0.0033233062968731,-0.3590244523458507,-3.821971532657341,2.0141891073785128,1123.1518599780263,1137.1049534601723,1120.4918761929027,1130.2869496093404,314.4307830488873,-532.8583940459638,-180.29677172788092,48.72304846289692,151.20146559585518
39.5025,-0.9253209334627605,-0.7342427322084963,1.5367070494708404,0.0203862104335616,-0.0202128577567163,0.0080459915826263,0.0002650448872138,0.0038881712553284,0.0223615373137279,0.9997421365450893,0.0116099751407455,-0.002857634850685,9.828504175367442,-0.0284227900551992,-0.0265710113972088,0.0034129990845308,-0.3590959876755323,-3.822044100852799,2.0142017669257553,1124.1314273785304,1135.4173926425713,1119.8806581135343,1130.3946650040516,409.9077980688157,-677.4577375780781,-266.42845768378726,41.378992887782005,151.20182839073868
39.505,-0.9691016686614256,-0.5598252257220462,1.61385835169881,0.0178550392143891,-0.0214850603472168,0.0129247794373797,0.0002432195232383,0.0038732566399528,0.0223400012182107,0.9997426728588114,0.0159813941996554,-0.0003646753759805,9.828264086597251,-0.0283366224150498,-0.0265486092350547,0.0034929454302259,-0.359166913799493,-3.822113815842844,2.014214966474776,1125.2013989683717,1133.71766477228,1119.1597339044831,1130.4938445737791,477.41381429612505,-701.1362218625942,-316.66535783253664,46.36136140027149,151.20196534924565
39.5075,-0.9595970152635772,-0.392729912522922,1.5795770940139096,0.0150360873714666,-0.0221183427254508,0.0180179131633416,0.0002241964377298,0.0038662434327707,0.0223267114102629,0.9997430038226276,0.020286787263962,0.0022832994225841,9.827823905847263,-0.028227664178407,-0.0265204291080043,0.003561942500121,-0.3592377277714303,-3.8221800777521655,2.0142276745338705,1126.5184964500124,1131.9117115332565,1118.297331324371,1130.626471811053,615.7193615282865,-773.7718791015357,-380.6189354881832,60.03915029956264,151.20192275408618
39.51,-0.8892930618735969,-0.2105558630526335,1.4106851550275068,0.012026587289842,-0.0225578966594622,0.0234504876959867,0.0002145174016095,0.0038634599004906,0.022329638756741,0.9997429636056914,0.0245351817603751,0.005191928984809,9.827231108513152,-0.0280965524581687,-0.0264863339803183,0.0036199063712299,-0.3593084976874166,-3.822243012364257,2.0142389394185805,1128.2799957760103,1129.848805376776,1117.256639227044,1130.794040325277,648.7323346240693,-711.3489576841856,-356.4094087717872,52.10170048046229,151.20165651188427
39.5125,-0.7893082109554923,-0.0753789588154343,1.1798956313116324,0.0101019081108759,-0.0227310796563606,0.0269765882422981,0.000215995169724,0.0038616067411226,0.0223493144541762,0.9997425484932488,0.0287279858968589,0.0083705812784264,9.826536086071835,-0.0279440311803676,-0.0264459043798827,0.0036668604067702,-0.359380102781965,-3.8223046084292287,2.0142487530200834,1129.7621581231344,1128.3549667448335,1116.5152842805112,1130.8869803134555,552.9245840903868,-528.2325750017689,-243.18761613750505,9.535501977729506,151.20125093753978
39.515,-0.657222623803444,0.0453778519290579,0.8864465815321003,0.0085063749352945,-0.0226505342824467,0.0292626640747023,0.0002269945857915,0.0038564672041949,0.0223802034397143,0.999741895767452,0.0328866461967729,0.0117568766805286,9.825790711103064,-0.0277711118243921,-0.02639802495905,0.003702853742691,-0.3594524395075432,-3.8223674782532666,2.014258345853086,1131.0446186964637,1127.2076425017658,1116.040701146356,1130.8417178351656,466.89006136904646,-414.58221566687325,-127.84315511014742,-74.73834542577126,151.20065066602808
39.5175,-0.472237582426132,0.1798943689700663,0.500247177463745,0.0066087614567141,-0.0224167712464524,0.0307883436140001,0.0002447025665311,0.0038431369833099,0.0224157253841948,0.9997411707766076,0.0370510146723315,0.015261196171516,9.825046698022586,-0.0275794944033104,-0.0263405848738639,0.0037279375575195,-0.3595241017934041,-3.8224335438878287,2.0142691412640255,1132.0966084299776,1126.2820556665013,1115.876068504961,1130.513288586327,275.3853631500489,-267.31865423030246,10.735606506836085,-179.8836632923201,151.19970220371698
39.52,-0.304578115780926,0.2880866847390832,0.1741753231307013,0.0051868788306664,-0.0221318431366031,0.0312906697063136,0.0002666258719317,0.0038177620987741,0.0224535900314325,0.9997404384529804,0.0412477563685351,0.0187966873415417,9.824353927016032,-0.0273719286670716,-0.0262705151302087,0.0037422066388541,-0.3595933070392149,-3.822503768776432,2.0142819228170588,1132.4215455122146,1125.8710492306136,1116.0943791788902,1129.9422995187035,-1.714160232085338,-103.36469893103808,153.6624389436052,-297.879698073832,151.19872054881844
39.5225,-0.1390887335918024,0.3950882930923261,-0.1336705765027624,0.0043726552900442,-0.0214856996606681,0.0312035264475576,0.0002917291834138,0.0037803120915198,0.0224858459427076,0.9997398745651144,0.0454368484598946,0.0223037305236243,9.82375879730946,-0.027151595968874,-0.0261849020781024,0.0037459412914053,-0.359660693551862,-3.8225778329243982,2.0142967999162464,1132.0880376288171,1125.7652321718458,1116.6443806996795,1129.023890095957,-239.89893835613648,-7.473446196588587,263.0427950697713,-422.31518987211746,151.1975402510664
39.525,0.007532667322242,0.5004055235262727,-0.4124588949069847,0.0042710622938246,-0.0203392835867432,0.030665332647812,0.0003206145186195,0.0037347057405674,0.0225051891375766,0.9997396231045708,0.0495104033291411,0.025754301609272,9.82330280718816,-0.0269222405283625,-0.0260812731575849,0.0037399124028371,-0.3597258026594088,-3.822654872602977,2.0143129333263574,1131.222050820435,1125.8336819996307,1117.4095931542379,1127.8307235693449,-453.2791961385056,45.95379913482625,340.3854427583688,-530.4224451409951,151.19619609483587
39.5275,0.1091353955451325,0.602238475542008,-0.6395041032167146,0.0052124586758972,-0.0186845288289586,0.029489786817793,0.0003545440198015,0.0036844046217549,0.0225160941614702,0.9997395567027904,0.0533802187879925,0.0291314641662841,9.823021332125522,-0.0266884782627053,-0.025957567785387,0.003725806410657,-0.3597870257096225,-3.822732733859495,2.01432860838312,1129.8216416481234,1125.99500116752,1118.346307913472,1126.3717778702508,-693.8903335888969,60.1746567984866,429.64281974655773,-677.2042259351739,151.1946565554406
39.53,0.1595540959616639,0.7229587676699623,-0.8286548558260447,0.0071817710088142,-0.0164033439141028,0.0271468395574702,0.000390889582338,0.0036344412483729,0.0225229334852485,0.9997395419628136,0.0569347470949442,0.032343314177373,9.822942828763635,-0.0264548224728027,-0.0258131740384415,0.0037059362966711,-0.359845231675845,-3.8228096948602985,2.014341822525591,1127.7525991524888,1126.1345552836233,1119.5578072529715,1124.4447024396673,-782.8573353491108,20.70386238576312,443.5519110526853,-713.0876409426611,151.19258756430338
39.5325,0.1426417442887731,0.828812683111249,-0.9002378661811875,0.0086983559130032,-0.0146326566979721,0.0243581945582755,0.0004260048736908,0.0035859232693789,0.0225300678005334,0.9997394597254892,0.0601474627092856,0.0352791027870149,9.823087590689331,-0.0262252229333651,-0.0256489785572863,0.0036834772744811,-0.3599008505144537,-3.8228844600220233,2.014351635898507,1125.9073549713814,1126.0985204794488,1120.5640674687336,1122.8063396655407,-714.8573685221871,-63.1991100375803,382.856728068086,-633.6861818991051,151.1906830220775
39.535,0.0859503399144548,0.9499145465498896,-0.8703406619426428,0.0090564473241022,-0.0134614691544302,0.0209912499990938,0.0004589238025719,0.0035402649644746,0.0225412917197304,0.9997392013396064,0.06299397304481,0.037885970396439,9.823466619851471,-0.0260026971272548,-0.0254672022934068,0.0036620244478376,-0.3599539839226415,-3.8229553863573327,2.014358459266787,1124.178312309876,1125.8185597334352,1121.4720908933132,1121.27627153017,-686.3399885983325,-181.2634742816936,351.7799584578844,-617.7891732999365,151.18859758068027
39.5375,0.0094825223551929,1.113294188238961,-0.7238719564085065,0.0080765578825897,-0.0120389731077387,0.0171247469007598,0.0004880211056126,0.0034992840680532,0.0225531213540987,0.9997388206667588,0.0654460890456393,0.0401060459407848,9.824081832202936,-0.0257886787716948,-0.0252713994782169,0.0036449536650758,-0.3600064193768136,-3.8230226146619057,2.014363463378151,1122.475655028388,1125.1922031080398,1122.322967261024,1119.7173937990394,-536.8368764510585,-264.18752034434345,252.88973514894033,-507.8581102248862,151.1858948869931
39.54,-0.0399344120801779,1.2488960502660131,-0.5325807325857626,0.0066176850680308,-0.0097723403766295,0.0147433600913419,0.0005097263730896,0.0034665011111877,0.0225621507171666,0.9997383683627116,0.0674445555363361,0.0418528549923278,9.824926590648477,-0.0255832533253806,-0.0250656097545857,0.0036349382763528,-0.3600606581057722,-3.8230877190308665,2.014368015018141,1121.4941279276231,1124.4976221317147,1122.7365395690567,1118.736980979048,-284.58490563470144,-280.45036141433434,84.51970535861841,-313.9230693879867,151.18348346424395
39.5425,-0.0690147843752782,1.3501373037716715,-0.3149054985976995,0.0053337994469477,-0.0058857295168816,0.0136702547590809,0.000522742537988,0.0034486874379312,0.0225666598804131,0.9997378495279424,0.0688687649801164,0.043095907708737,9.825985930468764,-0.0253853849077452,-0.0248538858234985,0.0036339140794478,-0.3601173495138593,-3.823152447716524,2.014372619011932,1121.0527305002136,1123.7899513009675,1122.7455657878172,1118.1477784520987,-66.4193545906643,-263.67126877289746,-99.85635943129984,-167.19775553133871,151.1809169980734
39.545,-0.1011114284096606,1.3953627364417063,-0.0857413280084785,0.0047241160984403,-0.0001097464095838,0.0138831146508408,0.0005301120018805,0.003443647579002,0.0225677604231171,0.9997372419610194,0.0697761038945823,0.0438964955389912,9.82723691760795,-0.0251932382921888,-0.0246400830250914,0.0036437433056365,-0.3601754133009178,-3.8232171695257455,2.0143776051291167,1121.1620311546696,1123.1792657878495,1122.2372577719,1117.9009922013909,138.25976573765567,-147.91138600316836,-267.761962122602,-19.46691933801,151.17767036587512
39.5475,-0.1509400693134095,1.3591641715259346,0.0368208759375201,0.0050405065434997,0.0048256808779728,0.0152041381397607,0.0005340799592482,0.0034493505935754,0.0225659714411293,0.9997365567957516,0.0702184638356385,0.0443114482356645,9.82865080029879,-0.0250044290838264,-0.0244280893103704,0.0036655166486753,-0.3602342127565791,-3.823281842795601,2.0143833600767156,1121.7440293289014,1123.0503943709523,1121.4067559772054,1118.0504438554087,314.50068433930306,59.04033046923977,-392.93050579838473,121.13945886552015,151.17483486910822
39.55,-0.252495358056442,1.2606223548061135,0.0557433594951482,0.005660570261087,0.0089392821891048,0.0169840670576434,0.0005348311500118,0.0034692979746903,0.0225624432380131,0.9997358008967951,0.0701353037227354,0.0443703652369606,9.830194804639708,-0.0248163879574151,-0.024221823648532,0.0036993095038361,-0.3602946104125963,-3.823345432684373,2.0143896188300534,1122.7345345763667,1123.474467440196,1120.272605242907,1118.5066894957188,442.9943930805628,271.2486691460958,-473.34828975011413,221.01250369457887,151.1718753722065
39.5525,-0.4073160284744272,1.1382189483098974,-0.0167256315853338,0.0060429727070246,0.0117204678931671,0.0184984611897979,0.0005313567871766,0.0035049906807589,0.0225631213403918,0.9997349184346324,0.0695020292966385,0.0440881749846269,9.831833224936435,-0.0246267585718908,-0.0240249906598277,0.003744682218964,-0.3603560971761965,-3.823406201775304,2.0143960935244705,1123.9590012943052,1124.4066377166835,1119.0400145284536,1119.155506373882,516.7022048312144,488.8801056993897,-468.6688990834852,287.7161328382842,151.16882124328495
39.555,-0.6218174426222277,1.0273698134174727,-0.1824526952717168,0.0058777289824432,0.0129650687084304,0.0192306642531724,0.0005194736826343,0.0035575537134918,0.0225684067375879,0.9997340284043847,0.0682958457152742,0.0434267581007318,9.833529087885225,-0.0244331729675694,-0.0238413834906975,0.0038005607063951,-0.3604191654061689,-3.8234636041243864,2.014403496507358,1125.3180456005207,1125.9188679686906,1117.9292607474915,1119.945270159909,590.1082034845696,771.1186355360234,-398.20831078040845,353.6620882572185,151.1656629924655
39.5575,-0.9207979450163232,0.9444438753098214,-0.4442255639713531,0.0044444155906368,0.0139082243561726,0.0188569082162264,0.000498092929401,0.0036213804855462,0.0225765085210716,0.9997333813090507,0.066624424229601,0.0424133097095916,9.835244352828413,-0.0242336404603377,-0.0236742802869006,0.0038659259516578,-0.3604837108768208,-3.8235183399814927,2.014412419721336,1126.9095423117255,1128.26223089436,1117.0489729745534,1120.9238168151667,550.6867379289272,916.7937011468296,-213.45263133510335,344.9324547646538,151.16176573991703
39.56,-1.1724521619163115,0.9235081054507288,-0.6721291514516433,0.0018252936549388,0.0151456882534649,0.0173522340356264,0.0004692853850642,0.0036916758934269,0.0225867414461402,0.9997331606483996,0.0645789815161502,0.0411425424670267,9.83694126379994,-0.0240270426911375,-0.023525889170221,0.0039396007744051,-0.3605491926375868,-3.8235714749047,2.014422968267888,1128.0714792901667,1130.502836474427,1116.8619975908157,1121.669932433733,404.3606897014093,914.4315159942705,52.995320189047725,266.16108422335884,151.15843816242335
39.5625,-1.3843269773799722,0.9387629993971576,-0.8575845119712732,-0.0020955592979802,0.0170909531780563,0.0146026383077213,0.0004347761127977,0.003762021155317,0.0225977926340899,0.9997332514354552,0.0622815746279176,0.0397043779085632,9.838583687523101,-0.0238132599202355,-0.0233971880048952,0.004020396807516,-0.3606136521288185,-3.823624062363248,2.014434815940573,1128.9313457602336,1132.8343884743335,1117.3139495754988,1122.254622236284,286.0935635783208,999.312762860472,324.8112372157946,211.16151413426556,151.15503918128607
39.565,-1.554014835251156,0.9694499438469594,-0.9819013591136558,-0.0076155008959667,0.0198988897353021,0.0103484216047422,0.0003957803861272,0.0038284249277325,0.0226048504110354,0.9997335934280646,0.0598063952050875,0.0381800670412322,9.840137865338752,-0.0235931312332987,-0.0232879590966734,0.004107108615105,-0.3606761009710532,-3.823677899226813,2.014447592796432,1129.501947108057,1135.4994002887247,1118.4860537768932,1122.7257400044034,122.02780278888108,923.81008092646,497.304334399105,138.7919140586036,151.1508910021613
39.5675,-1.6104338861133929,0.9823591134770712,-0.9836834831229324,-0.0124998642055529,0.0225219568691255,0.0067971764778826,0.0003544549672442,0.0038897221476178,0.0226032422690517,0.9997341727075552,0.0571743544718123,0.0366678392061506,9.841572602357902,-0.0233685123506533,-0.0231967143892127,0.0041987111993649,-0.3607369288791776,-3.8237341541107086,2.014460962182158,1129.5414847741783,1137.4534388789684,1119.8004712474956,1122.9485818065775,-79.00967256760448,695.0366945175656,537.564489712529,71.97411371635964,151.1473857270531
39.57,-1.5797272386430035,0.9578833649398524,-0.8773613948078784,-0.017068675267181,0.0253389771954754,0.003945763481914,0.00031420511946,0.0039396228845121,0.0225974521097143,0.9997348306654872,0.0545118874787116,0.0352821457460476,9.842859424825825,-0.0231424327828633,-0.0231205932439625,0.004294819062,-0.3607945218506499,-3.8237927164653014,2.0144742042499386,1129.1068987452188,1138.9745837613143,1121.1738762254572,1123.0856105729852,-294.4984689526286,541.5744926105541,552.0388611650123,71.05179636243615,151.14384108809344
39.5725,-1.463173076403342,0.8657219832232464,-0.6413843569629205,-0.0217500114807246,0.028630180391916,0.0013008942429568,0.0002746070341805,0.0039802725641014,0.0225936221833349,0.9997353737670972,0.0517818437439965,0.0340582880669996,9.84397337638386,-0.0229185839921931,-0.0230561611058398,0.0043948252817571,-0.3608494516533871,-3.823852496299125,2.014486498259465,1128.0689924294163,1140.1613113420187,1122.560665553318,1123.3038407883892,-453.97067608736927,314.24762912445044,429.59949309384535,110.5306591616116,151.13955440264172
39.575,-1.3221311209737867,0.7298454466244356,-0.3736108608686267,-0.0249353289657269,0.0311559543715728,-0.0002894952369546,0.0002312357099738,0.004014853138929,0.0225950536375944,0.9997356979577188,0.0489290165093079,0.0329442230237848,9.844892915093393,-0.0227007150387616,-0.0229999362862405,0.0044981310440948,-0.3609017217229837,-3.823912391311701,2.0144975694436775,1126.8370453647808,1140.5458219069376,1123.3218736909275,1123.6382638687935,-545.1895117261696,17.543089472919867,204.0495021470044,180.90724519361012,151.13596342215328
39.5775,-1.1631021224004228,0.5344246346974602,-0.0608476578110641,-0.0273020929669928,0.0334556394459625,-0.0011121927315211,0.0001834721514017,0.0040421672266957,0.0226059015167725,0.999735714692322,0.0459907928758691,0.0319501310205347,9.845599127496781,-0.0224924098425021,-0.0229483020054238,0.0046045578398473,-0.3609502380259008,-3.8239715721157217,2.014507413116989,1125.3430448707843,1140.2490267893832,1123.5809130640537,1124.208377014358,-618.7471755450304,-235.07278963332743,25.2148293473285,266.3845089794144,151.13236335294707
39.58,-1.005436254048096,0.2997072612070134,0.2634794861605777,-0.0289493959049917,0.0354727867620445,-0.0011653376255213,0.0001347025645416,0.0040614754205566,0.0226236126599178,0.9997354952889712,0.043000914849163,0.031154071766116,9.846075879796505,-0.0222963777754925,-0.0228978488683529,0.0047139220851341,-0.3609961556933838,-3.8240299988466906,2.0145168709436927,1123.7433094870585,1139.370457958772,1123.447947837664,1124.9701864136896,-636.4665589707711,-489.1967683241772,-123.7719124658546,333.6543254371575,151.12876334909262
39.5825,-0.8573725860689296,0.0434734366113252,0.5662712354752951,-0.0301337035726749,0.0366222695502007,-1.6249656640704782e-05,8.884734811159513e-05,0.0040721736393759,0.0226426544762846,0.99973518549075,0.0399939996642989,0.0306326574183108,9.846310380767674,-0.0221142497302389,-0.0228451658372167,0.0048257364251119,-0.3610418443135933,-3.824087888032365,2.014527143279252,1122.1607120759288,1137.8030429477612,1122.962053501724,1125.8766486415443,-657.0808199130446,-833.5681729853886,-253.7116371957448,393.7883072404734,151.12517246720338
39.585,-0.6818559486160907,-0.2388194510692328,0.8582339304203527,-0.0320919248268327,0.0359556459589971,0.0029413022177941,4.853522790160668e-05,0.0040731015958695,0.0226612835891383,0.9997348503618408,0.0370180607966686,0.0304243602824718,9.846293545741903,-0.021946727755912,-0.0227865066329405,0.0049391388977116,-0.3610879656695854,-3.824146800509153,2.0145385985559585,1120.4579053874916,1135.2026170938427,1122.1793896516847,1126.9391279498927,-570.0062839651036,-1049.883007842618,-291.3105625985202,352.31123539843094,151.1208854608607
39.5875,-0.5222679443191101,-0.4134016036198893,1.0144139015473579,-0.0343309342480769,0.0336333938588267,0.0063479745043265,1.2880192006459665e-05,0.0040683467517215,0.0226774451255733,0.9997345399245972,0.034017654411377,0.030489089163749,9.84602011021052,-0.0217935244994895,-0.0227180624174351,0.0050526421763715,-0.3611352850888646,-3.8242073336323887,2.014551451473769,1119.310680656106,1132.5536279085527,1121.5055006887328,1127.638204818535,-384.4259299876137,-1113.5791793122949,-249.86023124439225,206.9465446723676,151.1173396118845
39.59,-0.33561628276422,-0.4934184486423461,1.063476999873156,-0.0362342084056892,0.0307276431060617,0.0098793944588974,-1.883150702962581e-05,0.0040619629620376,0.0226852986594005,0.9997343889580887,0.0309380072317964,0.0307795432252665,9.845488344874301,-0.0216533624595785,-0.0226362888673172,0.0051646889422595,-0.3611845428354716,-3.8242700262261606,2.014565745806271,1118.5357757375525,1129.6347211972786,1120.930088495462,1127.973860673255,-246.11470524206337,-1272.4161641800804,-218.6415576510417,44.00815308119967,151.11383118994203
39.5925,-0.082497308324998,-0.478652889499642,1.0024607970700168,-0.0373979481513974,0.0279812406489148,0.0135494147629162,-4.746325459111206e-05,0.0040609950641852,0.0226813355421625,0.9997344638768983,0.027665041494066,0.0312374590693851,9.844699874111779,-0.0215245970786722,-0.0225379507772602,0.0052736657363208,-0.3612358064332003,-3.8243353459870977,2.01458043343806,1118.0801071298947,1126.1915470876493,1120.412292900477,1127.8582455839412,-89.9011156314281,-1191.0047675813448,-161.26100843249446,-125.73724021028804,151.10967554207917
39.595,0.1416520007362097,-0.3934522455357242,0.865888378589783,-0.0377515694758829,0.0266218046187286,0.015947609429599,-7.293742962112803e-05,0.0040686142358965,0.0226710972345966,0.999734634022007,0.0241610765364838,0.0318139586356312,9.843659708979747,-0.021405797885465,-0.022420198957325,0.0053783274091179,-0.3612876069809828,-3.824402093751896,2.014594762102205,1118.0862701593956,1123.679697359377,1120.1237834533003,1127.3451744722045,71.98606456764493,-861.119808311301,-91.41404949632359,-269.45775894764523,151.1062659736302
39.5975,0.3591676032271612,-0.2675459516537979,0.6631796844841366,-0.0375200429329638,0.0261287011170154,0.0175859989865265,-9.755899767304048e-05,0.0040934249861182,0.0226618114181484,0.9997347041853925,0.0202789633828465,0.0324111527511815,9.842375857669824,-0.0212957727743856,-0.0222812491262062,0.0054772296564066,-0.3613402736814567,-3.8244688341670257,2.0146090823758485,1118.4400374527331,1121.8859480460903,1119.9552226529952,1126.5109567892023,215.73670273471967,-564.4246657878125,-54.53473717418031,-400.9638083811519,151.1029214865087
39.6,0.5807155096107904,-0.1101559326498363,0.3697611013495681,-0.0358779825850788,0.0263143966694678,0.0189394228330848,-0.0001234329293307,0.004142790970093,0.0226580051247556,0.999734544214144,0.0158940126502635,0.032932864039964,9.840859003932023,-0.0211934709855071,-0.0221207046592912,0.0055690716698925,-0.3613931692811984,-3.8245351250471615,2.014623537514544,1119.16495367307,1120.8575740304368,1119.8511097674293,1125.3403554302977,297.4547828177924,-169.36018049374923,-26.69181660551357,-425.57604802725615,151.09899438218804
39.6025,0.7082065690864172,0.0028136917001986,0.1005435666632726,-0.0334201419460856,0.027043081444968,0.01971028765208,-0.0001528012262703,0.0042149443122664,0.0226630160174341,0.9997340854711844,0.0110593264237428,0.0332772864040778,9.839122861115664,-0.0210980602657696,-0.0219395207714458,0.0056529695993116,-0.3614445886815193,-3.8246002796727177,2.014638153313552,1119.9273113668207,1121.0391471436224,1119.8217635699675,1124.383076549068,313.78112138902316,281.39690940642294,-3.8940768974478575,-345.228480530346,151.09580167927626
39.605,0.7573126639278576,0.0813721031124663,-0.1734503947347765,-0.0306755922265594,0.027988857546481,0.0199327553697103,-0.0001861924082838,0.004302737017954,0.0226739758272102,0.9997334212475408,0.0059323319278996,0.0333778200425945,9.837183590823182,-0.0210086926998262,-0.0217401299981556,0.0057283703770909,-0.3614947959974291,-3.824663551878192,2.014653502715108,1120.7338592800158,1122.2645585774696,1119.831639382942,1123.614213027645,312.28262532861146,635.3627327678556,8.037076322848842,-257.74087581212825,151.09270115316184
39.6075,0.7390690874048235,0.130566063201995,-0.4327484981065154,-0.0280830685159813,0.0288199748496165,0.0195205663825593,-0.0002241476710307,0.004395183278938,0.0226862834466276,0.9997327002907396,0.0007444488066596,0.0331722158612655,9.835059674885482,-0.0209245800087912,-0.0215261182545157,0.0057949529642219,-0.361544968629975,-3.824724814311164,2.0146704775408093,1121.4887244934648,1124.2159608074635,1119.861948951582,1123.0943721700066,270.9193167419207,899.4312998901928,13.5599155902251,-137.53328570886654,151.08968367555568
39.61,0.6503167961640801,0.1540954466071198,-0.647154380578111,-0.0259102950521981,0.029381170897894,0.018147059158428,-0.0002684359148472,0.0044864601996658,0.022696101825842,0.9997320322734844,-0.00437574489765,0.0325849315846009,9.832770708960476,-0.0208451339531128,-0.0213019154056795,0.0058523496257369,-0.3615952265510787,-3.8247837279335486,2.014688849387673,1122.0884558637242,1126.7617150769163,1119.8994389608931,1122.9265465991011,210.3315190104983,1169.0202871532551,12.533844996453762,1.1974354094939612,151.086773958465
39.6125,0.4885415424964654,0.1725657545513336,-0.8157572743504004,-0.0241516088677511,0.0297585806161357,0.0152503513012204,-0.0003205607561245,0.004572404954428,0.0226994629307152,0.9997315253186648,-0.0093324555266787,0.0315566915793142,9.83033687324467,-0.0207699004347589,-0.0210725551960594,0.0059005481242142,-0.361645637040488,-3.8248397471851567,2.014707999969045,1122.5403820885178,1130.0610622432328,1119.9246181765643,1123.100359347054,113.95246746450167,1184.9669440825287,1.9621978536623796,105.86018412153904,151.0834162457878
39.615,0.3311404349850793,0.1953404732404755,-0.8605370642112842,-0.0234780851044022,0.0299095374238271,0.0119389979446897,-0.0003772863450444,0.0046528112606042,0.0226958709308888,0.9997311943000804,-0.0141047676548902,0.0301347304349102,9.827777519402263,-0.0206987714241454,-0.0208431445972576,0.0059401247862871,-0.3616962611589643,-3.824892204282021,2.014726948183896,1122.658218201047,1132.686549797332,1119.9092499501614,1123.455847519709,-7.813996507918832,957.8820790886384,-16.14665104840801,145.43660341500566,151.08073628010175
39.6175,0.176294177729049,0.2412109840795243,-0.7963826573997996,-0.0234685357708477,0.0300274041618721,0.0084467394794545,-0.0004315648293697,0.0047286209370931,0.0226894226611423,0.9997309478659672,-0.0186911186062756,0.0284538771745377,9.825111131067745,-0.0206320324561061,-0.0206184237337693,0.005972318652495,-0.3617475218318868,-3.8249412352223886,2.014743931926948,1122.5013121059783,1134.8504726386716,1119.8438849213223,1123.8275423641285,-125.87653755933923,794.2229273845843,-37.816493145135446,112.65794400111432,151.07818631301487
39.62,0.014069912327413,0.3335494363907514,-0.6119455649191773,-0.0238124179731086,0.0303052978322774,0.0052572987404779,-0.0004795786559026,0.0048012475415167,0.0226905109586539,0.9997305472460868,-0.0230984803191447,0.0265979164455244,9.82235590958683,-0.0205704704781871,-0.0204023457025266,0.0059985744865517,-0.3617984734290319,-3.824987658752215,2.014758332950576,1122.028835513251,1136.6576644342515,1119.720167484436,1124.0191372397144,-211.44702323770713,515.0256437907593,-46.75709210894065,-4.181313178239769,151.07528474983715
39.6225,-0.0940994593324997,0.4432875582428166,-0.3995881829769021,-0.0242367235819053,0.0307715380498533,0.0037882991598642,-0.0005206270102432,0.0048726510680739,0.0227012687108789,0.9997299360903122,-0.0273449897810292,0.0246003974591215,9.819529631962073,-0.020514805370192,-0.0201983169939989,0.006020217032646,-0.3618497280026609,-3.825033533520033,2.0147707917262667,1121.4440769897892,1137.4256008576267,1119.6100994607775,1123.8066357982373,-258.9957437059223,160.35615013516673,-33.2654583977558,-176.2069678006363,151.07300439736207
39.625,-0.1725456816589344,0.5816171373118241,-0.1730703373056636,-0.0246868950624048,0.0315818692084126,0.0035438938477153,-0.000556524996663,0.0049430225761895,0.0227222423862968,0.9997291032904816,-0.031413076449641,0.0224543617759318,9.81665010395797,-0.0204659536635051,-0.0200087560000485,0.0060382302397165,-0.3619000756116409,-3.8250800384385273,2.014782304440283,1120.7338567947206,1137.4594451849275,1119.553840192447,1123.1381024007107,-323.22894634050795,-120.08817530329004,6.505993191382464,-373.9078215962981,151.07087325283675
39.6275,-0.2351888025231788,0.7651130181175702,0.0629625737623909,-0.0250961039311287,0.0329322116442436,0.0046372729966463,-0.000583703954678,0.0050057588743222,0.0227553190684662,0.9997280398628122,-0.0351468883142831,0.0202637139148856,9.813735787253755,-0.0204250325335833,-0.0198349418943192,0.0060535487051679,-0.3619481597690022,-3.8251273824743057,2.014793634798993,1119.827932258088,1136.8251599811108,1119.6426294267344,1121.9370966902575,-329.7310085181057,-306.49211477669047,73.24477932866903,-460.84130184544006,151.06849534738114
39.63,-0.2629591694915492,0.9149220029536602,0.2021035291040871,-0.0254989490435545,0.0343323362060642,0.00637201142771,-0.0006023978402024,0.005056164156622,0.0227943620004894,0.999726904589714,-0.0384282583591359,0.0180641214168906,9.810805818517213,-0.0203928967408287,-0.0196776834215636,0.0060662278290082,-0.3619948155221551,-3.825175145954588,2.0148050851381556,1119.0852017521293,1135.9269846110435,1119.9200640890906,1120.8338958914824,-286.1100307787538,-381.1712990083702,166.98479464403687,-388.0164253582113,151.0666681339369
39.6325,-0.2646033324097306,1.0315569402738671,0.2691171956172083,-0.0262017344281589,0.0362913022703322,0.0079925030208983,-0.000616124534937,0.0050888528483357,0.0228309027147178,0.9997259132388642,-0.0411250901191774,0.015830503528502,9.807880846854784,-0.0203700991877698,-0.0195372500913597,0.0060755563826351,-0.3620406194876856,-3.8252229799434256,2.014816700709655,1118.3973821041936,1134.919303486068,1120.477553399955,1119.9970145634654,-264.63256622011124,-379.53714399603047,273.1175736130564,-234.81462792109124,151.06500659816828
