t,ang_acc_x,ang_acc_y,ang_acc_z,a_vel_x,a_vel_y,a_vel_z,quat_x,quat_y,quat_z,quat_w,acc_x,acc_y,acc_z,l_vel_x,l_vel_y,l_vel_z,pos_x,pos_y,pos_z,mot_1,mot_2,mot_3,mot_4,dmot_1,dmot_2,dmot_3,dmot_4,vbat
0.0025,-0.415174915641958,2.111892549613716,-0.1906046553144756,-0.2781845418743985,0.2766610824893114,0.0062294744004366,0.0034461730587858,-0.0105206098879248,-0.0012516573993922,0.999938259133306,0.1838115280225207,-0.1169725725685075,10.862193635522697,-0.1133134721762206,-0.0867074416994016,0.7926050971388146,-1.1912425067531223,0.2067257857191635,0.1828387996064888,1172.3600629827524,1169.1308761238179,1197.5161997222224,1148.9415632425023,-677.9687580456994,177.07180836550833,836.4284189200589,-170.06582159947357,155.47283180314852
0.005,-0.5100253201500158,2.017934861134752,-0.5342258448136717,-0.2795806455875544,0.2833798858453369,0.0035610386252577,0.0031778082928661,-0.0101345870778847,-0.0012365519908203,0.9999427242231808,0.179022613799521,-0.1131316956877798,10.880458713260143,-0.1138400710757988,-0.0875816209305061,0.7950845566068214,-1.1915647863834933,0.2064963046176666,0.1848313223229529,1170.665141087638,1169.5735556447316,1199.6072707695223,1148.5163986885038,-826.9736831093725,184.34252545102936,892.6112939585892,-53.37290563925308,155.47441978530583
0.0074999999999999,-0.527123322553195,1.839516100444733,-0.792542061204827,-0.2822039147657529,0.2893136825807476,-0.0006124152040381,0.0029236929512407,-0.0097465748110007,-0.0012365696420152,0.99994709275871,0.1741774534372718,-0.1089399444182017,10.898735420191944,-0.1143689943162647,-0.0884400045139508,0.7975763135702691,-1.1918883334830632,0.2062674731482115,0.1868237181612757,1168.2251945672056,1170.052588751073,1201.979256192015,1148.6746987143063,-920.2994449065953,113.88747681176028,793.2773383319726,151.93496555857564,155.4759796745761
0.01,-0.4572006005891379,1.6899832981612803,-0.8590051047005786,-0.2842664582245505,0.2924181289294465,-0.0039938864093763,0.0026863102813392,-0.0093588482527019,-0.0012576096526376,0.9999512987177768,0.1693337268106263,-0.1042941870570891,10.917011676165682,-0.1148938338638673,-0.0892798548243924,0.8000901209428974,-1.1922129004215114,0.2060383011269605,0.1888161116281466,1166.0636438631052,1170.1429930287904,1203.5736574611824,1149.2760735162967,-838.6244405425258,-76.35406187487203,512.2634424560146,302.4573766256253,155.4770024923706
0.0125,-0.3110871631197958,1.5964740850059451,-0.7745415989536366,-0.2855018487382452,0.2940709575718116,-0.0071530185498365,0.002469039220976,-0.0089718127755094,-0.0013048705367784,0.999955290581638,0.1645081786733577,-0.0990637177391822,10.93526240301792,-0.1154110518909891,-0.0900963462226637,0.8026363882701139,-1.1925381959503365,0.2058088216183819,0.1908089704562985,1164.0320723644927,1169.6708184416987,1204.5405734042954,1150.1869855974344,-756.5836475556808,-294.7363263734588,267.4897340233202,383.4918871426908,155.4777504197271
0.0149999999999999,-0.1180097164374745,1.5709751211425027,-0.584310728829778,-0.2862295561543188,0.2953523353063374,-0.0098931161591397,0.0022660558764139,-0.0085740747386082,-0.0013743557070874,0.9999591510361716,0.1594557910923722,-0.0933174786993831,10.953447779839248,-0.1159377639886606,-0.0908965781448363,0.8052210811920281,-1.1928639821029847,0.2055789910074493,0.1928043417025334,1162.2807256253268,1168.6693113969231,1204.9111061312988,1151.19353295201,-603.8756966750497,-509.6362911847335,11.69382474076883,388.16917173171527,155.4782794996731
0.0175,0.1080576091988432,1.6169245244111823,-0.3075096201761424,-0.2862417602692333,0.2976058443459455,-0.0115811992761657,0.0020680697928563,-0.0081623375920381,-0.0014554927332444,0.99996290581013,0.1541052991989634,-0.0872024036386044,10.971504612904669,-0.1164796127757464,-0.0916910014929933,0.8078504870452687,-1.1931906303846906,0.2053488167686762,0.1948045451790087,1161.0126938811177,1167.1226369857748,1204.5990425279992,1152.1278314560927,-428.3456367853432,-748.8834042933374,-257.3215710294334,357.7844627080594,155.47855501719107
0.02,0.3852994199563748,1.7017522653919235,0.0555435625025065,-0.2850417280420588,0.3022338162279419,-0.0118957988731654,0.0018625093679098,-0.0077404452123695,-0.0015354848688506,0.9999665342050724,0.1485414546289068,-0.0809424640345621,10.989347123633348,-0.1170314734143047,-0.0924941526670916,0.8105305425599365,-1.1935188288106109,0.2051177825618244,0.1968107966831102,1160.1389974414,1164.9248943754565,1203.6244982761518,1152.9824552655505,-212.5033590340082,-809.063993311293,-415.60674650040727,255.43794184122828,155.4786049200091
0.0224999999999999,0.6007773731069446,1.746619078661384,0.3290988683169401,-0.2833726109437694,0.3075088459731654,-0.0105243866915789,0.001636968439449,-0.0073112103429789,-0.0016022821698505,0.9999700290605988,0.1428275983957707,-0.0747661875157714,11.006872553081816,-0.11759019966506,-0.0933198288874006,0.8132653031086697,-1.193847847352873,0.2048848503435142,0.1988228465338018,1159.9501770859476,1163.0773170192183,1202.5210087954972,1153.405021165299,24.56029864792981,-681.9923837393616,-445.9249311108122,110.159393508502,155.47842096315824
0.025,0.7836111645753062,1.7134393931057803,0.5158102197834394,-0.2814982615792812,0.3136886714110954,-0.0078203817507491,0.0013878732959017,-0.0068714763108544,-0.0016470509085931,0.9999734090458098,0.1368972814253566,-0.068718058461764,11.023966905500345,-0.1181624228831377,-0.0941676381535676,0.8160572014375855,-1.1941759085603043,0.204648864432435,0.200840345016987,1160.2617989346395,1161.5149324567597,1201.3948736205975,1153.5332522330928,192.41574641760047,-545.0052794475595,-415.8623672864905,14.165661975812323,155.47801210721894
0.0275,0.9317613817442808,1.5969280578662624,0.6042267139254947,-0.279152343420358,0.3197673893871649,-0.0046791653171198,0.0011115946226258,-0.0064220465407365,-0.0016718007688825,0.999976647894292,0.1307747232829175,-0.0628537056219241,11.040501650166522,-0.1187469917562398,-0.095039370851724,0.8189075328604372,-1.1945027607460892,0.2044094065396161,0.2028648791770598,1160.9122558180356,1160.3522906219807,1200.4416969590648,1153.475849475178,316.0400151287833,-351.8545850783086,-307.450004667635,-46.1469140940608,155.47742302857665
0.0299999999999999,1.0332193770995248,1.3890209471703483,0.5689664810112913,-0.2756239125272609,0.3244792476195016,-0.0018597615370159,0.0008081450737967,-0.0059703118336401,-0.0016816507083225,0.9999796697159244,0.1246314552792,-0.0571617416595891,11.056337337002148,-0.1193318562096483,-0.0959313438037736,0.8218176738287593,-1.1948286282576857,0.2041668536120153,0.2048982421586292,1161.8419990102836,1159.755659531368,1199.8576235972596,1153.3025176626227,428.4944253539833,-141.12007352791804,-158.50702088719115,-72.27296093824405,155.4766234947604
0.0325,1.1102675116288747,1.076580378514935,0.4083434893063914,-0.2706887489638833,0.3279355134209129,0.0005944398638272,0.0004809313018478,-0.0055230491405864,-0.0016803366816749,0.9999824097778752,0.1186271623112941,-0.0515712126440747,11.0713301554556,-0.1199064574188874,-0.0968339402997516,0.8247874329367036,-1.195153135876465,0.2039221514571347,0.2069412543311141,1163.0547279448056,1159.6466902543411,1199.6491618546288,1153.1144846704867,419.3251595509988,35.56954625942123,-8.536828106343812,-43.53424558780713,155.4754287264439
0.035,1.1635636055413368,0.8025048322787482,0.2100964417998158,-0.2671267112132351,0.3291652877212452,0.0016706952320687,0.0001326624984423,-0.0050858508197395,-0.0016691190788886,0.9999848267212342,0.1128971410204314,-0.046042691513758,11.085335218430876,-0.1204627360793189,-0.0977382477255154,0.8278143741127602,-1.195475671795544,0.2036757095410079,0.2089949484705196,1163.9386248080386,1159.9335072626652,1199.8149394567279,1153.0848464346836,272.3886609226612,151.46150144278187,94.27641553011203,39.558574762077136,155.4742422680017
0.0374999999999999,1.2573711379375268,0.5504924367690353,-0.0044875570371274,-0.2648424959778354,0.3292375504136943,0.0015604416586861,-0.0002324632391364,-0.0046631520448638,-0.0016493069722571,0.9999868942057119,0.1075531302389296,-0.0405192909316974,11.098210631382752,-0.1209944199950266,-0.098633223298182,0.8308945993149172,-1.1957963909528149,0.2034283595712063,0.2110603049437408,1164.4166712494189,1160.403997761555,1200.1205439322791,1153.312277544297,58.98371058460728,205.1763861456494,99.19028233998691,186.12731515718232,155.47286364560102
0.04,1.479067904901992,0.288027455657751,-0.2227424448563493,-0.2631882774878309,0.3288191266476483,0.0002486884328698,-0.0006072139133089,-0.0042492746992167,-0.0016225044444688,0.9999886408425412,0.1024837361936772,-0.0348918474150256,11.109823709390527,-0.1215117174620604,-0.0995032278069876,0.8340213615365266,-1.196116453484032,0.2031800654151036,0.213137347421428,1164.2335433609617,1160.9593891933935,1200.3108908684278,1154.0154830104696,-220.52446984021097,182.44762639815215,-7.143948789507697,344.6476736634847,155.4709935520908
0.0425,1.7822267871798678,0.0924520653721664,-0.3378345402303762,-0.2618619141759461,0.3287494852697874,-0.0015262845388511,-0.0009806078572938,-0.0038437845470147,-0.0015945225649416,0.9999900694541372,0.0976946686836246,-0.0289801889978101,11.12004864437287,-0.1220150040977889,-0.1003276989471783,0.8371894703426647,-1.1964366299412927,0.2029307892996889,0.2152262114101421,1163.3140489002178,1161.3162358935458,1200.0848241883318,1155.0355159126148,-531.1494064135788,116.55211122383668,-208.5116503428254,504.0998973733169,155.46925975292643
0.0449999999999999,2.2033368720260302,-0.1072483778774947,-0.3595016698481552,-0.259149584127803,0.3296756350702619,-0.0036581028491134,-0.0013465818809734,-0.0034476448373922,-0.0015697134422974,0.9999911824534742,0.0932224056643212,-0.0227256257819094,11.128768907998658,-0.1225022123814483,-0.1010942386130059,0.8403931884021776,-1.1967566203847244,0.2026801857827767,0.2173258242119821,1161.5777963288936,1161.5421497495126,1199.2683326167137,1156.535982497336,-808.4979436601776,76.86999723487138,-432.1180396347702,670.2245105062051,155.46734883355708
0.0475,2.6886448941169565,-0.329823924457697,-0.3008900687277911,-0.2543337979042049,0.3313231633077371,-0.0056794154302018,-0.0016971576710939,-0.0030601539100656,-0.0015516850078521,0.9999920016366558,0.0890651534431314,-0.0160372481297588,11.135880841667916,-0.1229738626006132,-0.1017875296756564,0.8436272622349316,-1.197075292176148,0.2024281728807636,0.2194347614167467,1159.2715591819167,1161.70058587972,1197.924233990158,1158.3866384651456,-1007.436704171322,62.430166634021525,-648.4120850628182,793.2565263470218,155.46529447857142
0.05,3.187094164979604,-0.5795274227878315,-0.1612822164419112,-0.2469243023135647,0.3326063477170974,-0.0069058853650352,-0.0020286862974517,-0.002685100945253,-0.001540793036302,0.9999925399878524,0.0853190850079811,-0.0089289843758235,11.14129237148353,-0.1234231331516933,-0.102399348084617,0.8468874136175754,-1.197392273231093,0.2021748668446223,0.2215519659449275,1156.5406128080372,1161.8543005826828,1196.0262721913996,1160.5022651290712,-1211.380176409512,84.23234868482726,-919.2439159562585,931.6936115955291,155.46307104599035
0.0524999999999999,3.712482694954325,-0.8645949902550194,0.0614798168107481,-0.2360837445736751,0.3316552581263221,-0.0069607841001457,-0.0023421174380162,-0.0023273454623928,-0.0015389176252288,0.9999928025415536,0.0821017148459528,-0.0015223262517516,11.14492517564458,-0.1238404375644243,-0.1029305316889,0.8501694676689036,-1.1977086519203715,0.2019211100460256,0.2236767867474359,1153.2146582998691,1162.1217476231443,1193.3280144103767,1163.0451065231234,-1160.2742968893842,121.26799939846939,-1020.1508695521175,883.0903702340041,155.46021216093024
0.055,4.033199606400346,-1.0324413908477899,0.2609183127748039,-0.2258231187570061,0.3282691197927585,-0.0058635705571108,-0.0026399582254835,-0.0019803703536233,-0.0015462496556905,0.999992825886538,0.079273031789174,0.0060231470897177,11.146719096112214,-0.1242352008622008,-0.1033852802415504,0.8534667602525757,-1.1980253888412242,0.2016672267728375,0.2258078181519625,1150.7392413235902,1162.460640579675,1190.9255178436388,1164.9177169802413,-860.9779376405633,168.24042956959588,-947.9601835737404,645.0707282573143,155.45767411455208
0.0575,4.180266878905163,-1.0608555827708948,0.4432927674761177,-0.21422332646257,0.3231666315248876,-0.0042157615123839,-0.0029242364088707,-0.0016363574913612,-0.0015625514938186,0.9999926504382052,0.0766591536484608,0.0135589264300729,11.14662997515662,-0.1246187639987143,-0.1037680611668107,0.8567727638968755,-1.1983428827661813,0.2014143367487198,0.2279446722319292,1148.9097686116663,1162.9629497709923,1188.588213492508,1166.27046016441,-610.4066184147999,267.3926922417651,-973.0678031164192,437.2469615708271,155.4549785901594
0.0599999999999999,4.125244594883515,-0.8953971244748339,0.6221417318565969,-0.199717106601126,0.3170313108090876,-0.0023466034746444,-0.0031972062528018,-0.0012915122952577,-0.0015875069220037,0.9999922735272566,0.0741706530782753,0.0209352392599262,11.144628816539052,-0.1249953477200687,-0.1040848437716651,0.8600819050524044,-1.1986616087090411,0.2011630396727717,0.2300886339104142,1147.6872082315163,1163.797604040884,1186.060178828057,1167.1039517880954,-282.08850954411,348.33935839756134,-862.7213103240596,166.53909543301788,155.45156684043656
0.0625,3.891604023180596,-0.6014076729434686,0.7306066078185948,-0.1884153071148051,0.3132924723846475,-0.0010022809803908,-0.0034626771361012,-0.0009402683375581,-0.0016196858036429,0.9999916872187936,0.0716732738825328,0.0279739909307898,11.140703950328655,-0.1253723578249624,-0.1043450123000879,0.8633875378320032,-1.198981321355108,0.2009134026414006,0.2322410831198045,1147.499326063946,1164.70464656298,1184.2746069408877,1167.103155641575,68.17020630014662,403.0702178938551,-639.7023769772198,-132.98896011947352,155.44857987149405
0.065,3.5011531376309346,-0.1970789431363106,0.788315629498798,-0.1789982141823156,0.3118593186949678,0.0003180024624842,-0.0037227655329233,-0.0005814758660473,-0.0016537513110374,0.9999908960875016,0.069126113158224,0.0345434585926435,11.134860250427316,-0.1257505280185637,-0.1045548905631105,0.8666840353529386,-1.199301918852656,0.2006656928655516,0.234402378168897,1148.0280592630168,1165.8129551303532,1182.8616669431708,1166.439006987498,288.68595667231574,465.0496534905865,-506.1560872845344,-358.31887072304164,155.44544827135104
0.0675,3.0241191322484675,0.2437197407776602,0.7926576101697091,-0.1712383967852926,0.3123882723391191,0.001880909516761,-0.0039757757562469,-0.0002174193704199,-0.0016847403923703,0.9999899184950533,0.0665596675433654,0.0406086199182945,11.1271199963073,-0.1261248437741715,-0.1047148811124746,0.8699669911164865,-1.1996229278707755,0.2004204996608796,0.2365723530419119,1148.9427558473076,1167.029894830433,1181.743826504465,1165.3115612879599,396.5100580071063,487.6809827059783,-386.79978712216285,-541.0937074385852,155.44220037927207
0.07,2.4987904846471007,0.6620884178937351,0.7125921057441824,-0.1655094784632772,0.3148969039249607,0.0040076407256761,-0.0042230289262622,0.0001547657003976,-0.0017072239373391,0.999988770361711,0.0638854633553456,0.0460802875765122,11.117525486967308,-0.1264997557444869,-0.1048308378441127,0.873229656175753,-1.1999436030349988,0.200177518300666,0.2387509307216564,1150.0106095530523,1168.251360043883,1180.92766800756,1163.733538450305,426.9387214621028,498.21159373355033,-309.52689708210585,-776.3536499327998,155.4388168640768
0.0724999999999999,1.8743616683614897,1.0726313969278063,0.4937374223300957,-0.1607527351251832,0.3193550702974803,0.0072160688124523,-0.0044663681284215,0.000537882036885,-0.0017224589615412,0.9999874632099996,0.06101202124303,0.0508739887125484,11.106138299423623,-0.1268788678801398,-0.1049113533992893,0.8764647742326651,-1.200263414560859,0.1999366250125274,0.2409384307489693,1151.077449454618,1169.5209527991008,1180.1961920190545,1161.4297930382959,310.41027403803184,406.5954550411342,-244.0902100412136,-900.1968624061662,155.43460607503596
0.0749999999999999,1.3887497659889625,1.312288475090561,0.2016163196912412,-0.1580210873184686,0.323642268133839,0.0099523024613507,-0.0047049789417052,0.0009338579013566,-0.001732260188357,0.9999860139054944,0.0578641696751514,0.0549800510636517,11.09303924747161,-0.1272647768766911,-0.1049604268590292,0.8796655035302486,-1.200582261165306,0.1996979796160636,0.2431349112010337,1151.5626609232427,1170.2843373190888,1179.707216957354,1159.2325541382743,80.14375951661344,229.51751168229728,-191.4182845355297,-919.5558976373824,155.43097627722602
0.0774999999999999,0.9531840001944792,1.4405994781635787,-0.1871331932006313,-0.1560217653017721,0.3279348510134472,0.0116364099164348,-0.0049367830264219,0.0013501960696829,-0.0017339208507328,0.9999843942403288,0.0542420332600072,0.0584311901517812,11.078329694072172,-0.1276714324741329,-0.1049783890738417,0.882823574152508,-1.200900095454634,0.1994603567248839,0.2453413994255884,1151.4781682522012,1170.6685403575123,1179.2391005963768,1156.8320135501087,-169.44251715053707,96.63457415758776,-223.19641491399105,-1074.2653466856143,155.42722659758505
0.08,0.4832069749435704,1.4859761980865585,-0.7073678900793132,-0.1543860363933401,0.3325058547559816,0.0113174631503684,-0.0051584617107419,0.00179299339798,-0.0017272231255901,0.9999825745704416,0.0499766549901592,0.0613035429459945,11.06212946772024,-0.1281104844217696,-0.1049635766170097,0.8859312162643186,-1.2012167786734735,0.1992231210220829,0.2475577948665325,1150.71544833749,1170.7675101898767,1178.591234882784,1153.8612274048462,-369.3639845986123,9.747685815545983,-265.7860082607383,-1074.251366065254,155.42259460100962
0.0825,0.1238295062141201,1.4569965816418156,-1.1254566134543056,-0.1536193769984702,0.3353096416790745,0.0087628732807486,-0.0053707675475215,0.0022575478554958,-0.0017134824298813,0.9999805247354308,0.0451387532232296,0.063598664249404,11.044574476889084,-0.1285746603994311,-0.104921526879297,0.8889827178056025,-1.201532341367274,0.198986258792467,0.249784057743217,1149.631348329208,1170.71727878659,1177.9101705550731,1151.4607567197827,-486.4464845598373,12.448402266818436,-315.176659751796,-897.8444090086659,155.41862870798235
0.085,-0.2186611288962194,1.3829986623082255,-1.452504953337287,-0.1530700032806017,0.3371594660167137,0.0040669482275169,-0.0055748043711127,0.0027381103905682,-0.0016947814642659,0.9999782260814504,0.0398227328210551,0.0653247449525222,11.025817592053539,-0.1290549753969639,-0.1048583914949997,0.891972991534632,-1.2018469604817967,0.198750451868934,0.2520192295530258,1148.2832159146908,1170.8297522012108,1177.0153515840248,1149.3720053598029,-550.8348278109675,121.65293630159783,-400.2493923165272,-742.5353672592784,155.41455805807345
0.0875,-0.5554777890587662,1.275705024360745,-1.6596911448544531,-0.1527481314357918,0.3389020182496776,-0.001765993970432,-0.00577152412588,0.003227710966449,-0.0016748050392785,0.9999756744426916,0.0341508571933887,0.0665067411509982,11.00602689486456,-0.1295402119592364,-0.1047803198178391,0.8948979313196747,-1.2021600463742652,0.1985160764553982,0.2542622751976179,1146.8771741901533,1171.325543468098,1175.9089235934905,1147.7480798834863,-548.5631406937512,339.0609334234802,-495.9873974195043,-485.39062454560826,155.41040431721044
0.0899999999999999,-0.8807466022342689,1.110138775562329,-1.6969551045102695,-0.1534210470135516,0.3413520250832921,-0.0078182508844423,-0.0059712947707408,0.0037215919665006,-0.0016550912869566,0.9999728212461076,0.0281991739702864,0.066973563794924,10.985384687503736,-0.1300237252733964,-0.1047096842046941,0.89775162923456,-1.2024706967187255,0.1982838467934626,0.2565137649038592,1145.540400211222,1172.525056868328,1174.5354145969275,1146.9450522370748,-562.2514698374299,715.1089229118511,-658.379861472987,-105.2922032634344,155.40615488026697
0.0924999999999999,-1.2287968971439076,0.8034048077889004,-1.5532041324466428,-0.1559087144537684,0.3450280221235174,-0.0140942097378754,-0.0061876453319503,0.0042109876110625,-0.0016365064540225,0.99996962861469,0.0221342738156943,0.0664960430300571,10.964083372355864,-0.1304918747835664,-0.1046743334868231,0.9005293968008797,-1.2027778499457586,0.198054611330139,0.258774493397806,1144.065916840966,1174.9010880826572,1172.6170242861256,1147.2216188671691,-531.621902562983,1008.1031460815202,-733.7163166318979,334.65173568038125,155.40095066006958
0.095,-1.4513909933421543,0.4305940365302459,-1.3059394546123653,-0.159283977922161,0.3478618544472424,-0.0179280162771012,-0.0064239129212822,0.0046811509281108,-0.0016218753737853,0.9999661430431332,0.0162547699860485,0.0650785488908326,10.942321401534112,-0.1309195976848679,-0.1046839724196697,0.9032312923728117,-1.2030809316449227,0.1978291005834703,0.2610450883360819,1142.8822906984071,1177.5655725987356,1170.866833013768,1148.6183109154767,-495.119880183483,1140.8930463171591,-704.1259409538263,803.4634803650071,155.39653046034647
0.0975,-1.5631045148053546,-0.0786656405213563,-0.9757649475969812,-0.163694633953992,0.3495402230500415,-0.0202630363381319,-0.006676483904037,0.0051286760115544,-0.0016144445597019,0.9999624067604348,0.0106120114564724,0.0628826570512792,10.920302632415565,-0.1313015797806253,-0.1047350539016262,0.9058572352437256,-1.2033805463067655,0.1976066307633279,0.2633247103614438,1141.5903174400487,1180.605553314243,1169.0963945813564,1151.238936268994,-561.0153110073038,1205.1077568048174,-686.5871460371632,1228.611280537642,155.39202824294068
0.1,-1.5579136023809248,-0.6956414509011606,-0.6142048637070495,-0.1685745379605655,0.3498069116239936,-0.0215839167706387,-0.0069417462539745,0.0055542492817373,-0.0016122841257488,0.9999584617285902,0.0051717329040067,0.0600704990354897,10.898231779564043,-0.1316400871636639,-0.1048214930326184,0.908407757355537,-1.2036778529267687,0.1973849646789757,0.2656116174627519,1140.0772141433706,1183.59111138276,1167.433897283582,1154.7613673181647,-682.1041824678099,1086.462383996376,-609.8062049707545,1572.17006741257,155.3874610614357
0.1025,-1.396293030758304,-1.4173913506046107,-0.2522637167380563,-0.1737009421264092,0.3479078252119162,-0.0219463210855585,-0.0072072697971239,0.0059553112854443,-0.001612599649676,0.9999544316652702,-2.6872405945468917e-05,0.0569953609124371,10.876309502309004,-0.1319306268418325,-0.1049195699368943,0.9108879524855898,-1.20397470433784,0.1971621244126786,0.2679035483772927,1138.1797965277096,1186.037865234225,1166.0473635565027,1159.099786606057,-932.7771417593812,851.9482744106898,-519.4918129846438,2004.9162673902667,155.38281888377324
0.1049999999999999,-1.0290125078522152,-2.354942582348029,0.1468949473241458,-0.1793581478080718,0.3426356744101858,-0.0214351613326303,-0.0074614252359463,0.0063334099340065,-0.0016153326168418,0.9999504124548376,-0.0050321384345612,0.0539891106878734,10.854730497261956,-0.1321745503993403,-0.1050064039757029,0.9133034370238357,-1.2042733710049864,0.1969375865731667,0.2701984744741071,1135.4133284345735,1187.850852754813,1164.8364382186587,1164.7859486551163,-1083.7008106684173,435.3618818360254,-361.82527841210754,2091.3290095473294,155.37716544398188
0.1074999999999999,-0.6082287679987609,-3.1537920389536116,0.4327919361003234,-0.1824292648953786,0.3356973053256899,-0.0203381920487067,-0.0076952200713832,0.0066876442425817,-0.0016231662500051,0.9999464964169535,-0.0098369532890634,0.0513207675511538,10.833679653498004,-0.1323674230537296,-0.1050637045090007,0.9156613078741596,-1.2045757485861548,0.1967117512466532,0.272495686618655,1132.7612924743676,1188.214674643405,1164.238237164442,1169.5564316537937,-1095.9929093576184,-98.88919490113032,-163.6689549519359,1832.608621326652,155.37238774225042
0.11,-0.1278113131550745,-3.9236039963349296,0.657751741167032,-0.1826034622717595,0.3266412835898374,-0.0186973948402771,-0.0079110435163238,0.0070155601946945,-0.0016355126080284,0.9999427032247032,-0.0143968366630358,0.0490048968689979,10.813329725181593,-0.1325023367515877,-0.1050927743549448,0.917967519637698,-1.2048818880799252,0.1964853399352009,0.2747965005523887,1129.9333638877856,1187.3564067803077,1164.0180934438993,1173.9489917617495,-1221.4090757361635,-617.3365556394849,-39.28521547477426,1769.7062534040908,155.36754367687809
0.1125,0.4449008020130493,-4.768748464113661,0.8507236384241877,-0.1800446359792223,0.3140206431066561,-0.0162604603467157,-0.0081137419369217,0.0073144961189717,-0.0016521381128899,0.9999390358232308,-0.0186595584631763,0.0469961494175633,10.793838955347924,-0.1325724020771625,-0.1050995520670322,0.9202278941973449,-1.2051906644701325,0.1962592173635163,0.2771025446535039,1126.6542470956867,1185.1279918652076,1164.0418110870683,1178.404962920814,-1131.8016356244232,-962.0182282390479,29.439231208652902,1461.3599689935184,155.36165676003415
0.115,0.8834796209836479,-5.378796776880988,0.9462818504985177,-0.1766937925662775,0.3021689646838464,-0.0139771553054533,-0.0083072069866964,0.0075849561731627,-0.0016713011531867,0.9999354844679282,-0.022636428169271,0.0452617991330998,10.775349784645886,-0.1325780154244518,-0.105088073673119,0.9224476549252312,-1.2055001510842351,0.1960342819378667,0.2794142775351414,1124.2743557096635,1182.5463156391124,1164.1652895999423,1181.2557916067171,-823.9289686423939,-1103.2428566394165,42.7649171265784,942.3747704075587,155.3566910084048
0.1175,1.2700706884609432,-5.855489947595107,0.9756925267151328,-0.1732666819643791,0.2886083347457843,-0.0114639226563533,-0.0084931984961862,0.0078346963026969,-0.0016898979506061,0.9999320025524444,-0.0264882474776595,0.0438062110922462,10.757988181439726,-0.1325349027113898,-0.1050583666278695,0.9246304780267252,-1.2058075482424995,0.1958105332407501,0.2817313579859268,1122.5346022524748,1179.6117775820103,1164.2556356727011,1183.116836772852,-561.3762588937344,-1169.4787376973204,18.63197877387396,584.3211482484105,155.35166477542083
0.1199999999999999,1.6221700472774807,-6.193475962513471,0.9534639770247044,-0.1700789315480668,0.2735082761340628,-0.0089036750868594,-0.0086725285670263,0.0080727056043617,-0.0017040752324851,0.9999285405232354,-0.0303934503449603,0.0426451931505794,10.741862968180106,-0.1324630698329589,-0.1050087361661529,0.9267797829593593,-1.2061105178337224,0.1955878962940277,0.2840530470824935,1121.4674744151948,1176.6989219506258,1164.258449493812,1184.1773973479592,-251.360739041093,-1087.437033043354,-21.41577491574939,253.60310673227153,155.346589540907
0.1224999999999999,1.9474852210400992,-6.335849146222019,0.876084277274852,-0.1668298204461944,0.2571310229738452,-0.0066473242887405,-0.0088455623685139,0.0083039992950461,-0.001713009015981,0.9999250739867984,-0.0344358790875754,0.0417962406923828,10.727065913973496,-0.132376110290838,-0.1049375942139288,0.9288998996308544,-1.206406973143382,0.1953664191714088,0.2863787043228021,1121.2777985572693,1174.1745924167935,1164.1485567981224,1184.3848523065133,109.81034032984088,-940.7681715015306,-63.95660517359824,-64.75567233142095,155.34145640555903
0.125,2.3118658614573975,-6.264591980598913,0.7314380089176715,-0.1621392650403978,0.2373884900426198,-0.0043844374903164,-0.0090152622838049,0.008533483935625,-0.001716594976433,0.999921551622432,-0.0386870089963287,0.0412129566115132,10.713672760055067,-0.1322881298231956,-0.1048485286006975,0.9309942172746541,-1.206696023696322,0.1951457828870248,0.2887079086206769,1122.016526116844,1171.995081093118,1163.938666467944,1183.853618986302,409.5809738901149,-614.9016539028247,-78.71329158415385,-292.73888424804653,155.33523100387742
0.1275,2.581159312545774,-6.010685384244083,0.5764692920887559,-0.1572335209955602,0.2215528459797176,-0.0026871964278166,-0.0091836623649037,0.0087651184922396,-0.0017155189123992,0.9999179344544784,-0.0431881068887609,0.0408614672367224,10.70174421568965,-0.132211341322318,-0.1047437978660529,0.933065893240328,-1.2069787143928992,0.1949252213313598,0.2910405391569728,1123.3257034267199,1171.1000841472796,1163.7549903402016,1182.921157885273,630.5357136561264,-141.27154550578769,-64.7195534957063,-440.22693665201547,155.3299892660943
0.13,2.781309348363175,-5.583852809975977,0.3965911016557475,-0.151188235784523,0.2067419433672636,-0.0012113629673176,-0.0093473406264335,0.0090015994803552,-0.001710712692625,0.9999142401459972,-0.04794429293534,0.0408177476044661,10.691327238687675,-0.1321547564482431,-0.104615782098939,0.9351186135237796,-1.2072572786067175,0.1947047371613387,0.293378062913625,1125.1692046851247,1171.2887233655892,1163.6150687004651,1181.652484303042,887.6128609729667,325.5541020288544,-50.65014751812664,-604.4635187235593,155.32469237217936
0.1325,2.8881632499201144,-4.927210860718575,0.1691567263639274,-0.1427784950270896,0.1906603811075786,7.405988449726841e-05,-0.0095032349912401,0.0092455809176501,-0.0017036507644864,0.9999104816723388,-0.0529518189906284,0.0411437854910486,10.682456515079224,-0.1321257712572871,-0.1044580010423335,0.9371548796740544,-1.207534234612266,0.1944848197806418,0.2957213309978332,1127.7637677315847,1172.727854657424,1163.5017396026108,1179.8988402916552,982.2931908582168,698.7231493569192,-41.958821295929695,-664.3806818581191,155.31827310258987
0.135,2.8254276817934745,-4.312552847137629,-0.0123203799404132,-0.134798940432102,0.1792671955224285,0.0006521017696186,-0.0096515287562927,0.0094983546891865,-0.0016969213968603,0.999906652330789,-0.0581716022033755,0.0418273201928839,10.675155751323047,-0.1321273218410883,-0.1042708057746146,0.9391757618668308,-1.2078118615534863,0.1942664952728607,0.2980721392383721,1130.0806706394155,1174.7823391123738,1163.4052745939855,1178.3305808937514,924.7583307185315,938.1984062857091,-58.190805419872,-634.1530208765556,155.312871886342
0.1375,2.567774905869455,-3.699708798275759,-0.1577955573212911,-0.1260876040051479,0.1704083133938577,0.0006209604351178,-0.0097965522280773,0.0097521903034872,-0.001691419984011,0.9999027895354922,-0.0633671287809429,0.0427637276377963,10.669438918211672,-0.1321440779910614,-0.1040624783500697,0.9411829756408528,-1.2080919478144692,0.1940497582398778,0.3004328135947593,1132.3875593851772,1177.4188466888525,1163.2107855755116,1176.7280751872725,900.775417312297,1095.8630490434634,-106.79965629810783,-636.8992729951054,155.30741850839976
0.14,2.141198157379673,-3.139936188630266,-0.2489807634030591,-0.1177640412470378,0.1633694611118749,-4.146564936319722e-05,-0.0099388824348263,0.0099957553385199,-0.0016876761209037,0.9998990013467663,-0.0682228717907119,0.0439258494822992,10.665310993615904,-0.1321527113734495,-0.1038346986322781,0.9431796226233212,-1.208374926416554,0.1938347336107901,0.3028045468347952,1134.5845477259772,1180.2616543575912,1162.8712763124952,1175.1460845287759,835.5794113870606,1122.2246443926442,-173.52407757248315,-614.6607044423939,155.30192398951027
0.1425,1.5394413986244913,-2.69205534826449,-0.2452303839276374,-0.1113795982196636,0.1579090877232594,-0.0016515342854244,-0.0100791147859092,0.0102177295629406,-0.0016840244035211,0.9998954006147164,-0.0724223159320348,0.0452838426309812,10.662767979582775,-0.1321295867974291,-0.1035891077240786,0.9451692197072364,-1.2086600913250367,0.1936227688123927,0.3051865976907712,1136.5654564421127,1183.0299699108157,1162.3431651876492,1173.6547716650605,811.4684462693314,1134.422203621994,-256.32246591053564,-613.6707412685638,155.29638355984335
0.1449999999999999,0.6968387230485411,-2.318944993517889,-0.1058119161144501,-0.1069857449100365,0.1523755566365786,-0.0043897924726177,-0.0102162688385797,0.0104106351391421,-0.0016826977757345,0.999892071556578,-0.0757321400858386,0.0468409017785187,10.66179600204934,-0.1320574664591019,-0.1033256278330766,0.9471558038800392,-1.208945736619475,0.19341462379121,0.3075758887997315,1138.6418899573239,1185.9337653757011,1161.5896639829425,1172.077730822433,711.6496257560844,962.3193586150637,-266.6460933833162,-524.7229887367691,155.28968823002828
0.1474999999999999,-0.0244947517226246,-2.1502703456021335,0.1206450036828854,-0.1062577744173612,0.1482764619064423,-0.0064787718434087,-0.0103492517993982,0.0105728136127765,-0.0016847165499559,0.9998890425327324,-0.0780439726185479,0.0486015974746394,10.662369966265015,-0.1319307086640897,-0.1030436718851335,0.9491436464938444,-1.2092303602775527,0.1932097904477252,0.3099701068450838,1140.123704570893,1187.8415667038907,1161.0099347207326,1171.0311567213766,548.5673892039354,632.733665125624,-177.16862594334071,-343.27693624240936,155.28407543303223
0.1499999999999999,-0.6622050445081404,-2.113301563684916,0.4256913544843862,-0.1084399002406216,0.144433854038296,-0.0069743483265928,-0.0104813940498374,0.0107092158385858,-0.0016886773564698,0.9998862308103774,-0.0793915489995795,0.0504752747761388,10.66445225886272,-0.131757241796234,-0.1027501861401812,0.9511362808552252,-1.2095126565358207,0.1930069371247369,0.3123670110973059,1141.3847269033436,1189.0974337013292,1160.7038208532258,1170.361346141221,476.2967012105488,381.9879670858878,-45.5011967776954,-195.99486453093945,155.27843607780932
0.1524999999999999,-1.161602119189383,-2.1576668592013513,0.7477403372445955,-0.1127448141759441,0.1401520741557502,-0.0053894745909882,-0.0106182786037004,0.0108299449499157,-0.0016967064557611,0.9998834688889756,-0.0799221506941782,0.0523234315746345,10.667991718090828,-0.1315547531546597,-0.1024568700763541,0.9531371489309453,-1.2097922377145724,0.1928043538859182,0.3147638180754079,1142.5051880769458,1189.7515065393204,1160.782428736844,1170.051182398722,424.92212812726353,103.6330418941815,149.11996965224702,-36.00669980905874,155.27278171756276
0.1549999999999999,-1.4374509701241123,-2.250798132510864,1.024862652147292,-0.1185412583462283,0.1347452513005144,-0.0016055589346731,-0.0107652319001699,0.0109468906271319,-0.0017088894308814,0.999880575969428,-0.0798246476572732,0.0540121787790559,10.672923231123544,-0.1313452075888668,-0.1021740942640617,0.9551504413065444,-1.2100693364350263,0.1926014398302665,0.3171588275983615,1143.5093375439799,1189.6155989108,1161.449420701487,1170.1813126421755,425.7574078233116,-254.45136939097188,436.9479441344079,147.83883148761547,155.26711878520783
0.1575,-1.4846718626115079,-2.3496869374614953,1.241122123357145,-0.1250724897510329,0.1272794126257814,0.0038800850406598,-0.0109226766350316,0.0110678741176944,-0.0017220749166225,0.9998774712505362,-0.0792054488905621,0.0555112168708489,10.67916801242586,-0.1311436667118838,-0.1019018922117139,0.9571826858771632,-1.2103442146362327,0.1923987851076152,0.3195525460514428,1144.6339751160624,1188.4792496923656,1162.9671684575162,1170.79037655616,404.0515093143309,-577.2246305723451,663.4721120905846,284.05026790351235,155.2603262008593
0.16,-1.3013232442094467,-2.376911424538101,1.3023139255972342,-0.1293562081681668,0.1204618657821436,0.0082728716176121,-0.0110892099286834,0.011198889043271,-0.0017299511507701,0.999874118335679,-0.0781371866853641,0.0568279767672213,10.686634412146223,-0.1309622661864034,-0.1016360138618926,0.9592405256848054,-1.2106171723954504,0.1921969817131182,0.3219475109029631,1145.5295950905515,1186.7294757579384,1164.76678126194,1171.6015639816933,353.92858688333,-841.0376405073284,799.3998148815982,366.794596135696,155.2546776486271
0.1625,-0.9269733260097174,-2.3100096078891155,1.2407477026244098,-0.1325297272815217,0.1130628188800737,0.0118448711837959,-0.0112610979786487,0.0113398568201942,-0.0017291284889715,0.9998705671309988,-0.0765707346092783,0.0580196547482324,10.695219663125773,-0.1308007443594826,-0.1013685157260426,0.9613311412378976,-1.2108885569707928,0.1919967849373263,0.324346923115908,1146.403618050479,1184.274061489829,1166.9641675319242,1172.6243495368385,385.9801366172629,-1177.288521784884,1011.7031840157769,474.2794316256091,155.2490529397878
0.165,-0.3189819499818319,-2.11002012215812,1.045912500281799,-0.1350960094863718,0.104407378330002,0.015246441060022,-0.0114338727273028,0.0114888448836211,-0.0017168870406721,0.9998668960276108,-0.0744256838762512,0.0591585774068266,10.704811854196956,-0.130654763295728,-0.1010902824443547,0.9634604269806792,-1.2111582647705157,0.1917993703880161,0.3267528268132213,1147.4594957736379,1180.843033149014,1169.8252971820189,1173.972961139821,394.84253448727,-1269.5544277232773,1052.5202871348474,495.73997160755374,155.2423443454566
0.1675,0.2665885229386345,-1.8622930912577025,0.8021922820039851,-0.1357071941296514,0.0984041591803758,0.017586687885523,-0.0116024897255882,0.0116378508157996,-0.0016956437763257,0.9998632494442856,-0.0715024969298407,0.0603299239163171,10.715292612486149,-0.1305068426313006,-0.1007922896732079,0.9656340513323868,-1.211426050133276,0.1916048163462,0.3291664796694725,1148.3778307229154,1177.9262893512123,1172.2267689675984,1175.1030493948763,382.62464632380176,-1085.0036823884684,932.2894777404136,428.1547890887392,155.23679806123133
0.17,0.8613822195479723,-1.5792657721441028,0.4983473040907245,-0.1339130626522813,0.0943190902866187,0.0192644023194174,-0.0117627240511017,0.0117795321601882,-0.0016695815231547,0.9998597536565796,-0.067626651058961,0.061600995263102,10.726539444312907,-0.130339793454624,-0.1004673197346801,0.967855660308645,-1.2116916671500026,0.1914127456801632,0.3315885703725852,1149.3726190052569,1175.4180147370716,1174.4867445707207,1176.113735085265,412.82379306999206,-871.4990247229699,867.0901578866042,364.8396860702175,155.23130980429596
0.1725,1.4084535622256162,-1.3120604337109432,0.1641777551315762,-0.1300307931484845,0.0917239629674334,0.020245603159166,-0.0119132070945842,0.0119112682846376,-0.0016443958679055,0.9998564470319512,-0.0627371661987839,0.0629772439648836,10.738428314155774,-0.1301445590184559,-0.100113728584733,0.9701257980382184,-1.2119562962459924,0.191222544840724,0.3340190114712271,1150.4419496882651,1173.5687942275977,1176.5622197570315,1176.9272478252271,442.4431226846078,-529.3393296996323,783.5164244766921,257.63329352876076,155.22587889954804
0.175,1.843457049074244,-1.1115786292559555,-0.1807729106787497,-0.124410576422498,0.0902594433137994,0.0203072131591941,-0.0120561853725867,0.012033702764014,-0.0016234586987967,0.9998532930044745,-0.0568559266236433,0.0643848551554691,10.750836274380925,-0.1299181356034145,-0.0997360089814378,0.9724425688647758,-1.21222103784832,0.1910335026673462,0.3364573752435554,1151.58483461868,1172.7713180885735,1178.4043266931044,1177.4019015529088,509.46880253468646,-89.45626853965264,768.5494512272761,115.13688212680844,155.22052824907195
0.1774999999999999,2.1948283015386716,-0.9860386787517542,-0.5713795490939529,-0.1166886024367272,0.0888934445035348,0.0191978908815388,-0.0121994012916422,0.0121537003149942,-0.0016058665012964,0.9998501200596553,-0.0501521498860293,0.0656291011765153,10.763643848756807,-0.1296698691216617,-0.0993481365753868,0.974800898570786,-1.212486217061776,0.1908450512214092,0.3389045795651163,1152.9892937009388,1173.1215128848994,1180.4049670131678,1177.5029322358614,511.2274906966856,324.2813478088935,714.2322080482278,-42.70861587806414,155.21421343978972
0.1799999999999999,2.3386273481034667,-0.9851363967482372,-0.8506095282324067,-0.1099062717305286,0.087853974281623,0.0171849433172697,-0.012344810967303,0.0122727234664098,-0.0015912651358198,0.9998468874507188,-0.0426954037388278,0.0666384207258077,10.776736236298776,-0.1293982918168557,-0.0989529010090661,0.9771981910824504,-1.2127510730066362,0.1906573806711764,0.3413598368373662,1154.140972072163,1174.392724827618,1181.9754877333455,1177.1883584735183,448.1439449672048,653.6536817578957,629.8325290953011,-200.7150807776723,155.20904786983172
0.1824999999999999,2.344390700191435,-1.0784327073389255,-1.0528877747137733,-0.1035205136080242,0.086878008485786,0.014042071073244,-0.0124943050718435,0.012388718670689,-0.0015783894577373,0.999843600836292,-0.0344955053858965,0.067341584270115,10.790004511664092,-0.1290951310202871,-0.0985528231633045,0.9796330307227388,-1.2130144510374128,0.1904711153144717,0.3438218261305717,1155.2300134257748,1176.3897812936889,1183.5541296586443,1176.499356831973,461.76320955983056,959.5373536256368,718.301533699286,-372.34549089343966,155.20399145386227
0.1849999999999999,2.233425714052864,-1.2534467914213758,-1.1857492477561036,-0.0971382682760865,0.0848966573061531,0.0094537066678556,-0.0126462274432135,0.0124965054100074,-0.001566130414615,0.9998403504072146,-0.0255110396743599,0.0677437454352276,10.803345917164652,-0.1287459025299525,-0.0981436758000518,0.98210594768941,-1.2132754407285007,0.1902868420116098,0.3462892354973347,1156.4497881199625,1179.190411595746,1185.566995401842,1175.326631019051,435.9178085522668,1032.5792206675478,765.7385760854132,-472.3484205344444,155.1980583262872
0.1875,2.077108801227338,-1.3994109368170156,-1.2037240196018355,-0.092971509566644,0.0817395948283744,0.0056379159255084,-0.0128002772497751,0.0125927244303247,-0.0015542797249578,0.9998371889776816,-0.0157557993123173,0.0678217506381574,10.81666472375776,-0.1283393822841688,-0.0977242819099937,0.9846171537406656,-1.2135341299158984,0.1901039946463034,0.3487611831567264,1157.409602468536,1181.5526773970266,1187.3828225390714,1174.1376147293008,379.95353050314367,893.7006313811245,748.6998190215666,-500.8215999255749,155.1932311906637
0.19,1.88505304688852,-1.4733238085914024,-1.141649009206758,-0.0893831617640712,0.0769547132457273,0.0025089835249133,-0.0129546344950225,0.0126776327706459,-0.0015421587638362,0.9998341474070536,-0.0053367806401208,0.0675867522039139,10.829872697049508,-0.1278713479003313,-0.0972905885608648,0.9871664728534166,-1.2137914183277008,0.1899217807524879,0.3512378592648999,1158.349555772478,1183.6589147526515,1189.3104944969496,1172.8225230194234,378.7174520315144,775.4355265361476,771.55614934777,-533.8531944653364,155.1885302955424
0.1925,1.6723319521618851,-1.441051772714378,-1.03378386801031,-0.0856458885603166,0.0714723479185087,5.408526456357238e-05,-0.0131077571642385,0.0127599850544996,-0.0015297557347961,0.999831141862872,0.0054404211619899,0.0670468242736686,10.84289042601083,-0.1273541268652136,-0.0968396019922032,0.9897515127815766,-1.21404900192482,0.1897389680192241,0.3537203853386494,1159.3031897286935,1185.4298550297071,1191.2406032858103,1171.468348756974,388.72833835439417,621.060416489035,738.6773694443939,-536.8818231033397,155.18393660450323
0.195,1.4326572239187858,-1.2500409983357517,-0.8967701648037923,-0.0814500378916166,0.0660083288288219,-0.0017870400420574,-0.0132547496038271,0.0128383752259782,-0.001518117131043,0.999828252481584,0.0164772087526338,0.0662880381793496,10.85564574295423,-0.1267798845362378,-0.0963625509757045,0.992372972486482,-1.2143079189959272,0.189555774706118,0.3562098105759399,1160.29319746425,1186.7642168350967,1193.0038813441715,1170.1381139039067,442.0713956326377,503.197229408624,690.3063719541018,-562.424762221553,155.17947412514687
0.1975,1.1119614235580952,-0.8399995953610915,-0.7255627840419246,-0.0765858647361677,0.0604890155780352,-0.0035445129182384,-0.0133891308722568,0.0129124018591385,-0.0015041083858252,0.9998255728534908,0.0276450053336144,0.0654352172692044,10.868074799913344,-0.1261438686791227,-0.0958474890078867,0.9950313598394052,-1.214568355849473,0.1893735964280663,0.358706008114394,1161.5135467068567,1187.9458411767505,1194.6921351455808,1168.6562249458664,445.8064364503567,388.8288473907775,521.440126391098,-511.1958612037138,155.17427219609868
0.2,0.8265780739580291,-0.3806056825805481,-0.5900620619249504,-0.0736530837146956,0.0577081048386813,-0.0046222255000481,-0.013504107777349,0.0129888934865181,-0.0014876017688793,0.9998231034618807,0.0386503451152041,0.0646283007571689,10.880123655685328,-0.1254561774677403,-0.0952836849783534,0.9977251621648208,-1.2148297979204468,0.1891952524287483,0.3612077258642533,1162.522229646502,1188.7083610720508,1195.6110819761273,1167.582134597888,387.2108237234439,295.8369019317158,255.44274459434723,-378.3263095506296,155.1700651060884
0.2025,0.5471613730433864,0.1333136976364135,-0.4687737223844236,-0.0724935717792299,0.0575193525446098,-0.0053281085211922,-0.0135988363901483,0.0130748043999804,-0.0014676386061025,0.999820765737297,0.0491940341089018,0.0638857913456499,10.891748185226485,-0.1247288523401579,-0.0946732220969707,1.000451399727806,-1.215091520238728,0.1890228655096657,0.3637152711831471,1163.449600825474,1189.425025686409,1195.9693488685523,1166.7645933981132,343.01123428858745,303.75978462161555,61.37198205783528,-268.38431446917616,155.16599034111442
0.205,0.2927458043415647,0.6333404904790859,-0.3574829994651461,-0.0724211483776551,0.0593195849537483,-0.0061373051195779,-0.0136752262865336,0.0131724151460306,-0.001444257443259,0.9998185053981185,0.0590793263918518,0.0631754062433942,10.902912899198096,-0.1239664066971816,-0.0940247457391049,1.0032073157516708,-1.21535227741961,0.1888569998390867,0.3662294126061763,1164.237285817945,1190.227159995159,1195.9179418864164,1166.2402130255423,261.9727456125927,357.6102995906691,-85.01180429498157,-117.22105159951742,155.16202447476516
0.2075,0.0821756447610825,1.0527591340530287,-0.2505780831299113,-0.0726559994941708,0.0629076233861251,-0.0072873388313664,-0.0137384137606425,0.0132758361070599,-0.0014187649558846,0.9998163293805116,0.0682931998420579,0.0624039313748336,10.913589642154768,-0.1231589295052171,-0.093353943342667,1.0059910622780912,-1.2156100766490983,0.1886970549415332,0.3687512030501163,1164.759464553537,1191.2130771843624,1195.5442898470776,1166.1784881401156,145.6196011256004,472.3209530799544,-181.01266356816356,105.05162818976763,155.15818826884114
0.2099999999999999,-0.1177209286915887,1.4056659715558908,-0.1206394742236357,-0.0725305660207537,0.0684636057070914,-0.008575898035118,-0.0137952333635242,0.0133766488973056,-0.0013948751205989,0.999814251694569,0.0768880179317813,0.0614502646568014,10.923758125611531,-0.1222931794881791,-0.0926801703945003,1.008800606920604,-1.2158626040546483,0.188542120094956,0.3712811605429572,1164.965383823573,1192.5887647605587,1195.0128785685756,1166.7654711664911,-5.5661159276951615,516.7919577931593,-169.44344782527955,335.61490398656287,155.15373177441043
0.2124999999999999,-0.2421965635306047,1.5554588176744597,-0.0137505500190666,-0.0721070091009369,0.0736373701276925,-0.0091988540433957,-0.01385074215722,0.0134715382149163,-0.001373924334942,0.999812245873292,0.0848206744501042,0.060237266045951,10.933407399015335,-0.1213685492361049,-0.0920178890759955,1.0116326580737491,-1.216108366803586,0.1883912983030169,0.3738188971107703,1164.7316339738986,1193.7970369733282,1194.6970726079512,1167.8565626600484,-178.8649730123323,461.0008512914188,-71.0991255455155,556.5699208857491,155.15013777475795
0.2149999999999999,-0.3165279048106671,1.5608508425517267,0.0791410650868439,-0.0717719292192934,0.0785391665833238,-0.009110635486109,-0.0139115015706007,0.0135598547220387,-0.0013528499157625,0.999810234611106,0.0920098335585552,0.0586570535487923,10.942535236679744,-0.1203920646516414,-0.0913825040956519,1.0144828504152714,-1.2163464471686223,0.188243828261267,0.3763640812988345,1164.0710589585112,1194.8937690170155,1194.657382940848,1169.5483207709199,-371.6085087511598,415.80764272730414,49.352113746135686,852.3796029997347,155.14666433991584
0.2174999999999999,-0.3204546832655544,1.4362055005382648,0.1550881407356933,-0.0725655024726831,0.0830517653316471,-0.0080827249278663,-0.0139795624842736,0.013646277336985,-0.0013306107244594,0.9998081274214008,0.0982777816907337,0.0567038540556472,10.951148041592532,-0.1193822605838024,-0.090779304446209,1.0173463522750363,-1.2165768854170946,0.1880985059283532,0.3789172590099044,1162.8735914301428,1195.8760751869647,1194.943833176682,1172.1184606750471,-481.4111500571466,282.6987638144599,144.5746047666033,995.444075336217,155.14263168769867
0.22,-0.2245250853872375,1.2584125073873729,0.178704277888716,-0.0744199092617611,0.0855163533166921,-0.006586456485845,-0.014052120677588,0.0137376831103453,-0.0013081942147811,0.999805869275237,0.1034205011488384,0.0544798932178,10.95925908085528,-0.1183622683984343,-0.0902025103613417,1.0202188256183211,-1.2168006926163488,0.18795433740611,0.381478566670566,1161.6640032082255,1196.307262836088,1195.380255964681,1174.5255411476007,-489.0516118381124,81.2771757742211,182.29862671219036,964.3653902000542,155.13938203037307
0.2225,-0.0010460798369227,1.0403881339488392,0.1632953790818573,-0.0766698980801246,0.0873335738285476,-0.0051796709592984,-0.0141268231392573,0.0138390482633708,-0.0012870148726937,0.999803425465144,0.1072990321088545,0.0520763205465773,10.96688600424676,-0.117351113607639,-0.0896457191642201,1.0230966073459875,-1.2170193012720019,0.187810073828003,0.3840488851846171,1160.4283333709523,1196.2824610658358,1195.8553263102428,1176.9402876260472,-469.44049595926987,-80.64715731502467,167.08741024485775,927.2303320402435,155.13624619260764
0.225,0.3270135379668485,0.8053539143021295,0.1305642373466177,-0.0782985628698979,0.0890669329992377,-0.0045091241738094,-0.0142009647318482,0.0139473241085815,-0.001267351422308,0.9998008770836476,0.1099744595298607,0.0495878745430519,10.974046879412763,-0.1163509019718941,-0.08910017919614,1.0259784937920493,-1.217233552562275,0.1876647311269919,0.3866282095603847,1159.3168007284291,1195.9040270495127,1196.2156930159051,1179.161692807802,-387.38180559121207,-216.6909188887528,82.18565935862891,803.7780286511854,155.13320463207853
0.2275,0.7493810250885568,0.55855534778942,0.1049498610455554,-0.0783451406447387,0.0906176064921195,-0.0049842255419844,-0.0142748386354587,0.014056198934325,-0.0012508842686857,0.99979830696003,0.111602054297402,0.047039002462803,10.980759655754428,-0.1153557574400157,-0.0885626028650944,1.0288642357883506,-1.2174439520326956,0.187517964510143,0.3892162227920344,1158.491424342996,1195.199006471392,1196.266254607036,1180.959177769303,-277.9606070614134,-348.45783261798687,-86.44689707462014,666.4189518950019,155.13027766294675
0.23,1.2918865328328784,0.2549831800669817,0.1127565882310675,-0.0758713627031571,0.0920544022961394,-0.0064463909121533,-0.0143518730425802,0.0141583324831026,-0.0012398719780184,0.9997957671839872,0.1123807827136216,0.0443789891250224,10.987040779307277,-0.1143563399224958,-0.0880358461649831,1.03175423192338,-1.2176506549526502,0.1873698401777198,0.3918120868589807,1157.926997693122,1194.1617378864228,1195.7834585305322,1182.4937875672772,-133.8147284064688,-381.6184919583517,-286.52173515110894,458.68843556058846,155.1269002828946
0.2325,1.707621390098246,0.0014676064047083,0.1574212652464631,-0.0717132294117949,0.0926649023256738,-0.0075161778520466,-0.014432543771731,0.0142546966484714,-0.001237988522949,0.999793230376065,0.112345045325227,0.0416154029300588,10.9929061263258,-0.1133589984142731,-0.087517053315691,1.0346486292951131,-1.2178539342272043,0.1872205859370107,0.3944147086298422,1157.8223507009639,1193.2909140116003,1194.8336459312804,1183.2526199471063,26.722498099616107,-314.09717886122024,-502.5681325932505,215.85581294275448,155.1242010839694
0.235,2.00895586976446,-0.2416881982253483,0.2245066420103095,-0.0658261921571924,0.0922765353055109,-0.0071867500867937,-0.0145154703969827,0.0143451613361502,-0.0012477967484407,0.9997907138196308,0.1115691421214557,0.0387892441165013,10.998366084630039,-0.1123667677216577,-0.0869998308439595,1.0375493247939271,-1.2180538344517904,0.187070861874803,0.3970228832626074,1158.06061018362,1192.591251992117,1193.270617867566,1183.5730666319907,170.78703958513856,-232.85295880864376,-817.9361276947469,80.75418434418673,155.12162591037887
0.2375,2.1709654436781607,-0.506798384573614,0.2949919472249079,-0.0573817999868967,0.090649021238414,-0.0051490946542948,-0.0145988764752497,0.0144314498883329,-0.0012670184490647,0.9997882219643026,0.1101002254618374,0.0359414156238505,11.003424915772943,-0.1113859770725183,-0.0864769372340016,1.0404588783895448,-1.2182506631390835,0.1869220458448952,0.3996365262729924,1158.6762858988895,1192.126649217557,1190.7439652928067,1183.6563908688272,272.2315880562304,-88.74007217737059,-1010.4533621692144,13.739027156816581,155.11868467559964
0.2399999999999999,2.114853231626152,-0.6986148457916121,0.3260948955364439,-0.0500768040750484,0.0885862940839796,-0.0031111141093383,-0.014677765102668,0.0145200734066347,-0.0012914911896577,0.9997857418480584,0.1078890683869646,0.0331783145644687,11.00808054584226,-0.1104319961912674,-0.0859352364676068,1.0433800858319326,-1.2184455995934365,0.1867755871060927,0.4022539805103685,1159.4217681239013,1192.14755163123,1188.21835105672,1183.641761767775,339.17735440291085,104.8805779262698,-1051.8206323327427,9.762067137762688,155.11636182432156
0.2424999999999999,1.86606808665083,-0.861383036064564,0.3260082688137367,-0.0438606729604584,0.0861361002457661,-0.0016049492396409,-0.0147451999771129,0.0146185118162882,-0.0013185271881371,0.999783274152428,0.1048694895662908,0.0306480833375666,11.012322765610673,-0.1095209801347992,-0.0853589929614165,1.0463161987341645,-1.2186394983870235,0.186631994335778,0.4048740780032632,1160.372172670904,1192.6510521071884,1185.484862131143,1183.705201204516,408.35167436143786,280.5261837742362,-1086.0888257935576,52.091725325908506,155.1141767337344
0.2449999999999999,1.4851846056675115,-1.0086596472766467,0.3114900774047579,-0.0390980088510058,0.083813805054476,-0.0006443044194801,-0.0148029295833258,0.0147300956562879,-0.0013426091658858,0.999780753609346,0.1010695237010865,0.0283063071941884,11.016131575405437,-0.108659916178501,-0.0847512301092976,1.0492696322571706,-1.2188323858557935,0.1864909914762979,0.4074976000052736,1161.4635264957085,1193.5501825501012,1182.787906927752,1183.9022203944044,457.76786854403286,441.0606225448187,-1017.7946151258302,111.3255826693602,155.11210934068805
0.2474999999999999,0.9949460890054036,-1.1525049423225795,0.3005863848998657,-0.0362377454463258,0.0819192518498813,-0.0002303955130311,-0.0148557039747631,0.0148490832134236,-0.001359651945178,0.9997782008108762,0.096715700384259,0.0260460702736347,11.019476605698207,-0.1078358236787171,-0.0841226947285644,1.0522433664683246,-1.2190237148065133,0.1863525044898365,0.4101268269548606,1162.6610120136243,1194.8563552199123,1180.3958890555139,1184.2618291178628,524.4647978694043,634.9679407460366,-922.6024388826764,178.28276899858776,155.11018798993035
0.25,0.3496710534337085,-1.33357381562356,0.3168929894499791,-0.0348869544561236,0.0799013484011377,-0.0001099153058551,-0.0149109345324549,0.0149663294838071,-0.001369836089704,0.9997756411439264,0.0921049667643976,0.0237089519246203,11.022320639055215,-0.1070273407988616,-0.0834916245671571,1.0552393147556538,-1.2192138418357803,0.1862170258678708,0.4127639740551704,1164.0858504850555,1196.7250222538314,1178.1748947333388,1184.7936342393975,495.77273836002814,701.8175403679372,-674.7798612505443,190.63043133905904,155.10805644462212
0.2525,-0.1890743927122074,-1.4860744333556888,0.3665308327851448,-0.0352664344797567,0.077826518783267,-0.0001058580652744,-0.0149682722054365,0.0150783419025207,-0.0013760050001013,0.999773125584806,0.0874032007477659,0.0213149853058787,11.024624545379828,-0.1062243453221282,-0.0828612840975839,1.0582580044258307,-1.2194026046007764,0.1860855574499861,0.415409709137572,1165.1398757054244,1198.3654429217522,1177.0219897492611,1185.214981274558,366.773876925026,628.7010388372886,-299.3930840677873,136.08922311964295,155.10642899165654
0.255,-0.6832574648974739,-1.61165907049845,0.4550110488322088,-0.0369377160837143,0.0744745431842574,7.36685774815575e-05,-0.0150227032006678,0.0151820298550911,-0.0013805936686812,0.9997707700649447,0.0827601673935978,0.0189941112643965,11.026347910093108,-0.1054176176427422,-0.0822255158044176,1.0612992813928395,-1.2195896754851603,0.1859589503440654,0.4180645000436593,1165.9197198696806,1199.8685274480179,1176.6779293129998,1185.4740803549955,262.58455644219765,581.112288315125,25.100635529406624,49.30681316936894,155.10496047610874
0.2575,-1.1848820558821287,-1.680375245093492,0.5903367948158187,-0.0402637119614783,0.0689397957864368,0.000822418336019,-0.0150743515516126,0.015273575966821,-0.0013848351290261,0.9997686268944336,0.0783336032803316,0.0167703329977647,11.027450744165897,-0.1045967050645039,-0.0815890228384364,1.0643611299563052,-1.219774645072058,0.1858364998354907,0.420728613947181,1166.4527984876352,1201.2710043633278,1177.147492926908,1185.4615153404047,130.83295020096543,420.5252886907597,292.1260124989655,-69.89103495861849,155.1033871147455
0.26,-1.5054589638060827,-1.6341938337113888,0.7055702703472452,-0.0440534309834196,0.0636267145578074,0.0021120228775764,-0.0151247907874806,0.0153496033366539,-0.0013887002139776,0.9997667234903655,0.0742624669254326,0.0146429621538437,11.02789600679768,-0.1037525533612596,-0.0809592825713732,1.0674403134631099,-1.2199567071095612,0.1857182370966365,0.4234022924108744,1166.5738846206855,1201.9711538914717,1178.1385593754947,1185.1246251802027,3.8246421526309824,167.16554303898178,470.7262519248612,-202.33001587098423,155.1022370600892
0.2625,-1.708966755343498,-1.4556677077650957,0.7899107650944223,-0.0487507170779601,0.0585373051347315,0.0042352843124161,-0.0151773873199275,0.0154081056219959,-0.0013915638051693,0.9997650413664472,0.0706455940459457,0.0125788221274334,11.027651674073352,-0.1028794601544815,-0.0803471345177055,1.0705324451200895,-1.2201347485702143,0.185603804775516,0.4260863881246119,1166.4719216983983,1202.1068320785228,1179.5011241865325,1184.44986526105,-49.36071049746711,-36.64588314354656,562.2193027365934,-315.1817375684911,155.10125858622547
0.265,-1.8122859912525344,-1.1660117450422067,0.823650261421282,-0.0538343631433833,0.0542052183333735,0.0069686968089581,-0.0152324713144235,0.0154505201183517,-0.0013931957227288,0.999763554639242,0.0674951594068623,0.0106180133527373,11.026692952531036,-0.1019793721292453,-0.0797563357455432,1.073632721364337,-1.2203081667997167,0.1854931853376456,0.428779966769865,1166.327081068198,1201.787924475754,1180.9496558891776,1183.54871649236,-29.38304740391684,-218.2357664559729,549.4831983040963,-391.73376846902073,155.10042565499364
0.2675,-1.8038355924174767,-0.7602584919874334,0.7749083339521511,-0.0588241992376756,0.0510954292945599,0.0102164108096106,-0.0152895069286698,0.0154789904382968,-0.0013922563722554,0.9997622419072776,0.0647973301582851,0.0088234688248402,11.025002659122208,-0.1010560518163278,-0.079187618886192,1.0767364870708582,-1.2204770801211176,0.1853861120820952,0.4314812175635824,1166.3250064613787,1201.015653246243,1182.2485401780527,1182.4911964187047,71.17442795097297,-407.40513487257846,490.8754516636232,-464.65672382682857,155.09977215251195
0.27,-1.6905598467682517,-0.1814393150842805,0.6151299691158886,-0.0637941913601622,0.0490543681662572,0.0139291162261925,-0.0153474040390626,0.0154970161637088,-0.001388149942195,0.9997610684437784,0.0624973191054195,0.0072728402611864,11.022572182507531,-0.1001160056882429,-0.0786394133273805,1.0798392246411255,-1.220642503394686,0.1852816877793964,0.4341897331775306,1166.682953207953,1199.750898801391,1183.4040331474955,1181.225432873226,201.4113275206908,-490.4406612600719,344.4733589597942,-437.23069710817936,155.0992004347214
0.2725,-1.53330463273163,0.336704643248828,0.4130516180099296,-0.0669977888477472,0.0488884845283733,0.0159959564495992,-0.0154098899024245,0.0155122449052081,-0.0013798973063529,0.999759860957131,0.060438336537131,0.0059367530389942,11.019402253705584,-0.0991745034700243,-0.0781191228663608,1.0829351721722376,-1.2208050577414904,0.1851785279027106,0.436904998662612,1167.3320630989824,1198.5634499399423,1183.970906972852,1180.305042933164,315.182785758179,-473.25340559705137,158.14825169954915,-315.25288035991224,155.09890474637913
0.275,-1.3317784708552127,0.8362827874505147,0.1768026609283928,-0.0697394980885753,0.0505510928938525,0.0164695630643211,-0.0154823662763082,0.0155340666154641,-0.0013694602256413,0.9997583886243984,0.0584138376616006,0.0047474762932095,11.015502675038714,-0.0982499957588528,-0.0776369708140847,1.086018254457992,-1.2209649550915866,0.1850757758490669,0.4396270267452072,1168.258867136744,1197.3846317734055,1184.1947744059935,1179.6491684714265,382.3044625297367,-456.77061371648006,59.443011352823255,-206.14619808734443,155.09880101333084
0.2775,-1.1004712018059335,1.27792656989066,-0.0553245708052629,-0.072353474224702,0.0538594976703788,0.0156782334451759,-0.0155677980252804,0.0155654409304597,-0.0013568391862934,0.9997565589010894,0.0563491781064251,0.0036844670804679,11.010890676920935,-0.0973469519213557,-0.0771964050841384,1.089084210485417,-1.2211224770369575,0.1849730329568939,0.4423566646592265,1169.243585411631,1196.27959687136,1184.268122029616,1179.2743119427273,347.7427575339331,-419.00962169638626,33.89002065055135,-72.87521346147507,155.09885957270976
0.28,-0.8338000448472135,1.6062518621504636,-0.2522954515633891,-0.074637314477646,0.0586653967329876,0.0139032409531883,-0.0156625961308671,0.0156058736638346,-0.0013409492166939,0.9997544335452276,0.0542359523671469,0.0028629423366937,11.005591666426527,-0.0964620971268834,-0.0767854164017296,1.0921305040487663,-1.2212780292040046,0.1848702889750229,0.4450940839657364,1169.9975809244136,1195.2895836649238,1184.3642245092462,1179.2847924041191,195.6233509331012,-409.45682078799985,92.9555529733988,103.75030678364956,155.0991172407543
0.2825,-0.4705452496585292,1.8346955340119993,-0.4327798264499012,-0.0766344185573614,0.0649356123231707,0.0119266151454628,-0.0157669898691779,0.0156573220314539,-0.0013195164457949,0.999751977018818,0.0520029254971904,0.0023031439126384,10.99963932777056,-0.095597289790287,-0.0763993669288063,1.0951535586272227,-1.2214320300392945,0.1847670205696315,0.4478398873675276,1170.2217021662966,1194.23231276742,1184.732899794483,1179.7930634766456,-79.68128060824702,-365.4695782744053,195.01723869825565,276.63671069135466,155.09966051765628
0.285,-0.1305481734265068,1.8789048229265752,-0.5413701385504026,-0.0777801694914567,0.0699986864579813,0.0111760057630098,-0.0158809919379271,0.0157280074761976,-0.0012931575413215,0.9997490553171924,0.0494321784895759,0.0020199301127615,10.993075780052399,-0.0947676612162081,-0.076033199787994,1.0981487442757742,-1.2215851116530312,0.184662982705826,0.4505935669331037,1169.5991745213723,1193.4622357735518,1185.3393107027375,1180.667975957576,-440.6486054153443,-279.95994955581386,300.3342376712223,450.46661393344,155.10031077814048
0.2875,0.2456605528791024,1.7758872086998427,-0.6157884226749297,-0.078290224840625,0.0748406288536772,0.0109706040212003,-0.0159992262275276,0.0158240696315125,-0.0012620049011346,0.9997456532518326,0.0463452632501096,0.0021340055519428,10.985948999494283,-0.0939840642240244,-0.0756698489058867,1.101112850208632,-1.2217380638347988,0.1845582529389854,0.4533546725892722,1168.0184591392199,1192.832513019641,1186.2345709828392,1182.0453965463128,-886.6353154641821,-236.4920664311764,425.6380566052528,719.6028435664704,155.10116857457388
0.2899999999999999,0.7247107375291783,1.4987904647161092,-0.6594384953497185,-0.0774448029024097,0.0803477415484765,0.0098837844708274,-0.0161167042951413,0.0159442263125043,-0.0012276840528101,0.9997418654151224,0.0427218685669394,0.0027457864508696,10.978310093890668,-0.0932412738884187,-0.0752935411296081,1.1040442014336775,-1.2218906592087408,0.1844530427631835,0.4561240161062227,1165.1659979440515,1192.279775441396,1187.4675009857635,1184.2659901754082,-1146.3249026343988,-166.61599094714063,440.6998998570133,896.349673198356,155.10244021053416
0.2924999999999999,1.1283541179787997,1.1600278395917807,-0.6401683067834063,-0.0753501848978531,0.0842542498141439,0.0077829262291169,-0.0162274565645823,0.016083699492295,-0.001192388442621,0.9997378605492072,0.0386156563711702,0.0039651530952934,10.9702127421549,-0.0925269634147004,-0.0748869922397906,1.1069421427797888,-1.2220425299487467,0.1843480435834979,0.4589021166424148,1162.286834626048,1191.9994330649051,1188.4380704821242,1186.5271449123045,-1158.185641213821,-81.11361708611177,330.63950407845334,962.6105588271904,155.10370314847316
0.2949999999999999,1.509858563623198,0.7443270428176099,-0.5411768827375509,-0.072197276152017,0.0869284009586342,0.0050800000129726,-0.0163251991619824,0.0162326230857856,-0.0011619512248375,0.9997338928146124,0.0341905831759471,0.0058993312917661,10.961711227568019,-0.0918180710844871,-0.0744336105731086,1.1098073553637846,-1.2221932576291015,0.1842444702587981,0.4616888309993558,1159.3750697379824,1191.8742073559652,1189.120698506156,1189.079042969544,-1092.5930717397468,-35.36016898679006,200.0297562409285,1041.563499132416,155.10517819955172
0.2974999999999999,1.8520915772201565,0.2980657861668144,-0.3706639238551345,-0.0682649902176932,0.0882789550199444,0.0027113229982455,-0.0164041156364743,0.0163804687975922,-0.0011422548507121,0.9997302230724094,0.0296273151215998,0.0086349439585255,10.952859369484168,-0.0910912347485703,-0.073918841588237,1.1126410996568168,-1.2223421545208712,0.1841434412606318,0.4644839649960188,1156.8238692673492,1191.8226322199714,1189.4382192633288,1191.7349624079663,-855.0299736447406,-17.974670461217087,27.779537300330023,1048.1399813012094,155.10682967341015
0.2999999999999999,2.1208560473056868,-0.1413965554373664,-0.1267059118182881,-0.0632610915858973,0.087772678513522,0.001328342149091,-0.0164655220630488,0.0165178514211347,-0.00113255253692,0.99972698545432,0.0250887054346071,0.0120903120433545,10.94370844210799,-0.090327721326055,-0.0733441131108065,1.1154441078886523,-1.22248719480533,0.1840454760578879,0.4672869220588257,1155.0999198697587,1191.7843340036593,1189.2595961926577,1194.3197428760502,-504.67629273657576,-26.955072574401104,-179.63274658977735,1065.9079117917815,155.10869411093756
0.3024999999999999,2.326458092590968,-0.6115016333445233,0.2146275905907467,-0.0561686716359116,0.085248725845895,0.0011130679829127,-0.0165105315625457,0.016637397859879,-0.0011287768814565,0.9997242910759718,0.0207026736921775,0.0161801609437037,10.93430572822634,-0.089515034212681,-0.072711015983057,1.1182176970677404,-1.2226261250626145,0.1839513375607249,0.4700968990416858,1154.3004878036663,1191.6878568570994,1188.54005553038,1197.0645019669255,-70.42235962057924,-45.678015305384136,-320.5140690129153,907.73711863876,155.11117738730476
0.3049999999999999,2.382568719461166,-0.9328189130619172,0.5052887596996349,-0.0497805535345849,0.0821713364858983,0.0021882613448221,-0.0165402865786992,0.0167412999621281,-0.0011259346481739,0.9997220936401024,0.016399172445892,0.0208133605174613,10.9246935225257,-0.0886633372711708,-0.0720219705082769,1.1209624807665328,-1.2227580615872993,0.1838611165039292,0.4729122722875649,1154.7478080716555,1191.5559439271324,1187.657025847593,1198.858428469244,382.15934080972113,-56.87069567056818,-367.43645269457346,576.2737381895016,155.1134511635513
0.3074999999999999,2.3090423940031735,-1.174884257488812,0.7613912283368351,-0.0431930065462099,0.0788905277836447,0.0044489356803331,-0.0165571263925549,0.0168315432072039,-0.0011217239219489,0.9997203299797331,0.0121251656542768,0.0258711895705496,10.914905730480085,-0.0877828136238221,-0.0712830830251721,1.1236799282325398,-1.222883946264816,0.1837749166250409,0.4757324204631139,1156.2112845077147,1191.4035033787463,1186.702873266907,1199.945870657873,803.5857580746317,-58.625624611795445,-385.46536164458263,288.98247576744296,155.11593591175313
0.3099999999999999,2.0776360417991686,-1.387654765540696,0.9915105956585684,-0.0354531172241619,0.0752902213217849,0.0080115979571925,-0.01656765927041,0.0169059476132305,-0.0011114149427253,0.9997189384149012,0.0079338780057773,0.0311393222376012,10.904966066641627,-0.0868747202058326,-0.0705100887474462,1.1263724188383106,-1.223004360092698,0.1836925679180696,0.4785570991868088,1158.7657368620287,1191.2628158040732,1185.72969903937,1200.3033408480812,997.0636696578814,-37.061127363403976,-302.49255637090727,-28.32428982023882,155.11915954332827
0.3125,1.7857154090346403,-1.5148868678707743,1.103068578380079,-0.0297232452633773,0.0725156401334233,0.0111405833217676,-0.0165786171377928,0.016968385325813,-0.0010909240533074,0.9997177501333068,0.0037610272541601,0.0364008464643337,10.894888721456075,-0.0859535963729722,-0.069719243968079,1.129041776818032,-1.2231195990384445,0.1836139215157152,0.4813863547376961,1161.1966028560043,1191.2181977419295,1185.1904104850523,1199.8042492087718,942.780214383901,-2.183617700075045,-150.98365836597608,-342.3052040688614,155.1220456605188
0.315,1.4341046655713308,-1.6009282863537004,1.1251506121867187,-0.0252391509566271,0.0693635681133127,0.0141856174069784,-0.0165952148062692,0.0170174006901831,-0.0010600696999016,0.9997167039752816,-0.0003285603552748,0.0414746469381407,10.884676578075323,-0.0850209389409142,-0.0689237730129954,1.131691203108521,-1.223230088990236,0.183538488529329,0.4842204883216951,1163.4796379339484,1191.251897715573,1184.9747807475403,1198.5918148277367,824.9463226790788,20.091388804439685,-44.15669606728439,-567.6829872628782,155.1251363718687
0.3175,1.076494302598655,-1.652532139209608,1.0748566887544686,-0.0218862757546769,0.0655843437507549,0.017325043312777,-0.0166176192961319,0.0170567664486454,-0.0010228646715833,0.9997157261631016,-0.0043726381834818,0.0462922063576191,10.874322523891395,-0.0840887278169422,-0.0681256104924485,1.1343236491156303,-1.2233368498650288,0.1834657311153309,0.4870591421296631,1165.3213344693995,1191.3186546859515,1184.969627004716,1196.9658342724574,568.0867297189702,22.842141828505167,18.891823072362946,-689.3018360102809,155.1283941649178
0.32,0.7718253480558958,-1.6568498104178269,0.9462520830166096,-0.0196862794182762,0.0610565533929999,0.0204455058591167,-0.016639953031831,0.0170913080957134,-0.0009814443846698,0.9997148270886258,-0.0084198811382417,0.0509163006880439,10.863809441933228,-0.0831704613637724,-0.067312068580625,1.1369423802388494,-1.223440754329894,0.1833950478557942,0.4899017903430821,1166.3200715825433,1191.3661084247155,1185.069239862902,1195.1453056476855,190.4392603958057,4.523027440154688,23.217398766973908,-759.095469702924,155.13184953279125
0.3225,0.5479204353481537,-1.6050306643422032,0.7248570237729802,-0.0185008891076603,0.0554169419195738,0.0232917525008682,-0.0166582979011064,0.0171231578774919,-0.0009374260772339,0.9997140323094242,-0.012451041758141,0.0553677405535732,10.853111392394302,-0.0822723633351155,-0.0664741177614011,1.1395501587216212,-1.2235425492757595,0.183325664943347,0.4927486422135868,1166.2735307713788,1191.3412698231523,1185.085713998551,1193.1703569239428,-241.21248380984048,-24.27735800611115,-38.83747244722141,-632.403381361973,155.13621825882464
0.325,0.5344582365153414,-1.5223136537711834,0.509167235412039,-0.019135667186323,0.0512313559993856,0.0245332141979836,-0.0166731514593085,0.017152976693545,-0.0008911008502337,0.999713321620328,-0.0164079306444461,0.0595723074254525,10.842196022447007,-0.0813961904771066,-0.0656120599672081,1.1421483667447507,-1.223642807194882,0.1832567195064014,0.4956006230608038,1165.114009163494,1191.2447216346848,1184.875052500666,1191.9832887408757,-684.7238401725001,-46.61283585037377,-149.5634766475176,-335.3529769110534,155.14003880352723
0.3275,0.745192752242467,-1.4183999406636123,0.2912882300422184,-0.021018107392087,0.0479456722786766,0.0248287512413325,-0.0166860331419397,0.0171826227598251,-0.0008437465829931,0.9997126381017084,-0.0202550763660511,0.0634362941014712,10.831027182742904,-0.0805452174239636,-0.0647283875434538,1.1447367818602217,-1.2237418398917854,0.1831875715291817,0.4984596930997845,1162.8499115705163,1191.1082056439006,1184.3378966153134,1191.4935920393875,-1054.5549412966911,-50.634445300784094,-270.70728637681873,-72.40070246816678,155.14403880363204
0.33,1.1421569983936843,-1.31348006922573,0.0886309744262156,-0.0227604901068164,0.0453751007777043,0.0245437709283956,-0.0166977677315671,0.0172149380085977,-0.000798238476625,0.9997119194590804,-0.0239779815596779,0.0668848467150221,10.819567407311476,-0.0797239229968092,-0.0638242790764377,1.1473137965358895,-1.2238400223019112,0.1831182960108878,0.5013270157500995,1159.8412344570106,1190.991549408181,1183.521516068782,1191.6212852285348,-1311.9532761330436,-26.9526776020484,-383.6698725247512,175.66526771688572,155.14818139817518
0.3325,1.7075227018873047,-1.2201564312861777,-0.0858868608035079,-0.022557350846648,0.0432044006699818,0.0238808077287515,-0.0167063496341819,0.0172479708935892,-0.0007614669949031,0.9997112289331276,-0.0274617638954354,0.0699103170165921,10.807780069179993,-0.0789247632599229,-0.062895336028248,1.1498777734442915,-1.2239373715972417,0.1830498777548396,0.5042033763167437,1156.290145189851,1190.9734422558904,1182.4195472526897,1192.371918377972,-1568.2367104287991,33.116376783527784,-528.0897255051509,405.9164065688034,155.15248748908215
0.335,2.4380054699898026,-1.1224358406922277,-0.2639508686878627,-0.0175999817626961,0.0402208387201959,0.0231286605014525,-0.016705108399853,0.017278580173692,-0.0007379982982787,0.9997107297065329,-0.0305691240440469,0.072610124631438,10.79563201156698,-0.0781372075899726,-0.0619268369355185,1.1524269753407763,-1.224033660713336,0.1829838134368889,0.5070884980823182,1152.0000509048666,1191.1571312920987,1180.881067441256,1193.6508672613788,-1482.7724268603547,111.36746743145513,-580.5123768126117,464.8720743968166,155.15783183671667
0.3375,2.95666046421955,-1.0451151030453847,-0.3931217644083064,-0.0085513245099058,0.0372513861635719,0.0225696054627361,-0.0166865140740359,0.0173090278559055,-0.0007292182220693,0.9997105086686322,-0.0332841238090076,0.0751053673122435,10.783096286800932,-0.0773632334181688,-0.0609025052972203,1.1549583935403405,-1.2241289610508348,0.1829211224109739,0.5099808861461456,1148.8762830555493,1191.5302795930477,1179.5169853686264,1194.696278749956,-1054.5053535252907,197.87882767504908,-540.3115599803637,330.47757390386295,155.16242400903573
0.34,3.2381340838529873,-0.9632361123420878,-0.510452265998433,0.0038648764311595,0.0341737319028383,0.0218061365073077,-0.0166474019812909,0.017344210912188,-0.0007346963678829,0.9997105356057656,-0.0356539856133964,0.0774306143890912,10.770154267474187,-0.0766111162019923,-0.0598167688218804,1.1574678457386007,-1.224223367752784,0.1828620621511904,0.5128801826207654,1146.72752413724,1192.146525430474,1178.1795096413543,1195.303255130898,-646.3859505468912,315.84622348454985,-563.284131674845,87.63649158695436,155.1671500144854
0.3425,3.2160598156120765,-0.8606392217585807,-0.6411147437868796,0.0187619525842799,0.0307294491404359,0.0204690773225694,-0.0165905262852254,0.0173841036205127,-0.0007479968591332,0.999710768057448,-0.037625514971817,0.0795012521708733,10.756797143089356,-0.0758784595374684,-0.0586779250465894,1.1599511592462568,-1.2243156707166052,0.1828060242595179,0.515786051593873,1145.6443533028148,1193.1095107104704,1176.7005647102524,1195.1344612078908,-137.56101912431393,372.147267660284,-515.1342083989671,-243.67904898176647,155.17296568864043
0.345,2.9038587404764833,-0.782096044147002,-0.7398291773213369,0.0291455594373244,0.0283481104175602,0.0189918760278273,-0.0165193345781893,0.0174296517152155,-0.0007605767345096,0.9997111367260384,-0.0391750898379501,0.0812296139575573,10.743026893895344,-0.0751655440950808,-0.0574965083750502,1.162404003107817,-1.2244044522846087,0.1827530779914119,0.5186974477530224,1146.0397190416184,1194.0072617687752,1175.6038385993595,1194.084859885989,385.0401556069752,349.1292901087488,-414.4865139155624,-610.0075333849867,155.1779258565738
0.3475,2.3587314546451226,-0.7327266971294871,-0.822199253186439,0.0360389371310367,0.0267311193457421,0.0171149016843849,-0.0164415980597179,0.017481599474405,-0.000764009938282,0.9997115039154764,-0.0402851093692944,0.0824493748359502,10.72885722031532,-0.0744723370477003,-0.0562939622803458,1.1648216775229483,-1.2244892125281452,0.1827036573010645,0.5216139269703126,1147.5695540808497,1194.855157161014,1174.6281321406743,1192.0844235409659,735.0233733233374,306.77401804882686,-381.0891266595714,-930.7527241564449,155.18299722750132
0.35,1.6991024719982435,-0.7258444502095343,-0.8854313575151286,0.0400844247510213,0.0257461994609349,0.0149897934907255,-0.0163615832818447,0.0175396025595862,-0.0007554288408055,0.9997118038528684,-0.0409281446480618,0.0830869661666952,10.714312989607928,-0.0737958287341614,-0.0550849250772138,1.1672000746812536,-1.2245702083540448,0.1826582937681061,0.524535052151137,1149.7148359082353,1195.5411318590195,1173.6983929660616,1189.431096265207,907.1900512237881,209.96446803142348,-379.46283322071776,-1156.958130981514,155.1881564046654
0.3524999999999999,0.994453348213884,-0.7850119190059485,-0.9192817632801272,0.0414179457766033,0.0250900174502301,0.0129090331037996,-0.0162847389137623,0.0176006081951726,-0.0007359852937615,0.9997119970895184,-0.041032140680411,0.0830605999344792,10.699430360336322,-0.0731261305170408,-0.05388774984691,1.169535232585851,-1.224648446757343,0.1826168735668302,0.5274613265483808,1152.1055043369684,1195.9049795011713,1172.7308179745708,1186.2996328860584,982.206520995088,63.35719081716953,-456.6719192786924,-1385.9712387448012,155.1934169996942
0.3549999999999999,0.1883553334333598,-0.9321072619308196,-0.9175903410844783,0.0409061301069226,0.0237698415488488,0.010397373882097,-0.0162176254616874,0.0176603265111371,-0.0007092723719832,0.9997120484530682,-0.0405117562891311,0.0822811670493046,10.684256083314907,-0.0724498651639589,-0.0527239720675708,1.1718230240865204,-1.2247248294555135,0.1825796664108725,0.5303941848105695,1154.6258685132107,1195.8579178131051,1171.4150333696682,1182.5012400714832,790.968940953143,-105.0962614427134,-516.8042059319755,-1322.218710825017,155.19984227208488
0.3574999999999999,-0.4102410238816687,-1.1028907582354377,-0.8731983516068214,0.0396731800464456,0.0217238596527679,0.0078311533048419,-0.0161664803816469,0.0177155984065845,-0.0006800983185862,0.9997119099241438,-0.0393184979920847,0.0806817766689042,10.668846157708643,-0.0717558179502767,-0.051614601243493,1.1740590118081486,-1.2248009027303823,0.1825466746527057,0.5333347901055069,1156.0603490417343,1195.3794981939575,1170.146796944911,1179.6885393319333,379.831785462056,-280.03745872911145,-538.9102174108752,-975.8589577076227,155.20528780011628
0.3599999999999999,-0.9095745678039666,-1.294487323395633,-0.7773437872776806,0.0380345696678978,0.0184417705197831,0.0050232624902148,-0.0161346320393888,0.0177667356751475,-0.0006526545294801,0.9997115215783172,-0.0374892895657157,0.0782706544059882,10.653263891935884,-0.071040795039218,-0.050573590069876,1.176238613492537,-1.2248771990241307,0.1825183277474896,0.536283624525746,1156.5250274405207,1194.4577305194598,1168.7204822826138,1177.621945282945,-35.55711928916023,-490.7825563849197,-640.9043807094343,-689.384682138188,155.2108256184318
0.3624999999999999,-1.3781667475081492,-1.5149192446048108,-0.6081106663055801,0.0348953724152833,0.0134448831304398,0.0022647911590189,-0.016126779055873,0.0178134517247019,-0.0006283599450497,0.999710815364372,-0.035057791449389,0.0750367644254955,10.637577926181539,-0.0703005431931554,-0.0496173764342917,1.1783576200905124,-1.224952907217646,0.1824952486551483,0.5392407949357727,1155.8825634452885,1192.9255854120331,1166.942275041364,1176.2416159212423,-417.55430030048007,-612.2227125261355,-637.3373134751995,-323.41149325884516,155.2175760949091
0.3649999999999999,-1.6470796740586433,-1.674878424169068,-0.4362090095848372,0.0310558788343369,0.0090025946084266,0.0007794169977233,-0.0161458026070662,0.0178500443826374,-0.0006115221180062,0.999709847338203,-0.0319536780925838,0.0710173697419645,10.621858915212531,-0.0695183193651422,-0.0487575846432716,1.1804136281573652,-1.2250265995045968,0.1824780417704714,0.5422058406948208,1154.4372559390183,1191.3966169568291,1165.5337957152378,1176.0048878166508,-720.3592530867802,-635.4235414275075,-515.069040545722,52.30214194980358,155.2232885896805
0.3674999999999999,-1.7751804787065937,-1.8036233802890749,-0.2564675252139199,0.0261999724202252,0.004900428062459,0.0001521712676248,-0.0161899338650479,0.01787337066124,-0.0006048185511377,0.9997087047038336,-0.0281694647330651,0.0663524697238827,10.606176316289568,-0.068684117732557,-0.0479933715749006,1.1824056057030392,-1.2250972515705012,0.1824660504013578,0.5451779311277563,1152.2807671798544,1189.7484677048956,1164.366929838635,1176.5031266309911,-935.2420642461758,-659.2746718191387,-406.8200742293808,264.8581569077121,155.2290917058475
0.3699999999999999,-1.7811730282749227,-1.9056556029125935,-0.0887989992015019,0.0207369070282183,0.0011162626473259,0.0001399223789032,-0.0162496713616342,0.0178886742829749,-0.0006084315704469,0.9997074483164856,-0.0238818151379836,0.0613450042033731,10.590595233865711,-0.0678085893272441,-0.0473034967948556,1.184333759083326,-1.2251654443316071,0.1824584749070727,0.5481556655250017,1149.7610456177877,1188.1002435977334,1163.4996953440907,1177.3291786011891,-1037.3275830138473,-641.7515071825612,-262.8131457744528,329.15892683645296,155.234970704675
0.3724999999999999,-1.6481660523142403,-1.9689122396441727,0.0465195906445051,0.0152394067496377,-0.0028029625184181,0.0007206177998563,-0.0163139005981232,0.0178967561187349,-0.0006213067334091,0.9997062452165651,-0.0191778780498265,0.0563268701616715,10.575172901090086,-0.0668926131338856,-0.0466604828498157,1.1862009431247182,-1.22523157969112,0.182453811323073,0.5511371919214512,1147.0941292647851,1186.5397101689828,1163.052864109763,1178.1489212651736,-1136.7320462273246,-653.5765329193958,-101.81226542458708,268.15102434666164,155.24094276422855
0.375,-1.3641088968910726,-1.9777071866669012,0.159090729480896,0.0098497685252639,-0.0084587170042059,0.0018670044941547,-0.0163753431926965,0.0178929588844489,-0.0006364416333768,0.9997053008246816,-0.0140311179078706,0.0515374000540303,10.559955075128368,-0.0659250354779863,-0.0460429548542753,1.1880122742910828,-1.2252945500061343,0.1824490962783611,0.5541213146327707,1144.077385386651,1184.8323609331364,1162.990634016968,1178.6699337229227,-1032.384069332328,-594.9211168338928,43.08199212014184,73.44853076538122,155.24821960270924
0.3775,-1.0661585384564676,-1.9073487057395513,0.2117936630225692,0.0067496365522395,-0.0141714503629409,0.0029281714874094,-0.0164246801948167,0.0178714015826788,-0.000648130078132,0.9997048750557695,-0.0083927188175498,0.0472471786469323,10.544972502919297,-0.0648922146442506,-0.0454225389404955,1.1897748769764922,-1.2253533844297255,0.1824414473039558,0.5571062790108517,1141.9322089181237,1183.5651045848133,1163.2682740703635,1178.5161639190003,-746.11364065372,-474.0227503573347,154.82952612528592,-190.08398978235144,155.25437792316876
0.38,-0.7636507080676911,-1.7389830717044945,0.2335119525955905,0.005264158455264,-0.0201839270810044,0.0036497722596168,-0.0164605929345376,0.0178293166612879,-0.0006552076788846,0.9997050353433504,-0.0022824554822461,0.0435447504982128,10.530238818894324,-0.0637880013456516,-0.0447885811562357,1.1914959693078129,-1.2254084204322833,0.1824288765750701,0.5600907927484173,1140.3468171833824,1182.4622471813495,1163.7647816475944,1177.7195137740107,-551.0634617144201,-448.93159770372176,237.4255844133129,-460.2133041155863,155.26063676710456
0.3825,-0.4579341949154199,-1.432149946465118,0.2457081817243052,0.0052296806921372,-0.0262537218567541,0.003820928266498,-0.016481056897277,0.0177700646321749,-0.0006565081792816,0.9997057517205789,0.0041516996605999,0.0405166981590275,10.515748845812544,-0.0626210538549983,-0.0441279344221646,1.1931826973056376,-1.2254604032282963,0.1824116455172,0.5630746475200424,1139.1768916095516,1181.3204465962947,1164.4554019924303,1176.2150973984224,-309.7167223024823,-391.4460133511508,249.01011586325671,-598.0063641616647,155.2682663708352
0.385,-0.2813562981271799,-1.1160508024213762,0.258497809435947,0.0060012743864405,-0.0297344780982725,0.0034752479883381,-0.0164852921277213,0.0176979334864437,-0.0006500809810454,0.9997069607490832,0.0107454186843875,0.0382052027421015,10.501477614584338,-0.0614023922775031,-0.0434305244012776,1.1948419320251569,-1.2255100777769512,0.1823917768834844,0.5660584663315292,1138.79823357187,1180.505017114594,1165.0098322269107,1174.7294819532024,-46.31910671523652,-304.9554279030869,199.4528312698092,-590.3577644162846,155.27472533082496
0.3875,-0.1957737356060124,-0.7831643381789554,0.2791277821601181,0.0065426514237878,-0.0314167273923778,0.0033457639043043,-0.0164732753475337,0.0176146256159361,-0.000637162967436,0.9997086330893185,0.0173917321127965,0.0366205030635229,10.487380250032887,-0.0601367796503966,-0.0426893336058982,1.1964800591145988,-1.2255574708381245,0.1823719633648163,0.5690435510089488,1138.9452960759754,1179.7956694567793,1165.4526661487791,1173.2633085763412,123.05783709884952,-274.8047625089382,148.69992834774152,-557.686438943028,155.2812909272152
0.39,-0.1749340684083507,-0.470285216098683,0.2989218809233436,0.006631153814699,-0.0318637309552929,0.0038938211532545,-0.0164450460713107,0.0175254019738581,-0.0006218365988747,0.9997106748621452,0.0239133265662399,0.0357563801122576,10.473394083532744,-0.0588374985735931,-0.0418991659882844,1.1981017488367935,-1.2256030265026725,0.1823542368728343,0.572030866631741,1139.4135227573643,1179.130993302049,1165.7533318686494,1171.9410497584875,230.20962943287464,-270.31828792441934,75.86413767658078,-487.28412881173375,155.2879460879832
0.3925,-0.206637953486856,-0.2099241069074436,0.3019489753509488,0.0061515016752183,-0.0314672814864763,0.0054329976861632,-0.0164008469241171,0.0174309874579322,-0.0006108500420911,0.9997130667553452,0.0302335563873172,0.0355892346742341,10.45943977475137,-0.0575071116716985,-0.04105706496729,1.1997105721215175,-1.2256469509680594,0.1823402397319567,0.5750212652913503,1140.0963442231396,1178.4440780171572,1165.8319868371623,1170.8268879322825,304.6195242507562,-331.9946447284107,-28.85825778985233,-461.072589945979,155.29471030107595
0.395,-0.2683838754774847,0.0278125914598249,0.2738481408223027,0.0048103808247102,-0.0306754969647118,0.0079760645359497,-0.0163466493528496,0.017335685639759,-0.0006048459042759,0.9997156353784205,0.0362103360198728,0.0359602509023261,10.445425346279682,-0.0561574266799724,-0.0401748104763183,1.201307414150214,-1.2256887105233796,0.1823304953646954,0.5780166168261834,1140.936620378618,1177.4710200784073,1165.6090405797,1169.6356868087576,283.5652150784424,-401.00488404718783,-141.95979108635572,-438.19855488341045,155.30295433776564
0.3975,-0.3167985287287572,0.1681580527507621,0.2311760054037099,0.0032973963656369,-0.030065054456137,0.0097545035556488,-0.0162928429978996,0.0172492476963691,-0.0006011021247421,0.999718041897645,0.0415975957228966,0.0366073999528437,10.431250125450973,-0.0548140453098118,-0.0392758337645675,1.2028905115328152,-1.225727540092903,0.1823241390637282,0.5810180534812817,1141.514170298532,1176.4390535969212,1165.1221878817305,1168.6358951578654,184.01680923202528,-479.34727218107537,-261.4499747591251,-432.4510511743024,155.30993049980123
0.4,-0.3467071672445616,0.2645207112357863,0.1992115790377253,0.0019234834514847,-0.0296227452369123,0.0099888073741142,-0.016243598718643,0.0171793691524243,-0.0005980422731709,0.9997200837056542,0.0462016145280099,0.0373930745791637,10.416807069294292,-0.053498254392804,-0.0383697192378875,1.2044574439977611,-1.2257626289569872,0.182320513349361,0.5840258859433431,1141.856704424778,1175.0742837175019,1164.3017907059043,1167.473431552886,92.63951188409,-611.079490652582,-381.75647194620944,-507.35637680068015,155.31701675527952
0.4025,-0.3589019687404664,0.338565201592716,0.2057995764331839,0.000843517756875,-0.0291747867086516,0.0088187289120915,-0.016199796992644,0.0171265492053999,-0.0005942163203448,0.999721736575028,0.0499887406372622,0.0382448381610817,10.401984995658768,-0.0522145846605086,-0.0374589417289247,1.2060057403816402,-1.2257934936006532,0.1823192409286596,0.5870394514724058,1141.9773678579525,1173.3836561436583,1163.2134055219994,1166.099113273862,-0.0022005004666425,-756.1463103896125,-491.7471782458501,-604.9495896952061,155.3241939033893
0.405,-0.3531743865461481,0.400096783061641,0.2799136988954041,8.396667814662726e-05,-0.0285198444033775,0.0070388004184873,-0.0161606909516898,0.0170897479781886,-0.0005881192416393,0.9997230312418836,0.0529672913603978,0.0391230576677861,10.386672735228547,-0.0509642390632936,-0.0365427558755652,1.2075324115147257,-1.225819989781212,0.1823202582325564,0.5900577279389436,1141.8566934222758,1171.2935521655538,1161.8430548146753,1164.44868360441,-93.38256876067126,-997.0100882313992,-650.3585222245869,-778.8939778494743,155.3314797097944
0.4075,-0.3309841918661589,0.4729823571250327,0.4334401960140236,-0.000636097214104,-0.0273834159328759,0.0063225122589006,-0.0161294882878229,0.0170680383771779,-0.0005776617121948,0.9997239335956298,0.0551533238556928,0.0399072437090278,10.370762494789915,-0.0497488865070208,-0.035630621411942,1.2090336112979017,-1.2258421410064817,0.1823235721063659,0.5930807441743902,1141.510455014149,1168.3986057025013,1159.9616129108765,1162.2046433846147,-149.06790691852606,-1103.135762065266,-711.9215146091385,-850.763042915377,155.3403464508096
0.41,-0.3013828245036136,0.5403391459548555,0.578050825348865,-0.0012146871251323,-0.0262411962976872,0.0077226441340165,-0.0161067949387359,0.017058656051903,-0.0005626767179308,0.9997244825275589,0.0566097933834182,0.0405363204652104,10.354152071144016,-0.0485656697421976,-0.0347265009981978,1.2105055069470507,-1.2258596968127635,0.1823297358765224,0.5961082782079152,1141.1113538876832,1165.7778733552275,1158.2834472416296,1160.1948683898331,-176.20519974302607,-1053.9596994812644,-669.509927083572,-809.0741674022405,155.3478367251954
0.4125,-0.2587105389099587,0.621971378504467,0.6851194466730821,-0.0018522669403901,-0.0251052335720639,0.0107438644426601,-0.0160913372884508,0.0170546813496438,-0.0005451084518029,0.9997248178554212,0.0574933633210235,0.0409955205185195,10.336746596364632,-0.0474013458644007,-0.033830497408622,1.2119445771430193,-1.2258724566367523,0.1823393771407701,0.5991401526664678,1140.629429015434,1163.1288072050947,1156.6140632754586,1158.1592725476035,-237.26950402624405,-1124.5673132225863,-700.5429286594784,-870.9915082184117,155.35542940250255
0.415,-0.1882631068669015,0.7413894840501845,0.7245286241400217,-0.0025736630737837,-0.0236510803463474,0.0147222912415698,-0.0160819977806442,0.0170475445854011,-0.0005259303007305,0.9997251055640448,0.0580018784925212,0.0412738425475947,10.318460994865818,-0.0462381561439638,-0.0329434539978985,1.2133473408355395,-1.2258803431242669,0.1823525546952134,0.6021760857125745,1139.925006367552,1160.1550367891143,1154.780732598332,1155.839910848741,-291.0751310877488,-1025.9776115122454,-619.1154241854811,-806.8142821666323,155.36465501481544
0.4174999999999999,-0.1107397420436866,0.8574953267761215,0.6721177161609647,-0.0030162774886708,-0.0222294772765109,0.0174707829604794,-0.0160768055034731,0.0170367210930289,-0.0005045951922193,0.9997253863193192,0.0581729738037994,0.0413854410286921,10.299223682149009,-0.0450771118264339,-0.0320643065234621,1.2147096614569133,-1.2258842008433233,0.1823694520824892,0.6052154029258675,1139.1740533599952,1157.9989191475336,1153.5184861545313,1154.1252011367703,-350.962579494675,-771.5406620317558,-420.9916003098485,-614.3456208419201,155.37243507661967
0.4199999999999999,-0.0115813338284748,0.9816089896163968,0.5409627637007312,-0.0033800564867111,-0.0204384065035041,0.0193076508702859,-0.0160735796394524,0.0170228842955595,-0.0004804586361269,0.9997256839996344,0.058024129727456,0.0413577563733348,10.278976281075575,-0.043921188459777,-0.0311915077166376,1.2160274639091904,-1.2258852155085591,0.1823901204278316,0.608257407766264,1138.1701934700786,1156.2973334789558,1152.6757745967827,1152.7681827445315,-452.4143600561725,-598.613025254553,-250.56903211298024,-467.08625906553567,155.38030674730123
0.4224999999999999,0.1052962746136273,1.0996504040087147,0.3616080983262823,-0.0036241018536912,-0.0181683898035255,0.0204478462008089,-0.0160707922548596,0.0170052431547846,-0.000455764183894,0.9997260360179157,0.0576047163789553,0.0412155273447296,10.257673934880035,-0.0427687165902184,-0.0303250299842961,1.2172969147355293,-1.2258843639751535,0.1824145868247507,0.6113025104185716,1136.9119815597144,1155.005854021261,1152.2656409939664,1151.7897698414426,-565.0179134573132,-424.13488280662887,-51.788661020782406,-288.3576998710393,155.3882515361764
0.4249999999999999,0.2390180580637825,1.1902138684617052,0.1482015259872274,-0.0033071564309742,-0.0150861864471463,0.0209218097739595,-0.0160659226158387,0.0169860597918129,-0.0004332835766584,0.9997264440290248,0.0569022292655276,0.0410126278110889,10.235286910399152,-0.041624531410288,-0.0294619953643707,1.2185141031022853,-1.2258822121262467,0.1824427300705016,0.614350116333708,1135.345103902792,1154.1766590649227,1152.416831291679,1151.3263942451763,-744.0464644377236,-283.20598272034636,184.3078548128231,-85.88569223479674,155.39628113740469
0.4274999999999999,0.4089624284434932,1.2430099914809685,-0.1172914712604419,-0.0020957937583638,-0.0105003591198114,0.0208824594354085,-0.0160562587329641,0.0169673965581298,-0.0004158306528686,0.9997269168814202,0.0559079716912408,0.0408142336538458,10.211800312398164,-0.0404922810074118,-0.0285983651475126,1.2196752486396083,-1.2258794955628582,0.1824742847278883,0.6174001975221449,1133.1917492375255,1153.5898241076593,1153.1871802680305,1151.3603413802687,-811.8877661922845,-174.7617515907676,355.7939772773349,96.00538802551446,155.40601043956204
0.4299999999999999,0.5522402106035253,1.2316953688447407,-0.3258943937294646,-0.0007619557432603,-0.00649788667569,0.0203606850720005,-0.0160430398710229,0.0169483927922057,-0.0004037160199207,0.999727449963664,0.0546720499122867,0.0406095777265642,10.187213790081234,-0.0393680933747973,-0.0277387645222542,1.2207766374436717,-1.225875941074819,0.1825084831309783,0.6204535256653056,1131.2856650718306,1153.3028503069688,1154.1958011780655,1151.8064211853039,-751.8579755522744,-109.79834334898432,436.3205646041474,231.68737115356612,155.41419324750348
0.4324999999999999,0.6935379384947715,1.169039161364963,-0.4977295260903644,0.0005565466133252,-0.0031375053351552,0.0192378815880174,-0.0160275650870347,0.0169318503470977,-0.0003967438231764,0.9997279757305392,0.0531671087198912,0.040391361640149,10.161543026512534,-0.038256906475902,-0.0268869924445177,1.22181433377016,-1.2258706283926655,0.1825442778295933,0.6235095348343568,1129.4324593597644,1153.0408323909144,1155.3687830910512,1152.5187782360365,-767.5590517959782,-146.5605432837036,497.83356071548,322.12515334017525,155.42245025782933
0.4349999999999999,0.8565248429937646,1.057665675739839,-0.6355180597847396,0.0022145546434755,-7.575023788603777e-05,0.0170468938961066,-0.0160109810013482,0.016920892343529,-0.0003926396506616,0.9997284254500562,0.051356904141917,0.0401575141128253,10.134818943337432,-0.0371645707610249,-0.026045463165307,1.2227845120097163,-1.2258625705508608,0.1825806784236348,0.6265674561526619,1127.4478698128507,1152.5700475905503,1156.6849689816431,1153.4170469520047,-670.1568395588305,-215.72316545616536,429.4316780502864,295.02382419245777,155.43244008375152
0.4375,0.978877715367596,0.9541765492247593,-0.6785061030959035,0.0041304914261373,0.0018550493154724,0.0145226477683168,-0.0159949902691636,0.016915851123506,-0.0003888983914751,0.9997287688472692,0.0492584665899318,0.0398961685374744,10.107086888600563,-0.0360902790273175,-0.0252171677741676,1.2236836179598984,-1.2258515825976823,0.182617073861514,0.6296267490199403,1126.0816751619702,1151.9622165636335,1157.5159414813027,1153.9938973569988,-479.5135035573817,-292.8036765829799,241.2945045304693,150.49012802796807,155.4408294190098
0.44,1.0713235882511047,0.8574737519466022,-0.641222224395926,0.0070157651864987,0.0034102392653027,0.0116828858166669,-0.01597682225108,0.0169203163715865,-0.0003839899885741,0.9997289895079584,0.0468191234612723,0.0396860801501544,10.078407534658902,-0.0350413512803302,-0.0243936518123795,1.2245080654471379,-1.2258382450677965,0.1826537072465483,0.632687209688752,1125.0503022950638,1151.1060292076354,1157.8914415042955,1154.1694975921444,-362.77675083979346,-376.57797416454713,56.4128574961614,-20.481449641783893,155.44928119854944
0.4425,1.1274986384440824,0.772814822262517,-0.5469351134004583,0.0105875233833734,0.0047658587041043,0.009336926530081,-0.0159551521421958,0.0169322741942125,-0.0003779357702658,0.9997291403783992,0.0440957877945194,0.0395753547276807,10.048854676081124,-0.0340115560157413,-0.0235697745263332,1.2252544392589895,-1.225823326353268,0.1826910654624878,0.6357498399231578,1124.2677914077713,1150.0793266928108,1157.7980057687835,1153.8914901087899,-273.14381727746854,-435.320026944009,-162.81668822425658,-232.90453322970257,155.4577809732779
0.445,1.1363964204497674,0.7010734928957846,-0.4117655891899649,0.0142167859235707,0.0061009330467446,0.0083875282277271,-0.015929187197308,0.0169479760709496,-0.0003717122364923,0.9997292955072266,0.0411766788227551,0.039598508800044,10.018515428247088,-0.032990687958098,-0.0227416840087307,1.2259192010378457,-1.2258072095529302,0.1827298049397643,0.6388154891989887,1123.6845832086765,1148.9294290729151,1157.077358063174,1153.004974925996,-251.43063725795375,-512.5871353361158,-468.66611996761054,-519.9535729291706,155.4663334700599
0.4475,1.1061793602292807,0.6177618649741637,-0.2439089538535853,0.0178371215006891,0.0076546727180162,0.0086964048122985,-0.015898868151405,0.0169675039270378,-0.000365104000724,0.999729452719259,0.038071203912645,0.0397704274769445,9.987490388152596,-0.0319784358573079,-0.0219074157692892,1.2264984318139702,-1.225789998594858,0.1827700691872547,0.641884620477082,1123.0106382214815,1147.5163910161302,1155.4546751689454,1151.291722244144,-280.4309020309572,-513.021295166754,-721.1976564054106,-709.2019925965808,155.47664998488807
0.45,1.065756766607256,0.5367345785094901,-0.1206964585305059,0.0202038566948336,0.0086726622031924,0.0094329479309307,-0.015864368205455,0.0169875227869881,-0.0003594727302342,0.9997296633528012,0.034855590099944,0.0400974814037775,9.95589106314754,-0.0309668297425936,-0.0210658227111182,1.2269885883703648,-1.2257704586125004,0.1828123069563583,0.6449565394462682,1122.2824286985217,1146.3643225970816,1153.4713697811471,1149.4589649630132,-373.3441716512058,-453.1746165769615,-918.8682010920265,-768.8019201848867,155.4852856689568
0.4525,1.032635657879201,0.4215628085079263,-0.0211582675279901,0.0221899151355748,0.0096748878116963,0.0097441397022509,-0.0158255334301506,0.0170048900015961,-0.0003556686386757,0.9997299818878518,0.0316019753396066,0.0405871229657803,9.923839056088434,-0.0299492503852906,-0.0202151872320071,1.2273865394376793,-1.2257472345069138,0.182856722987376,0.6480301954015028,1121.1439173632255,1145.2505179332454,1150.8603341634853,1147.4477126432196,-554.3619604165083,-444.7298909134584,-1139.061031888922,-795.5582068362211,155.49395349947727
0.455,1.0182005315724398,0.2580573052705603,0.065107798249618,0.0241294201837181,0.0111807357208276,0.009561243864941,-0.0157803540205214,0.0170181168362851,-0.0003518446220417,0.9997304659485632,0.0283513072944673,0.0412767181001044,9.891464430200317,-0.0289239825242519,-0.0193494237067279,1.2276897145751224,-1.2257193169017209,0.1829033495630096,0.651103894290005,1119.5106188964392,1144.1406731425143,1147.7760646217023,1145.481173928832,-794.8045111956155,-454.92116231516735,-1327.3520944703691,-740.278584652105,155.5026415065369
0.4575,1.0336422979819675,0.0164641177188296,0.1450642782814732,0.026321866369235,0.0130683477453507,0.0092733878502656,-0.0157272800261291,0.0170230566401344,-0.0003461563002412,0.9997312116685856,0.0251988933930841,0.0421887306857512,9.858902876562782,-0.0278833930931611,-0.0184637847872192,1.2278962847746353,-1.2256864836609913,0.1829523811143299,0.6541773183496099,1117.1698948072471,1142.9759121216696,1144.2235736911334,1143.746319719959,-1192.1705751603884,-541.4819540016192,-1632.8589077747424,-690.9073963116492,155.51134549884156
0.46,1.0886968751458104,-0.3659601154635472,0.2381124066635413,0.0291843873697785,0.0143665475866261,0.0094442362834932,-0.0156706138608016,0.0170149595671648,-0.0003368709707969,0.999732232098656,0.0222537016338661,0.0432250121269908,9.826293803813359,-0.0268186553664501,-0.0175680534150692,1.2280047721933423,-1.2256489555436014,0.1830037206582316,0.6572513720442509,1113.5497660206372,1141.433263372506,1139.6117700828288,1142.0266369472738,-1436.8578744707506,-598.8833462606175,-1715.0396299320148,-578.7494609563959,155.52179856238578
0.4625,1.1635593252292349,-0.741392653411122,0.3102997745627115,0.0313647873599072,0.0137723630255345,0.0100018192091772,-0.0156131301129245,0.0169908846753932,-0.000325680980805,0.9997335320569316,0.0195900303034697,0.0443149759920814,9.79377803566362,-0.0257253743002015,-0.016668372619676,1.2280142068315243,-1.2256068841503431,0.1830576692618855,0.6603261834381118,1109.9856054348936,1139.9814953903665,1135.6483755414731,1140.852572415177,-1482.4130302109083,-618.6699261721054,-1569.53692691104,-447.7062892646696,155.53050988259665
0.465,1.2612766018279027,-1.132954069942869,0.3700053371617949,0.033373204144256,0.0111805814581041,0.0109954657503061,-0.0155561844607512,0.0169486101731587,-0.0003131924084057,0.999735128304835,0.017270635199471,0.0454110352580786,9.76149481336686,-0.0246006075569322,-0.0157673444605236,1.2279242626425415,-1.2255606741880223,0.1831144645316643,0.6634007968718997,1106.1377008695827,1138.3399137416457,1131.7640854482736,1139.7881055009505,-1673.2225424549126,-756.5972434480493,-1654.4337817727396,-492.17436100034274,155.53921517124638
0.4675,1.3816257280809403,-1.5677410993125875,0.4199992194826509,0.0366862353639843,0.0063292151644352,0.0125543244512994,-0.0155014781797671,0.0168879702166147,-0.0002987417880071,0.9997369991067389,0.0153204237520843,0.0464541227666532,9.729579076233192,-0.0234458746534871,-0.0148682558188515,1.2277352088929838,-1.2255109282251684,0.1831734922612072,0.666474945168947,1101.619492722619,1136.1985091731262,1127.3762066326096,1138.3917006101751,-1577.1533875005375,-796.9286284070669,-1550.0835403115148,-563.6388276285737,155.54964852154228
0.47,1.4580867054673208,-1.8695928357373128,0.4421368319543327,0.0405337002425187,0.0013284946387605,0.0138221432824043,-0.0154489732205886,0.0168170320904459,-0.0002833597722165,0.9997390086882552,0.0136054099286283,0.0474160464005465,9.698159211034122,-0.0222821478887615,-0.0139699005123198,1.227447749048997,-1.225458572970508,0.1832335286473562,0.6695487032636788,1098.25193393208,1134.3552705996103,1124.013667746716,1136.9699113628076,-1202.6901788211023,-720.6473941225789,-1285.3540635976503,-643.6970600478611,155.5583287124181
0.4725,1.4786384836101243,-2.086155590163642,0.4472718218921399,0.044806320375957,-0.0042428469908647,0.014856220110838,-0.0153982511401486,0.0167461631409218,-0.00026740301608,0.9997409888519508,0.01194956519085,0.0482722951146121,9.667353187827798,-0.0211351534944159,-0.0130699394209062,1.2270633515519551,-1.225404327990322,0.1832937911269913,0.6726219008779462,1095.6060418285135,1132.5952722025131,1120.9494363146212,1135.173215309936,-909.6703871514812,-666.5175760634605,-1186.1656686763567,-780.537990533093,155.5669910865037
0.475,1.4369043113210271,-2.226204912989815,0.4422267454431239,0.0489332833032707,-0.010029235863007,0.0157012646704379,-0.0153477478044412,0.0166794114638426,-0.0002534877763337,0.9997428937483896,0.0102992794280514,0.0490189757951732,9.637264512855218,-0.0200142508584305,-0.0121632103473377,1.2265846867584687,-1.2253482717462174,0.1833541856703711,0.675694359528613,1093.7035819963223,1131.022682719293,1118.0828394033342,1133.067221410142,-571.7601538946833,-560.1545360817904,-1112.1019853761927,-897.6774831608956,155.5756372286793
0.4775,1.3113393326531446,-2.2780637757746716,0.4277151872361055,0.052750052218857,-0.0158589695158353,0.0165336332728227,-0.0152954344315886,0.0166218762266392,-0.0002422136099186,0.9997446682860404,0.0085797864343864,0.0496584497298487,9.607980446666856,-0.0189305620243655,-0.0112436548385545,1.226015309183294,-1.2252907865769715,0.1834152420431597,0.6787658096388385,1092.74724105904,1129.7944995221044,1115.3889263877404,1130.6848278941316,-219.35151056336727,-445.03568540013026,-1150.89483914868,-1071.33071596437,155.58426284854198
0.4799999999999999,1.0636740227559278,-2.2535797092085232,0.3986942795512008,0.0565675095715873,-0.0225909069904242,0.0176979471869223,-0.0152413081658942,0.0165776375231384,-0.0002293725431203,0.9997462446226592,0.006734730193417,0.0501517006138978,9.579569242453674,-0.0178919375619299,-0.0103106935164344,1.2253597434822308,-1.2252321487759927,0.1834774943492864,0.6818358058432594,1092.6068244435055,1128.7975042922924,1112.3283652075909,1127.7105678303203,87.04798026192383,-288.19166285275355,-1084.1743328852883,-1076.742350010374,155.59458911324143
0.4824999999999999,0.7825031840970817,-2.1762589339429392,0.3626781334778768,0.0589998565893015,-0.0276649144556611,0.0187564838777538,-0.0151872157852795,0.0165489168680132,-0.0002142868597755,0.9997475567113648,0.0047381265898794,0.0504275231221532,9.552077848530864,-0.0169011724410601,-0.0093689289603722,1.2246235553925466,-1.2251727077507868,0.1835414630916493,0.6849036005836892,1093.1824809603495,1128.3535412078406,1109.968054723314,1125.3011161440795,328.7128261893483,-115.00588162743942,-878.5698785305149,-916.2109223927009,155.60317346812124
0.4849999999999999,0.4352003914427322,-2.057402010868951,0.3128269029173593,0.061012463864522,-0.032258687912855,0.0197241820982113,-0.0151374394731946,0.0165319888935471,-0.000197057439806,0.9997485995830584,0.0026718768744769,0.0503722399974464,9.525529728938622,-0.0159461865161855,-0.0084296329545712,1.2238134576630546,-1.2251128804670877,0.1836071997731907,0.6879690777656989,1094.2503885744525,1128.2224748841552,1107.9355158149383,1123.1295132183568,531.0741848874836,-20.131135484871248,-780.6653266022743,-877.3706510824461,155.61173563593823
0.4874999999999999,-0.0363662592737419,-1.8794261749023653,0.2384247873020099,0.0625496102193643,-0.0376209351870574,0.0207154502139133,-0.0150943900896647,0.0165213379969893,-0.0001778698075296,0.9997494272788756,0.0006451362270874,0.0499133714775108,9.499924095290925,-0.0150104826867952,-0.0075002257956442,1.222937157291277,-1.2250523173927343,0.1836749264697284,0.6910309504534108,1095.8378518847871,1128.2528855304163,1106.0647280903027,1120.9142628886675,601.5794699341308,11.812568837422067,-569.4557892921689,-741.3440585204618,155.62198395804978
0.4899999999999999,-0.4492145169627288,-1.7056772614500073,0.1676397560468671,0.0623696542207333,-0.042083586359227,0.0213805140881286,-0.0150557287866598,0.0165134102944522,-0.0001562291292528,0.9997501337273578,-0.0012768316710114,0.0490748210532477,9.47523577150488,-0.0140825682512772,-0.0065772650745111,1.2220030929923467,-1.224990787529702,0.1837454493365034,0.6940867765696815,1097.2582859241231,1128.2815377283423,1105.0882368684775,1119.4227929257545,562.0978762802673,-24.78335550472364,-262.6092875699667,-526.1786989159641,155.630501825207
0.4924999999999999,-0.8420807693353107,-1.5093593536925412,0.094576783804375,0.0604536241429007,-0.0463604112102803,0.0217804065893704,-0.0150198444058911,0.0165044624307789,-0.0001310544922947,0.9997508058226896,-0.0030310092053166,0.0478736121069696,9.451415511004045,-0.0131508897947758,-0.0056597937698968,1.2210200126567003,-1.2249285315785507,0.1838193457609305,0.6971354448392106,1098.6483412661885,1128.1289687528927,1104.7516816524528,1118.2833693940877,537.8421285260624,-114.75322570809102,-42.48444205259144,-404.7213885255584,155.6389957511975
0.4949999999999999,-1.1873636634103066,-1.3007154903184412,0.0264828866506513,0.0574408796051613,-0.0501958737652271,0.0218857173048873,-0.014980875428584,0.0164898453772628,-0.0001027469135107,0.9997516098705465,-0.0045429386523933,0.0464158801273764,9.428391158222617,-0.0122023314783739,-0.004736977112081,1.2199964378057273,-1.2248652543437824,0.1838970301570544,0.700177735339668,1099.9474965667534,1127.7077715998018,1104.8758146582145,1117.3991859831267,483.87841390449427,-252.24913739484668,120.10041539401745,-305.6449303005135,155.6474692131417
0.4974999999999999,-1.4448871381266433,-1.0916491197612137,-0.0269780880447182,0.0535153675638715,-0.0531384490420444,0.021711323507317,-0.014931824273785,0.0164657226959815,-7.072961540453103e-05,0.9997527168427782,-0.0057573679519021,0.0448370235582672,9.406070256712855,-0.0112265278854605,-0.0037955173020518,1.2189399335521267,-1.2248000323624473,0.1839784093477573,0.7032149631569767,1101.0677333357107,1126.8677230659184,1105.352183729423,1116.7551447425851,429.5659962694568,-475.0497879632799,217.7305640243956,-252.40986659355235,155.65591704725819
0.5,-1.626783137195308,-0.8638200568696675,-0.0653011920931955,0.0481465163640568,-0.0552910568644611,0.0213859024130909,-0.0148736470608627,0.0164304367860771,-3.374445346485854e-05,0.9997541401970041,-0.0066625909276404,0.0431313308126122,9.384343553234052,-0.0102192757198163,-0.0028415463288152,1.2178565582319563,-1.224731853869626,0.1840625468243463,0.7062481431263994,1102.0953265481007,1125.3325226599854,1105.9644674783365,1116.1371366501587,304.0701690453225,-646.0972185601272,173.78314184165694,-224.43655837541607,155.66602301235585
0.5025,-1.6644720406933728,-0.7070320264190612,-0.0714945873671792,0.0433655335608918,-0.0565101509312364,0.0210549639141887,-0.0148050826795503,0.0163830960356689,6.494988167940505e-06,0.9997559133296852,-0.0072632912257505,0.0413454501392608,9.363088588058542,-0.0091791389562057,-0.001875508714866,1.2167507409938765,-1.2246600945338713,0.1841493871740962,0.7092777335785805,1102.5880841809376,1123.6372369731175,1106.2210994386312,1115.632961950708,97.06923849325896,-750.0478213152285,-7.807011707609483,-232.47241651970376,155.67441658289147
0.505,-1.5880394977994747,-0.5906098660822166,-0.0486720369902811,0.0386799662752519,-0.0578708782072014,0.02064621912262,-0.0147264445173502,0.0163218895313756,4.991364108068969e-05,0.9997580626912294,-0.0075463364512083,0.0395045749838721,9.342174195417412,-0.0081030528937276,-0.0009013393249134,1.215625138023801,-1.224584543498936,0.1842393974747692,0.712304069592975,1102.580672740567,1121.5822835534093,1105.9254324197984,1114.9747745675604,-100.1126150842082,-867.7905864701634,-236.4262051123658,-313.37913354968777,155.68277808294334
0.5075,-1.4303418888509247,-0.5064481540155121,-0.0027462079452443,0.0344472955996045,-0.0594138719811845,0.0202709471033194,-0.0146460991851301,0.0162508289527907,9.966787231281917e-05,0.9997603966534307,-0.0076053173761808,0.0374903139277733,9.321466079051108,-0.007002417772439,5.7913666907098704e-05,1.2144804838606211,-1.2245047737271693,0.1843320289439774,0.7153282906018159,1102.0875211055163,1119.2982840407667,1105.0389684130691,1114.0660662829596,-321.01363127812846,-952.2305407132072,-503.4459893868184,-446.64588114228496,155.69111023942327
0.51,-1.2013632342081109,-0.4600061649392661,0.0654981385288147,0.0309804486979273,-0.0608386166167384,0.0200608545735635,-0.0145670862020044,0.0161774565500806,0.0001588182748482,0.999762743417093,-0.0075969115842208,0.0352911892363701,9.300831565505396,-0.0058972855547998,0.0009928640370779,1.2133157965114705,-1.224420762938302,0.1844269900280081,0.718351460751079,1100.9756045841764,1116.8211308498433,1103.4082024728643,1112.7415451618488,-625.0626783449339,-1116.3670367683392,-866.1217001296974,-691.2554702185537,155.6994029782826
0.5124999999999998,-0.8872760194609499,-0.4512957933971905,0.160154729686036,0.0280509177546166,-0.0616731762382674,0.0201159638050098,-0.0144882761386388,0.0161067722139807,0.0002285165507752,0.9997650358772276,-0.0076274457605074,0.0329791294749531,9.280144235372575,-0.0048013794262173,0.0019050735091579,1.212128635716557,-1.2243337757821684,0.1845240123689327,0.7213727845925224,1098.962207713792,1113.7164488569251,1100.7083599124207,1110.609788931867,-836.7774428488693,-1149.9320765184157,-1078.303585135426,-865.7105949988355,155.70930253899766
0.515,-0.6261083775944679,-0.4848995424221246,0.2364735922445836,0.0268319031520812,-0.0616864689989956,0.0204915543650461,-0.0144094469911792,0.016039745043364,0.0003024762367934,0.9997672598573139,-0.007727024520366,0.0306149209013349,9.259288639514471,-0.0037185618314358,0.0027949566944334,1.2109152949801911,-1.2242446805436913,0.1846227255554013,0.7243905390493772,1096.791717369932,1111.0714704672512,1098.0166845471872,1108.4129921868548,-947.8692746845346,-1059.9840417952228,-1112.9279980393212,-941.4805191138375,155.71750386722533
0.5174999999999998,-0.3993325405337171,-0.5503585056213292,0.2917422432132008,0.0265699941355913,-0.0620324014512064,0.0212754945402188,-0.0143339884362608,0.0159710069568311,0.0003753575197723,0.9997694502106004,-0.0078054234354491,0.0281932485753144,9.238164364259967,-0.002636949823945,0.0036550503537256,1.2096708772891935,-1.2241537832891058,0.1847221352638441,0.7274051519702852,1094.2228613403693,1108.4165286479492,1095.1437199222244,1105.9023863362977,-1198.3555312799567,-1159.8563711243503,-1237.0289730682532,-1134.9917567479667,155.7256481007476
0.52,-0.1893276176138069,-0.6325023999650217,0.3130196208091846,0.0268942838855769,-0.063840334421132,0.0226626648011168,-0.0142656976411425,0.0158964362964445,0.0004424460555546,0.9997716176807172,-0.0077935040905545,0.0257008240539886,9.216690409815026,-0.001547357275289,0.004477725293187,1.2083892028404513,-1.2240615373375008,0.1848214929132102,0.7304174621455458,1090.7999397135322,1105.2721886116294,1091.831539681846,1102.7380334031147,-1299.024906517751,-1136.9560064137647,-1146.123516219449,-1152.4294191001889,155.7353472274092
0.5224999999999999,-0.0687460353716031,-0.6740576711309061,0.2821688822812595,0.0273536228700793,-0.0662142807309414,0.0240131439084002,-0.0142065137739352,0.0158123551886378,0.0004975501814801,0.9997737946271678,-0.007629007586683,0.0231573101028808,9.19480811716091,-0.0004415219585982,0.0052605476731203,1.207062879978392,-1.2239680287983608,0.1849210179314692,0.733428608383018,1087.7277368077805,1102.7317486158804,1089.4131023411271,1100.1402392407967,-1263.3353194790277,-985.7461829214561,-855.3900831570437,-997.1242147479632,155.74336326586163
0.525,0.0070323301374736,-0.6598657798070746,0.1967058557814921,0.027563447631221,-0.0687388407623283,0.0252050498973339,-0.0141607630133568,0.0157170204914254,0.0005379259946126,0.9997759468860518,-0.0072830698575874,0.0205337820063896,9.172483242753076,0.0006843826791213,0.0059956142681309,1.2056835869182607,-1.22387289942883,0.1850208575491139,0.7364396412031802,1084.483263116137,1100.343457697022,1087.5545892660607,1097.7524123293751,-1317.1039947585075,-918.3272754407418,-634.5641196662193,-904.2243685263649,155.75130547692646
0.5274999999999999,0.0614400359783041,-0.589582158591045,0.0707942594800891,0.0274493522289698,-0.071096602780831,0.0260496709156647,-0.0141281481892706,0.0156114371993323,0.0005627574188741,0.9997780610655472,-0.0067754509895418,0.0178810357611524,9.149707181001187,0.0018276565623444,0.006686293745752,1.2042424327125427,-1.223776118889851,0.1851211649254772,0.7394508585597847,1081.142216833988,1098.1401122386767,1086.240281742796,1095.6191173981647,-1342.1981563510587,-824.1659709634852,-395.84448678306177,-787.7813986829998,155.75918377342265
0.53,0.109742388981422,-0.4534742535885948,-0.0893681394154532,0.0270977860821713,-0.0730642092620538,0.0262596813400797,-0.0141054984884654,0.0154975563498236,0.0005748465993033,0.9997801481785814,-0.0061411178829466,0.0152951432136197,9.12649666652572,0.0029834519857557,0.0073426852826465,1.2027305095031573,-1.2236768063467252,0.1852226302201906,0.7424620978771715,1077.7722723343816,1096.2226278422047,1085.5753668321452,1093.81350533596,-1456.4490416467363,-767.1504867461401,-168.74971663323763,-732.2726295757996,155.76698272778972
0.5324999999999999,0.1779599900353606,-0.2317918694266053,-0.29532014550318,0.0267564771846655,-0.074590175974924,0.0257029019561718,-0.0140880629101287,0.0153767660623596,0.0005791238951066,0.9997822500792304,-0.0054033747013142,0.0128932240725021,9.102892268865341,0.0041483483211127,0.0079783874270555,1.2011394772744952,-1.2235740766085987,0.1853256954391908,0.7454728156451738,1073.8599716257543,1094.304359804946,1085.3965331596298,1091.957754250286,-1382.8583381644407,-637.231232126714,4.646067563862739,-647.131868612359,155.7762480295297
0.535,0.2473857418869334,-0.0197994584013409,-0.4578474254556537,0.0268144861589922,-0.0750016331253216,0.024661030328164,-0.0140730699582548,0.015249314643223,0.0005801928507511,0.999784399088846,-0.0045645135567952,0.0107490175548544,9.078955646199674,0.0053217189747051,0.0086019891128259,1.199462176273359,-1.2234677324836238,0.1854299343056879,0.7484828390223821,1070.8579806435596,1093.0364716815711,1085.5985971699647,1090.5778459928983,-1110.6812349140444,-442.1330723160732,105.70556888342242,-539.2555160941351,155.7838908388401
0.5374999999999999,0.3254075746139366,0.190489289620415,-0.5878496735403685,0.0272719702588234,-0.0748243718856495,0.0231778694161909,-0.0140556582751551,0.0151161814620191,0.0005792783951432,0.9997866477303824,-0.0036409037196383,0.0089680656177361,9.054766297196291,0.006501265662645,0.0092269787651799,1.1976931230881311,-1.2233587340277403,0.1855352564999822,0.7514914679530987,1068.306565451184,1092.0936944433656,1085.9250610040467,1089.2614766698152,-983.3634047564819,-350.6175483136755,117.74267014002352,-577.8265860244568,155.7914528223797
0.54,0.4163544622357154,0.4045654654459336,-0.6834846374699722,0.0281001566027123,-0.0739050557909482,0.0209312489903132,-0.0140314281362591,0.0149781059900865,0.0005785874489686,0.9997890459303588,-0.0026447550071952,0.0076395721576163,9.03041691842452,0.0076856980818863,0.0098653684506365,1.1958290256340327,-1.2232485227247845,0.1856419121058295,0.7544963702427053,1065.9411636197772,1091.2833839400028,1086.1873105206648,1087.688713062776,-735.7789970841615,-254.42151904758225,43.16780850913343,-574.4124369321976,155.8004348820536
0.5424999999999999,0.4774936688735668,0.5244573431380513,-0.7002053530372572,0.0290860457820281,-0.0722210651037238,0.0187339673545914,-0.0140002432052238,0.0148348742543762,0.0005784541879345,0.999791600069398,-0.0015722897933999,0.0067693415533019,9.006008100025971,0.0088762600255507,0.0105187353782147,1.1938691247692503,-1.2231379217324263,0.1857500861168409,0.7574945513821556,1064.6276704657632,1090.8215868481277,1086.1409000465926,1086.3894144851542,-387.4532537211959,-154.7716858177408,-94.9312420718342,-507.14761914578,155.80784389474343
0.545,0.5062266115922645,0.557145038223469,-0.6438921885219621,0.0304709578091933,-0.0697343178176307,0.0164317897814618,-0.0139633198470283,0.0146876990618589,0.0005776436292214,0.9997942789525852,-0.0004468558488676,0.0063333520673681,8.981643458618358,0.0100708903948576,0.0111852642133726,1.191815123425056,-1.2230267854605588,0.1858602685408715,0.7604843183877807,1064.0038973511712,1090.509525510914,1085.7126543103057,1085.1529749670472,-148.73248802409748,-111.32946459783842,-237.60017951353785,-475.0826523812971,155.8151750499081
0.5474999999999999,0.4957933993166807,0.5085260643698271,-0.5289651243537213,0.0321838719032014,-0.0669987510415479,0.0143632871321868,-0.0139227378900413,0.0145435163116849,0.0005765111466332,0.999796954629706,0.000604949309776,0.0062861354150091,8.957425012619515,0.0112540019657449,0.0118608595593151,1.1896709132723124,-1.222914446984644,0.1859726486598368,0.7634643727718894,1063.8840080256427,1090.2649395251383,1084.9528991490247,1084.0140012232475,40.44036692025653,-96.9209494202004,-374.0006721111509,-425.3200293155256,155.82244241114412
