t,ang_acc_x,ang_acc_y,ang_acc_z,a_vel_x,a_vel_y,a_vel_z,quat_x,quat_y,quat_z,quat_w,acc_x,acc_y,acc_z,l_vel_x,l_vel_y,l_vel_z,pos_x,pos_y,pos_z,mot_1,mot_2,mot_3,mot_4,dmot_1,dmot_2,dmot_3,dmot_4,vbat
9.0075,1.339024873423294,0.3730830776767692,-0.1616784918567808,0.0347134960696671,-0.0170149077436443,-0.0121960310169258,0.0015305982932476,0.0027756729274663,0.0330940432842365,0.9994468633773624,0.0081573161981415,0.0292630419438502,9.772048751578499,-0.0017477333580502,0.0066121544060422,0.0062821263367619,3.4798897623771583,-2.9850014575155313,3.1033285031506894,1133.6318501214823,1108.1087041317187,1120.8643679247236,1135.0730084388492,561.290864967689,-131.13346815346512,-874.5287186913095,-534.7574156767378,161.79230375537858
9.01,1.1360628188063548,0.4622252945078765,0.1418334943950725,0.036997995487218,-0.016042666308501,-0.0133031917392371,0.001552312784201,0.0027750297767421,0.0330892517371791,0.9994470048702898,0.0051301544165638,0.0307553584584928,9.769784486864912,-0.0017297264957843,0.0065764530081279,0.0061454640764274,3.479886034277987,-2.984985489259638,3.1033409533533125,1135.0299234121587,1107.756522221967,1118.5547475310375,1133.8490718018177,577.4651317733521,-155.51858106921216,-993.9757216946227,-493.2636326649711,161.79231595400512
9.0125,0.9091780861047298,0.5589924499501199,0.4837090062553905,0.0388093619779336,-0.0150179240813288,-0.0120991262441237,0.0015792047585856,0.0027746178281347,0.0330871233017563,0.9994470495960928,0.0021833564886098,0.0323546576046025,9.767886094479456,-0.0017311524674066,0.0065433180136835,0.0060049554597193,3.479882530769551,-2.9849680904673095,3.103354493722265,1136.5191757803495,1107.3311112263725,1115.8944893162495,1132.606690275524,498.58290594917366,-143.39854173356375,-908.416048525436,-428.1456832957942,161.79235617219578
9.015,0.7330128893088904,0.6345766154712128,0.690958058592372,0.0398200003730176,-0.0138627886921806,-0.0092437054095555,0.0016081481586241,0.0027725416161359,0.0330881965407344,0.999446989217964,-0.0005685136470527,0.0339903261339065,9.766362991982295,-0.0017525447680202,0.0065108465388902,0.0058619851970825,3.47987920046476,-2.98494936627736,3.103369463081307,1137.5228379419052,1107.0395295132992,1114.0126672884096,1131.7083433853384,343.89002032583016,-81.74982753900429,-645.9439291181218,-340.6912102166866,161.79240593130595
9.0175,0.5529313669274276,0.7034977462635592,0.7618347222843522,0.0410976153281028,-0.0124053794492088,-0.0055500780346013,0.00163939671236,0.0027668655298728,0.0330965862886521,0.9994466924992595,-0.0030073949257248,0.0356589678456023,9.7652188470709,-0.0017940631520109,0.0064774903501918,0.0057177770223229,3.4798767630322054,-2.9849294772281527,3.103386415095257,1138.2386258819784,1106.9223620886776,1112.6647696706596,1130.903234224441,237.45181822960325,0.5265419405078458,-441.1472357580319,-306.25944351101407,161.7924664815882
9.02,0.3484200249253082,0.763099566215882,0.6991589116156401,0.0431397266889205,-0.0109683144657082,-0.0018936307033891,0.0016722670411527,0.0027648326703574,0.0331121625132457,0.9994461410598076,-0.005196514778207,0.0373450623616844,9.764450751640974,-0.001855603770518,0.0064421797932565,0.0055737137088152,3.4798746999820884,-2.984908755633584,3.103404107479129,1138.7100970330528,1107.042162223002,1111.8069311096199,1130.1770461677836,129.06738300069065,124.71437201218446,-235.21327363688172,-259.59784210349915,161.79253148564405
9.0225,0.0945295292830731,0.8032281231011784,0.4801584038914583,0.0458594906260869,-0.0093607925024074,0.0014012186354447,0.0017062593952695,0.0027704383896693,0.033133850695988,0.999445357102223,-0.0071392384350057,0.0390343564111595,9.764051094967677,-0.001936492889812,0.0064044940671809,0.0054315978394252,3.4798729826529966,-2.9848883617762167,3.103419999923013,1138.883962796982,1107.5459339487384,1111.4887033024752,1129.6052450139232,3.702094779372932,324.6066066936184,-49.7996593651273,-192.0707445694616,161.7925964693457
9.025,-0.2602210326321324,0.8125185088067379,0.0800436296502004,0.0481627551312352,-0.0069115578305553,0.0043718485180111,0.0017433410774889,0.0027813120740149,0.0331586526755098,0.999444441750422,-0.0087190030320194,0.0407555664396845,9.764008479922007,-0.002035376883214,0.0063647263734327,0.0052936078036711,3.479871847818034,-2.9848687474272237,3.10343261903072,1138.7286075069499,1108.6651952564703,1111.5579328127942,1129.216692444936,-121.9896755438428,493.4181352958676,67.03334454588426,-76.36337987202451,161.7926675207826
9.0275,-0.561464195175135,0.7747681044406098,-0.3097747524472764,0.0476341586143794,-0.004527606014557,0.0050235749574347,0.0017827694076208,0.0027945338529526,0.0331846103440438,0.9994434703433408,-0.0098183563702387,0.0424826024411895,9.76430785740922,-0.0021501647157018,0.0063237727275586,0.0051620341290146,3.4798704531300433,-2.984850283436915,3.1034419294961566,1138.2740144192628,1110.0130246252174,1111.8238700252043,1129.2234281145631,-250.96048504056387,601.9022431641421,109.88238208612896,81.49812910120802,161.7927159606218
9.03,-0.8039851966136387,0.679174379401084,-0.6665566274256797,0.0437387418823288,-0.0019441025704662,0.0026809031205864,0.0018213870923201,0.0028112916250958,0.0332073806217506,0.9994425924924258,-0.0104117952046482,0.044142437095456,9.764930710986304,-0.0022780735327942,0.0062829877071403,0.0050388197970679,3.479868153093585,-2.9848333875644,3.103448531530192,1137.4738050817473,1111.6747064722904,1112.1073447232247,1129.624183090442,-421.12637473344654,751.6659918692501,93.88313156867649,261.03669206400366,161.79274731309965
9.0325,-0.9716343617421264,0.499381288278845,-0.9535395700734108,0.0373188133713646,0.00076006009156,-0.002994193078958,0.0018546361563716,0.0028314788584656,0.033222246145488,0.9994419786022392,-0.0104615626475892,0.0456311443650877,9.765856820729507,-0.0024155957306899,0.0062440111145,0.0049251656736866,3.4798645260519248,-2.9848182553081406,3.103453483027991,1136.1683825455953,1113.7713545845643,1112.293285683048,1130.5286115748831,-517.0470900775044,737.3852547044618,28.668961809394272,384.92015672162216,161.79275855474387
9.035,-1.007082499802343,0.30872316533072,-1.0280287845323843,0.032787602730432,0.002062467084431,-0.0085281145637774,0.0018786635893707,0.0028556192211825,0.0332316236079253,0.999441557729626,-0.0099552885316836,0.0468567630451815,9.767065010491475,-0.0025585550129325,0.0062085963194188,0.0048212198221406,3.4798596709402414,-2.9848050067691703,3.1034586776490407,1134.8885696313591,1115.3616327458133,1112.2506895322715,1131.5487838740503,-519.3314099946416,546.2732402367869,-60.19662879599598,430.8460515529935,161.79274173862544
9.0375,-0.978244809775826,0.1014063151448068,-0.9260355857118352,0.0306123980297613,0.0022543778233415,-0.0131367153952684,0.0018957708204278,0.0028869827820661,0.0332348851523379,0.9994413380592556,-0.0089452370448922,0.047846274964098,9.768533601459715,-0.0027024179251503,0.0061783694113619,0.0047259407516592,3.4798529888306713,-2.9847931235383047,3.1034657761691005,1133.5717254956223,1116.5027207857477,1111.992302539068,1132.682841832648,-508.2037548523318,349.61903836669075,-132.22616681435036,443.1837236877744,161.7926939944315
9.040000000000001,-0.9431339499874624,-0.0998760887510764,-0.708646346850065,0.0304580794694248,0.0018205548062856,-0.0162812386761497,0.0019097339538723,0.0029201242860774,0.033234200396624,0.9994412549570668,-0.0073282521401258,0.048647773824718,9.770243208763022,-0.0028423046287377,0.0061545925042885,0.0046374214997958,3.4798452666237853,-2.9847819081553117,3.103475947856404,1132.3475508570973,1117.1097279376468,1111.5895586981999,1133.7647024924895,-446.55570630363695,97.26177934724846,-181.85338806540017,385.57593845597125,161.79261879608205
9.0425,-0.9393926198056496,-0.2754108416404239,-0.4156984733049545,0.0312714589626292,0.0009212366821053,-0.0172689181864608,0.0019244586828585,0.0029424097885841,0.0332306187482248,0.9994413002646184,-0.0048767619057316,0.0493055187766886,9.772177067732356,-0.0029732191645737,0.0061380071444603,0.0045533138172128,3.479837450255256,-2.984770353038128,3.1034892996677965,1131.338946964104,1116.989029682484,1111.0830355987407,1134.610721524928,-383.8755096787136,-209.73327937844795,-228.18479143879804,282.9096779768969,161.79250951215045
9.045000000000002,-0.9691442169985864,-0.4412283053616651,-0.064805905945269,0.0300060775773561,-0.0005901378427275,-0.0159843321817017,0.0019424917104134,0.0029492745618795,0.0332213564494603,0.99944156986161,-0.0015376346735629,0.0498414603479188,9.774319064752836,-0.0030902807516405,0.0061287928674441,0.0044712503957535,3.4798290244302073,-2.984758342120593,3.103505080937019,1130.428173308704,1116.0610615407547,1110.448634741006,1135.179250882374,-285.90981033177064,-439.6973593684344,-227.4243438275332,118.8450941902156,161.79233923519885
9.0475,-0.9903391560404512,-0.5369583863126411,0.1771891364446798,0.0261229095373698,-0.0022246171117104,-0.013565424580482,0.0019641062244142,0.0029396068336351,0.0332036313461696,0.9994421557008676,0.002658054050441,0.0502357253709068,9.776654243053512,-0.003188657841522,0.0061266468438559,0.0043893206334248,3.4798189878093955,-2.9847454959220605,3.10352155113455,1129.9093979124455,1114.7905428856423,1109.9459138796035,1135.204946995879,-162.43919754803943,-555.1198473930114,-192.70836589127327,-88.77872786855252,161.79216602523226
9.05,-0.9719827130271692,-0.5899101519300057,0.3410896555946343,0.0213139393617286,-0.0041897465758225,-0.0111607260744516,0.0019878859936566,0.002914429425316,0.0331773404300135,0.9994430604562926,0.0076223709539002,0.0504383548536921,9.7791683749188,-0.0032636480571023,0.0061309232410017,0.0043063425123565,3.4798065399050966,-2.984731942068932,3.103538073075479,1129.6159773209636,1113.2854623037895,1109.4850929115496,1134.735357243031,-76.61202546759053,-643.3593623968494,-199.29920753158123,-315.3606338114476,161.79196317669485
9.0525,-0.9045823330760108,-0.6170055106913314,0.4607854543345024,0.016905101406063,-0.0064660907653617,-0.0095518427466853,0.0020129012292489,0.0028774825308917,0.0331453713913741,0.9994441800495968,0.013202222106574,0.0504131345806005,9.781846916319607,-0.0033109322419121,0.0061407834435721,0.0042219348588949,3.4797917382266315,-2.98471857723055,3.103554270052479,1129.5263377851074,1111.5737460736575,1108.9494178419454,1133.6281438268215,17.07282504094449,-565.9440438848139,-200.47523454158528,-484.93430111639645,161.79169038633574
9.055,-0.8384373024176751,-0.6262870793632763,0.5211951052935851,0.014726712166058,-0.0076279494547747,-0.0092550922243966,0.0020351167901194,0.0028362763190279,0.0331090035107787,0.9994454583582308,0.0191584498832958,0.0500687389990081,9.784674192204406,-0.003326963432986,0.0061551919898754,0.004136572161661,3.479774905496473,-2.9847060983723726,3.103570352393485,1129.7013414461685,1110.455742084366,1108.4827167388419,1132.3106857374496,133.30805386138044,-348.63293775696553,-196.2245101498104,-586.1593719238492,161.79144272588226
9.057500000000001,-0.8077874697122248,-0.6431261522150499,0.5658981151142893,0.013983102195233,-0.0077660421101076,-0.0093489290150524,0.002055469410988,0.0027954848455759,0.0330716352408509,0.9994467660828042,0.0253029861365992,0.0494134920406965,9.787632415710782,-0.00330917422276,0.0061729565754457,0.0040515339658738,3.4797572167219735,-2.9846941605023294,3.1035859993297743,1130.1928780544145,1109.8305813848724,1107.9682952911962,1130.6973469672018,256.6174773341626,-160.9210237261071,-212.425276945954,-670.8267336175911,161.79117872507695
9.06,-0.8347503887085023,-0.6720292710653112,0.6022632976289545,0.0140072380868545,-0.0078245494967285,-0.0090614010137118,0.0020764290566871,0.0027566167409105,0.0330343365027865,0.9994480583479404,0.0315060457909596,0.0484887425259437,9.790700673674385,-0.0032562483847445,0.006192584115912,0.0039689186481153,3.479739599346096,-2.984681829939504,3.1035996830235923,1130.9844288328395,1109.6511369657353,1107.420590354112,1128.9565520693611,390.9354178839617,24.463516261407996,-217.3997913778272,-692.1539454217522,161.7909044399609
9.0625,-0.94088367557377,-0.7006969725051386,0.6152583488993068,0.0137332899421422,-0.0089365952902789,-0.0075826498303016,0.0020996786457338,0.0027206570272809,0.0329972603781902,0.9994493261022512,0.0376463145914289,0.0473261286656177,9.793853851899646,-0.0031682063476082,0.0062122536270408,0.0038914960209113,3.479722387088121,-2.9846689451731265,3.1036107842737386,1132.1475551438339,1109.9528989661794,1106.8812963343073,1127.2365772400935,586.3695824543613,212.0502922403797,-214.42240333653615,-702.9098611774805,161.7906213594938
9.065,-1.1345821798426836,-0.6968207017987692,0.5772928655442373,0.0119313321047589,-0.0118901635858749,-0.0044160119549488,0.0021237820007307,0.0026856852683111,0.0329622129551677,0.9994505208702305,0.043659501159974,0.0459010124764508,9.797062248605453,-0.0030463383575381,0.0062298644700208,0.0038224570898555,3.4797061574217474,-2.9846555310369847,3.1036198946488183,1133.9162767451107,1110.7113884269368,1106.3484783374295,1125.4420027634744,692.0800245701057,314.8950412722987,-159.18055629815413,-578.1061257461721,161.79027570599453
9.0675,-1.312791339787806,-0.6358107175258586,0.4904727475412764,0.0089952504847735,-0.0150488530491018,-0.0014968976334121,0.0021431261340334,0.0026550415211037,0.0329334650661594,0.9994515054389458,0.0493810022661698,0.0441172812554874,9.800291047104352,-0.0028931786697348,0.0062431038787175,0.0037650561225941,3.47969108039039,-2.984641327373029,3.1036271062653342,1135.6079552666847,1111.5273741725412,1106.0853935528164,1124.3460466113625,690.2965376863734,329.39218853988984,-51.645095198356216,-320.7051623597589,161.7899854355331
9.07,-1.454826634297206,-0.5039113088450549,0.3578442910832608,0.0045142305344544,-0.0177737186594586,0.0003521124526277,0.0021560231498396,0.0026310566111275,0.0329139164773174,0.9994521817967512,0.0546767121921349,0.0419621763780521,9.803500497018137,-0.0027123776087481,0.0062495617314722,0.0037222742858133,3.479677501701702,-2.984626581270748,3.1036325753966185,1137.3677594335431,1112.3583493696367,1106.0902528614376,1123.8384769516751,748.1720582189279,332.82098497422595,70.65414783957335,-64.69655160564267,161.78969572527518
9.0725,-1.5340271299246346,-0.2819963830635197,0.1851283114118114,-0.0019346694939195,-0.0197318571663426,0.0008343661069451,0.002160543870285,0.0026156175760167,0.0329034523128625,0.9994525537525591,0.0594318598910143,0.0394252612454098,9.806646857188474,-0.0025085675050759,0.0062467710079464,0.0036966085781274,3.479666147772624,-2.984611167394914,3.103636658999069,1139.3488155577788,1113.191479097412,1106.4386642920142,1124.0225638533343,675.5929024293745,257.2329042590407,180.02399864259957,199.91282568422832,161.78935153668596
9.075,-1.509150323493034,-0.0720573165056337,0.0627739257259742,-0.0069874287782561,-0.0199771337815976,0.0002102521636583,0.0021596422884066,0.0026069441622798,0.0329042349213614,0.9994525483221148,0.0636196594904042,0.0365963868481782,9.809683304952493,-0.002287035986472,0.0062323531753568,0.0036898021942991,3.4796580979023366,-2.9845947257311174,3.103639884169086,1140.7457239456903,1113.644513890932,1106.9903728546508,1124.8380410800967,479.2087443952984,116.24603684666,260.24643947467234,443.48331753383144,161.78906922542848
9.0775,-1.3995399935929052,0.1264487552277051,-0.0081631339895718,-0.0110102198207426,-0.0189003634904836,-0.0008962069314122,0.0021583630533664,0.0026035170045988,0.0329132973520634,0.9994522564796944,0.067223996492601,0.0336133767844577,9.812561605387476,-0.0020534984766688,0.0062040687566049,0.0037026848325669,3.479653279165433,-2.984577086488301,3.1036423129306696,1141.7448592797557,1113.7727092816451,1107.7398964893875,1126.2399804410038,322.8735600617898,-4.397884267928896,319.0125083630117,630.0999373106952,161.78879288836418
9.08,-1.2398634641287352,0.2945602050346984,-0.0278915732034793,-0.0141215697565169,-0.0172195979307185,-0.0019786271923795,0.0021596868511682,0.0026010506947906,0.032923754007473,0.9994519110131984,0.0702970186687585,0.0305778168525405,9.815234095581607,-0.0018136491598628,0.0061599437160252,0.0037351095921563,3.479650929856298,-2.984558475563507,3.1036443200793915,1142.3600917459992,1113.6225244695925,1108.5854353964655,1127.9885407666495,153.83088353931603,-117.60269451872384,347.5252582410358,739.7687716419221,161.78852192387353
9.0825,-1.0480060923417451,0.4173115112281146,0.0077198519136911,-0.0162316902338137,-0.0155288175464424,-0.0025300573898486,0.0021624214344785,0.0025950184312968,0.0329326114479955,0.9994516260175536,0.072908323638555,0.0275135649687779,9.817655605124644,-0.0015727162567505,0.0060984363986476,0.0037858735656333,3.4796509298182023,-2.9845390566663736,3.103646691276704,1142.514013697452,1113.1846958090518,1109.4775227805926,1129.9388242992127,-22.959011440612866,-233.75404781651,393.4215438015439,846.2846637512524,161.78825721543632
9.085,-0.8094306416565366,0.5204036674049916,0.0914303943334959,-0.0178812623669648,-0.0139338812862487,-0.0023148065144139,0.0021684743342611,0.0025864817017481,0.032936650204241,0.9994515004663986,0.075034615350687,0.0245119450775523,9.819785276959635,-0.0013352709159021,0.0060186009957996,0.0038526035584598,3.479651865365316,-2.9845193796589795,3.103650490544234,1142.245296688796,1112.4537542305095,1110.5525431154736,1132.2199640854064,-154.39061598992654,-277.6669827205317,394.1614259061973,787.3335705258473,161.78794557292383
9.0875,-0.6142475772910968,0.5827289664493936,0.1753224122068308,-0.0188637675298114,-0.0129866047584213,-0.0015082586110342,0.0021751727347983,0.0025777308264612,0.0329357131351342,0.9994515387358744,0.076638958080861,0.0215763648064341,9.821588481834496,-0.0011049992682358,0.0059201185164017,0.0039320055247865,3.4796530195370967,-2.984500260027372,3.103657304112404,1141.7420606175024,1111.7963608954487,1111.448329910124,1133.8754921518423,-231.56604171590573,-243.67984023115545,362.965430799822,573.1060138102524,161.78768930956068
9.09,-0.4218661308177938,0.634891982732504,0.2549201268858215,-0.0198510264909188,-0.012248287672506,-0.0004213469116482,0.0021793242739174,0.002569022586327,0.0329332923329749,0.999451631769188,0.0777357603223491,0.0186980878673952,9.823037941529314,-0.0008846546978723,0.0058033227846767,0.0040201521624118,3.4796547576169794,-2.984482058465835,3.1036687449563,1141.0874664802168,1111.235355029354,1112.3673702694723,1135.0854941544571,-292.43460972380853,-201.4839823530511,417.1661480005616,400.05948198135,161.78743394704603
9.0925,-0.1827538735683531,0.690808791295414,0.3347947800879289,-0.0210183394421302,-0.010825664227184,0.0008697407175437,0.002179808877442,0.0025670503231766,0.0329297228768291,0.9994517522679712,0.0782244806224112,0.0159114907248335,9.824114916733183,-0.0006762399484231,0.0056691337640323,0.0041129687413605,3.479656725923948,-2.9844651108863247,3.1036840453067733,1140.2798875688836,1110.788940983684,1113.5341606501263,1135.875789561749,-282.18670924352546,-121.60245420880445,441.43087330796715,170.64916648389104,161.78712450655638
9.095,0.0316690898983814,0.7274604574362966,0.3872199435711181,-0.0218369613718964,-0.0089314700063199,0.0017292669159341,0.0021807160948128,0.0025753511551891,0.0329222741166476,0.9994519704448752,0.0780780517322573,0.0133479126477848,9.824809442965742,-0.0004809836294627,0.0055189757681524,0.004206805723277,3.479657688039508,-2.9844490724803565,3.1037009839783107,1139.6765329339987,1110.62734275831,1114.5745246360125,1135.9387399868767,-213.54608445782404,-32.17116189629857,426.9379992717646,-91.73720976217213,161.7868608120323
9.0975,0.2643505544511832,0.746781572365882,0.4267164754699631,-0.0222039611172639,-0.006739258593479,0.002154185166884,0.0021850502564675,0.002588646311184,0.0329095775982466,0.999452336714397,0.0774477533594625,0.011106513480329,9.825120217834602,-0.0002993886843461,0.0053546324994847,0.0042988856665658,3.479657566517233,-2.984433637921875,3.103717262006488,1139.2121571465943,1110.6280851742024,1115.6688506464855,1135.417103512938,-158.26122774040834,9.161336528497488,437.4471160107948,-287.5476096759147,161.7865870764188
9.1,0.5055015826822067,0.7502407590146463,0.4536795649449585,-0.0219078571278015,-0.0046923524416842,0.002464823137109,0.0021932113545732,0.0025981745854426,0.0328927379341712,0.9994528365072778,0.0765553212633565,0.0092264288078722,9.825054460980521,-0.000131480026985,0.0051781828440098,0.0043873468966823,3.4796573577472465,-2.984418315216857,3.1037313095306445,1138.885226795297,1110.6731494409523,1116.761760216066,1134.5010019384974,-97.33479164390998,2.0509088999002847,417.7934485240968,-425.9100111764172,161.78630208188483
9.102500000000001,0.7384883558817436,0.7378610032012273,0.4536752134125644,-0.020706941648152,-0.0029875019663455,0.0034885864423833,0.0022058700999556,0.0025983845395621,0.0328703597494474,0.9994535308672862,0.0755615958003861,0.0077468269379853,9.824627647279945,2.292364408838821e-05,0.0049920359587489,0.0044709656080136,3.4796572670838883,-2.984402747508204,3.103742600050631,1138.7254831883747,1110.638339718702,1117.7578178891063,1133.2875534570555,-34.76252371660305,-63.69821207980663,385.2206303745186,-544.0162839753672,161.78600002690473
9.105,0.976277324364762,0.7103731049730713,0.4001447091783236,-0.0181893869339396,-0.0010488530640446,0.0059744333432887,0.0022192333251143,0.0025901880986803,0.0328434464939175,0.9994543958022444,0.0744974210877459,0.0066147408202317,9.823862887165635,0.0001641492332294,0.0047989579293533,0.0045488226500201,3.4796570861752207,-2.9843873750602583,3.1037524767570224,1138.711414176714,1110.3546583805535,1118.6878633679387,1131.78092051862,21.654474398523902,-156.8840128570485,274.4593850415732,-513.9229200992871,161.78561341967605
9.107500000000002,1.1139715873298106,0.6797144788577834,0.301714866602288,-0.0151426056869217,0.0005817930292858,0.0085699728801577,0.0022235369876013,0.0025795876430249,0.0328204559921537,0.9994551601281668,0.0732876214264408,0.0056536669349087,9.822790095199808,0.0002926628463964,0.0046021053235917,0.0046199800241621,3.479657247517697,-2.984373168068683,3.1037619455356156,1138.8337555603673,1109.8539196544168,1119.1301148143139,1130.7179388565596,74.53009945230977,-254.2331764326769,88.04886050790562,-332.8027538289669,161.78526796681476
9.11,1.1634250725322026,0.6429909364069921,0.1600088904040161,-0.0112874575374127,0.0021366741826495,0.0103858735939819,0.0022132396208595,0.0025704327109201,0.0328080922378409,0.9994556069766428,0.0718988804663177,0.0047595849203012,9.821445254262303,0.0004090123282337,0.0044050684502201,0.0046831981099733,3.479658570420244,-2.9843615250948825,3.103771529788751,1139.0840646739755,1109.0834924983903,1119.1281076704784,1130.1169067494757,138.93460393035286,-378.56620977011966,-110.08576494735378,-114.4597694089319,161.78489464930803
9.1125,1.1090315162693578,0.5934721439082402,-0.0137704630561518,-0.0066077724957377,0.0037807530112329,0.0103558124442881,0.0021894767634773,0.0025593404956219,0.0328068218320445,0.9994557272799028,0.0704399671451435,0.003946262493431,9.819869698527699,0.0005138919715794,0.0042116889319561,0.0047368743398922,3.479661442027935,-2.984353020592697,3.1037828024236065,1139.5284285800192,1107.961088605566,1118.579685989577,1130.1456400095149,187.05812414515808,-416.24342592574834,-283.2671719360872,146.72840643627276,161.7844102721709
9.115,0.9766927611599086,0.5478335898193145,-0.1203305277999039,-0.0034654743404943,0.0050346430445577,0.0086497248563713,0.0021599907497685,0.0025415658929431,0.0328166060743341,0.9994555179340758,0.0690447780455921,0.0033476620359482,9.818109495810404,0.0006082785735052,0.0040257114783259,0.004779179113129,3.479666053938393,-2.9843469966026386,3.103796660740834,1140.0193552947014,1107.0022753687613,1117.7117718107977,1130.8505487816572,220.90965894553693,-348.34760786818714,-407.08237724901574,405.7813532079206,161.78397343559018
9.1175,0.7784676017852162,0.4959724044289058,-0.1527679153850619,-0.0014779345286061,0.0064255841530938,0.0065542924754622,0.0021343305473473,0.002520555361389,0.032831778126014,0.9994551331728236,0.0676810208645955,0.003131061079379,9.816214465900735,0.0006934700407679,0.0038503929352986,0.0048084061100483,3.479671550516353,-2.9843425162087462,3.1038127370365935,1140.6329768747466,1106.219350566225,1116.5442741033323,1132.174546775554,263.6675906899242,-255.79138938501825,-489.9916793824248,595.4674126796796,161.78349918455876
9.120000000000001,0.5477011491505012,0.437717530019815,-0.1188545522966694,-0.0003323186154092,0.0080923483855547,0.0050634518516622,0.0021154215036553,0.0024991572735386,0.0328473228384231,0.9994547214498626,0.0663160675562202,0.0033268919173134,9.814236511197496,0.000771343744856,0.0036881543714035,0.0048233661998799,3.4796764193699032,-2.984339284572895,3.1038298115748746,1141.3376932481513,1105.723318421836,1115.2618134138852,1133.827885845056,297.90793948109126,-104.98254565766906,-505.71236212800886,673.4556937192649,161.78299206979864
9.1225,0.3001332530232511,0.3756066285692885,-0.0212197880969657,0.0001405824900338,0.009695814926163,0.0046670038217196,0.0021020120168968,0.0024760342378714,0.0328635384172692,0.9994542759145012,0.0649879571016547,0.0038760051108836,9.812228242537712,0.0008443965135998,0.0035404310843616,0.0048235850949994,3.4796799865931916,-2.984337142996536,3.1038469629298198,1142.1225165721523,1105.694437837937,1114.015712292692,1135.5418252441507,350.79720080591574,106.95621650304328,-501.09646693386793,669.5497681982911,161.7824435642893
9.125,0.0027692970276837,0.3132503282117351,0.1360162712148912,0.0004351808130139,0.0106034075247715,0.0051160128929733,0.0020944019850603,0.0024571885658117,0.0328801869801074,0.9994537853169476,0.0635831397813552,0.00475180481015,9.810241765131837,0.000915409330039,0.0034076369211812,0.0048093521712057,3.479681848998274,-2.984335078988964,3.103863109236784,1143.0916792521805,1106.258099504351,1112.7563310792164,1137.1756346860468,346.31235157996866,298.56951578155105,-404.2126150296903,464.6608015117196,161.78173581778216
9.1275,-0.2358683474204913,0.2876120436068417,0.2760749339654772,0.0007297611280756,0.0104312240522829,0.0057862497273116,0.0020934793599403,0.0024500984678852,0.0328955619649464,0.9994532847833651,0.0619511820940709,0.0059395388732798,9.808327065302622,0.0009872348442306,0.0032891421934959,0.0047816558298484,3.479681615766768,-2.98433250921404,3.1038777344756725,1143.8540783300518,1107.1872854168444,1111.9946492175438,1137.865129251709,275.64820366033257,439.5621336709832,-237.76597420033715,91.6459556866214,161.78110391304585
9.13,-0.4502826833954251,0.3005343871697625,0.4003613673096947,0.0005360936633268,0.0100994127661417,0.0066660290193799,0.0020960578318547,0.0024594724196107,0.032906636358362,0.9994528704834612,0.0599855734898432,0.0073439751043736,9.806530507837115,0.0010625351471487,0.0031833289503875,0.0047420336173883,3.4796800958202114,-2.984328622380688,3.103891267890177,1144.4699202704824,1108.4559101727064,1111.5675012082145,1137.63386446448,212.937826746714,589.4602925791776,-118.41475723588668,-307.77339267387754,161.78042774152567
9.1325,-0.6501999604410195,0.3533435808981995,0.5048498849193399,-0.0016129795289352,0.0102869365542731,0.0080190163429487,0.0021000113598612,0.0024883669227361,0.0329155109338641,0.9994524731017588,0.0576057153159419,0.0088921457273496,9.804893751495753,0.0011435544203291,0.0030878335451673,0.0046923509734885,3.4796786130777866,-2.984322668853534,3.1039038562190084,1144.9187674637856,1110.1345868797407,1111.4025754313643,1136.3262622883394,100.924177747922,604.6321525814003,-15.921879004693876,-606.7932471928841,161.77956511526818
9.135,-0.7463080197230019,0.411449775136764,0.5360951501193046,-0.0047199926517445,0.0110434342908607,0.0095129953234282,0.0021075043085535,0.002536022232231,0.0329213423936853,0.999452122243112,0.0548033008618425,0.0105968644028186,9.803452794547017,0.001231962620868,0.0029998954916637,0.0046346269884313,3.47967688718426,-2.98431449680257,3.1039154992754425,1144.9745411592219,1111.4790709356128,1111.487891813191,1134.599898228516,-55.83118985540787,488.1098830639677,59.50633889882717,-740.2594735982553,161.77880378800177
9.1375,-0.7582986169981,0.4575910166069291,0.4895939298598368,-0.0075889260458998,0.0127238567013673,0.011463714197383,0.0021177043759945,0.0025929008040283,0.0329235735187622,0.999451866988443,0.0517363055294145,0.0124113378245335,9.802237266194256,0.0013288667385684,0.0029166415275767,0.0045709417309441,3.4796743498980303,-2.9843043756049967,3.1039267503658525,1144.6396115145085,1112.5751362950607,1111.7001071258585,1132.6249649203476,-201.23514513903993,376.64174450418176,90.73262743453088,-766.1078626889033,161.77799847174728
9.14,-0.7083548596576104,0.4764516373399045,0.3696190903114393,-0.0096726933821666,0.0149219071841779,0.0135806583192508,0.0021253549610307,0.0026472603520714,0.0329264924913743,0.9994516103968724,0.0486009736018849,0.0142057309305659,9.80127006103618,0.0014346812679543,0.0028354116293533,0.0045033667784618,3.4796712863120742,-2.9842933789035166,3.103937621873748,1143.9683654335263,1113.362279658134,1111.9415549503635,1130.769358915071,-343.16445100455445,227.35539904174377,92.06658389254711,-652.3809953006481,161.77715650411906
9.1425,-0.6036310138111723,0.4544684160485185,0.163875999367387,-0.0107894822865853,0.0169480889957007,0.0153825201528432,0.00212926914753,0.0026942384206391,0.0329288588729802,0.9994514060855824,0.0454619931201869,0.0159397111130305,9.800566923256278,0.0015488755974909,0.0027541202537495,0.0044338957892437,3.4796683999034297,-2.9842821941249236,3.1039484074783177,1142.923789259486,1113.7119132902694,1112.1604400453211,1129.3630599438447,-526.0450102844653,51.32728432255247,90.2621555484709,-472.3413627622024,161.77626982758994
9.145,-0.4380239044857817,0.3901033853530318,-0.1563104706414907,-0.0114739658886086,0.0186137072269543,0.0164029751893461,0.0021231201355157,0.002728778428825,0.0329335996985452,0.999451180634105,0.042386884637894,0.0174766877424354,9.800136387700794,0.0016700393429777,0.0026712631648103,0.0043644772400949,3.4796666390395674,-2.98427168549076,3.1039595739814065,1141.3381403821047,1113.6189160797467,1112.392865728106,1128.4076521012605,-615.6301280260725,-110.06412020313388,88.71831181930678,-223.144794506026,161.7751531086255
9.1475,-0.2755656418449419,0.3207093251022481,-0.4510048996044488,-0.012252336837868,0.0192543562489178,0.0157955736063579,0.0021002538326045,0.002752258238299,0.032948037366165,0.9994506999085402,0.039321370870349,0.0186817456044884,9.799979652541788,0.0017958785194077,0.002585945667446,0.0042970498786064,3.479666664664048,-2.9842625124534936,3.10397086505582,1139.8456386193552,1113.1615926892537,1112.6040316044175,1128.2473359713147,-603.0817405429809,-240.16370522627648,101.42237030393748,51.596987183976246,161.77417760818693
9.15,-0.0914479984260474,0.2551708595388532,-0.7273549630903988,-0.013406980288802,0.0192982290062086,0.0136252196617914,0.00206136514293,0.0027724280730684,0.0329741656214286,0.9994498717726752,0.0360977487581976,0.019571194222501,9.800090623737491,0.0019233326690076,0.0024978532314951,0.0042335672962964,3.479668803922491,-2.9842545282946986,3.1039818589448647,1138.322731679389,1112.418097553615,1112.8999775796256,1128.6656370371804,-644.6417744188611,-359.05146598609326,157.07523088388768,284.72374764338593,161.7731540335586
9.1525,0.1436057306275849,0.1953888135006595,-0.9898186970030528,-0.0141489359034539,0.019283767913031,0.009974912805816,0.0020107430954739,0.0027938031543133,0.0330104840340627,0.9994487231608868,0.032621986413184,0.0202316656264614,9.8004567278994,0.002048906067765,0.0024070407669785,0.0041760151422457,3.479673107836372,-2.984247439593832,3.1039927994172984,1136.6224297472615,1111.3663353593236,1113.389407758837,1129.670954709531,-585.5075810429554,-384.1399187040533,196.90019619605943,427.36078282677533,161.7718680863296
9.155,0.3332195735091731,0.1633233828424968,-1.1281176210175827,-0.0136189484829412,0.0194465919606938,0.0064596607670109,0.0019575281222271,0.0028120140474572,0.0330529859553387,0.999447377423936,0.0289862096246639,0.0208399806449385,9.801060076627545,0.0021689973087846,0.0023138023592541,0.0041263677621868,3.479680136959429,-2.984240094075141,3.1040022796484408,1135.3951937741751,1110.4973979600952,1113.8844785606059,1130.8024409513139,-445.3431643931012,-312.9194391507519,199.61146645070193,488.5698282873054,161.77074676333575
9.1575,0.4888903081500562,0.1451563258766389,-1.1725817674777463,-0.0118742918104712,0.0197159093867404,0.0025745755529056,0.001911544694459,0.0028270113527694,0.0330946758481284,0.9994460440834028,0.0252079492731917,0.0215889621757603,9.801877797253626,0.0022801081531603,0.0022186041173713,0.0040865447031703,3.479689342518278,-2.9842322735280344,3.104008895694971,1134.3957139252957,1109.8017381635696,1114.3874650910907,1132.1138038509682,-368.31394855024575,-228.03687331194013,187.0747887862925,540.1611745674537,161.76957194285217
9.16,0.5999019554308553,0.1326363798778229,-1.1448650334522388,-0.0093944224067949,0.0200247778464277,-0.0012595071968865,0.0018791265053328,0.0028397219061605,0.0331288559515568,0.999444930455268,0.0212929570931792,0.0226024975338425,9.802883334466173,0.0023791956818451,0.0021220872325917,0.0040581352785295,3.4796987632206156,-2.984224318277508,3.104013662003932,1133.5536240314236,1109.357213593535,1114.8198525045375,1133.5032468241516,-315.2836385711625,-98.19967984164713,141.0177233964358,559.4455938367195,161.7683514282446
9.1625,0.6518028380253078,0.1188628988752342,-1.0534735827581239,-0.0066804420373586,0.0203575681622011,-0.0043584202499281,0.0018584259577099,0.0028509243424856,0.0331534675093041,0.9994441076518666,0.0172537819706077,0.0238421103594043,9.804047915916302,0.0024638385616573,0.0020250703608776,0.0040420907429555,3.479707308758008,-2.9842167980533425,3.104017577866121,1132.81929573244,1109.3107397643614,1115.0925537080727,1134.9110318201513,-320.8753814918462,83.40989300576044,75.24103506692614,600.6951573800022,161.7670743240663
9.165000000000001,0.6625629509605196,0.0906576377156631,-0.9144625824768564,-0.0040406885685089,0.0207464089414116,-0.0065812080440841,0.0018473076372675,0.0028650521403988,0.0331694687411471,0.9994435405718348,0.0130397946062724,0.0252633583918914,9.805341590894535,0.0025321342552248,0.0019286408425039,0.0040385001953138,3.4797150434942608,-2.9842095360576155,3.10402140603934,1131.949247123964,1109.7742630585642,1115.196057679872,1136.506722611052,-328.697628947924,252.93814650540887,4.725271786354995,549.1330706694549,161.76547460701153
9.1675,0.6539165742791953,0.05071052896336,-0.8061511653844993,-0.0028259126837409,0.020991361378993,-0.0072828086678985,0.0018465185129526,0.0028907461361479,0.0331765877454483,0.9994432200043728,0.0085275750596502,0.0268775924717622,9.806734428209102,0.0025825217148237,0.0018342035428421,0.004046511885244,3.4797217913980334,-2.984202127776444,3.1040259093942426,1131.1758075877003,1110.5754304968887,1115.1161800670045,1137.6566971734987,-322.8266520778749,386.24811350149184,-51.958142240447486,398.366435749028,161.76408434393025
9.170000000000002,0.6593003773795647,-0.0131202468418588,-0.7277806389924061,-0.0025637622690536,0.0210675300393931,-0.0076163254755699,0.0018525216957615,0.0029270182991046,0.0331743816589936,0.9994431758472688,0.0037863010828736,0.0286020522429571,9.808199387248541,0.0026137297026989,0.0017434391242625,0.0040643475807398,3.47972786368488,-2.9841953757131585,3.104032611353813,1130.335113863575,1111.7055036260713,1114.93626696867,1138.4985547897968,-376.533090801588,533.9227411037125,-80.12163573536557,279.9002580530771,161.7626334974368
9.1725,0.7016830992026158,-0.1240887719652373,-0.6636107178715412,-0.0022333936257969,0.0210510039195165,-0.0085006171775192,0.001864969673018,0.002961595119169,0.0331679679278235,0.9994432731333484,-0.0008861274387851,0.0304054458078248,9.809713960608269,0.00262468849201,0.0016583188926107,0.0040894729818861,3.4797354138152268,-2.9841902772718165,3.104041711085224,1129.2931421336928,1113.2450442024067,1114.7155718883275,1139.056198463764,-375.5024021551757,562.5805560362126,-67.03226334824511,125.57237930339252,161.76082119420496
9.175,0.7623004358032244,-0.2488780246036535,-0.6143090963308719,-0.0011846400750005,0.0209935239449029,-0.0099912376768408,0.0018868677670111,0.002989434430675,0.0331590003663677,0.9994434607450988,-0.005327303367542,0.0323229147772598,9.81125892082589,0.0026143873550998,0.0015810163970499,0.0041190146715696,3.4797449186970675,-2.9841872333275736,3.104052114016304,1128.4576018527987,1114.5184064062528,1114.6011056519287,1139.1264166863139,-312.19392998327413,472.962046992842,-19.766284198428004,-43.90229089676036,161.75925076308144
9.1775,0.8263076111389261,-0.4072151627204436,-0.5364594381135812,0.0010157800029251,0.020804599008425,-0.0122070348104128,0.0019181519972833,0.0030064907478129,0.0331471216882793,0.9994437604979806,-0.0093940448103111,0.0343264778438538,9.812819341349089,0.0025821366783317,0.0015135860822337,0.0041500271611999,3.4797556810967625,-2.984186503415213,3.10406331658799,1127.732172483776,1115.6098544373713,1114.6167404673356,1138.8366870092802,-263.96701056633697,388.2330331080856,30.603864281153346,-159.64743465955047,161.75761711696285
9.18,0.8727251415987958,-0.5873320439327258,-0.4147765677501651,0.0040199684483467,0.0203415891278935,-0.0146145212645848,0.0019588038551088,0.0030109744521073,0.0331298064580749,0.9994442634064497,-0.0129869719825323,0.036387605502489,9.81438413881427,0.0025277780196065,0.0014576775171838,0.0041796623306145,3.4797672323502167,-2.984187389881224,3.1040756018523887,1127.1377667999675,1116.4595715717928,1114.7541249733345,1138.3281795130163,-203.0903498427643,270.43802320968416,80.33541421567513,-232.23060134319903,161.7559306196407
9.182500000000001,0.8828638660611421,-0.7763494612982152,-0.2318345488867696,0.0071979038734896,0.019253682210935,-0.0165274613381366,0.0020087948968506,0.0030108625612244,0.033103356606365,0.9994450700636552,-0.0161999577104499,0.03848215121335,9.815944195844704,0.0024517762974061,0.0014142626244365,0.0042053578235227,3.479778937302767,-2.984188412176118,3.1040896038916754,1126.716720734562,1116.96204455342,1115.018417538414,1137.675534002564,-147.23973385769085,138.92191316902074,133.20036267876011,-292.52589913198767,161.75418003806135
9.185,0.8540577112450883,-0.9787751633766107,0.0456570095584115,0.0103421890527517,0.0168207123208083,-0.0177240073411492,0.0020622714282113,0.0030144930909799,0.0330671644947005,0.9994461904562382,-0.0191414879963049,0.0404718764261829,9.81749284334426,0.0023553884155116,0.0013834387103287,0.0042250110735976,3.479790175058848,-2.9841892001372545,3.1041056580118696,1126.4015681306787,1117.154181137638,1115.4201267867284,1136.865550017356,-86.4706462598123,8.565701144017908,149.56981803178016,-287.40384760377566,161.7520050194981
9.1875,0.8080900518041252,-1.0972448332729459,0.3021217873800715,0.0120884857746424,0.0136733643205387,-0.0177827712352125,0.0021080259161639,0.0030278103411544,0.0330242795316444,0.9994475312090806,-0.0218822065500004,0.0421134756669686,9.819025078968487,0.0022406867738306,0.00136444036852,0.0042372280183086,3.4798000279983987,-2.984189677767728,3.1041230594150213,1126.2843675032632,1117.00487305914,1115.7662666285728,1136.2385147645455,-17.408902390756165,-107.68254659212612,126.83199597925316,-232.97858581117995,161.7501305658486
9.19,0.7563284082919206,-1.133070287384523,0.5470791845676575,0.013126281953372,0.0095852846220066,-0.0167891171501074,0.0021440208780487,0.0030530536290759,0.0329819803366603,0.9994488461435096,-0.0244215074858724,0.0433444400505768,9.820535571346122,0.0021104810736041,0.0013558240479915,0.0042415127639521,3.47980861192194,-2.984189968313274,3.104140473007486,1126.3145236187252,1116.6157684046775,1116.0542867666245,1135.7006570883004,51.99515837979658,-199.62730325165984,99.9420694177232,-215.2462763640988,161.7481920215265
9.1925,0.6958905363959267,-1.0673146933387967,0.778878888913987,0.0144434181145614,0.004673132354399,-0.0140789235314055,0.0021715667658293,0.0030877745925061,0.0329426665322594,0.9994500560608216,-0.0266737230125607,0.0441687010281516,9.82201731794686,0.0019681548551094,0.0013555273208725,0.004238389953288,3.4798159897676006,-2.9841897375724464,3.104157419968895,1126.5443432951622,1116.0067365428815,1116.2659769756615,1135.1622833827248,123.86338038338972,-224.52970324626347,48.735606095344,-181.0981173815152,161.7457921742294
9.195,0.6425850986172211,-0.9326848551519116,0.8890167109684745,0.0159717097952825,0.0013858203064965,-0.0106666927714782,0.002190228132455,0.003126729737363,0.0329068511352469,0.9994511570381632,-0.0285098653849621,0.0445593823577018,9.823459871946259,0.0018175148061428,0.001360893436408,0.004229411412514,3.479821964197377,-2.9841882404984688,3.104173834398176,1126.9338405206422,1115.493119888446,1116.2979647971013,1134.7951665013927,209.17642558042257,-180.18777083065237,-19.463168951555648,-130.57527629146404,161.74373152416027
9.1975,0.5748766825125164,-0.7477044894689168,0.8933936961077539,0.0177966808550319,-0.0006263335437682,-0.0068974208593769,0.002200964373307,0.0031677758869831,0.0328736248834554,0.9994521790218202,-0.0298723054307792,0.0445252754622658,9.824846521252093,0.0016626042591087,0.0013688500065488,0.0042170924037107,3.479826641773907,-2.9841850061717854,3.10418921196251,1127.590225423064,1115.1057976887284,1116.1686611309035,1134.5094070012676,316.9478105163266,-116.98993335042348,-74.73468660867833,-99.55411988697314,161.7416086755397
9.2,0.4882598384146861,-0.5515651493308155,0.8146560022240407,0.0194873561699674,-0.0015445234347298,-0.0036695624808739,0.0022038279258142,0.0032147217509975,0.0328421805103749,0.9994531286512164,-0.030832849479603,0.044068299079971,9.826152534003697,0.001507538650153,0.0013761147389724,0.0042047964383335,3.4798293178983295,-2.984180399843687,3.1042031648961306,1128.518579573224,1114.9081702216938,1115.9242913640578,1134.2973959019575,446.82379052271534,-19.62897823691185,-113.7106498704547,-64.8634179613408,161.73943508774153
9.2025,0.3762610509137778,-0.3740543792229789,0.6624966019377989,0.0207391955375567,-0.0015697595959302,-0.0015608612164598,0.0021979080439306,0.003267959973221,0.0328187588842245,0.9994537873960332,-0.0314088632784379,0.0431774553811213,9.827346076199449,0.0013564285857999,0.0013794127419163,0.0041965153483853,3.479830590582618,-2.9841751300970207,3.1042154853246644,1129.824344375678,1115.0076527975439,1115.6001078815511,1134.1850899114609,665.635124355727,117.87207858703894,-139.1375032302498,-26.14119551977248,161.7372015552594
9.205,0.2152558198011079,-0.2064040410003745,0.4434921504680577,0.0216682641686523,-0.0012517644515672,-0.0003393496111087,0.0021875482959852,0.003322092540134,0.0328109101513292,0.9994538945409392,-0.0315123666602376,0.0419485952138811,9.828388199833832,0.0012132123344087,0.0013757328696829,0.0041966099059782,3.479831334852636,-2.984168767870152,3.1042254281017425,1131.846755195002,1115.4975306146289,1115.2286038479067,1134.1666899243587,809.7472866691779,235.2505237451182,-116.38366452264148,9.601555465407818,161.7344539146547
9.2075,0.0629479478387365,-0.1074897371934575,0.2662584851978229,0.0220614036592994,-0.0010372247947332,-0.0002347397358978,0.0021806727661345,0.0033701224416175,0.0328222783555727,0.9994533207365008,-0.0310327590159645,0.0405530708133709,9.829232691971017,0.0010815166695771,0.001362481373992,0.0042094970067394,3.479831570329526,-2.9841612060466614,3.1042310565100752,1133.8730808090231,1116.1839054162692,1115.0181895589383,1134.233097688788,856.0082641960461,313.5001462541788,-48.37002308390009,36.811393408919386,161.73210965439637
9.21,-0.1025512750953279,-0.0413393550478814,0.1276767334239898,0.022062292022733,-0.0011039267584282,-0.0007965657097441,0.0021819268479902,0.0034048526174712,0.0328453818076872,0.9994523475553656,-0.0298675842801046,0.0391021266883276,9.829827347426177,0.000964609451722,0.0013376032536241,0.0042391668013908,3.479831875481984,-2.9841530121590023,3.104233011967917,1136.1267965159827,1117.0650313459,1114.9867537324872,1134.3507468914036,996.1217574089266,400.085127118183,33.156564276436534,55.40220388596979,161.72971095506
9.2125,-0.3087276246532288,0.0186807272285903,0.0254290390799371,0.0215868608366677,-0.0015821450923845,-0.0018497140965117,0.002192941559237,0.0034191514011752,0.032869727553966,0.9994513692069572,-0.0279259637984322,0.0376521748026466,9.830115755669683,0.0008654503649666,0.0012996997622047,0.0042886027949521,3.4798320004195085,-2.984144566107365,3.1042333653282057,1138.8536895960683,1118.1843310518605,1115.1839723803205,1134.5101087082176,962.4352619622282,394.1331764244625,105.86773393654144,57.40728672118399,161.72677247767848
9.215,-0.480141169347428,0.0640758020043407,-0.0070682001787771,0.0207136181881341,-0.0022300653330469,-0.0026543363154421,0.0022136716759213,0.0034113708957301,0.0328841520681973,0.999450782446324,-0.0252324095133853,0.0362336390827816,9.830038774868786,0.0007866729699479,0.0012481102635505,0.0043593724075934,3.479830398842944,-2.9841369344734785,3.1042338370027567,1140.9389728257931,1119.035697228022,1115.5160924021695,1134.6377833250094,750.6023960300029,295.4656507569458,149.8336287667669,48.03865812183222,161.72427601505248
9.2175,-0.6419439451761441,0.1088123504939739,-0.0014798189677811,0.0191683913813443,-0.0028209932787666,-0.0027935711895134,0.0022383217723104,0.0033932237772325,0.0328828911532153,0.9994507590089292,-0.0220822155200565,0.0347753147145266,9.829536490283862,0.0007304013846535,0.0011828500785171,0.0044514829209151,3.4798255876883046,-2.9841307752337296,3.1042348954149275,1142.6067015762178,1119.661659305645,1115.933140524154,1134.750301998827,575.0454245193406,199.247371244988,160.88947954146747,42.24961696976856,161.72173276364035
9.22,-0.7896148401610293,0.1462585173603114,0.0167148945160726,0.0170845508983067,-0.0029427154295379,-0.0023102198116437,0.0022622771499018,0.003373162415684,0.032870038118036,0.9994511449738704,-0.0187081359968569,0.0332287390366626,9.82855443009426,0.0006980606906872,0.0011045438576327,0.0045633440764576,3.4798181516008238,-2.9841259951297605,3.104237101348765,1143.8141999483903,1120.031934084247,1116.3205397998772,1134.8490314098583,361.5213933689464,82.98707625939252,119.81111814509804,35.74613818145177,161.71915269438168
9.2225,-0.9171897222992876,0.1574447595727752,0.0297582163973411,0.0145881620394399,-0.0022983686187815,-0.0015533109414644,0.00228406776643,0.0033586007465392,0.0328497098688005,0.9994517813219278,-0.0153202193618745,0.0316056913647837,9.827046522184268,0.0006899219623505,0.0010143096386883,0.0046918733197645,3.4798097520214815,-2.984121930298597,3.104241217093329,1144.4143085430628,1120.076594686942,1116.5321961148795,1134.929032689734,129.2543096439006,-41.85267217058859,19.063836396257255,29.35020421751362,161.71653053314435
9.225,-1.0512775408010426,0.1172948623844364,0.0251092210387313,0.0115883955540797,-0.0011689619476012,-0.0007709196667666,0.0023004004758162,0.0033512013454618,0.0328278078509702,0.9994524744862558,-0.0120138548528166,0.0298765182380573,9.824979132332656,0.0007048867006378,0.0009135906916968,0.0048326957157502,3.4798024886292516,-2.9841186713344814,3.10424753917492,1144.4604714966097,1119.822670723394,1116.4158589818585,1134.9957824309458,-81.86684589826284,-123.32288336413401,-121.48866523760182,18.870976683316943,161.71333815252177
9.227500000000001,-1.1544029402231184,0.028471640050112,0.0030369354655269,0.0091554487348623,-0.0002920982620626,-0.000371064073417,0.0023115086080346,0.0033457563434882,0.0328096820387361,0.9994530625710344,-0.0087419339782319,0.0280733372878179,9.822333699539982,0.0007405044631432,0.0008041152367705,0.0049803978697711,3.4797978837151335,-2.9841161550108817,3.1042563088965847,1144.0049743135714,1119.4599802701212,1115.9247527886916,1135.0233875731508,-263.02272046464606,-144.8426051699017,-283.85827458946653,8.20509665227163,161.71064171172847
9.23,-1.256669415856689,-0.1196251634572968,-0.0313994352881343,0.0067572274896612,0.0002571093074321,-0.0002916132195986,0.0023218498552863,0.0033430261005277,0.0327956937880317,0.9994535145976972,-0.0055643180344459,0.0263109631031459,9.819107103819778,0.0007930930680778,0.0006878221097843,0.0051288434646849,3.47979551905956,-2.984114353100827,3.1042666986479666,1143.1453578942862,1119.0984576975443,1114.9965676089107,1135.0368079142072,-444.21263313597336,-124.68426944995124,-492.43210841937776,14.81548189681529,161.70791013496535
9.232500000000002,-1.3803984832537033,-0.353450713530708,-0.0742968680791882,0.0036861365927168,0.0002989484224076,-0.0005578346844144,0.0023325561675056,0.0033413485886786,0.0327858465473487,0.9994538277611736,-0.0024862697713898,0.0246332312177979,9.815314727774048,0.0008581692625857,0.0005666768931324,0.0052714316476782,3.479795697840092,-2.9841138413271424,3.1042783674173577,1141.783911147892,1118.8365589228715,1113.4625922465952,1135.0974649826348,-534.5783295034989,-50.94743305340776,-604.8904489288201,43.979051765345154,161.70459429730204
9.235,-1.477952585189665,-0.5770130957525232,-0.1019251481113163,0.000625369392109,-0.0003771616829335,-0.0010348123440419,0.0023435358297339,0.0033342638242556,0.0327786051127996,0.9994540711069264,0.0005905171597117,0.0230525971242267,9.810991441473897,0.0009308313158685,0.0004425554295287,0.0054012823964363,3.479798966358944,-2.984114674894628,3.104292405983064,1140.4724662467693,1118.8437205322775,1111.9721153642674,1135.2567031730339,-540.1450513758001,54.13849263235597,-595.1821069345422,104.55648603045304,161.7018014624882
9.2375,-1.5541273661872084,-0.80044232962137,-0.1130015374459515,-0.0031974612503718,-0.0020535816355023,-0.0016427544948558,0.002352725359581,0.0033181293374365,0.0327708916165392,0.9994543620398548,0.0037183114561001,0.021540590715715,9.80619058356996,0.0010060752964118,0.0003170675945587,0.0055114982994029,3.4798051586459,-2.9841162976399684,3.104309862330329,1139.0831858910124,1119.107251386033,1110.486681711922,1135.6202474127872,-555.6506251150536,139.39751151190288,-557.4873590610006,188.7389126219819,161.69898050742887
9.24,-1.599482643888222,-0.998549385829501,-0.1081470419905214,-0.0074309320025578,-0.0047053980566651,-0.0021600509095821,0.0023532976608685,0.0032957246004548,0.0327637624843096,0.999454672332928,0.0068304738664982,0.0199761926998825,9.80098280750833,0.0010791688418339,0.0001913756785043,0.0055955669770482,3.479813994994319,-2.984118259162313,3.104330886749585,1137.6942131211936,1119.5407080898372,1109.184678568962,1136.200397736144,-544.5688397829318,192.06039087652425,-440.8690702147364,285.49255929657414,161.69613850570147
9.2425,-1.5966775853071489,-1.1398455883109904,-0.085933793277718,-0.0116609452502646,-0.008431413468466,-0.0023799639263338,0.0023392300059149,0.0032694294920401,0.0327624001047116,0.9994548389136864,0.0098778251333842,0.0182511576980696,9.795455217930284,0.0011461157912752,6.61783358977134e-05,0.0056478252309126,3.4798254340310706,-2.984120582881037,3.104354590248579,1136.3603416920985,1120.0675533404155,1108.2823363608488,1137.0477102092696,-566.6943309472596,214.36151833696672,-278.4247873423302,422.46474984138086,161.69327425843912
9.245000000000001,-1.5318840049469167,-1.2270515742939379,-0.0436300386888705,-0.0163078455866513,-0.013331750477125,-0.0023890305013036,0.0023120780258197,0.0032409883266167,0.0327673135590827,0.9994548360371392,0.0128362695350598,0.0164026276350748,9.789708920926813,0.0012040196764592,-5.8221432595413535e-05,0.0056638984508362,3.4798381708285335,-2.9841231241224713,3.104379623067727,1134.8607414664568,1120.612515681522,1107.79255463225,1138.3127214853512,-531.8183481693345,153.27479871791516,-78.4082203341191,489.4535399710238,161.68981599835055
9.2475,-1.4262586906042756,-1.2360808887866694,0.0025941086874036,-0.0194850054650116,-0.0170365768317603,-0.0021722546045247,0.0022791668995713,0.0032076938756175,0.0327753548386189,0.999454759350781,0.0157781056184516,0.0145756961677939,9.78385634800554,0.0012513878623111,-0.0001819418851587,0.0056409822068,3.479850698599363,-2.98412548734388,3.10440418560148,1133.7012499512512,1120.8339273340055,1107.890295259178,1139.4949779091253,-446.95734354081446,3.6686490186646576,128.92304284062283,478.021514538436,161.68692017543992
9.25,-1.2643076797417687,-1.2019988488780533,0.0613217149903064,-0.0219853211190317,-0.0200762975565152,-0.0018316456909689,0.002246243575268,0.0031623305231558,0.032783192652149,0.9994547290758828,0.0188656043741912,0.012880194737215,9.778017579812845,0.001288191357119,-0.0003055753712064,0.0055779097343148,3.479861638797612,-2.9841274634723494,3.1044273529043465,1132.6259547487532,1120.6308589266155,1108.4371698464531,1140.7028290580429,-457.299708626988,-219.96788592641508,309.8177972140709,515.5491923923935,161.6840147505845
9.2525,-0.9901405737061474,-1.1473340757943573,0.1531710293693544,-0.024783184207177,-0.0231680827245687,-0.001612701736487,0.0022191704219676,0.0031058391558237,0.0327914800930936,0.9994547062999098,0.0221016990437486,0.0114325667352482,9.772315326864467,0.0013155755225504,-0.0004300752707918,0.0054750694565869,3.4798704912475062,-2.984128193655988,3.1044491476174088,1131.414751408117,1119.7340879043736,1109.4393842452482,1142.0727238710867,-432.81194417470545,-450.0192395895489,393.2179472270786,478.0835242116317,161.68052337952875
9.255,-0.6765570489771858,-1.1158435563493267,0.2539242891107219,-0.0273917955863094,-0.0254185275882089,-0.0016696014853317,0.0021992384978549,0.0030456402396811,0.0328006429179134,0.9994546488857968,0.0253579804407117,0.0102634523396898,9.766871302289443,0.0013356079626576,-0.0005566093462505,0.0053342119969056,3.4798771451758523,-2.984127443064682,3.1044692332758514,1130.461895027879,1118.3807627286672,1110.4032595825888,1143.0932466791014,-369.27038691804813,-665.5625263027883,372.9234096915987,376.4665328616823,161.67761480816597
9.2575,-0.254074831558131,-1.1233839448402274,0.3823034131551195,-0.0303081050636014,-0.0273011417880395,-0.0018439729210763,0.0021840205841824,0.0029860108004674,0.0328111498406273,0.9994545327009287,0.0285612240450156,0.0093285556250179,9.761803195526385,0.001351069931441,-0.0006862909859202,0.0051582284391341,3.479881826751642,-2.9841259299715617,3.104488595572151,1129.5683994735264,1116.4062752728591,1111.3040012937065,1143.9550565353954,-345.32646730210723,-879.9633238982029,324.5506713018321,316.6837408540862,161.67471357944697
9.26,0.2597335896509621,-1.1738175614587882,0.52637704116943,-0.032915325139368,-0.0289755118181721,-0.001844799573673,0.0021715973401032,0.002929384081066,0.0328261299166767,0.999454252073799,0.0316686726366581,0.0085919955153496,9.757220967876435,0.0013651319284726,-0.0008199073581984,0.004951027471555,3.479885430722044,-2.984124499488588,3.104507765249915,1128.7352626913691,1113.9809461091772,1112.0260129390977,1144.6766653833715,-314.2778691157182,-1052.1419874650012,226.2387441586826,253.06354951349607,161.67182359781953
9.2625,0.8513984805602653,-1.2744078851244656,0.6652371837288226,-0.0337865625812232,-0.030813649617382,-0.0010961237860896,0.0021612620906795,0.0028813862011201,0.0328435762002761,0.9994538570618928,0.0345693672142222,0.0080428714664173,9.753223368643198,0.0013810722133898,-0.0009577667491944,0.0047175096948313,3.4798877875388583,-2.984123597634501,3.104524935596832,1127.9970101279475,1111.145565335533,1112.4351950145,1145.2203742829631,-296.70893490438084,-1298.3639668667151,101.87953429211346,192.01829917553093,161.6689538573634
9.265,1.5630902436335703,-1.42978207857688,0.7779318166727484,-0.0305075111253982,-0.0338586975745521,0.0015225423439025,0.0021550738063096,0.0028420284097468,0.0328592359730136,0.9994534814023648,0.0372559860239599,0.0077194941709145,9.749895790286029,0.0014021687660112,-0.0010996696498976,0.0044634314134091,3.479889080774417,-2.9841231930683256,3.1045386999747016,1127.251718016847,1107.4891262748426,1112.5354106105583,1145.636756879249,-245.41162079217764,-1347.0332645607364,-18.22993926685193,106.12343480427008,161.66554272401999
9.2675,2.075874046942477,-1.55837408344781,0.7901243777561351,-0.0236329400018825,-0.0374407216529181,0.0052346227662945,0.0021574284996326,0.0028052227701964,0.0328710796026477,0.9994531976740076,0.0398332924163534,0.0077001314173236,9.747308033529807,0.0014315020435968,-0.0012449349973764,0.0041950870248714,3.479889810342683,-2.984122732389736,3.104548309873464,1126.769952023987,1104.4103990127307,1112.3440453181659,1145.7509914569844,-158.2029037262915,-1194.2016238471851,-108.1659268553482,-9.251999892878324,161.6627343462934
9.27,2.428333393992705,-1.6449079084363851,0.6928255966297792,-0.014604763730544,-0.0420043431288598,0.0090877162769404,0.0021692587756399,0.0027696103575433,0.0328791865547887,0.9994530020454848,0.0423036482385377,0.0079963833194336,9.745512220474463,0.0014717113137675,-0.0013924305676805,0.0039188563341985,3.479890008051456,-2.9841228815109435,3.1045539771089725,1126.4607034982157,1101.518118155608,1111.9945809762817,1145.5904968797847,-89.07422173996083,-1181.656082982724,-153.2858616160626,-131.84972192691689,161.6599705242422
9.2725,2.6418301955958214,-1.6602577814172428,0.4622178904744959,-0.0041975088340374,-0.0477764400160314,0.0122273574731706,0.0021886805158794,0.0027347791384932,0.0328852113096032,0.9994528433198075,0.0446420257758861,0.0085630096202212,9.74454232522818,0.0015249343552651,-0.001540567102297,0.0036406934356199,3.479890128872869,-2.984125024104384,3.104557308985901,1126.324580915287,1098.5021185978164,1111.5776160100854,1145.0917428473497,-5.905287723134266,-999.0499818128941,-127.70252381349385,-225.339941591584,161.65671662020847
9.275,2.6714801861916047,-1.5813574652787128,0.2078533149223033,0.0028374204921688,-0.0523692066684704,0.0131581720691611,0.0022139674907859,0.0026998128494594,0.0328927937952725,0.9994526077385671,0.046827351602748,0.0093546666017806,9.744414216093736,0.0015927517819646,-0.0016874163819282,0.0033657729294475,3.4798909149957247,-2.984129767359446,3.1045606267592665,1126.4311770596,1096.5228682465427,1111.356068357214,1144.4637971718269,91.71482808821571,-649.7178059348172,-42.49898392732511,-282.5401091149268,161.65406585205753
9.2775,2.6058943538336914,-1.3989638541941332,-0.0610722677229492,0.0075459783326249,-0.0564880160331439,0.0124270956343217,0.0022474296132541,0.0026631417492362,0.0329045496780171,0.9994522091602576,0.0488495988954551,0.0104013432744748,9.74512615985448,0.0016761969704004,-0.0018309649749523,0.0030984139321981,3.479892666921691,-2.98413709769098,3.104564363421103,1126.783155055728,1095.2535295681428,1111.3651210904488,1143.679042301775,181.06790322862213,-372.8876160526684,47.28327121380093,-333.4228087568344,161.65148876733684
9.28,2.500823935335625,-1.1326594649583752,-0.3089963693795695,0.0112407884919959,-0.0600141425356084,0.010958485161911,0.0022915608899775,0.0026184988748521,0.0329185969492309,0.9994517224740208,0.0507880888734249,0.011731100196988,9.746659696746114,0.0017758481365524,-0.0019694735522978,0.0028421589852415,3.479894700547179,-2.984146425401349,3.1045679922291516,1127.3365165757427,1094.6584301662797,1111.592484713283,1142.796683128043,266.02618264196667,-66.4775339975118,138.53686236500488,-375.75507047516606,161.6489807995796
9.2825,2.365465918155764,-0.7753995578104365,-0.506170515440652,0.0155737770892657,-0.0628070158846488,0.0093386558751275,0.0023484927262933,0.0025571096791203,0.0329316444151166,0.9994512777957774,0.0527703791731678,0.0133612952350113,9.74898067342091,0.0018918350677189,-0.0021017741346919,0.0025999082780279,3.4798968438036875,-2.984156271837472,3.104572218575593,1128.113285968938,1094.9211418981552,1112.057805402274,1141.8002669493992,386.7999282263858,304.71836708934245,240.69296082967287,-470.33891471225536,161.646566018405
9.285,2.1529524326248506,-0.2646809176912995,-0.667374491579636,0.0226559378548057,-0.0653148314926739,0.0072511212833298,0.0024156122688622,0.0024784413606676,0.0329408935057965,0.9994509766968648,0.0547620753243178,0.015220696780287,9.752040411035136,0.0020237623071533,-0.002227426249112,0.0023740809498276,3.479898887771467,-2.984165256331521,3.104576662935822,1129.2705162168752,1096.1820220017266,1112.7959495174316,1140.4449885544811,457.95137878089935,597.1011335180543,280.15658548784927,-527.2322833451339,161.6437889366811
9.2875,1.916145130770798,0.2024957958480687,-0.7334164971073245,0.0293638292226069,-0.0661532989297806,0.0052896703021304,0.0024928168172388,0.0023899026760205,0.032940666960538,0.99945098776875,0.0565794998314399,0.0172914781352825,9.755777415298889,0.0021706947218933,-0.0023465926281812,0.0021667874661801,3.479899984439588,-2.9841727896834054,3.104580338385179,1130.403042862842,1097.906647565745,1113.4585883297127,1139.164105532674,485.96751585657006,787.4279230598081,246.82131794393857,-541.2796063305968,161.64158483935367
9.290000000000001,1.6154077792576087,0.6678699735059304,-0.7272512731671746,0.0349122684516462,-0.0650725552875471,0.0029939721702448,0.0025794579031608,0.0022966359545072,0.0329293770095812,0.9994513524233803,0.0580884076257331,0.0195436201469488,9.760119100901312,0.0023310635634074,-0.0024598678885588,0.0019798325977258,3.479900249799752,-2.984178763957417,3.1045833108679193,1131.7003537961584,1100.1191616170263,1114.0300561071515,1137.738590522828,608.764344643619,1028.0166879838573,198.4292858714215,-645.9020864162894,161.63950670869892
9.2925,1.2113575060290747,1.1646715631195532,-0.6437224706132451,0.0387545429340198,-0.0615262292965976,0.0002549085081121,0.0026679166145214,0.0022060737427281,0.0329130110006373,0.9994518738454656,0.0591130124441677,0.0218129085859696,9.764983380924209,0.0025024628125713,-0.0025680555984613,0.0018146984648825,3.4799007058020512,-2.98418419328466,3.1045867767551414,1133.4468645860607,1103.0467310056652,1114.4507347590702,1135.934595100592,669.8328064682723,1077.5536672693631,90.37619405900821,-660.7556212254572,161.63717235604582
9.295000000000002,0.8693285771547213,1.4891799858449328,-0.5243749020042011,0.0396132399598655,-0.0572254654969549,-0.0016670130216883,0.0027519776681847,0.0021260806962481,0.0328978161427554,0.9994523437501764,0.0594798949480124,0.0239637627037092,9.770280255452974,0.0026815977520743,-0.0026719136703044,0.0016726289368976,3.479902360626329,-2.9841904389055025,3.104590498045672,1135.0495178284991,1105.506929953372,1114.4819370774464,1134.434812416701,660.4945675792301,948.547535068708,-69.80526620701791,-579.6562321624849,161.63536995517555
9.2975,0.5425692480617724,1.6915863596421892,-0.3793020953853425,0.0393513934129272,-0.0523855153339128,-0.0028636544367639,0.0028309034630535,0.0020574593616078,0.0328827759694197,0.999452792327976,0.0591690133353934,0.0259648579689513,9.775913235626781,0.0028643832327292,-0.0027720745774391,0.0015547164281682,3.47990582196932,-2.9841971946249912,3.1045942396667177,1136.749337423956,1107.7894686810075,1114.1017084280352,1133.0363139397803,678.8516473185913,865.0385242982804,-224.8102180120544,-532.2609317070223,161.63372699525814
9.3,0.2214120440354158,1.7846628597663436,-0.2365452977798504,0.0396088991775162,-0.0473992487162835,-0.0031865768281213,0.0029061522958987,0.0019987065801655,0.0328691330712994,0.9994531760323012,0.0582199309979793,0.0278283831942851,9.78178084841928,0.0030460239231938,-0.0028691565593752,0.0014619893677661,3.479911552991775,-2.984203620334487,3.1045981298738816,1138.4437760650926,1109.832122574864,1113.357885987386,1131.7735077581658,646.9287125079416,752.1049196663358,-379.8622180733989,-467.6819846139275,161.63222342345648
9.3025,-0.1210975658948032,1.75029135237505,-0.1227640149075031,0.0407369579281267,-0.0423577865315225,-0.0026898966096945,0.002973055471981,0.0019495441543926,0.0328597364555071,0.9994534147793696,0.0566584428993861,0.0294500036439357,9.787778466653009,0.0032212455977582,-0.0029637840090956,0.0013954318448915,3.47991989273595,-2.9842094446884295,3.104600858280187,1139.9839809864964,1111.54999327934,1112.202397337668,1130.6979040167103,601.3984721712236,687.3981868747709,-582.6880929839058,-431.3271247831784,161.63089497964137
9.305,-0.587538235001338,1.5832615607995124,-0.039668525171655,0.0415736927001659,-0.0367871931148871,-0.0019471199882234,0.0030270370992688,0.0019107748309203,0.0328560256333943,0.9994534739889068,0.0545036852510535,0.0307305686853014,9.793799917193665,0.0033846176621623,-0.0030564784037604,0.001355957216153,3.479930497477444,-2.9842149507445965,3.104601312590275,1141.450768425948,1113.2691135092373,1110.444445522467,1129.6168721342503,450.01828504275426,584.9912543470505,-682.8744618682164,-363.4861632181924,161.62951023247132
9.307500000000001,-1.0265714235999228,1.3652582487431995,-0.0172952106997203,0.041307273885656,-0.0331394949047756,-0.0015865927790782,0.0030644716814346,0.0018776810969719,0.0328607505393633,0.999453283639317,0.0518974361495131,0.0315888460430012,9.799739348658193,0.0035308670497052,-0.0031476007573097,0.0013441465985658,3.4799433258113455,-2.984220467024881,3.104599856830266,1142.2340724117105,1114.4749495510755,1108.7880250283263,1128.880473200619,207.10247983630725,451.1757229495492,-668.306355204627,-259.38300892485626,161.62853424804027
9.31,-1.4961651345273168,1.1025126131224308,-0.0359372044095288,0.0394309664117892,-0.0307172940076455,-0.0016684860902116,0.0030830940026973,0.0018477951574239,0.0328714089824642,0.9994529373141972,0.0489515092533813,0.0319749447638842,9.805493062724766,0.003655192985127,-0.0032372720322864,0.0013600214991858,3.479958439064806,-2.984226447001756,3.104597658340406,1142.4862808251298,1115.5249921239852,1107.1029137464432,1128.3199570896259,-9.248912717341248,439.854208971152,-706.5994973918847,-199.4482606597045,161.627745299493
9.3125,-2.0400857917266393,0.7739150659167564,-0.0925433831980625,0.0343383854954733,-0.0288849727804342,-0.0021863161261927,0.0030865219465619,0.0018186318300665,0.0328840182991094,0.999452559781192,0.0457931388515355,0.0319576907887283,9.810961379958352,0.0037535391443177,-0.0033254169352469,0.0014028654262251,3.479975191294145,-2.98423384019628,3.1045955810528496,1142.1878278481236,1116.674220595931,1105.2550275413676,1127.8832318973207,-197.73493978372537,406.39636281215536,-619.9673793205744,-115.0767356283042,161.6270151393286
9.315,-2.4287457062288396,0.5082067210014422,-0.1608599937654801,0.0282947719930844,-0.0279195384071594,-0.0027017551591648,0.0030797130017766,0.0017873581710354,0.032896631147587,0.999452207197316,0.0425661220590015,0.0316357869263201,9.816050842821303,0.0038228129667135,-0.0034119399523377,0.0014711358599559,3.4799930788203546,-2.984243678832107,3.104594129247212,1141.4976061262112,1117.5569739380455,1104.0030768498411,1127.7445734114845,-348.5796044971631,331.8589981372433,-411.9731780181421,-5.122917984817031,161.62658594788988
9.3175,-2.6993382712859297,0.2625711703720586,-0.246642306203012,0.0211885617245532,-0.027271239507879,-0.0029240270889856,0.003067835914489,0.001748693336522,0.0329127788626234,0.9994517592089164,0.0394684081293351,0.031114743498923,9.82067635262452,0.003861037495343,-0.003497023076284,0.0015624743929822,3.480012303006703,-2.9842558836264703,3.1045932581209272,1140.4449298256377,1118.3335155866175,1103.1951616512763,1127.8576173073964,-466.58150128529974,281.77817897663004,-233.248172788908,85.40459973340634,161.6263403571532
9.32,-2.8442667331663087,0.0366232188007799,-0.3436261440873296,0.0134600923874498,-0.0268888700285448,-0.0030168954112359,0.003058065681712,0.0016998690034762,0.0329315127056212,0.9994512328146072,0.0366530278963258,0.0305456132016375,9.824762757404244,0.003867542627816,-0.0035813603567293,0.0016738218441934,3.480031905404864,-2.984268904589331,3.104592833374574,1139.1646986197843,1118.9658648329291,1102.8368359858964,1128.1715964101516,-550.4803419641306,199.4859832378039,-23.70705150233806,167.37776296330287,161.62624494913163
9.3225,-2.8198598999649422,-0.1638819286288551,-0.4435859590661929,0.0052891984561309,-0.0270162932832461,-0.0034789563675626,0.0030579235516413,0.0016397674801647,0.0329480484987797,0.9994507690245666,0.0342404321504456,0.0300919715488506,9.82824643056123,0.0038430567482536,-0.00366635786042,0.0018014693387881,3.4800511281782183,-2.9842805615274166,3.1045942937670485,1137.6925281158176,1119.3309455028063,1103.0766263937649,1128.6945061222127,-671.8085503490643,75.90234679136024,245.14761613791768,265.2413087799727,161.62632804132969
9.325,-2.596614586110963,-0.3722127688394257,-0.5427488342436037,-0.0042243515554954,-0.027726931370851,-0.0048070380904294,0.0030699755523777,0.0015673405269455,0.0329605485732687,0.9994504258695858,0.0323424326047149,0.0298248560370142,9.831076667547709,0.0037896717810975,-0.0037541351990046,0.0019411550836953,3.480069829090118,-2.984289715927402,3.1045981489001275,1135.8056558680387,1119.345376566886,1104.062574066586,1129.4978029540516,-696.7918432341596,-75.79139371708786,468.5509114385417,311.4852279449192,161.6266306333239
9.3275,-2.2702085367437106,-0.5160919960491926,-0.5863446548198255,-0.0112937033045915,-0.0285941416535021,-0.0064254543146434,0.0030886588614857,0.0014913712616253,0.0329640819023724,0.999450364820454,0.0308651567496842,0.0296662697081345,9.833215949863837,0.0037107891938448,-0.003847187915438,0.0020883655577888,3.4800863234918418,-2.9842965615605177,3.1046036745502374,1134.2085688996463,1118.9519885342208,1105.419380950958,1130.2519322619376,-623.7308765879211,-242.06520936568532,630.619970950318,301.83514642496084,161.62704923368838
9.33,-1.845504375084092,-0.6236689342368089,-0.5652316356383474,-0.0167307572374378,-0.0296775712840453,-0.00839021608805,0.0031086222429858,0.0014191259654719,0.0329549856976943,0.9994507070425768,0.0297343015093681,0.02954529393552,9.834640738605536,0.0036109370556307,-0.003947998624941,0.0022385529708693,3.4800991193429653,-2.984301897595513,3.104611109952715,1132.6870014850997,1118.1350505200578,1107.2156739213372,1131.006978686176,-623.9230913304132,-442.59519533247544,851.1511054431924,311.0325306350824,161.62763735608905
9.3325,-1.2955850220883383,-0.6993082400050372,-0.4462508102856245,-0.0207641012750901,-0.0313743340867993,-0.0111351565341454,0.0031234813593763,0.0013529853732058,0.0329335935951445,0.9994514543634904,0.0289581415612626,0.0293708325077973,9.835341803641521,0.0034953713489194,-0.0040587080718103,0.0023873298005469,3.480107917214847,-2.9843066996654817,3.1046207266153814,1131.0889534429948,1116.739012557559,1109.675136478173,1131.8070949151129,-525.2076311583185,-563.1837511666192,914.9961645398369,261.66045515947644,161.62853519499154
9.335,-0.8582455800685173,-0.7059600026274756,-0.2671381617918419,-0.0221712677665957,-0.033247798351882,-0.0131348380263324,0.0031328040622766,0.0012909750304867,0.0329019765400644,0.9994525405306738,0.0286199392394132,0.0291681480093097,9.835323664794617,0.0033695863375337,-0.0041808199442481,0.0025307688592918,3.4801143262927074,-2.984311513493351,3.10463122070284,1130.0609633293077,1115.3191317642243,1111.790654744037,1132.3152809619737,-322.66035407942087,-596.2450595345193,810.1504055650919,158.6586848743743,161.62944049522875
9.3375,-0.4937425566760529,-0.64001918830776,-0.021225482651997,-0.0222735822163341,-0.0355672560744365,-0.0139252138917534,0.0031394835863446,0.0012294059754272,0.0328629128788089,0.9994538714549444,0.0288231298605866,0.0290274671947046,9.83460373530592,0.0032388846883456,-0.0043150654314337,0.0026655762205755,3.4801196313757177,-2.9843163480129817,3.1046417695346564,1129.4756516725975,1113.7577872598858,1113.7258885059991,1132.6003883394849,-147.4480284997137,-629.2002617768845,708.4022934223913,73.68304760299553,161.63050479248923
9.34,-0.2109501660225231,-0.5086291044961385,0.2575179780602536,-0.0219088850001776,-0.0379382143371979,-0.0135785075261755,0.0031451180903795,0.001164344552126,0.0328213191205512,0.9994552890291803,0.0296587348237631,0.0290124310905797,9.833211258185646,0.0031081246565529,-0.004461358300177,0.002789102955168,3.480124755144073,-2.9843211202316606,3.104652500557853,1129.3237231868093,1112.1731304553405,1115.3326662111483,1132.6836961999886,47.21900834407309,-618.2954442111943,530.5779375145595,-12.58858446763293,161.63169723776295
9.3425,-0.0318422499558577,-0.3047881763518257,0.5455993433179722,-0.0214867681375723,-0.0398203628899671,-0.0123625742333504,0.0031476634209455,0.0011036932974614,0.0327813676863565,0.9994566529605035,0.0309664767944297,0.0291197941747635,9.831185322283181,0.0029816050640939,-0.0046187317189477,0.002899366868224,3.4801296356327596,-2.9843264573264543,3.1046627877186714,1129.7117467143175,1110.6663100388305,1116.3787781935714,1132.5374454171467,281.5089747481139,-620.9060607141448,309.7753982520742,-106.8227789049903,161.6330388509808
9.345,0.074627130768481,-0.0034972271000896,0.8664296979075762,-0.0212653486458878,-0.041158242332271,-0.010412513879529,0.003146165296983,0.0010583174636617,0.0327449234097477,0.9994578933714188,0.0325129907279928,0.0293648446344484,9.828574084450386,0.002863119332998,-0.004785300385864,0.0029949446196647,3.48013389567588,-2.9843333422103617,3.104671945555402,1130.73126806055,1109.0686001517693,1116.8815432024087,1132.1495823054636,444.9436025635564,-536.0646219548088,60.43210824558592,-166.22518933565647,161.63481317806205
9.3475,0.0868907649788906,0.263210305266217,1.0880839159631128,-0.0214003980961188,-0.0411037767007442,-0.0081936654096235,0.0031451544596045,0.0010337144650325,0.0327130210481046,0.9994589568478012,0.0341593091598479,0.0298608007301052,9.82543383841457,0.0027559771448022,-0.0049583388484542,0.0030748149502492,3.480138181608102,-2.984341886930213,3.1046803921784716,1131.936464727136,1107.985986929056,1116.6809387347992,1131.7063194704683,524.646956136771,-367.5801048416637,-190.82823231182533,-185.8922798108239,161.6364220753727
9.35,0.0343080589782909,0.5003958873745286,1.2311593113301196,-0.0217832836113226,-0.039344989307044,-0.0048901095875342,0.0031443169542511,0.0010292620216922,0.0326879680537747,0.999459770124797,0.0358700784524992,0.030614105758488,9.82182788371548,0.0026629919426985,-0.0051345328139,0.0031381100529527,3.480143172794115,-2.984352575449273,3.1046890710963497,1133.3545028412332,1107.2306996275613,1115.92740204085,1131.2201209064096,638.7364331180745,-246.7432314761096,-425.2175102541304,-203.89896185189625,161.6381572371306
9.352500000000001,-0.0962422641412588,0.7043491934766508,1.280465621638545,-0.0221942118487719,-0.0358921029977735,2.8079580856481376e-05,0.0031435305522917,0.0010356929206332,0.0326703665602634,0.9994603245743152,0.0377678115679879,0.0316207681957912,9.817825092170601,0.0025866035058951,-0.0053101713176781,0.0031840775171003,3.480148889909992,-2.9843657422539343,3.104697726384361,1135.1301468927268,1106.7522707716753,1114.5548511835284,1130.6868246612087,643.4990134584399,-103.87147666541036,-552.4542840484673,-174.1552846304967,161.6403737499427
9.355,-0.2617072449593456,0.789242349103282,1.2078830178737907,-0.0222381385016071,-0.0327912444590908,0.004292492772001,0.0031369851498902,0.0010368615774081,0.0326621173574391,0.9994605928094076,0.0400957549533875,0.0327517833491067,9.813498575737038,0.0025289536824526,-0.0054814866548092,0.0032120045717769,3.4801552609021,-2.9843808662747375,3.1047056518497604,1136.571997908526,1106.711342244234,1113.1651306206072,1130.349344483257,552.095222593535,44.93687742334244,-573.0498578382369,-101.69285684248484,161.64232352027736
9.357500000000002,-0.4859907760921862,0.7879448395230426,1.0233021094877903,-0.0221219699891318,-0.030071335714002,0.0081357700777435,0.0031192674388254,0.001024980530894,0.032663393038616,0.9994605933818376,0.0429247349895821,0.0338823652454415,9.80892352051138,0.0024919199303726,-0.0056448811293708,0.0032212855900669,3.480161150345632,-2.9843982933214344,3.104712815590707,1137.890623005694,1106.976955158792,1111.6896018943376,1130.1783603769964,497.92531583971953,135.42044204266824,-582.1883428744761,-37.30099023228664,161.64436847379685
9.36,-0.7507990538003143,0.7307274478548385,0.7659321185282087,-0.0224825354679393,-0.0278133947338465,0.0113492160502683,0.0030901489326768,0.001000219734343,0.0326686189184726,0.9994605083535812,0.0461666186520721,0.0349859709162895,9.804175999360671,0.0024771611382662,-0.0057971457279227,0.0032113593202526,3.4801651841646306,-2.9844178357998024,3.1047197071056303,1139.0616244877242,1107.3884444544472,1110.2541889062354,1130.1628395320956,422.1132916278543,160.64583851759596,-543.0606983868134,28.20732051790869,161.64648398049516
9.3625,-1.0385824243785196,0.6345980819145576,0.4620970425822416,-0.0241606433544206,-0.0261425056304379,0.0133245295295781,0.0030526141231269,0.0009636910965052,0.0326760914943132,0.9994603858357378,0.049712896647766,0.0360920946445963,9.799332251820056,0.0024858793412964,-0.005935766735019,0.0031815782341178,3.4801672209001926,-2.9844379296177683,3.1047267916210313,1140.0011894638335,1107.78018435138,1108.9742984024033,1130.319396979586,343.2157434203791,109.29451886229909,-507.1271031454788,95.78693935848926,161.64867467802773
9.365,-1.3622097309864047,0.515156431207288,0.1118037359306083,-0.027682789083241,-0.0248027047867966,0.0136722092038249,0.0030065362689592,0.0009170748255086,0.0326869938948396,0.9994601917997696,0.0534405535064209,0.0371632063957648,9.794467800971422,0.0025185511951614,-0.0060590816009704,0.0031311398724492,3.480168331987674,-2.9844576199327806,3.1047350314388704,1140.7777032048264,1107.9349170487587,1107.7185533905076,1130.641774228888,212.7934693685316,-35.59855713825326,-405.0273555793306,127.78034449027285,161.65137797474472
9.3675,-1.5755254397250027,0.440533922160729,-0.1176159728267219,-0.0316199135150492,-0.0241713757944769,0.0124230345697598,0.0029451911083497,0.0008729846905585,0.0327018834510393,0.9994599165930852,0.057009702714135,0.038034762869122,9.78965632862384,0.0025746804038046,-0.0061662485980158,0.0030592163675208,3.480169105226248,-2.984477375181773,3.104744973320723,1141.065156810676,1107.6021915656888,1106.949161624507,1130.9582987020372,27.307866251153705,-260.65545410020167,-247.95875058162653,123.75947548432916,161.65368388787203
9.370000000000001,-1.6890576583043484,0.4189532400918042,-0.2360362556575941,-0.0364405819232759,-0.0236657650022484,0.0102720263148848,0.002866716563795,0.0008356319898739,0.0327229527967072,0.9994594870922424,0.0602521942699936,0.0386289447734175,9.784968283346227,0.0026527908632882,-0.006257126735135,0.0029652232869772,3.480170965482662,-2.98449774995598,3.104756913845762,1140.914242536082,1106.6316397782575,1106.4787596375993,1131.26057160631,-172.13532956904635,-578.9217482916688,-146.1119347388602,125.16660086028284,161.6560346283498
9.3725,-1.6764467573956374,0.4749036580868782,-0.2280269961126417,-0.0427800887086842,-0.0229840771431316,0.0074030751645526,0.0027770919016493,0.0007971729890507,0.0327500534214142,0.999458891268702,0.0632470364305632,0.0390120592287492,9.780468865729992,0.0027505365806723,-0.006332238888839,0.0028491502084959,3.4801752515065534,-2.9845178710077915,3.104771038006569,1140.2044801628304,1104.70758282423,1106.2186019508126,1131.5841317063387,-341.53955804924834,-809.8340888500179,-57.16646148567862,116.33919374023704,161.65889561908352
9.375,-1.532693984806589,0.5976293912843859,-0.1055191321984568,-0.0478575862864059,-0.0223546030011579,0.00555778989849,0.002681099915602,0.0007552003807113,0.0327778324566324,0.9994582874693306,0.0659744845260352,0.0392305585935463,9.776216621609068,0.0028648493734195,-0.0063927970062612,0.0027118802485704,3.480181634018338,-2.984536781504835,3.10478537999028,1139.2065447458363,1102.5824693340085,1106.1929273301707,1131.8422675750107,-464.07807153123167,-904.5659264859277,9.151842329130888,109.63423520399736,161.6613048574739
9.3775,-1.2604614517556507,0.7993033054183678,0.098712530939031,-0.0522150404263036,-0.0215795802126947,0.0049314118962132,0.0025799317202175,0.0007117831524488,0.0328015805481432,0.9994578233546668,0.0683353660467594,0.0392651821436621,9.772262161680272,0.0029921694992521,-0.0064406290774998,0.0025553606280694,3.480189347233241,-2.9845542065317066,3.104798055408512,1137.8840898051749,1100.1847531918013,1106.2643611624583,1132.1323028823583,-562.2328944931753,-950.9881635146816,28.277153026961187,124.9724296416648,161.6637306105158
9.38,-0.903361526844141,1.0568552529707445,0.328361883297924,-0.0558273018799202,-0.0204351391668202,0.0055233689050187,0.0024800664077321,0.0006680000895272,0.0328196015177172,0.9994575366739136,0.0702652430978571,0.0392021761848871,9.768646310460253,0.0031286779915024,-0.0064779439838402,0.0023826398292904,3.480197621332069,-2.9845700250440257,3.10480852388926,1136.39538027337,1097.8275285164343,1106.3343130953056,1132.4671297232192,-607.1097797466297,-866.5471787981469,11.679361911317748,140.86060229340163,161.6661633891181
9.3825,-0.4855980924532437,1.3552957496568334,0.5336154716109811,-0.0581325006097139,-0.0183659659575603,0.0077289168873173,0.0023865425088712,0.0006322892538694,0.03283238630382,0.999457393660345,0.0715682150489292,0.0391080971249197,9.765399372515878,0.003270386414976,-0.0065071192998973,0.0021976065764077,3.480206061534521,-2.9845838094837087,3.104815709797722,1134.8485409064413,1095.8520172978099,1106.3227579720149,1132.8366058938257,-656.3898911219836,-709.62643745434,-32.01549517762669,157.68855140662208,161.66859709341145
9.385,0.0163958170962505,1.708286975038794,0.6945731183323867,-0.0583697670703391,-0.0141848733589223,0.0116481884847692,0.0023050957737465,0.0006124741634738,0.0328390817793432,0.9994574055820789,0.0720747812806444,0.0390672872766009,9.762540117642637,0.0034132595857618,-0.0065303789611426,0.0020046160601945,3.480214470347132,-2.98459527977532,3.1048198983823214,1133.1134308177607,1094.279396329163,1106.1742356194177,1133.2555724802523,-590.0088447449422,-410.97677763894296,-71.11454253644095,140.0877313456712,161.67150952560215
9.3875,0.3823743420924414,1.9526289993176584,0.7370036328878666,-0.056326511172819,-0.0090630333264483,0.0149863000751202,0.0022348134392099,0.0006040546489392,0.0328426076700468,0.9994574788427478,0.0718657308846159,0.0390313233605762,9.760075463743933,0.0035531809347474,-0.0065495463225196,0.0018079252921792,3.480223629380899,-2.9846066667860476,3.104823071273174,1131.898496682716,1093.7971334096148,1105.9671852593326,1133.537044550554,-411.4632722987874,-11.35002580340192,-81.38917470613342,93.53631508491519,161.67392373886457
9.39,0.6476648398937473,2.0959849862566804,0.6887658334478806,-0.0530514259808571,-0.0026609175147992,0.0175084554321519,0.0021714620074912,0.0006013263556668,0.0328504810329619,0.999457378101257,0.0710568862316115,0.0388914149494837,9.75800068325067,0.0036859143328035,-0.0065658665506724,0.0016115711644694,3.4802349839688835,-2.9846197445320164,3.1048260143105857,1131.0561144562664,1094.2226462001463,1105.7672897458867,1133.7232540556768,-262.9152367169422,371.666763518698,-58.496655819101576,65.44890534138568,161.6763179040186
9.3925,0.8341081559465238,2.118712437414689,0.55725250170935,-0.0492076977958434,0.0054711616007346,0.0193616177740461,0.0021157632199599,0.0006015043118057,0.0328655314283686,0.9994570094885432,0.0697233093452969,0.0386428683321991,9.756299818475025,0.0038073748440885,-0.0065800235655889,0.0014194522767139,3.4802488730750465,-2.984635241858735,3.10482791595632,1130.5839204991316,1095.655467227208,1105.6747019802372,1133.8642890772608,-75.9221678776763,642.2707243724658,7.47199975198931,49.057779310451885,161.67916060655548
9.395,0.8925175951150955,2.0126409761714705,0.4151362552216306,-0.046639746005092,0.0118895934080959,0.0200512580037533,0.0020651584957166,0.0005994709410994,0.0328880548097481,0.999456373077708,0.0679953897066324,0.0382209395563813,9.754947174982982,0.0039138948541789,-0.0065924907944575,0.0012351476129852,3.4802650863232247,-2.9846529047281725,3.104828408343356,1130.676503616878,1097.433999822008,1105.804649744647,1133.9685429522292,135.0647404801082,779.8174029332275,103.47930256633136,56.703002006943514,161.68149954586482
9.3975,0.8817363638678903,1.8029175218058948,0.2696514062310162,-0.0451106312972902,0.0170890357973293,0.0201162242795668,0.0020163764681085,0.0005937211825048,0.032915386119352,0.9994555693098434,0.0659430420674503,0.0375546902989514,9.753908898632606,0.0040025160744809,-0.0066038587426339,0.0010618980303191,3.4802833367614388,-2.9846711496618616,3.104827815809493,1131.2592442015323,1099.5545542418747,1106.192098493069,1134.1478040872955,302.99319585201187,867.761960625149,192.81668073842127,96.25477093266768,161.6838022320038
9.4,0.8372317326307946,1.5406769916976737,0.1363796026178566,-0.0441106490073716,0.0209861347738998,0.0198699334031727,0.0019701953032591,0.000592204120032,0.0329422323115657,0.9994547728160936,0.0634630879113436,0.036663489514326,9.753144713388371,0.0040712527389926,-0.0066150395404041,0.0009025922840198,3.4803022476653447,-2.9846883740203167,3.104825156483076,1132.1914695961384,1101.7728096251344,1106.7687331483392,1134.4498168068926,432.8921635765207,876.7939993922862,258.31789198587694,156.46942103693092,161.68607136183076
9.4025,0.7681542302064431,1.2593758665460535,0.0245328799303955,-0.0427564746488698,0.0233615196985312,0.0194905997748779,0.0019283316662769,0.0006094285629613,0.0329613137120705,0.9994542163927452,0.0603316897371402,0.0355943587698864,9.75261017621967,0.0041192506313203,-0.0066272686415471,0.0007595085155919,3.4803193622671453,-2.9847037899383912,3.104819239069226,1133.4237050194145,1103.9385242388353,1107.483687952998,1134.9301511924803,569.9587106044643,913.3707600378328,315.4915553830224,242.7731081824305,161.6882962353
9.405,0.6619408338974138,0.9451376899785976,-0.0889048633228185,-0.040647002715243,0.0251053502362611,0.0191805486106612,0.001885794859807,0.0006484180575086,0.0329710748952244,0.9994539563658706,0.0565490566687305,0.0342611130067218,9.752259489253568,0.0041466207344222,-0.0066419872442104,0.000633723175345,3.4803341357362467,-2.9847183828682446,3.104810776783831,1135.04126314916,1106.3396634253227,1108.346190925254,1135.6636823478043,582.2970803186307,837.8787898004757,295.0518844691936,275.09264517148284,161.69091060046048
9.4075,0.5540626369965248,0.7205079161784647,-0.1743169197681106,-0.0390313665444804,0.0263102016087871,0.0190419160295007,0.0018376971764514,0.0007075627151283,0.0329742045956231,0.9994539122221886,0.0522080175934748,0.0325814836148193,9.75204813981248,0.0041541420609318,-0.006660610765852,0.0005248952101917,3.4803469102963835,-2.984732974032053,3.1048017965507615,1136.335190421008,1108.1279181878383,1108.9589473753442,1136.3056144183379,468.588329595304,668.6885643287816,204.68347804918704,229.8243336933051,161.69304026278627
9.41,0.4278743380571424,0.5387460946070232,-0.2600639643611571,-0.0377297239809579,0.0275440637364345,0.0188434190797986,0.0017883484654413,0.0007797198230944,0.0329718046577405,0.9994540411539568,0.0475153871134486,0.0306535922347497,9.75193560226557,0.0041430108299528,-0.0066843734368554,0.0004311949072845,3.4803586386160563,-2.9847477747702182,3.10479371721456,1137.384204797137,1109.683106246967,1109.3696083155,1136.8128040162712,374.85360899989433,634.7708980455435,127.14842235475572,154.06972145613844,161.69511629895973
9.4125,0.2604725103948917,0.3636804034402736,-0.3693832072609459,-0.0363460289772997,0.0288119962397783,0.0184731487306397,0.0017414496986559,0.0008519747472609,0.0329651240872462,0.999454302900372,0.0427885446555373,0.0285642177680068,9.751888630970221,0.0041145814277383,-0.0067143354551321,0.0003492362530366,3.4803702104948795,-2.98476247110559,3.1047875076528255,1138.2094584660072,1111.3017726780652,1109.5946894871179,1137.0759630256184,222.65902256627825,557.813775357594,43.08861714879876,19.934173007956428,161.6975428973905
9.415000000000001,0.1148191256939316,0.2470314677418608,-0.4646560417223075,-0.0355115874824601,0.0295693224977594,0.0177189175939538,0.0016983810720206,0.0009127860051916,0.032954983824468,0.9994546771973132,0.0383135083530682,0.0263595359822006,9.751883368975031,0.0040702758382165,-0.0067513574023008,0.0002743713299837,3.4803822680724994,-2.98477647430498,3.104784345813956,1138.4974999099686,1112.4721751237555,1109.585051401244,1136.912474881311,41.24558565039744,438.10486247577927,-28.499781061550586,-151.080498606847,161.699509625057
9.4175,-0.0228173112028738,0.1529299652753114,-0.557173144129346,-0.0355120943018826,0.0300296098856442,0.015997676928621,0.0016592055528995,0.0009621124314328,0.0329407315934294,0.99945518258706,0.0341468703804076,0.0240705792890919,9.751906099277937,0.0040116211025851,-0.00679602138344,0.0002012001999963,3.4803944480139255,-2.984790046032417,3.104784551108299,1138.4156863942592,1113.4922969904446,1109.45219058181,1136.320560532584,-76.79505723068979,387.18540253433696,-56.47198196767236,-299.1643262214579,161.70141722695743
9.420000000000002,-0.1409857180554976,0.0718419285614455,-0.6432497593600264,-0.0362785213493717,0.0303054231711544,0.0136361286731526,0.0016188853651093,0.0010026466211714,0.032923542046004,0.999455784815782,0.030283111654196,0.0216333305232778,9.7519539736105,0.0039402666081822,-0.0068485773373373,0.000123957423976,3.480406101625364,-2.9848042116000264,3.1047881624423854,1138.1135246238152,1114.4081021364268,1109.3026914914055,1135.416653250204,-148.4592042764984,343.3159312475028,-41.87082807339644,-412.0097327295208,161.70327467959214
9.4225,-0.225302698283678,-0.0003873358014848,-0.7272163367670335,-0.0374095692507583,0.0304334157281943,0.0115099687886231,0.0015733850257351,0.0010387880321389,0.0329069840569301,0.9994563705992322,0.0266776020072213,0.0190065085156245,9.752034625492609,0.0038579737233296,-0.0069089404096156,3.713369535705512e-05,3.4804174903953142,-2.9848197726883177,3.104795099425928,1137.6733903728768,1115.2088766466818,1109.2428364414432,1134.2605118689369,-198.96005463298556,324.252684651987,17.86371009788757,-521.646404134763,161.7050703067304
9.425,-0.2863904395170913,-0.0850093199391389,-0.8461122803077139,-0.0382442442807013,0.0304652986389132,0.0101327160092053,0.0015209397325947,0.0010786392615705,0.0328948875738253,0.9994568118027162,0.0232078311346002,0.0161969426494329,9.752164931231293,0.003766609163802,-0.0069767975291192,-6.393209177469351e-05,3.480428648083638,-2.9848374161980398,3.104805737473263,1137.11872435065,1116.0293655596868,1109.3920100418952,1132.8084212295298,-199.60788567420033,273.802554842362,101.94388859798208,-504.7953028534386,161.70715182573576
9.4275,-0.3085276773721293,-0.1584705506052082,-0.9733866763648248,-0.0382967486045587,0.030377294130173,0.0095480479933084,0.0014634637104376,0.0011217654209528,0.0328867441459396,0.9994571240036492,0.0199126163236052,0.013278369861605,9.752370145204619,0.0036681841069981,-0.0070518041083889,-0.0001825606639969,3.4804397989473506,-2.98485685662036,3.104819039857733,1136.6753509445057,1116.5778894208938,1109.7525558844331,1131.7365353546693,-180.90977685127612,186.499601723054,196.72096960702493,-354.30253552365457,161.70882410032303
9.43,-0.3012904458204134,-0.2377656099680332,-1.1259540726381891,-0.0380918126486188,0.0300929297808344,0.0082344234019942,0.0014038050029753,0.0011636577840582,0.0328824502636864,0.9994573134409745,0.016903036166648,0.0103405386061979,9.75268138195308,0.0035647810067559,-0.0071338765463725,-0.0003202210543359,3.480451008356253,-2.9848771276629806,3.104832904826933,1136.214175466394,1116.961863568302,1110.37561488993,1131.036908551912,-234.2631902983246,128.71050660485514,330.09803514400414,-177.32343606746284,161.71043011141552
9.432500000000001,-0.2423168368405487,-0.338708464483569,-1.3043937006317194,-0.0383461437942691,0.0293774028100817,0.004743234786884,0.0013459392508671,0.0012071662341246,0.0328834153612072,0.999457327283694,0.0141396442953439,0.007500002347597,9.753131802760109,0.0034585617789488,-0.0072233637794845,-0.000476164427155,3.480461840194829,-2.9848968860543508,3.104844350597679,1135.5040349930139,1117.2214419539182,1111.4030460601534,1130.8499181743318,-311.29573641728393,63.87454543545484,416.31690357174045,61.51033689656236,161.7122788541753
9.435,-0.1293436851079251,-0.4248799248746965,-1.4159336003296923,-0.0394901526883959,0.0283610964617631,0.0005737048467589,0.00129421494675,0.0012573870562478,0.0328911209797603,0.9994571071211172,0.0115319064880554,0.004881618772244,9.75375394869865,0.0033517919083334,-0.0073210262007717,-0.0006475670529178,3.4804713401076475,-2.9849148609308007,3.10485144708582,1134.6576967843073,1117.2812362954794,1112.4571994077892,1131.3444602363948,-414.5793234621039,-1.8218791677103567,451.7091105338739,340.58427570596405,161.71375269056284
9.4375,0.0741904301003864,-0.5100965236930182,-1.4570214143369442,-0.0412132768056472,0.0268682516018231,-0.0035925863592462,0.001245608681769,0.0013083743268715,0.0329058248605446,0.9994566498008703,0.0091928677927435,0.0024583770936988,9.754578069281092,0.0032467609342174,-0.0074278099476467,-0.0008301713179572,3.480479020331058,-2.984930831423158,3.104853924496587,1133.4311383757035,1117.2123325580797,1113.6615916128223,1132.552839552861,-558.8547844400839,-42.082782211590896,496.8898577469724,593.4514043003945,161.71515550351603
9.44,0.3568274926266953,-0.5950914185112847,-1.4263326677002415,-0.0423192833405785,0.0251174959129458,-0.0075750409276017,0.0011996668069349,0.0013529992387684,0.0329262497145609,0.9994559982608606,0.0072541306111104,0.0002507657134645,9.755629144593522,0.0031456248168136,-0.0075445234752769,-0.0010186841751097,3.4804856059849607,-2.9849447522548886,3.1048513072899984,1131.8634228621074,1117.0708223844215,1114.9416486965235,1134.311717257896,-695.8181602386325,-66.09857723482368,517.0650665857112,810.7090717515443,161.7164981061395
9.4425,0.7151983476593912,-0.6865804099798561,-1.3027200482411256,-0.0416842790917339,0.0234591593030584,-0.0115904178502165,0.0011542228867276,0.0013910966548945,0.0329500182176576,0.9994552257733492,0.0057052279539736,-0.0017523749153057,9.756924221526141,0.0030502586679311,-0.0076714823716459,-0.0012074651866155,3.48049103491455,-2.984957650262156,3.104844005832379,1129.95204757451,1116.8818396719055,1116.2469169457513,1136.6063849116197,-878.9615829652565,-88.181049062391,562.2441142913008,1084.7436527745351,161.71776645997937
9.445,1.1863651954096135,-0.81765273927761,-1.0515347323534823,-0.0386356178759483,0.0218733079673677,-0.0159167246815376,0.001105860564803,0.0014243317555539,0.0329739865109808,0.9994544385826264,0.004495133629575,-0.0035891455441622,9.758471960450002,0.0029621272301243,-0.0078082386669543,-0.0013912332876052,3.480495627595334,-2.98497129933461,3.1048330965729782,1127.4686149472805,1116.6299171391095,1117.7528692679805,1139.7354355217697,-899.5058277721425,-97.92809940247153,529.5185241053931,1166.264143623498,161.71920044833104
9.4475,1.5765555395323472,-0.9520871451282285,-0.7707841959848358,-0.0344896616782741,0.0207558922097823,-0.0185985358528061,0.0010541930652328,0.0014546234804342,0.0329947497722454,0.9994537511454348,0.0035670228001794,-0.0052431833199942,9.760272839261075,0.0028821730309148,-0.0079535115183579,-0.0015655717319997,3.4805001403140574,-2.984986352069244,3.104820252234754,1125.4545184356502,1116.3921991748932,1118.8945095662775,1142.437705629736,-737.7589090027626,-110.1410725559445,421.0496165752626,1043.1130740178291,161.72032041280394
9.45,1.9303325060901453,-1.1091831113011899,-0.443387127625215,-0.0295271107993389,0.0194200792923515,-0.0201603567614313,0.0010049476637402,0.0014851142978316,0.0330074414535194,0.9994533172125853,0.0028427907148673,-0.0065839503475559,9.76231976533435,0.002810783505304,-0.0081052862758517,-0.0017272252086062,3.4805040212830964,-2.9850030455130434,3.104806913017462,1123.779820402266,1116.0792117763297,1119.8581173508571,1144.9510008918596,-599.0788622896134,-171.55111238086693,375.6174852562121,993.8888581439453,161.7213604436459
9.4525,2.2906233974350414,-1.2971780241328703,-0.0349481997723734,-0.0230550185589803,0.0169437167319513,-0.0208369066251405,0.0009643311330802,0.001512000754515,0.033008100735361,0.9994532690914067,0.0023800790378672,-0.0074825226383691,9.76459981379732,0.0027476836007253,-0.0082609821093311,-0.0018743628427189,3.480507731392797,-2.9850213117701134,3.104794044710412,1122.4591241242017,1115.5344436129888,1120.772596992559,1147.4071499204565,-337.7133233235544,-238.47144531933023,294.69839634768,760.7113647723203,161.72251357954497
9.455,2.528706836896857,-1.419864444535228,0.2894779726494708,-0.0172497244908497,0.0137927641931853,-0.020464613267846,0.000937971554635,0.0015295163734222,0.0329969074692602,0.9994536062795444,0.0022755250535099,-0.0078293535324621,9.767094855504164,0.002691859254434,-0.0084176465244582,-0.0020065067688386,3.480512230080279,-2.985041044733425,3.1047825631189405,1122.0912537856486,1114.8868545497332,1121.3316093325952,1148.7545577157205,23.30275887607522,-304.1060565465764,184.12737326438244,349.15862530322227,161.7233935592495
9.4575,2.69518544498667,-1.4596460070444004,0.5639222002965095,-0.0113792961416244,0.0094154961062641,-0.0190997652010088,0.0009299781020533,0.0015378400647195,0.0329735357893782,0.999454337669009,0.0025111906119658,-0.0075482638698852,9.769781866123484,0.0026417176529801,-0.0085721078320855,-0.0021243037973729,3.4805178320823305,-2.9850626684371604,3.1047731226704607,1122.575637918582,1114.013913330256,1121.6932338588808,1149.1529430469723,332.9093787967329,-382.6171303836729,112.67073615115864,-17.301849936390706,161.72418728061703
9.46,2.7951432791791215,-1.3995854802091312,0.7744091649455908,-0.0054304788515951,0.0042017386265872,-0.0168611562831182,0.0009380834484706,0.0015360479669529,0.0329386476288128,0.9994554469055116,0.0030897355021536,-0.0066957358180154,9.772634713406593,0.0025951814222646,-0.0087211735363092,-0.0022293396347324,3.480524874699223,-2.985086558471713,3.104766356654552,1123.7558006796323,1112.9737688978144,1121.8949630133511,1148.6680484660385,619.5801177599545,-443.3131876267669,37.82570366274149,-405.9027144382801,161.7249079939646
9.4625,2.7986921001119733,-1.202297002985306,0.8881415521118468,0.0014104852979192,-0.0011967600035897,-0.0136352921907405,0.000960137909383,0.0015168183159168,0.0328979877215195,0.9994567559820596,0.0041424002153252,-0.0053368351984733,9.775626109225689,0.0025497968161743,-0.0088619403841708,-0.002323658607175,3.4805347073024646,-2.985112299934051,3.104762199907156,1125.6735385073823,1111.797347392122,1121.8823623771943,1147.1234294747803,970.718265319931,-525.2421528821422,-67.10275499614424,-886.6360303345518,161.725539178335
9.465,2.666795556723341,-0.8260131875007966,0.906598951037154,0.0107568170923803,-0.006391245757786,-0.0092036568158107,0.000996344766361,0.0014804087966741,0.0328534565483832,0.9994581962589713,0.0056581791128463,-0.0034925388787074,9.778726782898852,0.0025032682656522,-0.0089920270806655,-0.0024092063632201,3.480547082190978,-2.985138870049585,3.1047598055038903,1128.6093920062312,1110.3475581334044,1121.5594492383705,1144.2348683143666,1141.998547733692,-518.1672648701473,-179.33285835446367,-1178.6820450380744,161.72619152117477
9.4675,2.435285074370271,-0.439943302563366,0.8387622141401361,0.0184459607604501,-0.0085574162011179,-0.0060273548746175,0.0010452518194597,0.0014290616949094,0.0328063111449215,0.9994597220134602,0.0075899504275305,-0.0012202750187551,9.78190632160661,0.0024537673392154,-0.0091097523729535,-0.0024875591899614,3.4805605144564526,-2.985165856308508,3.104758612007935,1131.3835312460496,1109.2065110677715,1120.9856980854224,1141.2300192495911,1126.028374569984,-418.7540508416332,-297.6724635563631,-1242.0253689825463,161.72664666267136
9.47,2.091365777635559,-0.0518123725206237,0.7245866324757884,0.0244646835149904,-0.0079286820833162,-0.004470427202034,0.0011041519387525,0.0013662556166401,0.0327619453656262,0.9994611556578376,0.0098684530559736,0.0013950718636344,9.785133386000616,0.0024001221777477,-0.0092142308590111,-0.002559654522176,3.480573795390719,-2.985192875193311,3.1047579823490614,1134.239533879082,1108.253787879196,1120.0710869205884,1138.0247414694527,1119.6502429220411,-332.86629248440727,-416.58343995784736,-1247.2754748029142,161.72700918490324
9.4725,1.6789450777232116,0.28572053565644,0.6077011546915085,0.0287889656285973,-0.0056151125668918,-0.0040964135808433,0.0011679090062127,0.0013024181788134,0.0327272025474314,0.9994622688524516,0.0122890618071266,0.0042229800502343,9.788375036466434,0.0023419877739153,-0.0093053459542343,-0.0026256262074993,3.4805858101205502,-2.9852195576997005,3.104756482489263,1136.9817824606607,1107.5421796053495,1118.9027808856329,1134.9936418755758,1032.9653838761496,-207.66416809082824,-508.7241171721064,-1097.3980064883017,161.72729455398965
9.475,1.216862252949229,0.5236149315516084,0.519092559725849,0.0314855360996467,-0.0026093012443494,-0.0042060929073245,0.0012252162147923,0.0012497559425414,0.0327103608301799,0.999462792432366,0.0146093768344526,0.0070120918310364,9.79159713767053,0.0022797471907265,-0.0093836638244709,-0.0026849131080192,3.480596235060528,-2.985246210431478,3.104752653179956,1139.4043607984615,1107.215467038742,1117.5274663347284,1132.5377514370125,955.9213390127622,-35.637840432258486,-617.2921358995553,-883.9080848083069,161.72748675176376
9.477500000000001,0.6372876312008562,0.684187086591136,0.4592997128289413,0.0334210998025829,0.0005532372020097,-0.0040981468902038,0.0012690040474528,0.00121189359953,0.0327153638784003,0.9994626034707867,0.016757864930439,0.0095881726517673,9.79476541215272,0.0022143818863593,-0.0094503841036274,-0.0027363219946025,3.4806052619895262,-2.985272668744634,3.1047468744640008,1141.7613891557253,1107.363990403188,1115.8163202061346,1130.5741014515336,753.773118333875,150.78953431986892,-611.1581205054745,-539.8588375051597,161.72760986385052
9.48,0.1473620082033093,0.7294847988399623,0.4403408902297497,0.0344972423642775,0.0022575647218492,-0.0033377685653693,0.0013048300369582,0.0011955158244134,0.0327415340652215,0.9994617091171544,0.0186103965596972,0.012027351624457,9.797844103216002,0.0021473404723329,-0.0095073173857374,-0.0027780985896474,3.4806131558226565,-2.985298165505092,3.1047388416903483,1143.1732263901315,1107.9694147103414,1114.4716757322003,1129.8384572494863,436.4474320782351,334.54124578786207,-497.4543177522799,-124.99587112740969,161.7276232509572
9.482500000000002,-0.3377769033751384,0.7114213160649548,0.4322064484577031,0.034919119783659,0.0030542167780412,-0.0016850665448926,0.0013458113428935,0.0012044206697311,0.0327788442859973,0.9994604143245546,0.0201026220932557,0.0145542286078762,9.80079629758573,0.0020804338337404,-0.0095567076418747,-0.0028083599179831,3.480620107920307,-2.9853218235684276,3.1047285711521466,1143.943626316116,1109.0366966321271,1113.3290486173737,1129.9491220958967,187.38040402389836,545.9911978593203,-443.3934351753096,188.11906800159807,161.727544807599
9.485,-0.8923343854634255,0.6398191409027572,0.4133457807190622,0.0337593064545416,0.0039532296226271,0.0002795872010738,0.0013945294586295,0.0012336819153425,0.0328179816801819,0.9994590227729032,0.0213317687574315,0.0171851007340344,9.803584580331599,0.0020154921941557,-0.0096009363308917,-0.0028257752426686,3.4806264510119247,-2.985343651620766,3.104717426972056,1144.110128410251,1110.6993706996375,1112.2547085563244,1130.779052589494,-57.74001713274636,640.6500042391052,-343.1984118559203,368.0446673061276,161.7273457348125
9.4875,-1.3066945445723683,0.5425760619600134,0.3831607377791959,0.0310689117551263,0.0052247363542762,0.0013408601917573,0.0014458461911917,0.001275458662872,0.0328544433471644,0.9994576957782604,0.0224442452162259,0.0197870732637596,9.806171436786911,0.001954242118738,-0.009642252910588,-0.0028297089327988,3.480632681137372,-2.985363849408205,3.104706067696793,1143.6549262304522,1112.2399466533232,1111.6130565580938,1131.7893454324276,-283.5503889498807,606.3364224125924,-207.00094345439936,408.915188359542,161.72709352862907
9.49,-1.6384213291262932,0.4022687773149987,0.3360835362119266,0.026816724326565,0.0071710985373525,0.0021270207437481,0.0014948780963891,0.0013300747238265,0.0328825827586654,0.9994566203535332,0.023423524765391,0.0222409650403862,9.808519435902719,0.0018984474644004,-0.0096825060359909,-0.0028201246165169,3.480637511164933,-2.985382546913826,3.104693810740116,1142.6923764655014,1113.7310528117007,1111.2197038390523,1132.823628531292,-444.7347995339872,560.8328693158661,-119.22704935484587,380.704555090809,161.7267533968836
9.4925,-1.881419753212752,0.2266493022774806,0.274031500028296,0.0216196173383737,0.0092378733180244,0.0030150754167316,0.0015323715008593,0.0013903662394475,0.0329011429387895,0.9994558536569528,0.0243937863194512,0.0243405591242581,9.810593611767272,0.0018496257920466,-0.0097228788133884,-0.0027978413993011,3.4806405600570067,-2.9854007305945114,3.1046806413742654,1141.4312522327828,1115.044110999902,1111.0169213113195,1133.6928682078812,-541.880539908704,459.49284802065534,-39.03775532270928,280.5863069942477,161.72634182409107
9.495000000000001,-2.005946275007504,0.0248390943588107,0.1935987748320887,0.0156751408479871,0.0103250411769411,0.004158121205194,0.0015532009904331,0.0014483238738931,0.0329109192826984,0.9994553848928907,0.0254955245366716,0.0259628636956282,9.8123619264536,0.0018089424940786,-0.0097637560565834,-0.0027644499442347,3.480642738291303,-2.9854196113339455,3.1046685942984245,1139.9829737659575,1116.0285170518043,1111.0245150624387,1134.2265600662636,-635.8695805508348,343.5678999448018,45.31767420743764,146.40259333557407,161.72584615700094
9.4975,-2.02631445062079,-0.2064573433492319,0.083300120415721,0.0084717367326011,0.0095770471476523,0.0055006148906013,0.0015594717898292,0.0015028042330264,0.0329145354918578,0.9994551254397286,0.0267366168465086,0.0271334828646188,9.81379557955672,0.0017770854715646,-0.0098047361731768,-0.00272219915446,3.4806449088742144,-2.985440893366526,3.1046586096653326,1138.251904330028,1116.7619504996262,1111.2435096823567,1134.4248811745592,-603.916693233834,195.2610926047716,108.01052158437744,5.2584266843506615,161.72515693062377
9.5,-1.958903936327488,-0.3573492839629507,-0.0047411511544079,0.0034454210476129,0.0075418347984215,0.0059859993947029,0.001553512471104,0.0015472625458837,0.0329139278362016,0.9994550221886412,0.0282288018972315,0.027880712243018,9.81487085984538,0.0017541728028958,-0.0098447895996211,-0.0026739676032459,3.480647472580609,-2.985465061704041,3.104651197727564,1136.963390299789,1117.0048225148282,1111.5645676703605,1134.252852199685,-454.21631935764646,31.585729445766365,145.27070735160285,-122.83741955104858,161.72450569338346
9.5025,-1.8433808469527104,-0.4408025061425757,-0.0605128667435606,4.745900651223852e-05,0.0052163128677708,0.0052930354236683,0.0015386192728483,0.0015765625288176,0.0329125308700728,0.9994549768382172,0.0300550058313914,0.0282542830372433,9.815569244612975,0.00173976455294,-0.0098826355253141,-0.0026228840478651,3.4806512562332808,-2.9854913216272863,3.1046464669114515,1135.9808227332403,1116.919879146855,1111.9698632191148,1133.810694076804,-339.5108961120892,-94.6447209440373,180.91119151242208,-235.83909503855415,161.72377630714723
9.505,-1.6852342600164127,-0.463988271995359,-0.0598852837102475,-0.0032964263664967,0.0031007568678751,0.0035955495276087,0.0015179848993746,0.0015971845121024,0.0329116999274727,0.9994549460209604,0.0320687342990965,0.028310700990133,9.815877136745016,0.0017330880032315,-0.0099170876247094,-0.0025719295259212,3.4806561640482365,-2.9855189292723674,3.1046437260428608,1135.265835819228,1116.531598910108,1112.4691236279227,1133.0736567244924,-179.33607340898487,-177.09538582996134,172.14057083412663,-289.296797543557,161.72281193562435
9.5075,-1.544970095989828,-0.4342982146248779,0.005615216699388,-0.0064559914782456,0.0020740423949176,0.0022316436226167,0.0014932073408453,0.0016148891776261,0.032910505385753,0.9994549747962368,0.0341354348333455,0.0280762020131699,9.815786819899449,0.001733133684712,-0.0099473068537704,-0.0025236842807636,3.4806622670722094,-2.9855470515261664,3.104642125436086,1135.0841423661952,1116.034402217705,1112.8305660732856,1132.364210089086,6.085424256117522,-223.28809773170985,119.45510418811511,-284.3344448966147,161.72193449290165
9.51,-1.3866721787962513,-0.3768991400603187,0.1272156337490916,-0.0101831365461823,0.0015641867238475,0.0015557097024565,0.0014665440614226,0.0016330324935008,0.0329116516992857,0.9994549890075268,0.0361672071226776,0.0275904453371043,9.81529620074974,0.0017387086503149,-0.0099729744669062,-0.0024800576939635,3.4806699391983247,-2.9855747580219414,3.1046414750013556,1135.2962629405088,1115.4151584214496,1113.0663991488632,1131.6519845000096,136.31825638219794,-262.34750225608417,67.07347994823837,-270.07235827541405,161.72098046613291
9.5125,-1.2026586506007133,-0.3108636352466187,0.2730025689378888,-0.0139470002590019,0.0011429187852636,0.0016750131907677,0.0014375775958818,0.0016533240994888,0.0329172263040543,0.9994548969979388,0.0381058206498557,0.0268420033465337,9.814408304499194,0.0017487321153266,-0.0099942837214879,-0.0024421964922581,3.4806786623967825,-2.9856022519657195,3.104641636312542,1135.7657336481063,1114.7226647064244,1113.1659334730268,1131.0138482977088,227.56103992179385,-290.18804627253314,6.696441792972881,-219.81119680877984,161.71996255285055
9.515,-0.9811449289605886,-0.2451426026759487,0.4118773649542467,-0.0172344070441902,0.0007195457794298,0.0028125260157775,0.0014044489581949,0.0016714191064577,0.0329287679615576,0.999454634504872,0.0400098347713617,0.0257904129590005,9.813130803976243,0.0017624081185948,-0.0100119212623215,-0.0024103727788739,3.4806881146982107,-2.985630221442756,3.104641304924389,1136.434068140118,1113.9642181900867,1113.099881357828,1130.5529285159655,309.88197004586965,-344.728456669532,-57.28323792415043,-144.24291916691942,161.71886667908453
9.5175,-0.6769254581434571,-0.1742675156915924,0.5244813281264143,-0.0201974101703489,0.0003176673699213,0.0051244658646251,0.0013675028199641,0.0016801128537557,0.0329460137000417,0.9994542080465824,0.0419939566999875,0.0244404496969602,9.811475152645059,0.0017794055167722,-0.0100270928473715,-0.0023839078333466,3.4806981095436367,-2.9856581101033304,3.10463887022708,1137.3151434983351,1112.9990224230771,1112.879517283406,1130.2926337018744,315.39905823157727,-361.3026391310351,-90.93592732776403,-39.15762171933108,161.71746000538943
9.52,-0.4034142638580144,-0.1245119858763943,0.547569962859164,-0.0217504146494124,9.617212228424259e-05,0.0074006377721505,0.0013325014898357,0.0016806926820366,0.0329656579027847,0.999453706772682,0.0440081636498026,0.0229131155555612,9.809455749816545,0.0018000311547967,-0.0100415339082437,-0.0023612864767735,3.480708340659066,-2.985684125680432,3.1046321808202,1138.0110634312755,1112.157704994432,1112.645201721189,1130.357140407369,247.6830159361338,-343.8379666164027,-84.44740647376918,86.40971780062966,161.71621064441794
9.5225,-0.1294436380442544,-0.0849745705314968,0.4818283454003172,-0.0222783034253054,-2.6646574320692995e-05,0.0095364266260829,0.0013022840892322,0.0016804638931902,0.0329866288970839,0.9994531434511364,0.0458806608336722,0.0212809475961756,9.80709032390582,0.0018251689884417,-0.0100573341892246,-0.0023408250076108,3.4807179779102353,-2.985707707685638,3.104620781097946,1138.5535585780162,1111.2798325899948,1112.4572802510372,1130.7246822908776,179.54448798556692,-394.9176426927644,-49.80914638739836,226.08425687986812,161.71488104805746
9.525,0.1747383140099557,-0.0471662926851035,0.3026445026284136,-0.0217577099008677,-0.0001024380820256,0.0116465243485247,0.001274918322987,0.0016802386471956,0.0330062302919093,0.9994526036021972,0.0475619613708018,0.019523994493898,9.804400686933505,0.0018562811280997,-0.0100766092293587,-0.0023214175068777,3.480726480200564,-2.9857298916840014,3.104606687353997,1138.9087858712035,1110.1831167809676,1112.3961559892523,1131.4875616917684,66.01983298202362,-408.50577052900866,16.173764808266732,324.0773359377007,161.71319356752787
9.5275,0.3926916206434795,-0.0205641537445162,0.0836839733908111,-0.0205571107028689,-0.0001341839817672,0.012710824240141,0.001245767487207,0.0016801708537782,0.0330245957658779,0.999452086949165,0.0490117896577688,0.0175742315934924,9.801413017931033,0.001895225848735,-0.0101012334107191,-0.0023030264837187,3.4807333284185,-2.9857514932796008,3.104591925319756,1138.8836577429263,1109.2373037373502,1112.5381490750783,1132.3450689705655,-89.81019022928162,-381.97664952193327,99.7368137672509,373.1102433297853,161.71171194047352
9.53,0.5636952563407432,0.0058942358847534,-0.1793849607363867,-0.0187438675441563,-0.000153837297899,0.0126310963083218,0.0012119569421788,0.0016848149629502,0.0330389612511166,0.999451681241837,0.0501033993216029,0.0154062166896254,9.798158533747728,0.0019441674537605,-0.0101326624937409,-0.0022868515752932,3.480737240941771,-2.9857734617457727,3.1045778076991657,1138.4597349200571,1108.2732335333585,1112.8948400580884,1133.3531129084167,-240.34682744987427,-384.8892106150596,171.40330047320325,414.4748631635855,161.7101543355255
9.5325,0.6957266697540102,0.0362663043153643,-0.4536559820280793,-0.016511453257502,-0.0001653281805941,0.0115625917166617,0.0011758386244862,0.0016976201559149,0.033049280426912,0.9994513812758992,0.0507344785443785,0.0131008733472168,9.794674570905983,0.0020050754577545,-0.0101719188419292,-0.0022753062803886,3.4807385149178143,-2.9857966051171205,3.104565340146595,1137.6819236056767,1107.3128576842746,1113.3951655774447,1134.417443286384,-394.586813618964,-376.8086209248261,217.51911005441127,423.3317479156333,161.70853602395889
9.535,0.7913967561941505,0.0757377211615501,-0.7128448807223985,-0.0140455963173577,-0.0001501179878387,0.0098185131777987,0.0011443408805495,0.0017168958023027,0.0330578887980262,0.9994511071764036,0.0509068479357876,0.0108293891473544,9.791005448234888,0.0020792896143873,-0.0102196552278268,-0.0022718738477827,3.4807387898155366,-2.9858209150422588,3.104556040453803,1136.486800851962,1106.389190428734,1113.9824356083607,1135.4697716479955,-609.1638488323799,-387.2458531016807,251.6163166270008,442.30944413675087,161.70684801900137
9.5375,0.8916034411120082,0.1374075444954306,-0.9761345539911706,-0.0114831841887618,-5.35986441415193e-05,0.0072577355818695,0.0011278933953762,0.0017409228629559,0.0330638899179158,0.9994508821702884,0.0506273160007969,0.0088347286062692,9.787202752904705,0.0021673439341722,-0.0102762646468168,-0.0022807412578908,3.480738782863655,-2.9858462953759064,3.1045502677828654,1134.6361043615154,1105.3766284187664,1114.6532471605794,1136.628990507067,-729.3467355799517,-346.71804615294644,223.2425998292107,396.9230215510668,161.70474718715693
9.540000000000001,0.9886487524922094,0.201379645679501,-1.1366084192209027,-0.0097965893650093,0.0001425003255521,0.0045401101298437,0.0011304206876837,0.0017650040257299,0.033065072786219,0.9994507851758166,0.0499607191079565,0.00723317399201,9.783325071691358,0.0022687633248713,-0.010341992057069,-0.0023065188819988,3.480739249852892,-2.9858729285376104,3.1045477418610044,1132.8400671740617,1104.655600197969,1115.098648607507,1137.454386755751,-737.4209929732144,-254.85939967166468,144.15210077925187,291.1423532212211,161.7029378494869
9.5425,1.1267363371338872,0.2760313625016785,-1.2156171538504603,-0.008120230438589,0.0005246730123459,0.0011950298755358,0.0011505153404876,0.0017842915379719,0.0330611915192874,0.999450836653651,0.0489771614395073,0.0060385611039384,9.779436969820113,0.0023819751496555,-0.0104171068898494,-0.0023536783865149,3.4807408970182485,-2.9859001229970774,3.104548528284376,1130.9489993966488,1104.102331420408,1115.3740076644758,1138.0847022731737,-805.0574242243566,-201.37594544489187,86.02932217433482,226.4609932168692,161.70107209217983
9.545000000000002,1.3560060384625174,0.3709519259197851,-1.2004526348870808,-0.006056049691205,0.0012428664286399,-0.0032058055662041,0.0011873249563425,0.0018016748116756,0.0330507182153848,0.9994510839017844,0.0476038027470402,0.0052818791383745,9.775607324960642,0.0025044812976787,-0.0105020259732902,-0.0024258721250581,3.480743762840829,-2.9859269471924734,3.104551915858203,1128.8147800529407,1103.6487204707448,1115.5287952183785,1138.5866917218352,-724.4812223038557,-131.88730762342752,38.68480240522191,142.3054064190011,161.69877254803396
9.5475,1.5968421490459144,0.44674013974884,-1.0936595131403133,-0.0042782357010296,0.0020225359419055,-0.0069514398081521,0.0012376625320903,0.0018182452498044,0.0330326723426941,0.9994515628806858,0.0458113128598643,0.0049477538646504,9.771907319101178,0.0026329047968649,-0.0105973060398293,-0.0025255742466096,3.4807475386675844,-2.9859529712867547,3.1045568355521036,1127.3265932851302,1103.442894882291,1115.5674316765019,1138.7962293052683,-502.3274966476617,-46.13810588343046,11.092976722146062,46.446573435006954,161.69680870819118
9.55,1.860610099286478,0.5067176061570169,-0.900837715459296,-0.0013081223907874,0.0029408202851724,-0.0102620386173137,0.0012998594825693,0.0018305971337529,0.0330122429601645,0.9994521112402592,0.0436702764911394,0.0050470582496164,9.768408000348423,0.0027629812020269,-0.0107035873579333,-0.0026536682837615,3.480752678371903,-2.9859779234716086,3.1045625759995086,1126.303142569702,1103.4180299413276,1115.5842601019892,1138.8189245890103,-319.64887392532097,23.96676421039581,8.124443047107528,-15.548462081912774,161.69479864054628
9.5525,2.102992542296276,0.5416619736264074,-0.6575913261476719,0.0036132868414844,0.0041683990009796,-0.0126944020634964,0.0013749102175285,0.0018409267472722,0.0329955879777467,0.9994525211484996,0.0411560188522024,0.0056447048534475,9.765177092917266,0.0028898591015537,-0.0108214115149121,-0.0028091470937592,3.48075952461882,-2.9860015697573075,3.1045673660566058,1125.7283489155031,1103.562728703343,1115.6080538917374,1138.7184869948587,-121.8414847878436,107.07749514719892,5.765515452550299,-62.831896039018595,161.69275227965008
9.555,2.2634176235185746,0.5301933919087887,-0.389853770416378,0.0103817325219873,0.0059271812859796,-0.0135150991074347,0.0014600973609624,0.0018489294053819,0.032986800394792,0.9994526637537264,0.0383036098157164,0.0067286733247146,9.76227610210188,0.0030083249023307,-0.0109509633354116,-0.0029892861352703,3.480768441730607,-2.9860241669802554,3.1045680570760785,1125.693935145763,1103.9534174170635,1115.613087679252,1138.5047651088153,93.11068225168493,237.41616206249017,-20.96506416796401,-113.91317995451612,161.69066425424947
9.557500000000001,2.3072612709591556,0.4468187806346451,-0.0871164867105813,0.0187155469054146,0.0082308159214542,-0.0127992375972366,0.001548461261541,0.0018449413033765,0.0329828003802663,0.9994526670269812,0.0353415474474536,0.0081938039890656,9.759757958477806,0.0031131282570724,-0.0110918241566748,-0.0031900308857515,3.480779781658049,-2.986046351904689,3.104563830199964,1126.1939023267619,1104.7498095136557,1115.5032285708976,1138.1489210950863,252.6602413469905,346.377484998075,-75.94251042913761,-144.65521056702084,161.68811273491528
9.56,2.2016703026818565,0.3163940459623502,0.1268606488880278,0.0251920354311205,0.0098817578560512,-0.0114919755359716,0.0016339345411798,0.0018224790485868,0.0329802987891963,0.9994526599782232,0.032449326368844,0.0099485030251386,9.757664349747326,0.0031992113830574,-0.0112428885332369,-0.0034063891691397,3.480793664661684,-2.986067978566488,3.104555558292912,1126.957236352498,1105.685304842054,1115.2333751271062,1137.78148905598,346.5997520993604,419.84854441606495,-158.91820874533983,-161.769580426458,161.68594972331786
