t,ang_acc_x,ang_acc_y,ang_acc_z,a_vel_x,a_vel_y,a_vel_z,quat_x,quat_y,quat_z,quat_w,acc_x,acc_y,acc_z,l_vel_x,l_vel_y,l_vel_z,pos_x,pos_y,pos_z,mot_1,mot_2,mot_3,mot_4,dmot_1,dmot_2,dmot_3,dmot_4,vbat
57.7375,0.068723677403125,1.9397168084717535,0.985714489220287,0.0317400669677471,0.0086883915407004,0.0175179108224758,-0.0019281170133183,-0.0052496972956797,0.8592708772570063,0.5114868986026337,-0.0650778268745869,-0.0467663512832917,11.020464372087831,-0.0129673428603981,0.0152507387485048,0.1000671443249925,7.218565173540874,-3.3507106184996944,4.597601265155234,1196.9009751123679,1188.5149455668495,1195.3585009155368,1186.0846200768672,-316.35444050755,727.9006434102398,-506.2463425593844,276.8533341761615,156.03677914232463
57.74,-0.2402316068200509,1.5778814997204336,0.7169090859729067,0.0314517311464046,0.0140961104645966,0.0195188146817051,-0.0019018287953549,-0.0052249056382782,0.8592602822174945,0.5115047615093807,-0.0686508669870175,-0.0450553212324406,11.013697896230155,-0.0130432447590191,0.0154909697137862,0.1030898595353885,7.218535773810791,-3.35075171690463,4.597855493565875,1196.1789699417952,1190.2198745671892,1194.2522158859767,1186.7833869423112,-287.2352077262233,682.0644605649996,-419.61427951575354,264.7951204987883,156.04181170433503
57.7425,-0.568084085515048,1.1486879515103705,0.4276833422474255,0.0306153048711866,0.0176532929771445,0.0205313596092259,-0.001885449265463,-0.0051981765934747,0.8592487140685572,0.5115246108683745,-0.0721509625266015,-0.0434044719608723,11.005655724088095,-0.0131573634960527,0.0157340738284897,0.1061040986592191,7.218505707814992,-3.3507916843490215,4.598118147394688,1195.464799073738,1191.9252678696716,1193.26042951796,1187.40859567936,-316.7839905849831,729.4938986766643,-394.5648518328908,222.36634938014953,156.0470294477003
57.745,-0.987812588814994,0.6246696130246288,0.0788633504574955,0.028938409257831,0.0197093638440418,0.020866980211803,-0.0018836014602778,-0.0051738580513796,0.8592370501792505,0.5115451363063745,-0.0755224763684578,-0.0419749743179168,10.996316876107686,-0.0133095612631565,0.0159806628677958,0.1091086587522676,7.218476246210307,-3.350830647080476,4.598388241578945,1194.5950499888695,1193.8673440605744,1192.2793916268113,1187.8952186892127,-328.49424621842013,677.5394527464586,-311.3272168852062,123.06810770021983,156.0534902887518
57.7475,-1.358447525003567,0.2303581315490098,-0.2019162511289477,0.0268975106022903,0.0198035797410065,0.0205532840106931,-0.0019000739523496,-0.0051603984048691,0.8592266254828927,0.5115642703494419,-0.0786558383739058,-0.0409978481185893,10.985663651436472,-0.0134970786838445,0.016230938377536,0.1121027402401269,7.218448699259494,-3.3508693040300224,4.598664187759676,1193.822327842645,1195.3129651334057,1191.703793433533,1188.023936217861,-331.9264429372942,517.8525614792014,-167.04136883965205,-2.299802312474912,156.05903022649315
57.75,-1.739642502814555,-0.0721307794934248,-0.4632834601763615,0.024107123627711,0.0185644423642537,0.0196843543655039,-0.0019345381966669,-0.0051650305085947,0.8592199392142946,0.511578057195517,-0.0813895416937661,-0.0406355840199157,10.973683778324016,-0.0137143332648706,0.0164857619944361,0.1150856109569743,7.218423993958295,-3.350908893355935,4.59894425322093,1192.9354177741843,1196.456606867968,1191.4441847826135,1187.8837196776503,-384.8315178224628,386.9751696509747,-47.63949202992775,-89.4504474031141,156.0647198313791
57.7525,-2.111068625199472,-0.2772074096968568,-0.7033907478276054,0.0205388343515053,0.0165197511130614,0.0183503642951464,-0.0019858992199202,-0.0051925111576346,0.8592186571900845,0.5115839853331597,-0.0835919738054497,-0.040995364357606,10.960372614311868,-0.0139539404463059,0.0167461076095366,0.1180561451229106,7.218402321942253,-3.3509507227750444,4.5992274275272385,1191.8981702535343,1197.2478409816588,1191.4655959733836,1187.576683980846,-462.98794192779457,208.04213308477568,70.54063748574693,-147.48134028229015,156.07052463095255
57.755,-2.433772748955593,-0.3621824256503761,-0.911729459489474,0.0155933097967986,0.0140590716592859,0.0164956787611529,-0.0020511595178925,-0.0052432109278639,0.8592248015243837,0.5115789685408786,-0.0851642575149435,-0.0420791491286214,10.945735749946127,-0.0142070030717138,0.017013360018778,0.1210121602990463,7.2183835728036465,-3.350996233707136,4.5995134064385885,1190.6204780645444,1197.4968175333925,1191.7968879700427,1187.1463129762385,-624.8256128079433,-37.73118955644238,193.93416983342917,-204.41391488223877,156.07645772139583
57.7575,-2.703149830468597,-0.3541558461268131,-1.115690709738865,0.0075274315001887,0.0118120533861245,0.0137839886758183,-0.0021260720402099,-0.0053112719921294,0.8592392026435929,0.5115618908636447,-0.0860756060775359,-0.0437555914277217,10.929791841376359,-0.0144641311998944,0.0172893794759271,0.1239496451933346,7.218367574272104,-3.35104583509115,4.599803158721667,1188.7740421894932,1197.0591850338765,1192.4352668225513,1186.5546144064344,-724.9709175313683,-288.29490317251685,244.92596648764896,-227.5690068109066,156.0837122202068
57.76,-2.7849797752616654,-0.2957968806259008,-1.2385775615144838,-0.0007921066265826,0.0112974125244503,0.0111160518814282,-0.0022070056991205,-0.0053872111812493,0.859262016585746,0.5115326107835046,-0.0863698431327949,-0.04582883300505,10.912575600882494,-0.0147161773717926,0.0175756755376894,0.1268622392981667,7.218353994919463,-3.3511003014436365,4.600099276129147,1186.9956234768908,1196.0553430175312,1193.0215178024798,1186.008467942185,-743.7528555939311,-523.2746244152219,199.41859055278456,-236.1825459763324,156.0898603262741
57.7625,-2.685415695239288,-0.2375681296275007,-1.2997326864517371,-0.0093702187267771,0.0119973705209999,0.0079456874514456,-0.0022897518722881,-0.0054576570976588,0.8592911475597655,0.5114945037168945,-0.0861456935163298,-0.0480192625966129,10.894140666259428,-0.0149548891354329,0.0178734777318951,0.1297408955272512,7.218341288264842,-3.3511600384281643,4.600405482550024,1185.0552779115217,1194.442811911799,1193.4323597753155,1185.373701676552,-859.7434491411753,-816.8211478453854,83.82748042013449,-313.8439852583119,156.09610421124114
57.765,-2.357639182448512,-0.2132274425223532,-1.2869317668528075,-0.0183043772099052,0.0133583689719421,0.0035692829909004,-0.0023685655117531,-0.0055118688164275,0.8593231609591679,0.5114526728258199,-0.0854643408358021,-0.0500736702512781,10.874561898609036,-0.0151724866445891,0.0181825522850168,0.1325743289419173,7.218327874939529,-3.3512247338130563,4.600724483931644,1182.6969062311828,1191.971237278302,1193.4406552045807,1184.4392480158926,-845.0472818870321,-961.9945384277908,-108.55586832736532,-381.0964529659769,156.10369619558557
57.7675,-1.9361310082283292,-0.2428503222912235,-1.1985087036260642,-0.024245371912583,0.0142925479061674,-0.0001597588972204,-0.0024370363944654,-0.0055448008346056,0.8593538382728168,0.5114127990520396,-0.0843294900795427,-0.0518305001927596,10.853936332847011,-0.0153619191024636,0.0185005630665842,0.1353498041645259,7.218312305286328,-3.3512930507401117,4.601057708196439,1180.8300415020904,1189.6328392196644,1192.8895804336792,1183.468219411724,-702.5708856816025,-950.6707740305184,-346.2440950756038,-433.9975821643346,156.110098042315
57.77,-1.4087175156485796,-0.3121861103454351,-1.0332745844086837,-0.0285478438841927,0.0141824918492029,-0.0036174117041529,-0.002486809065301,-0.0055528794648847,0.8593790207877897,0.5113796116349055,-0.0827075159871105,-0.0531251849373407,10.83238274475236,-0.0155173824185824,0.018824521744012,0.1380539473384327,7.218293342968295,-3.3513633978313075,4.601405920577191,1179.1840518027727,1187.2178834081471,1191.7094347292018,1182.2692601050699,-658.8238333308067,-1039.5601791091078,-633.8734443220287,-574.8067453815353,156.1165697563236
57.7725,-0.7210404124164362,-0.4060249740393598,-0.7671464034165159,-0.031553146951408,0.0126099922496488,-0.0070066897739552,-0.0025138596637118,-0.0055385767902697,0.8593968324789093,0.5113528556365246,-0.0805896107069399,-0.0539439973488491,10.810039276875056,-0.0156350547419242,0.0191493292938432,0.1406741129971336,7.2182709443285935,-3.3514350399498265,4.601768968470373,1177.5359223354346,1184.4350383241162,1189.7202132120676,1180.5941856848149,-548.0190855399524,-982.3599595320796,-778.297599380656,-640.3857423322646,156.1244081413963
57.775,-0.1539134646903317,-0.4667143314737583,-0.5145845784811576,-0.0319288868898757,0.01047050666583,-0.0085982574004534,-0.0025188951665901,-0.0055071850122057,0.8594050624541065,0.5113340937977366,-0.0780310637022249,-0.0543677205428944,10.787059772225106,-0.0157138884393152,0.0194685264634064,0.1431994924579234,7.218244137186584,-3.3515070262465607,4.602145279879193,1176.4439563750757,1182.3060836104912,1187.817946732302,1179.0673313934115,-383.1806950531104,-803.025384526016,-742.3569353865173,-612.5869629704133,156.13099490873196
57.7775,0.352137879738343,-0.4911400315742285,-0.2666204506543626,-0.0301403410958341,0.0079484967589085,-0.008607127522868,-0.0025076891185197,-0.0054656413304606,0.8594039870108289,0.5113259456213893,-0.0751650753372725,-0.0545532075555133,10.763608749480081,-0.0157556462845028,0.0197749357755799,0.1456222104751942,7.218213032813712,-3.351579448372903,4.602532113570882,1175.620018860168,1180.419911401484,1186.0084285351331,1177.5312508699612,-291.9966526107471,-714.7245206708685,-659.1837424209,-592.7584546757467,156.137632742535
57.78,0.7800211062050633,-0.487396110544392,-0.044969124795491,-0.0272431371729645,0.0056358365440325,-0.0079312152101771,-0.0024849261078711,-0.005419705726153,0.8593942120655151,0.5113303726821213,-0.0721147933903783,-0.0546149500246331,10.739855502493723,-0.0157635477280737,0.0200627064001917,0.1479380988529207,7.218177898603249,-3.351652180996923,4.602926796099964,1174.9839731120212,1178.732461007135,1184.5220280201959,1176.1035391200312,-220.52731159539735,-630.8755560022116,-475.35617760506767,-517.9321035210413,156.14430909968405
57.7825,1.1035209086248707,-0.470952140833191,0.1323209234323651,-0.0239353930463525,0.0043105938890788,-0.0073122327616066,-0.0024555928992119,-0.005376619312864,0.8593786302636912,0.511344474266276,-0.0689853633282394,-0.0546921208276204,10.715966978125962,-0.0157417322195888,0.0203270613698267,0.1501472998167661,7.218140133758824,-3.3517244389237084,4.603325504475854,1174.517382302192,1177.265533621476,1183.63164764711,1174.9415903523584,-183.77002155202408,-595.4594765858155,-235.72871646648983,-425.740495964565,156.15102752110116
57.785,1.3826318727712015,-0.4756889638894346,0.2920328157594505,-0.0201254022864195,0.0040932243950897,-0.0068038000674774,-0.0024245074709681,-0.0053419258569855,0.8593592583989628,0.5113660458983637,-0.0658872786747142,-0.0548879848860443,10.692100560629386,-0.0156956064449623,0.0205652992404689,0.1522541273289022,7.21810105898698,-3.351794831971574,4.603725188484261,1174.0651230042606,1175.7551636242044,1183.3433844378628,1173.9748366402073,-161.04229255743977,-506.4248751144215,11.600180579074252,-278.3027760894524,156.15913243961535
57.7875,1.5412481957570991,-0.5232061898097042,0.3824196192836792,-0.0171242752437824,0.0047215694699025,-0.0062670743555835,-0.002395905281054,-0.0053189396281322,0.8593385596526041,0.5113915472060186,-0.062931408743939,-0.055259180181206,10.668397175445325,-0.0156314286505215,0.0207772069630244,0.1542665867010008,7.218061942526659,-3.351862460882937,4.604123785947648,1173.7121708394045,1174.7334092459023,1183.6896485500051,1173.5500764719104,-149.18490187910646,-345.57701558923833,222.04741810457753,-101.70462830137848,156.16591780286907
57.79,1.6408430424606835,-0.6203991763840692,0.4272955566778054,-0.0138875665398355,0.0052291334359136,-0.0051153984679989,-0.0023708891145503,-0.0053084666480783,0.859318001262481,0.5114187154649737,-0.0601835380052642,-0.0557866829106999,10.644975316109466,-0.0155554624264803,0.0209653490723109,0.1561955531168388,7.218023303575751,-3.3519268778521254,4.604519838413922,1173.3191984948655,1174.0272785462598,1184.4536215283847,1173.4663134987009,-190.9956434659694,-220.45152109251464,375.8015464872993,12.71139184481658,156.17273012220772
57.7925,1.7018438449431943,-0.7610218388221534,0.426341264624405,-0.0091548932157431,0.0041495356697196,-0.0032489998951967,-0.0023472118429884,-0.0053099751805763,0.8592992643241678,0.5114446713529456,-0.0576466972118221,-0.0563985539698682,10.621926320047288,-0.0154732428312375,0.021134618860346,0.1580537725963466,7.217985602746707,-3.3519883374733337,4.6049129260070885,1172.757192622074,1173.6311516404392,1185.5686562824428,1173.6136334311343,-222.85644985151944,-64.48740498978052,402.47520220461746,68.8856524077994,156.18092936397468
57.795,1.7066115603946475,-0.8552713752414554,0.383310873954449,-0.0047192880982648,0.00138419480866,-0.001811747196417,-0.0023220355625308,-0.0053214010211228,0.8592832625114841,0.5114676767430424,-0.0553139613666148,-0.0569993519534882,10.5993113647095,-0.0153900758472259,0.0212914456736641,0.1598546638574619,7.217948768256768,-3.3520470653757366,4.60530311051194,1172.2049162456076,1173.7048415213108,1186.4659975394088,1173.81074176074,-235.23253399388088,103.12119201981032,315.0842583116765,64.78480385495894,156.18777731180703
57.7975,1.669343962977266,-0.8754660649344661,0.3088792107563983,-0.0005858701584991,-0.0026183250627646,-0.0007966259579023,-0.0022944349232391,-0.0053396042193789,0.8592710707964268,0.5114856494095,-0.0532093325584451,-0.057507501277458,10.577160378910712,-0.0153112948193582,0.0214429421675368,0.1616111617521062,7.217912949915304,-3.352103500631584,4.605691488484418,1171.5810299521058,1174.146757600538,1187.1440775739995,1173.937557450409,-282.7416298428861,242.54334489898025,218.0481077456328,14.850267525245403,156.19463463777103
57.8,1.587533572690342,-0.7850372082060681,0.2045962513825306,0.0038663800838663,-0.0075647208424544,-8.873600120639308e-05,-0.0022656414393746,-0.0053602356945704,0.8592636744341791,0.5114966468463523,-0.0513944551994769,-0.057856308655664,10.555472883441576,-0.0152421661376995,0.0215964996100884,0.1633346581520518,7.2178783852617805,-3.3521575853649033,4.606079777852139,1170.7912080963924,1174.9175582458063,1187.5562380781375,1173.8849930983663,-289.02366811224726,282.1950077282429,69.1655490426102,-63.7593384334324,156.2028663489801
57.8025,1.4962760163969373,-0.6216391515967215,0.121985152663922,0.0073851013768704,-0.0106804825164332,0.0001518592918821,-0.0022380961936007,-0.0053809115751855,0.8592620509510878,0.5114987376998696,-0.0499186220843453,-0.0580411135876601,10.534220391536683,-0.0151869125451506,0.0217586528954831,0.1650343477708486,7.2178458652350015,-3.3522095434830366,4.606469910389603,1170.1359116115439,1175.55773263918,1187.4899053192128,1173.6187607582417,-253.97498227148753,200.90721878859847,-125.86497289487475,-157.03740172057863,156.2097224434848
57.805,1.3874386487439592,-0.4055265286773713,0.0622548516086851,0.0107642012499712,-0.0117865565016924,0.0001428178676813,-0.0022147336023786,-0.0054039789013761,0.8592667035239834,0.5114907787993412,-0.0487785436762165,-0.0581600749503088,10.513350205630408,-0.015147927016764,0.0219338861885258,0.1667168306612815,7.217816195210727,-3.3522601616795327,4.606862943766068,1169.521333185036,1175.9220943397484,1186.9269132136635,1173.099806089764,-236.8434251311708,62.38808750951185,-317.2068449336817,-248.40379264434,156.2165670497257
57.8075,1.2673347104618475,-0.1839354572498364,0.0329436474297867,0.0139391646705473,-0.0113265681314499,1.238150085791392e-06,-0.0022004793109627,-0.0054294906165454,0.8592781382065074,0.511471687659441,-0.0480237847039733,-0.0583008722335504,10.49279071745462,-0.0151273120894293,0.0221258422348965,0.1683854364800059,7.217789721400803,-3.352310729753313,4.607260608670112,1168.9516944858874,1175.8696730767276,1185.9038710945435,1172.3767417950191,-220.2719178852713,-153.48968646004656,-529.5690113479869,-334.93163053996034,156.22339606358491
57.81,1.1371971501694496,0.0075913260342282,0.0505317236850261,0.0167040990953159,-0.0100125315898494,-0.0002252405917457,-0.0021957052567846,-0.0054509458485064,0.8592946289278468,0.5114442682286896,-0.0476871551361738,-0.0583915719666363,10.472457212342174,-0.0151260938171153,0.0223390698556025,0.1700399560737054,7.217765129595047,-3.3523623879480966,4.607665180700212,1168.4199735956092,1175.1546459074475,1184.2790681569224,1171.4251479370635,-234.6784981989319,-484.4036451661253,-858.4207297224187,-467.56578735773246,156.2301985126685
57.8125,0.9730038147120564,0.182013986066097,0.1333336668100223,0.0194346135583975,-0.0087273822710264,-0.000494151925973,-0.00219789786238,-0.0054597424283814,0.8593135917584692,0.5114128504875693,-0.0477696352744006,-0.0582970492115644,10.45225742327808,-0.0151440545708525,0.0225772562575861,0.171677120948614,7.217740835482976,-3.3524163960170044,4.608079487022086,1167.7783019948938,1173.4476548508992,1181.6117674459356,1170.0389128582328,-242.70792480710287,-760.6191674260212,-1091.98646842414,-546.9394097406139,156.23832013608603
57.815,0.8297513402590208,0.2825606370108112,0.2538981943207842,0.0213413440759648,-0.0079706916779766,-0.000614990001213,-0.0022010997458476,-0.0054524836802697,0.8593319637760893,0.5113825708444945,-0.0481550812621065,-0.0579414391831902,10.43209665966386,-0.0151785210054933,0.0228411119915143,0.1732916263471742,7.21771454869932,-3.352473714021162,4.608504146223082,1167.2064339715748,1171.351550070321,1178.8191358148067,1168.6904508883629,-240.40513633387016,-950.5860642960808,-1215.83789651169,-576.2293787940288,156.24504555137932
57.8175,0.6759772712538972,0.3469810344269244,0.4198260428009989,0.0231088857158208,-0.0072038710958712,-0.0004459509545062,-0.0021980483089869,-0.0054278681207361,0.8593472791026174,0.5113575782078046,-0.048684748263299,-0.0572715286917743,10.411882815381176,-0.0152256773495301,0.0231291548954258,0.1748768555947391,7.217684121905695,-3.352534741076264,4.60893898170841,1166.5762763132238,1168.6947245294164,1175.532577963374,1167.1577659642612,-290.7992940372755,-1248.72983051873,-1520.9612535976653,-709.1713386272214,156.25171644437023
57.82,0.4720939233477233,0.3969209745475442,0.6491512225290259,0.0251279134287452,-0.0064463922647002,0.000397810014155,-0.0021867168715283,-0.0053886927747206,0.8593592567699266,0.511338302763527,-0.0492548183885472,-0.0563589664622809,10.391530276709323,-0.0152822314870985,0.0234365242781443,0.1764259364083078,7.217649514349039,-3.3525988923277135,4.609382570330549,1165.7524375013877,1165.1079009177242,1171.2143295468145,1165.1445941952247,-314.3121603983803,-1340.052259052154,-1607.732994423857,-758.2919923775155,156.259646098434
57.8225,0.2829775551763423,0.4243943460240169,0.840648529063348,0.0264852012248388,-0.0058209775826501,0.0018960955775143,-0.0021681443038706,-0.0053396080930722,0.859366849061946,0.5113264452103273,-0.0498029853843591,-0.0553335706557979,10.37096298685717,-0.0153456105765384,0.0237564520495732,0.1779324820646119,7.217610735525846,-3.35266511671404,4.609832884310006,1165.0047155112331,1161.9944632341617,1167.493912991262,1163.366306002377,-318.5711061226546,-1225.987851499313,-1462.175516781033,-720.8143805005369,156.26618276222743
57.825,0.0765630022337417,0.4423541721238845,0.9961835309763892,0.0272130672623012,-0.0047544794885787,0.0044689849180094,-0.0021457124346551,-0.0052883739646358,0.8593716462917566,0.5113192383444713,-0.0502824796107488,-0.0543957538366609,10.35011637197136,-0.0154132360927389,0.024080795165091,0.1793912768760534,7.217568881852931,-3.3527329701385806,4.61028751601285,1164.1595819707736,1158.9779616602243,1163.9034519629056,1161.5405222927204,-363.5282776112449,-1167.6200662644017,-1377.097549246469,-732.9252393640105,156.27263652134707
57.8275,-0.1374094513924109,0.4539954884503064,1.094962442456078,0.0273632242970305,-0.0034126806688517,0.0079212091402643,-0.0021238431733451,-0.0052413864029651,0.8593749597017744,0.5113144019910517,-0.0506873507695021,-0.0537215663377028,10.32893860237574,-0.0154831956806406,0.024401938943911,0.1807983031036446,7.217524899373435,-3.3528016320197636,4.610743616610808,1163.1870741231762,1156.1563629028367,1160.608425245026,1159.7016798055552,-431.1406509920572,-1073.3046566730293,-1210.200538246145,-740.3861198264989,156.2790160249024
57.83,-0.3482970484152982,0.4620678827184483,1.102867585110963,0.0268363943054749,-0.0021962360175591,0.0118834876156469,-0.0021058946350353,-0.0052029382465431,0.859378394467532,0.5113091939220484,-0.051023017519208,-0.0534273382345305,10.307390970568399,-0.0155536322904408,0.0247137902512329,0.1821505856514492,7.217480175542834,-3.3528701052735914,4.61119890752578,1162.0038787158153,1153.6114383768643,1157.8524492716804,1157.8385916935913,-574.5831669886927,-1066.905443518726,-1061.4839555868027,-837.6116744096441,156.28530060352426
57.8325,-0.579538596597674,0.4765350392989622,1.001147581085753,0.0254627145817673,-0.0011047605874377,0.0160585847750986,-0.0020931029350498,-0.0051744875125446,0.859382935305331,0.5113019545475995,-0.0512955489545669,-0.0535465264426679,10.285447791713692,-0.0156225622277735,0.0250122985308409,0.1834456820937911,7.217435611823622,-3.352938634787028,4.611653435691852,1160.3141582882313,1150.8218356852403,1155.3010054670895,1155.5136214335048,-656.9857753053208,-994.3051970840232,-809.0942303949257,-879.5574974364673,156.2927269973984
57.835,-0.7403994939098597,0.498452160204245,0.8353159617273846,0.0235882609864842,-0.0004185534148134,0.0185773136494183,-0.002082317990615,-0.005153968792971,0.8593899830553146,0.5112903768982899,-0.0514787428214472,-0.053995530405336,10.263096007509924,-0.0156871415636042,0.025296161134708,0.1846810403156573,7.217391550793403,-3.3530084829455298,4.612109455580259,1158.718949839287,1148.6399123914416,1153.8069781197037,1153.4408042064067,-654.6778791608217,-856.6906636644096,-487.8170506969471,-867.7841224281726,156.2988169587852
57.8375,-0.8549006090011797,0.5318861515740845,0.6096666695156044,0.0209755838733855,0.0002956897803029,0.0200854560448359,-0.0020709247350876,-0.0051367970202334,0.8593982427790137,0.5112767065087742,-0.0515907593787716,-0.0546454318594797,10.240334545740156,-0.0157454304562645,0.0255653620674592,0.1858536300662801,7.217346728903461,-3.353080598953001,4.612570065645226,1157.04076889243,1146.538382366922,1152.8619202136067,1151.1747008213679,-723.0424709163283,-903.4532576578765,-332.98676844939354,-1040.458289718176,156.30480245804043
57.84,-0.933973417610214,0.5764535356539732,0.2991399870240192,0.0175090767088199,0.001556236959571,0.0209919250543438,-0.0020576852114427,-0.0051178314981586,0.859405775420467,0.5112642692382812,-0.0516868917173275,-0.0553674078394455,10.217173382736105,-0.0157962907556931,0.025820561842685,0.1869600478099143,7.217300444590224,-3.353154408590836,4.61303730209918,1155.1037374847035,1144.12264610315,1152.1420442774559,1148.2385127578132,-673.6253750048228,-852.9101890683434,-230.47631215305984,-1100.799748904847,156.3118635463456
57.8425,-0.958010124872039,0.6052735819483782,0.0249025649884748,0.0148563259490702,0.0031673346250669,0.0211828394559061,-0.0020444525405699,-0.0050986465381148,0.859412831358874,0.511252623988834,-0.0518119827292836,-0.0561798009695098,10.193632081616355,-0.015838414899605,0.0260607404853518,0.1879973361877095,7.217253757926456,-3.353229118627755,4.61351072423813,1153.6726420174043,1142.2738314215783,1151.709538652841,1145.6707020768408,-515.0741995346062,-678.1361783324229,-172.98432685313216,-1027.8483743981976,156.31764690108287
57.845,-0.9562340830047104,0.6106506115472161,-0.2491376598662446,0.0128331952810927,0.0054167034968628,0.020893275612536,-0.0020329284295875,-0.0050831444241194,0.8594198054947608,0.5112410635651153,-0.0519886009771997,-0.0571378463341121,10.169738415009508,-0.0158704147854478,0.0262851424508895,0.1889632580935809,7.2172074646346545,-3.353303913556742,4.613988797103867,1152.5283664870328,1140.731965211491,1151.2771226431908,1143.0992708858269,-431.52263745060486,-576.2528507686745,-211.11146070232397,-1098.6945005838443,156.3233268338776
57.8475,-0.9460976478040464,0.5835079637954289,-0.5612899609622314,0.0108433663723122,0.0083576329557071,0.0199274693362686,-0.0020253911314182,-0.00507467273821,0.859428025476024,0.5112273172998199,-0.0522583342634368,-0.0582922489055232,10.145526685776652,-0.0158915755238906,0.0264940543107116,0.1898565408129283,7.217162486705699,-3.3533785233368527,4.614469314024343,1151.51502883015,1139.3925671677334,1150.653981349329,1140.1772295739188,-319.451027047144,-390.56452964039664,-246.3328848052801,-1021.650776263664,156.33002565971339
57.85,-0.9406896009914196,0.5411144970310457,-0.7942807541997894,0.008923412320139,0.0101834309086254,0.0184730356485367,-0.0020239747514104,-0.0050747874566805,0.8594379675250702,0.5112105662013315,-0.0526804515152899,-0.0596617710878856,10.121035836340385,-0.0159021033458961,0.0266890358642052,0.1906769619709382,7.217119601871234,-3.3534523344479927,4.614949936884467,1150.9311113517963,1138.779142563288,1150.045458219164,1137.991017004506,-201.54916662777535,-136.5446311860401,-247.28454186469867,-803.4473296450901,156.33551285914356
57.8525,-0.9419925267105814,0.5006243940481888,-0.9808015892754008,0.0065066210724187,0.0106686444901193,0.0161983127318157,-0.0020311445991493,-0.0050816741508257,0.8594496905499979,0.5111907273499984,-0.0533543929135012,-0.0612123370581507,10.096307569147788,-0.0159035973201128,0.0268730454293672,0.1914251095906115,7.217079038592812,-3.3535249241760337,4.615429596185219,1150.5072829970122,1138.7098440118039,1149.4175586400063,1136.1599929256968,-166.3976113691264,54.1870013769035,-235.8423547201413,-666.1978569372652,156.34090488844868
57.855,-0.9502139507979358,0.4776231946821107,-1.1148777276719029,0.0041416589597607,0.0103845459669374,0.0132851749022031,-0.0020460233536507,-0.0050898501743738,0.859460785339833,0.5111719163128635,-0.0543571522114901,-0.0628155374822155,10.071384596800009,-0.0158981479546595,0.0270507266991949,0.1921020104158353,7.217039307653287,-3.353596165636562,4.615909364261064,1150.0991232949502,1139.0500775701723,1148.8662464455626,1134.660027719818,-190.64826399152727,211.95714997823487,-177.5920354371011,-519.7881062140892,156.34622119628156
57.8575,-0.9702808681841738,0.4785392711311997,-1.1731438485798955,0.0022026746871668,0.0103516741993817,0.0098737484832358,-0.0020611932966951,-0.0050930842806006,0.8594679591414777,0.5111597597730448,-0.0556562738073771,-0.064267852166763,10.046309043430036,-0.0158864669421267,0.0272278405610568,0.1927089859587521,7.216998961879942,-3.353666609135784,4.616391476205162,1149.554041677054,1139.7696297616956,1148.5295984628203,1133.5610523946252,-306.9173941664821,363.54509518888653,-73.59523590796343,-399.06446355371287,156.35145066314524
57.86,-1.0096756459992426,0.4856998997027422,-1.1501500608369748,0.0002278601257994,0.0115661998714702,0.0057047777874413,-0.0020733443367154,-0.0050922603207747,0.8594702602501954,0.5111558537233429,-0.0572120061882161,-0.0655362201769888,10.021120694697732,-0.0158693645901071,0.0274065899929745,0.1932480675267964,7.216958283048907,-3.353737377048307,4.6168762214502825,1148.5645363241192,1140.8678030461151,1148.4982702660232,1132.6647054020511,-436.490645001008,408.6770148010784,59.26201828971595,-268.7178472457607,156.35763211366296
57.8625,-1.048936302116786,0.4718018024367631,-1.0593287490468468,-0.0014692796923698,0.0136066137211093,0.0026389414589179,-0.0020829291928599,-0.0050909745100017,0.8594666486863922,0.511161901576142,-0.0590152854889844,-0.0666764921030941,9.995856199547648,-0.0158487145085994,0.0275869064582827,0.193721831663265,7.216916894702681,-3.3538084153116654,4.617362041644103,1147.371588452048,1141.813014835702,1148.8259085542693,1132.2174631583955,-561.5401331728063,346.77907414930354,199.60272544325355,-132.06016459237227,156.36271017383316
57.865,-1.075048793808714,0.4139461484238924,-0.910266845676938,-0.0036732983082658,0.0159392888886699,0.0002733477799806,-0.0020932597048985,-0.0050930063025454,0.8594579847028961,0.5111764005188849,-0.0610961278388552,-0.0677792078053691,9.97054861548264,-0.0158274352800504,0.0277675937975406,0.1941332878781908,7.216874736718118,-3.353879471665391,4.617846332218623,1145.7568356582535,1142.6016984168627,1149.49628389324,1132.0044045790887,-798.3230313203406,274.48872439247174,347.13843514082066,-58.426215711832285,156.36771861912183
57.8675,-1.056930230645429,0.2894225329963278,-0.687438444610987,-0.0071582995818002,0.0181318159266968,-0.0018515925803928,-0.0021060050874378,-0.0050999346322954,0.8594457604714262,0.5111968176932264,-0.0634695099901823,-0.068881985698704,9.945227507724864,-0.0158085777746693,0.027947969734186,0.1944854935406213,7.2168317722777635,-3.353949780802407,4.618326827559508,1143.3799732954499,1143.1854584576631,1150.5616007299718,1131.9253320798368,-925.729020348744,132.70261518252968,401.46373585137025,-12.648552432295112,156.37365576989305
57.87,-0.9758077711835196,0.1525459989829724,-0.4813438788465707,-0.010540375835276,0.0191567546520796,-0.0031235602753024,-0.0021205840359441,-0.005109116460035,0.8594318929544018,0.5112199603351406,-0.0661449713364727,-0.0699288767643708,9.919919448312141,-0.0157954468071622,0.0281286790572073,0.1947808748152415,7.216787804184307,-3.3540192311010206,4.618803491292618,1141.1281905565077,1143.2652114927755,1151.5036025724978,1131.9411618169274,-924.1494424394024,-70.99068552343857,340.3220696551294,9.638190891741559,156.37854814219483
57.8725,-0.807513237386363,0.0088291740845064,-0.2708809176522528,-0.0137885712878847,0.019278388604891,-0.0037702475270183,-0.0021366217522619,-0.0051137172433172,0.8594173797361188,0.5112442257726147,-0.0691678938065083,-0.0707963907709172,9.894648707245777,-0.0157924039294131,0.0283111368210422,0.1950205508693369,7.2167418238847905,-3.3540877332098065,4.619278643252891,1138.7592260832505,1142.8305050300455,1152.2632110782483,1131.9735230342956,-1027.4233294984035,-322.8727802731763,237.77937755679685,6.78028641464769,156.383389895557
57.875,-0.505011458695454,-0.1351153564353256,-0.0285960628299026,-0.0168530132203545,0.0184759600589891,-0.003566015239766,-0.0021532499012942,-0.00510750672659,0.8594027799240105,0.5112687450472209,-0.0725586920206303,-0.0713682296158219,9.869438084817569,-0.0158034006301396,0.0284961799588533,0.1952041574789468,7.216692760500131,-3.3541561044265804,4.619756143172188,1135.9910739090203,1141.650847591411,1152.6924994602807,1131.9750632490006,-975.7715690001313,-544.8153379107633,46.05169587698224,-9.117924484197935,156.38914937726088
57.8775,-0.1841694914017817,-0.2087452450327906,0.1589917746739068,-0.0182791900856505,0.0171847781236657,-0.0028649434286047,-0.0021740636937662,-0.0050929330231287,0.859390154750135,0.5112900123925,-0.076315901018316,-0.0717213665951062,9.844309448950929,-0.0158315566367224,0.0286807088513672,0.1953303581667328,7.216641161585043,-3.3542253915925344,4.620238086184773,1133.8803682382543,1140.1064283404944,1152.493469557633,1131.9279334118746,-780.9885416273216,-728.3279921251418,-214.59039330295968,-26.288125172764207,156.39391256183947
57.88,0.177279521186033,-0.2191746648126695,0.3340666742193504,-0.0182560213774692,0.0156565133125679,-0.002113270447364,-0.0022044516860149,-0.0050752657927532,0.859380463022659,0.5113063409378411,-0.080431107084811,-0.071998153785208,9.819285140170248,-0.0158795819550934,0.0288603308984005,0.1953968902393615,7.216587314480966,-3.354296242377327,4.620725111588527,1132.0861312008817,1138.0092076307835,1151.6195474937651,1131.8436226231368,-655.7884223343364,-918.3956693839568,-459.7868055703578,-33.848613871742565,156.39864483590415
57.8825,0.545485260018526,-0.1777275538450124,0.5052593802526926,-0.0170229577690953,0.0144662734189521,-0.0014437669727692,-0.002249781076303,-0.0050585020995526,0.8593750232066948,0.5113154522826378,-0.0849003631351022,-0.0723186656512646,9.794388942029382,-0.0159497983403925,0.0290315265001892,0.1954009615321248,7.216532205179072,-3.354369198989049,4.621216833373677,1130.6014261265807,1135.5144499935723,1150.19453552978,1131.7586903425158,-515.3963484035697,-1069.0364451623,-681.5053729359365,-25.33796118684708,156.4033560744331
57.885,0.892443873775635,-0.0872589999900037,0.6782981980913123,-0.0145557908235425,0.014043481211007,-0.0007610511530542,-0.0023066775791834,-0.0050429548001032,0.8593734418081764,0.5113180143626538,-0.0896032113970138,-0.0726542515827338,9.76964708294054,-0.016042033604116,0.0291943619126916,0.1953397774564134,7.216476620581752,-3.3544434745980998,4.621711635891864,1129.5091494588662,1132.664025404977,1148.2120206290888,1131.7169328172026,-393.30759192714936,-1292.6236733961312,-956.0990355754368,-0.1178033849100154,156.40804611109616
57.8875,1.2577301396814111,0.0531656739406716,0.8855602293972089,-0.0107096863892213,0.0139331093651691,0.0004367164992586,-0.0023702227363189,-0.005026800376297,0.859375387972853,0.5113146216567669,-0.0944105374863093,-0.0729277672558778,9.745087590351185,-0.0161556528961994,0.0293508080765366,0.1952112381898883,7.216421447483176,-3.3545180395087804,4.622207284153094,1128.634888166944,1129.0513316265883,1145.4140403519004,1131.7581013255913,-256.98155672649176,-1318.5774446298255,-1057.651436151268,32.171336877247,156.41365302770163
57.89,1.5098033927566907,0.1775161404711719,1.044677494639772,-0.0071513306273539,0.014005361429617,0.0020898511095352,-0.0024335737359974,-0.0050065393614056,0.8593795163784846,0.5113076037988302,-0.0991753613726944,-0.0730191714502054,9.72073967886721,-0.0162895389998644,0.0295045828615474,0.1950142893738064,7.216366820078794,-3.354591230012794,4.622701503879592,1128.224241675233,1126.0711381818246,1142.9237634483295,1131.8777895015887,-119.0844166208254,-1139.052240680884,-986.9431140042132,62.35379020741889,156.4183088668669
57.8925,1.7036551403055633,0.2847642855191108,1.1612561191154227,-0.0033795489751895,0.0146923091372533,0.0047649269742067,-0.0024859329494899,-0.0049793391172161,0.8593846659775503,0.5112989920552344,-0.1036775143284279,-0.0727856591191157,9.69663300761266,-0.0164407444811515,0.0296606780796652,0.1947490971356495,7.216312882310007,-3.354662979822982,4.6231933798426095,1128.0394660838404,1123.356070423189,1140.4793247818839,1132.069870276628,-67.046487400796,-1087.6587639215252,-1029.6612477172137,90.50299183700109,156.42294695038257
57.895,1.8665888177408168,0.364588208010026,1.2127758954134205,0.0015460332575599,0.0163292546092028,0.009156685810683,-0.0025219260404875,-0.0049487077139438,0.8593912748160041,0.5112880378438974,-0.1077259115238174,-0.0722493452075729,9.672795596361922,-0.0166061877211143,0.0298214400659933,0.194417258976032,7.216260695106061,-3.354734661517413,4.62368214643571,1127.8890092382287,1120.6328443622142,1137.775457209741,1132.330304460774,-78.21579768520314,-887.4888024692161,-940.3964338652904,87.36759021944714,156.42848927383184
57.8975,1.9407972575318533,0.3742706166008053,1.1594322414939733,0.0061557174166964,0.0178385277562902,0.013269977008159,-0.0025413262125276,-0.0049196358086779,0.8593982881549871,0.5112764614927096,-0.1112035241371864,-0.071512785671844,9.6492527402703,-0.016783847241443,0.0299877967339218,0.1940211591916405,7.216209935441993,-3.354807085459005,4.624167161981513,1127.6483870954144,1118.9186264108407,1135.777342612555,1132.5067082277255,-163.3384984947164,-561.4747211660974,-747.8832115213189,39.837676394645165,156.4330848245617
57.9,1.9461415177116803,0.3159249076614647,0.9966870415785865,0.0112994003319266,0.0190425240445417,0.0168852022061907,-0.0025458963088543,-0.004892019768614,0.8594051339058556,0.5112652132761438,-0.1140805140357357,-0.0706177374408725,9.626026363830256,-0.0169728555782293,0.0301619681573739,0.1935631190180546,7.216160575379311,-3.354880162698429,4.62464905889986,1127.072316745756,1117.8254707563863,1134.0360411521378,1132.5294928427472,-370.21693273467616,-349.1963274854275,-726.2339511386393,-57.182122180318245,156.43765042058527
57.9025,1.873240845839478,0.1673338233287659,0.6883125585283194,0.0174596229191259,0.0199756898595155,0.0201063576404683,-0.0025382066801341,-0.0048618088028187,0.8594109635189464,0.5112557453944011,-0.1163840953522773,-0.0695529416566171,9.603134338403224,-0.0171730791008516,0.0303470527099309,0.1930451116342819,7.216112267032528,-3.35495378166902,4.625129925958431,1125.79730243174,1117.1726447734127,1132.14617285686,1132.2207976168238,-578.4662081829306,-151.0516935262467,-679.7898105112996,-192.157987037528,156.44308579947796
57.905,1.754184785202402,-0.0179580894042233,0.3588803653965106,0.0221674033324154,0.0203203041982383,0.0218017163358097,-0.002520433902371,-0.0048249534036092,0.8594153088728445,0.511248874760419,-0.118140859983468,-0.0683070633288187,9.580590155272493,-0.0173839520777254,0.030545803518478,0.1924688955299868,7.216064928369552,-3.355028323946056,4.625611693856551,1124.17998570484,1117.0702122887546,1130.6370920995796,1131.568702907559,-756.0824742301122,14.695891214900888,-612.1367673402002,-363.50757800393103,156.44757240072747
57.9075,1.5917353875626834,-0.2595987894607785,-0.0109881613446373,0.0262494013689894,0.0202247441295953,0.0224272126621066,-0.0024949291288469,-0.004784147907856,0.8594178127272482,0.5112451661111003,-0.1193216263929849,-0.0669839303441778,9.55840273651968,-0.0176034592797071,0.030758117015755,0.1918366404643642,7.216018342692486,-3.3551029419828406,4.6260932780231805,1122.0168900605927,1117.2461242294871,1129.0854890201615,1130.4032597268056,-935.0192385547633,86.42878157015856,-637.2241312357723,-557.5798875587556,156.45200625088887
57.91,1.4092802731682428,-0.5400590239610076,-0.3842351423645432,0.0297345977271686,0.0197481463236403,0.0220066618042916,-0.002465412331898,-0.0047431204547894,0.8594180468030465,0.511245288332263,-0.119918573438815,-0.0657178971849148,9.536576291532944,-0.0178297149043448,0.0309825474099034,0.1911507624055936,7.215971661080823,-3.355176463318029,4.626572277928773,1119.5048895120635,1117.5023561966057,1127.450971443399,1128.780803469764,-1048.9196844288563,87.39021306696563,-672.3879099070216,-752.6847898654764,156.45639007162407
57.9125,1.2219972967750334,-0.8524365453158571,-0.7232963451515774,0.0325968894717558,0.0187673354331004,0.0202129749941341,-0.002435068836082,-0.0047023884505387,0.8594178735763258,0.511246091193225,-0.1199559640923877,-0.064583435231708,9.515110654804243,-0.0180607524884006,0.0312181025652289,0.1904136512324183,7.21592459934693,-3.3552496723903356,4.627047831396457,1116.772291638446,1117.683075294822,1125.723549470625,1126.6398357774765,-1192.3649677144042,25.75350825147848,-763.7072033461335,-1036.9758031459123,156.46070578452913
57.915,1.012805451212307,-1.2334352477162451,-1.0460574023169342,0.0354460864344993,0.0167337941567703,0.0166468020297873,-0.002404514853756,-0.0046572362932999,0.8594180814158968,0.5112462910467659,-0.1194773746834318,-0.0635422400664774,9.494001824198547,-0.0182944919869722,0.0314649642075325,0.1896273527177325,7.215876672037238,-3.3553240829681297,4.627521018032303,1113.5430646734972,1117.6311237378627,1123.632435426672,1123.595924454039,-1131.72459347444,-82.05756557750087,-749.1806919822726,-1168.7755714755826,156.46579560573218
57.9175,0.8630773974397381,-1.5229608371618675,-1.2214536003958507,0.0371782885794759,0.0138107972345052,0.0127297774948468,-0.0023727733726958,-0.0046045262919834,0.8594195551132898,0.5112444363402939,-0.1184959085218753,-0.0625629851841762,9.47324251147771,-0.0185275254851703,0.0317221757487248,0.1887939178617187,7.215827305937379,-3.3554018946129647,4.627993223441221,1111.1136686710709,1117.2727874669345,1121.9776460107116,1120.7959579200956,-873.9050985721027,-219.35464770474627,-618.1201721191903,-1139.5580118968237,156.4699552249101
57.92,0.7460402438282454,-1.7345820859911987,-1.2891085248606835,0.0382121995219801,0.0092300457266158,0.0085095088950949,-0.0023376626354783,-0.0045504677914434,0.859422740733239,0.511239728503794,-0.1169261119701923,-0.061749952197694,9.452823042719341,-0.0187539658732279,0.0319852580892394,0.1879160040664585,7.215776472211789,-3.35548402172867,4.62846328787131,1109.1735391806344,1116.5343504993386,1120.5418345660744,1117.898134394552,-709.5462834653604,-411.2705844886125,-560.87737380859,-1259.69874198091,156.4740204233133
57.9225,0.6371831715566748,-1.845500947020932,-1.2589342591770283,0.0395972582810029,0.002321283183753,0.0041949992831479,-0.0022978696023061,-0.004500907300028,0.8594270068034645,0.5112331802284573,-0.1147123081885719,-0.0612031863291795,9.432731909061799,-0.0189684096462844,0.0322493210400028,0.1869962204527734,7.2157242426997055,-3.3555695641981953,4.628929019251017,1107.5659372537473,1115.2164345444933,1119.1732591416712,1114.4974642101968,-463.2014403630269,-546.1812216366914,-439.1170071340212,-1211.434136756196,156.47877883265167
57.925,0.55868104670966,-1.795230266243158,-1.1628880749896957,0.0415616926243653,-0.0038653981269981,0.0015493277583449,-0.0022535384780019,-0.0044569092722401,0.8594331090355994,0.5112235093115329,-0.1118796125126426,-0.0609514301435038,9.41295680823131,-0.019166961156833,0.0325109276077704,0.1860366395125171,7.2156711317270625,-3.355657424225247,4.62938972501642,1106.857531978818,1113.8034443911536,1118.3462495304032,1111.840963710768,-165.71504788235575,-613.5102901333584,-275.52177243055206,-1006.710449239366,156.48263741656174
57.9275,0.4764055817965263,-1.5965467233355972,-1.0216010188004503,0.0441637198196893,-0.0096573277785518,-0.000319737093598,-0.0022039238993016,-0.0044144218378953,0.8594408651629781,0.5112110613096192,-0.1084977764849515,-0.0609251233245028,9.393486344193558,-0.0193470440545262,0.0327687300689692,0.1850384295093027,7.215616985194411,-3.3557470838649026,4.629846742926915,1106.737362014335,1112.148883093825,1117.7956502795175,1109.4639119639971,44.23056886843754,-761.7006744159532,-203.1676064401865,-970.66428937098,156.4863783255321
57.93,0.3742962453775123,-1.2239549422661045,-0.8223154945339834,0.0467432028119436,-0.0149712852794339,-0.0022004651015434,-0.0021493762471302,-0.004368689268921,0.8594493670519566,0.5111974034219027,-0.1046691911428897,-0.0610474485680779,9.37431149034783,-0.019507296080579,0.0330218666455162,0.1840019168329715,7.215562495495214,-3.3558382765118475,4.630302734812089,1107.07868482316,1109.9949410190775,1117.3304114982031,1106.9876422639175,166.8793179047553,-803.950966341879,-160.55821829259884,-845.3122244669653,156.4907251312184
57.9325,0.3049118287957957,-0.848726238215267,-0.6382479138577851,0.0476935470078483,-0.0174517116994093,-0.0038126391890609,-0.0020898309932473,-0.0043211030119216,0.8594593673107482,0.5111812565523352,-0.10043702673367,-0.0613299438525965,9.355427422336335,-0.0196455981230247,0.0332683859053483,0.1829271230118718,7.215508993684579,-3.355930875395353,4.630757967405269,1107.5717586038593,1108.1291282621135,1116.9928591880544,1105.2373508416604,189.21587627696093,-750.6307982933118,-151.4758073029632,-643.741785372902,156.49422546922278
57.935,0.2845655109204349,-0.4707196752931405,-0.4369553824870097,0.0471023505321599,-0.0178674773486747,-0.0055989064536254,-0.0020272823263874,-0.0042756268338013,0.8594701192924379,0.5111638315190292,-0.0958582870801288,-0.0618389457120429,9.336834705062968,-0.0197611046853348,0.0335056942302879,0.1818137118951976,7.2154564450252305,-3.356023147975554,4.6312107357232,1108.0247642045451,1106.241787027609,1116.573032461688,1103.7689333370513,139.3548840288889,-755.8453888315905,-198.1646043809616,-552.2054996825339,156.4975963995711
57.9375,0.3232169925069161,-0.1320346531938653,-0.2242789300852323,0.0458141636225784,-0.0168485651096136,-0.0072475888275037,-0.0019649446998592,-0.0042337924653268,0.8594813167545589,0.5111456159181395,-0.0910359712750754,-0.0626071297966941,9.318540759884431,-0.0198547107135321,0.0337322762701555,0.1806607439622727,7.215404987628475,-3.3561132145457204,4.6316592755051404,1108.268533024003,1104.3499013179587,1116.0020361661504,1102.4763233432502,16.272249871705093,-758.1835046764429,-276.5489913604384,-491.68131642362977,156.50085891784875
57.94,0.4305932279383433,0.1309322474534705,-0.0114343638507529,0.0451772132465711,-0.014726193653892,-0.0078707899294242,-0.0019040990628287,-0.0041935061477398,0.8594913218388972,0.5111293760693739,-0.0860779539192726,-0.0635856539688032,9.300561322459856,-0.0199283711288651,0.033948195615217,0.1794665075098284,7.215353545426287,-3.3562004726644847,4.6321037461925805,1108.1061254539038,1102.4508695042302,1115.190287504887,1101.3105267549352,-183.59524918737108,-836.8324336034941,-414.1621242245192,-504.2718653851047,156.50399052876858
57.9425,0.6017712474760337,0.3604943437459513,0.2155926386227645,0.0461919280038572,-0.0122140571589946,-0.0068017580072856,-0.0018457507723199,-0.0041509483338521,0.8594984559170384,0.5111179635044355,-0.0811036454720429,-0.0646913640624423,9.28292114500771,-0.0199847598982128,0.0341539596763707,0.1782285001812985,7.215300756362954,-3.356285480705444,4.632545410613235,1107.3505567780655,1100.165739149939,1113.9312255450268,1099.9549640163234,-367.5387522952344,-835.6359500272266,-500.5969565927157,-500.8606912973103,156.50759806220452
57.945,0.7391183291097203,0.5066823863738165,0.3623699772063889,0.0485371356952176,-0.0112241730016346,-0.0049539511605806,-0.0017929483073967,-0.0041029387356206,0.8595036842172405,0.5111097690588607,-0.0762568907845128,-0.0658671391261183,9.26565423100912,-0.0200267638440097,0.0343494049819575,0.1769435530193197,7.215246604486856,-3.356369539448623,4.6329851063315,1106.2684316924267,1098.272689754092,1112.687302721922,1098.8062232984475,-507.0813769098159,-746.7155292399153,-520.0171572891304,-469.9209393733508,156.51048017442383
57.9475,0.8258854376102742,0.6499193083423273,0.4580816497887421,0.0517683425949904,-0.0116628567446925,-0.0030853088297255,-0.0017465063148405,-0.0040435343985291,0.8595081518352464,0.5111029118668216,-0.0716690215870675,-0.0669881553877526,9.248804036693034,-0.020056793177304,0.0345353046565965,0.1756076824832759,7.215191353375667,-3.356454496359272,4.633425196232631,1104.8151498935188,1096.4321615037431,1111.3311397585835,1097.6053593194588,-689.0611442192152,-783.6313347910702,-598.2992867736025,-540.0478218286446,156.513235189788
57.95,0.8414807658297199,0.849522969972895,0.5271290737936497,0.0557452982302966,-0.0124273724909331,-0.0013142499387307,-0.0017056128946156,-0.003967368331007,0.8595136460451119,0.511094432023094,-0.0674362033975118,-0.0679219265333799,9.232422484828115,-0.0200761943677213,0.0347123441727889,0.1742167431761817,7.215135397825267,-3.35654177905413,4.633867288276255,1102.8231259713289,1094.3545330801346,1109.6958062880526,1096.1059841893027,-742.164218941691,-727.4530959082227,-584.7706229076458,-555.8714865469823,156.51639681209787
57.9525,0.77760934053711,1.0314445849621459,0.5643934132035044,0.0586674189866634,-0.0118249832835208,-0.0002473496835148,-0.0016705949915638,-0.0038769203180489,0.859520458480893,0.5110838144686578,-0.0635944256118839,-0.0686705560564186,9.21656788667536,-0.0200852235508262,0.0348784745184761,0.1727676841484523,7.215078568300971,-3.3566320538386796,4.634310480223577,1101.1043287988086,1092.7948960242,1108.4072866440436,1094.8260018867225,-667.3158307117477,-572.2317778199088,-486.3694493728293,-512.1601302948529,156.518913321414
57.955,0.6494392759128192,1.1865430514034494,0.602403207104134,0.0606837837709822,-0.0089749646173103,0.0005727970728561,-0.0016415579264904,-0.0037782622340833,0.8595272888014251,0.5110731930059891,-0.060137817178876,-0.0692903958570253,9.201302781460788,-0.0200837247101909,0.0350307434478672,0.1712589513430273,7.215020414141249,-3.3567247736866994,4.634752432897608,1099.4865468177732,1091.4933741910377,1107.2639590411907,1093.545183537831,-660.4140450119562,-496.54341958127645,-464.88167523901984,-554.869033795865,156.52131008211464
57.9575,0.4529036671881053,1.276821498484352,0.6656180937248102,0.0617744635146949,-0.0032715481231579,0.0015286484946239,-0.0016179413685946,-0.0036772310230351,0.8595333394696781,0.511063859588123,-0.0570472033254344,-0.0698281377481118,9.186691264048719,-0.0200716756396357,0.0351669874063461,0.1696907090880044,7.214961240860881,-3.356818417528673,4.6351901881940565,1097.8022585737472,1090.3121789262923,1106.0828782678475,1092.0516567177417,-561.644090119975,-361.427476020887,-407.2713175447652,-532.3776383524552,156.5240515567347
57.96,0.2759071711936574,1.2389992906642595,0.7360685263483657,0.0615468479148743,0.0023440130998246,0.0024270313939813,-0.0015975526500943,-0.0035767691388499,0.8595372636536962,0.5110580559128419,-0.0542993715589661,-0.0702713383715032,9.172795954264547,-0.0200496595078429,0.0352869143809371,0.1680647914488377,7.214900921997355,-3.356911159844087,4.635622088547726,1096.6783263671718,1089.6862368109323,1105.2276024534658,1090.8832953460671,-383.1850309620524,-172.41456433814383,-333.1593376963002,-440.12463615071294,156.52622696434
57.9625,0.0990014075172473,1.0814242039282456,0.8162726656208503,0.0607377841202296,0.0074164767847741,0.003667923005876,-0.0015769752151469,-0.003480209617738,0.8595388104046869,0.5110561801346076,-0.0518422738965506,-0.0706058939824433,9.159674446950035,-0.0200181222082677,0.0353912976277424,0.1663848247091072,7.2148393781470785,-3.3570015843532417,4.636047925681676,1095.8863334189386,1089.4501061046024,1104.4170815793675,1089.85103353699,-259.7696946960276,-32.3445541324707,-334.63376107621275,-381.3950748024904,156.52829301315958
57.965,-0.0823199355450521,0.8538673647947788,0.889243246395199,0.0602249202410344,0.0109535890199534,0.0055529610522865,-0.0015560060928882,-0.0033909025065922,0.8595399709221045,0.511054845480876,-0.0496681976155447,-0.0708531618854252,9.14737600671888,-0.0199782851878414,0.035481436994292,0.1646559166467602,7.2147776946656625,-3.3570898167124548,4.63646703594654,1095.379477893691,1089.5245140402699,1103.554433648084,1088.976319972054,-136.136704713293,95.38868170470445,-377.2753451094448,-303.00416164543964,156.53027154158733
57.9675,-0.2877926004899579,0.60369980891279,0.9293976502743184,0.0602540610949641,0.0119063060106634,0.0083425942454304,-0.0015358158013248,-0.0033109791618978,0.8595423704426433,0.51105128374239,-0.0477960242667628,-0.0710343526099501,9.135938805541274,-0.0199318493958377,0.035559540004126,0.1628842028210705,7.214716996176115,-3.357176672177383,4.63687903362952,1095.2056498953718,1089.9270495131263,1102.530704853819,1088.336012728762,-8.469438571827112,234.291087392998,-501.86728450085127,-221.78938433860077,156.53214862570323
57.97,-0.5859005528967332,0.3587481377529232,0.9141704814418774,0.0603943684704175,0.0104739451328453,0.012277443857086,-0.00151756006923,-0.0032410275512125,0.8595475623176028,0.5110428574825534,-0.0462523582966251,-0.0711534135734028,9.125387569218,-0.0198804126133782,0.0356288523461245,0.1610764200180897,7.214658798604563,-3.3572631629767873,4.637284317831384,1095.337130700832,1090.6959694772338,1101.045097225582,1087.867373050362,93.33190412075736,312.2474248330258,-587.0859466929412,-123.0305680098634,156.53428946215675
57.9725,-0.8830149337878759,0.2380924073738554,0.841995784958224,0.0602365150667346,0.0083308824550582,0.015424178148385,-0.0015005734917864,-0.0031793303449706,0.8595549268582773,0.5110306043413304,-0.0450504737258024,-0.0711687699097886,9.11573186462282,-0.0198254097873818,0.0356936646088111,0.159239470304731,7.214603406740502,-3.357350005739255,4.637684396561938,1095.6723094159759,1091.4882866372923,1099.595275120353,1087.7208598887123,161.08086973764276,324.59956315648685,-610.7375976101653,-15.443234724845126,156.5359847624298
57.975,-1.2148774199445087,0.2049642331012932,0.7179478525585012,0.058947977311799,0.0069734734551561,0.0177760468287533,-0.0014844208684312,-0.0031256865555271,0.8595634509163795,0.5110162180154254,-0.0441871869879213,-0.0710725819181422,9.106964736050546,-0.0197679985682997,0.0357576764525455,0.1573805109719331,7.214550096105402,-3.3574369377700415,4.6380799391599625,1096.1425350495203,1092.318967293017,1097.9914092375295,1087.7901568767377,208.9834736707953,344.24459774908814,-713.6694141313579,66.02885177791543,156.53759338275077
57.9775,-1.605632352726281,0.2177723137034407,0.5367829356470357,0.0551930196320865,0.0073804141036353,0.0195332081692061,-0.0014682818359501,-0.0030808269417952,0.8595735176175757,0.5109990471864733,-0.0436390687140513,-0.0708754001651737,9.099062423257292,-0.0197089603499106,0.035824087170169,0.1555068203433139,7.2144981663300785,-3.3575234635092808,4.638469493411057,1096.717226784329,1093.209509626036,1096.0269280496996,1088.0510041476018,189.3846404848259,286.9434560936394,-702.3188684943352,112.83645686534012,156.53943012395183
57.98,-1.8799145310114596,0.2224609442720752,0.3823476286310875,0.0503356023840314,0.0094270875628538,0.0202573643324034,-0.0014535798440268,-0.0030444166560785,0.8595844078372225,0.5109803095708058,-0.043422516493161,-0.0705983293469659,9.09198495823756,-0.0196502002573408,0.0358952699151494,0.1536255121245888,7.214446226140014,-3.3576089207053594,4.63885140664213,1097.0894582519452,1093.753684573486,1094.479814895056,1088.3543391610647,101.55937758872176,154.59485059624333,-571.4827748473713,124.23565214483472,156.5408877634505
57.9825,-2.051367928430076,0.1732003081007882,0.2486480595021977,0.0443452097887951,0.0122867061832984,0.0204761920210549,-0.0014403069783454,-0.0030166054492993,0.8595957337255926,0.5109606920523247,-0.0435221904807771,-0.0702619689015753,9.085677292532157,-0.0195932722529423,0.0359728910259522,0.1517433263403881,7.214393406335539,-3.3576927988233978,4.63922487081728,1097.2250236722728,1093.9824838790175,1093.1695141754612,1088.6721824083263,-14.31820952954178,13.026434274855117,-497.1559111274447,128.71776032618865,156.54227581049432
57.985,-2.101857073172121,0.0374678016005692,0.1308534991640218,0.0367934249275699,0.0149085118886918,0.0204331231274119,-0.0014279697966161,-0.0029981540999289,0.8596094160188911,0.5109370296591519,-0.0439051894062884,-0.0698958607782568,9.08007126167228,-0.0195391818042021,0.0360578143914977,0.1498661438198,7.2143399028806305,-3.357775774138625,4.639590164822706,1097.0178672042975,1093.8188167448602,1091.994035339421,1088.997927962695,-141.08447006153312,-134.33939284661795,-356.57825880202785,103.72485061179,156.54386807732567
57.9875,-2.0063405952215327,-0.1194036677793137,0.0748086981849177,0.0306889585034786,0.0155781702831661,0.0202951808624949,-0.0014155834493953,-0.0029869626365798,0.8596266827197254,0.5109073877421838,-0.0445537329371753,-0.0694825035010717,9.075088475150087,-0.0194891653924935,0.0361507533605234,0.1479981624959133,7.214285608369245,-3.3578586817029854,4.63994846863458,1096.5196013219647,1093.3107869147843,1091.38662288145,1089.1908066613855,-257.18358215508965,-270.3408529760945,-169.37693772379563,60.59656483131759,156.54513880464
57.99,-1.779208160600441,-0.2753729899786597,0.06307313861009,0.0251415767023688,0.0143942651526073,0.0201753818175192,-0.0014036725548028,-0.0029798896973351,0.8596469236674886,0.5108729860323616,-0.0454800708968308,-0.0690027876723442,9.070643322492705,-0.0194449614973099,0.03625142800564,0.1461416143441938,7.21423000222641,-3.357942188359543,4.640301120830787,1095.7319492935214,1092.467112479979,1091.1471506508017,1089.3009107868515,-347.33449810937356,-378.0973473967407,-46.92987279204038,36.40591349361458,156.5463569954652
57.9925,-1.4654537416646292,-0.3945482352320913,0.0842889840595964,0.020434618155807,0.0119464190072458,0.0201317719588101,-0.0013941108253602,-0.0029762469525822,0.8596678636275242,0.5108378975830213,-0.0466922340725152,-0.0684876140515309,9.066646155538272,-0.0194081719924359,0.0363578768927197,0.1442968054777944,7.214172415571173,-3.358027016614004,4.640650071165681,1094.7829288314194,1091.4203001778023,1091.1519735174902,1089.3728362288534,-394.17174102098056,-443.47248830404226,38.62793147152686,33.05767165209673,156.5475357637424
57.995,-1.0884162878303083,-0.4435490666454238,0.1369219207966191,0.0170835245026614,0.0089700184711429,0.0202306156361406,-0.0013870632355832,-0.0029723670285423,0.8596866281968656,0.5108073000634827,-0.0481974143739974,-0.0679037883863031,9.063007098094708,-0.0193801756807124,0.0364686270109106,0.1424616742334073,7.214112210281043,-3.3581132009377046,4.640998152957051,1093.7610905884155,1090.2497500384577,1091.3402903081594,1089.4661991451123,-434.8733205692546,-510.69279591121153,95.32108975426705,66.82777933043545,156.54867181250907
57.9975,-0.6263041729974435,-0.4236441594448174,0.2220590859762782,0.0150148172783603,0.0063752331088538,0.0205536546095646,-0.0013834917560966,-0.0029649437533198,0.8597013668987423,0.5107847140176438,-0.0500107440671842,-0.0672286797751482,9.059638958141052,-0.0193620314997121,0.0365819431542983,0.1406324314436943,7.214049785269356,-3.358199904418325,4.641346680770734,1092.608562228572,1088.8668361982448,1091.6285789662616,1089.7069751255056,-391.00567945028246,-482.58509341497535,99.72942248054979,123.32553602779927,156.5499916560652
58.0,-0.2796431691861671,-0.3649801964791016,0.2986091357161655,0.0150471295153447,0.0055973641316182,0.0209967396325486,-0.0013857461692472,-0.0029551754983431,0.8597131314012326,0.5107687939482913,-0.0521267285696196,-0.0665197950137817,9.056459596718339,-0.0193537098216889,0.0366952433836957,0.1388045455943114,7.213986710426641,-3.358286595669409,4.6416948296886815,1091.806062191166,1087.836824571385,1091.8389374205617,1090.0828268252508,-273.2209032117437,-369.66977379290233,71.77703651970822,194.68341665341967,156.55105951955684
58.0025,-0.0159661247687789,-0.2985230396336308,0.3631535852078747,0.0162984247251286,0.0060452769507847,0.0216999261052078,-0.001393337622738,-0.0029399711045259,0.8597226116436917,0.5107588537751546,-0.0545353198685225,-0.0657384303406753,9.053394404239617,-0.019354770411421,0.0368077759555301,0.1369726968337334,7.213923515230043,-3.358373859456204,4.642042180281789,1091.2424577125144,1087.018487329282,1091.98746414886,1090.680392208772,-187.99967980939456,-303.8035427697006,63.51776489874671,306.0742046802969,156.5520989908211
58.005,0.1831162147794712,-0.2367272761304353,0.4034168651677766,0.0181736739240339,0.0068038896573115,0.0230959326262733,-0.0014038446822179,-0.0029152938201337,0.8597317230062907,0.5107521111537298,-0.057205425562982,-0.0648105114532233,9.050377171620509,-0.019363907041361,0.0369197997605737,0.1351316939517178,7.213860854241962,-3.358463032192444,4.642389244919798,1090.8660637921184,1086.3178068575355,1092.1565262450556,1091.613197848653,-93.00717033465632,-212.6303969268796,79.54077060626811,359.38113816282373,156.55331921381443
58.0075,0.2561432669063677,-0.2020898604272274,0.3900382771724115,0.0195707422764974,0.006588779573953,0.0247544471946941,-0.0014150537610459,-0.0028850361809329,0.8597430276044477,0.5107445101875518,-0.0600363697428217,-0.063784898210516,9.047349950735937,-0.0193785051513885,0.0370302015788034,0.133277839399903,7.2137995414368445,-3.3585540894197194,4.6427344729582,1090.777421860841,1085.9553353446472,1092.3851680018915,1092.477297899587,-2.39398018579995,-109.88032079827452,135.94129627361866,330.6643486931359,156.554317742079
58.01,0.25714961914841,-0.1737969815979766,0.3169144823773048,0.0204961872642447,0.0053748651237299,0.0265790853557633,-0.0014243216295886,-0.0028550339265736,0.8597580255084057,0.5107335193371727,-0.062903378235577,-0.0627347953872806,9.044263079867468,-0.0193959216873873,0.0371378964914,0.1314089474699101,7.213740049771683,-3.358646244469909,4.643075363302012,1090.8540938911895,1085.7684052535449,1092.836232726423,1093.2665195921172,44.94480127038943,-58.104369574646,232.6710006774366,275.9947095955747,156.5553025548677
58.0125,0.2244675008450415,-0.1445194016233151,0.196426193399957,0.020949056176785,0.0040544968167338,0.0280749381508904,-0.0014298168368675,-0.0028282754844359,0.85977721800669,0.5107178403318652,-0.0657209365762611,-0.0616954396375168,9.041074457984568,-0.0194147149952987,0.037242635292587,0.1295241848440682,7.213682319784253,-3.3587393140065287,4.643409904534668,1091.0021458671931,1085.6648134967738,1093.548523005279,1093.8572714475656,60.32257843413942,-39.77941024347968,353.6743341419888,160.3626512345816,156.5562800874467
58.015,0.1839647538583403,-0.1191017588664054,0.0353894633448579,0.0209506172399356,0.0033123569620418,0.0287917649775025,-0.0014267257589993,-0.0028052217374907,0.859798027130401,0.5107007317651746,-0.0683805066210893,-0.0606349313306167,9.037748395257447,-0.0194342860193814,0.0373450575510427,0.1276239814910017,7.2136247847260515,-3.358832625018151,4.64373648423955,1091.1557067833603,1085.5695082023271,1094.604604397134,1094.0683328482903,49.65889835198109,-65.20434198552284,530.3303288185183,-15.881736597762828,156.55725394908467
58.0175,0.1620893224108004,-0.112330572735829,-0.1710291464262071,0.0205732450005589,0.003373981350891,0.0285634977635101,-0.001412402728178,-0.0027852776065295,0.8598171925680448,0.5106856743237433,-0.0708165490879123,-0.0595254606282295,9.034254165074486,-0.0194555824870739,0.0374457168077493,0.1257098113057147,7.213566268153001,-3.358924704906141,4.644054476164277,1091.2504403589528,1085.3387917868463,1096.2001746493695,1093.7778627645769,7.410957510952205,-120.2881271443242,615.04985241127,-197.73416392303153,156.55842513146015
58.02,0.1836975430395034,-0.1413065103640978,-0.3264519590254534,0.0200594157617796,0.0040375295122217,0.0274806768159035,-0.001388006206029,-0.002767746334205,0.8598340131025605,0.5106706796563181,-0.0730226114577361,-0.0583736799073331,9.030564836082142,-0.0194806869734751,0.0375449023366508,0.1237837528470616,7.213506440908872,-3.3590147909046695,4.644364033921182,1091.192761570915,1084.9680675666054,1097.6798536591918,1093.0796620286749,-63.17214175243359,-197.2515336115876,582.4357802989856,-356.7747955632506,156.5594083313599
58.0225,0.253866168652615,-0.2131612921194868,-0.4363606552822451,0.0198776728862982,0.0046647780608796,0.0256953078796875,-0.0013525953114901,-0.0027495479269457,0.8598460428742634,0.5106552040843019,-0.0749805940172615,-0.057131513665782,9.026656824303512,-0.0195121127586522,0.0376435808103605,0.121847710535972,7.213444501259177,-3.3591024541307006,4.644666486686032,1090.9345796501905,1084.352534118788,1099.112353550866,1091.9939887867597,-167.05080787957473,-326.74136554021675,570.804687405617,-529.4014467474238,156.56040515843702
58.025,0.3854987731340199,-0.3360317626300992,-0.4972325551482615,0.0205313016577612,0.0044164125812904,0.0233574016950524,-0.0013057563659457,-0.0027266186026466,0.8598519755914628,0.5106384116311407,-0.076688773479485,-0.055742595206325,9.022509460615224,-0.0195525278347774,0.0377428936794187,0.119903103555355,7.2133798125707935,-3.359187950133381,4.64496366957647,1090.357507531518,1083.3343607389058,1100.533877096217,1090.43265479494,-255.61004854831137,-409.6099648105061,442.93344820571366,-581.7220988130637,156.5616236123488
58.0275,0.5219971415300813,-0.4490415735563887,-0.4872771209715159,0.0217794661875735,0.0033848832688417,0.0217086826142554,-0.0012510710437143,-0.0026978834615712,0.8598549277048304,0.5106193529234055,-0.0781794782910375,-0.0542361007314556,9.018104887333411,-0.0196043573068844,0.0378431042270231,0.1179509937327604,7.2133133416531985,-3.3592720472400015,4.645255748104333,1089.6565294074483,1082.3044842947345,1101.3270207918956,1089.085378292693,-318.89409281404426,-430.763403655608,214.20059305758468,-509.0477378356024,156.56266142588223
58.03,0.6710470147670228,-0.5465962718006927,-0.4233905283585813,0.0235860568158424,0.0019890237321371,0.0205780697757083,-0.0011937660860155,-0.0026592733884217,0.8598579838816625,0.5105971046653677,-0.0795385466867955,-0.0526128730940021,9.013428666700536,-0.0196697557331646,0.0379451935660488,0.1159915063640186,7.213246434362131,-3.359355819359873,4.645543826653998,1088.7630370674467,1081.1805437206267,1101.6048800615058,1087.8874161057608,-423.2140875704528,-496.43225706576817,-6.989713851459773,-457.5473847678564,156.56372604458292
58.0325,0.8525101592107245,-0.6181703987302035,-0.3003169008633591,0.0259757958649798,8.214258408658463e-05,0.0197521997140309,-0.0011410261721763,-0.0026077430217415,0.8598633291579073,0.5105708694243386,-0.0808741798169145,-0.0509109752778689,9.008470372602925,-0.0197499719224322,0.0380500398616964,0.1140242400635933,7.213180475754765,-3.359440968671304,4.645829550592085,1087.540458969598,1079.822323009408,1101.2920722226384,1086.7976413688557,-460.3827909821949,-491.75322281109703,-222.0850042329176,-327.7462528976372,156.56503724169912
58.035,1.0011390140780743,-0.6224769305634836,-0.1697053631339722,0.0279143225875972,-0.0017736625431048,0.0193899533087109,-0.0010956089997065,-0.0025483033849796,0.8598716849643948,0.5105411685359612,-0.0821546100824261,-0.0492559606758284,9.003224734618307,-0.0198434457997811,0.0381577504112543,0.1120490787657198,7.213116430840195,-3.359527852895403,4.646111949262475,1086.4611231125348,1078.72177760657,1100.4944550403407,1086.2486848412718,-427.5212228365576,-432.5646530478086,-423.50167077403216,-144.83423030362113,156.5661589557135
58.0375,1.1408100958908327,-0.5533594472229855,-0.0192227287831296,0.0299453198435057,-0.0040142177614407,0.0192499944380136,-0.0010590020794317,-0.002488222328946,0.8598831994651653,0.5105086488256285,-0.0833117743202807,-0.0477997049611798,8.997692482658973,-0.0199473516684796,0.0382684432081902,0.1100659884552052,7.213054418906196,-3.3596157934440574,4.64638862378187,1085.402852855414,1077.6594997441675,1099.174563868767,1086.0734702173372,-407.3839405718512,-420.3627514628992,-604.6908560854761,-19.609065805179497,156.56731090088965
58.04,1.2636327074880167,-0.418699983740791,0.1427879886878892,0.0323852317369957,-0.0064826413297458,0.0192635072831234,-0.0010320739914463,-0.0024323306523617,0.8598997083708871,0.5104705171037502,-0.0842954751769273,-0.0466530559006926,8.991881165360436,-0.0200582470655291,0.0383830505410153,0.1080746811210537,7.212994717143072,-3.359704676053231,4.646658604110661,1084.4242034096771,1076.6199638492571,1097.471000759916,1086.150639512246,-358.9290050912024,-409.93341689119853,-755.3139508960387,67.55061805421246,156.56848713372923
58.0425,1.3477590474727283,-0.2155787886582175,0.312395503111541,0.0357127755720982,-0.0086262876821242,0.0195141015472648,-0.001014722786756,-0.002382235057813,0.8599213240295666,0.5104264880591394,-0.0850760707352164,-0.0458701480324145,8.985805957694083,-0.0201728702098057,0.0385029396539372,0.1060743792184185,7.212936658892542,-3.359794617798511,4.6469222266591395,1083.608207829957,1075.6098326597107,1095.3979941142848,1086.4112233076085,-307.9479998702725,-429.7506034856799,-964.0202877902608,120.47403697909633,156.569690779672
58.045,1.378982063160334,0.0674345203205105,0.5121957824860807,0.0406508712805941,-0.0095425110780957,0.0202629881528876,-0.0010045599111848,-0.0023370504133217,0.8599473564925229,0.510377404506413,-0.0856177489139791,-0.0454467197839078,8.979490521673798,-0.0202879227319911,0.0386297055789268,0.1040636497945091,7.2128793323544125,-3.3598857918937446,4.647180380944812,1082.8844634103252,1074.4712108318279,1092.6508993209623,1086.7530096971418,-215.90837932791683,-394.5759728371691,-1020.1752431398928,104.78833765724156,156.5711639199228
58.0475,1.3362170697219424,0.2929071886271958,0.6617228614783062,0.0448099976735627,-0.0084897824854445,0.0214329047838671,-0.0009950911304729,-0.0022944366313501,0.8599777660129727,0.5103229201032277,-0.0858409573838413,-0.0453182063807669,8.972967857539606,-0.020399648364739,0.0387650951215794,0.1020403335270161,7.212822965058762,-3.359977985072906,4.647432893900169,1082.5286659333185,1073.6369527955267,1090.29711789859,1086.935164995894,-85.7923475296063,-294.7785041424451,-915.5027086659038,26.92066826096821,156.5724134145361
58.05,1.224226736966897,0.4568525444812276,0.7722908340884792,0.0482138063648459,-0.0060338012965053,0.0233349447416988,-0.0009821844037675,-0.0022489269308734,0.8600115522605175,0.5102642955246265,-0.0857374531063546,-0.0453920332421191,8.966280573698825,-0.0205056009286553,0.0389103497743801,0.1000013444538317,7.212767692116861,-3.3600712482922233,4.647680940837668,1082.4555016726767,1072.997318311115,1088.0733857776304,1086.8876130384467,36.044360408986655,-221.16506883764995,-906.0537360991389,-94.1405004038616,156.57368324979996
58.0525,1.0255651687402656,0.5466325817793593,0.834880975835745,0.0512320033713645,-0.0024474203131153,0.0263878276670852,-0.0009646178148547,-0.0021964511198632,0.860046550583539,0.5102047729177832,-0.085336587917241,-0.0456207863602838,8.959481266872874,-0.0206044275820239,0.0390652382202147,0.0979430869584853,7.212713294908262,-3.3601658956313876,4.647926143543312,1082.7088877353635,1072.5311274513379,1085.766849218092,1086.4644624938746,149.89796472327717,-113.72511044438735,-761.9995627168573,-224.86799011696792,156.57522797759438
58.055,0.8191896424880847,0.5296116809736003,0.8159719215569484,0.0529773622109145,0.0002850582370799,0.0292352475904668,-0.0009384197501264,-0.0021382279744993,0.8600796910020243,0.5101491629640797,-0.0845816652876322,-0.0460085198048581,8.95263279693284,-0.020694671532309,0.0392279521521662,0.0958619821059137,7.212659025667242,-3.360261255852433,4.648168207969427,1083.2049914962927,1072.4286927588935,1084.2633879640496,1085.763273087863,254.4859764283109,20.717427788339,-499.8115342912287,-354.469526432286,156.57653089769565
58.0575,0.5801128367538079,0.4409858020488951,0.7207419784807103,0.0544114530856693,0.0018705610929897,0.0319420038234232,-0.0008999080176517,-0.0020726863733115,0.8601080300836071,0.5101021506200328,-0.083449816673949,-0.0465122098547639,8.945807469016206,-0.0207761061403175,0.0393962294954768,0.0937540916131734,7.212603297491229,-3.36035639330077,4.648407535409795,1083.9813176175055,1072.6347145902796,1083.2677915466347,1084.6921148617123,396.1577848344652,157.3409725744673,-321.7987568106937,-544.7584737193607,156.57784803355003
58.06,0.2594760614984211,0.2989593442102673,0.5336995675626314,0.0560278590322378,0.0022535896766345,0.0345577519646636,-0.0008501568053637,-0.0019978665052274,0.860129862076097,0.510066400307824,-0.0819976909503246,-0.0471179838948643,8.939085770404388,-0.0208499517464873,0.0395666697553601,0.0916157116586256,7.212544429302376,-3.360450966609973,4.648644698460927,1085.185780420466,1073.2153976217662,1082.6543941799953,1083.0394807192647,473.58924604734386,260.8899275756911,-139.060820127078,-648.2672762654131,156.57944281349629
58.0625,-0.0318534944533142,0.1841201373046141,0.3394521636497181,0.0567720913944369,0.0018343876160958,0.035811810206729,-0.0007958101357432,-0.0019178199573046,0.8601456602239907,0.510040930643849,-0.0803145428827044,-0.0479455282323577,8.932554744848325,-0.0209179324824823,0.0397340173456137,0.0894443700374683,7.212482267472179,-3.360544972847732,4.648878432821137,1086.3492638477403,1073.9391642281569,1082.572487446,1081.450778480388,474.80645352859466,326.7255029510368,36.07386707065968,-647.1875984675055,156.58078207033083
58.065,-0.336752094567588,0.0991348291059988,0.1390364118630066,0.0566849563861981,0.0012262347779096,0.0358195226969241,-0.000744641305186,-0.0018347661576998,0.8601555997261718,0.5100253243893335,-0.0785249347357545,-0.0490862585827361,8.926305920434189,-0.0209823153454805,0.0398930334585,0.0872384927220262,7.212416581646054,-3.3606382384468207,4.649107976505752,1087.5598126881068,1074.84902513652,1082.8347635153484,1079.80354272693,470.05659604254606,384.4760192014144,145.60842369548308,-641.3494169860217,156.5821299579309
58.0675,-0.6391766161899644,0.0461916831827419,-0.0430730732909999,0.0560172517673582,0.0007097007837741,0.0349544194287417,-0.0006977281838127,-0.0017489186717035,0.8601600001117833,0.5100189777361968,-0.0766697979420073,-0.0505293160126196,8.920432991918354,-0.0210442931264751,0.0400395766727753,0.0849976078553902,7.212347493814311,-3.3607305201405766,4.649332597918514,1088.6995468279542,1075.8615443241647,1083.3005295644775,1078.2440313954564,411.0785904429292,418.3563445121897,218.42970547343353,-573.1394729833734,156.58348325205404
58.07,-0.9156251863712996,0.0282837089957103,-0.1864504072318728,0.0542034416148872,0.0004502078864809,0.0335987746723748,-0.0006583570830366,-0.0016665506677316,0.8601619246178566,0.5100166618133434,-0.0747698634369111,-0.0523667160714468,8.915028474755768,-0.0211038764904168,0.040169152642271,0.0827232523058134,7.212276611772454,-3.3608225497180446,4.64955082999431,1089.6152056403223,1076.940806859082,1083.926912042716,1076.9378453620116,319.79682056832627,478.14283746841113,297.0932406423772,-491.5407779463672,156.58484063915245
58.0725,-1.18302147623701,0.0329923878933809,-0.3124456157545669,0.0502574553136088,0.0005098327642717,0.03209603527885,-0.0006267749864565,-0.0015947109876679,0.8601646290965175,0.5100128491820844,-0.0727936139774463,-0.0546653859521957,8.910180766458833,-0.0211597515618718,0.0402782667603021,0.0804184613845806,7.212205654218327,-3.3609154756139574,4.649761821881028,1090.2985309307944,1078.2522585115048,1084.7859957676883,1075.7863275057268,165.3114166767018,475.7977632364895,325.6912912185424,-348.2458164131041,156.5864707004798
58.075,-1.332323651081044,0.0457588676261533,-0.3902226597709526,0.046032761679658,0.00086670217469,0.03115695029381,-0.0006025310544977,-0.0015378183163564,0.8601707006835809,0.510003167818815,-0.070724477719478,-0.0574376054438321,8.905971092290212,-0.021210027668333,0.0403647261744056,0.0780872979440091,7.212135840102829,-3.361010357525908,4.649964899155072,1090.4417627237065,1079.3197956752656,1085.5553684988097,1075.1966162799451,-38.74880818582661,411.8351436621363,313.1067621011188,-168.7891702638854,156.58782721051367
58.0775,-1.3985891972480775,0.0543676730550207,-0.4593889257266414,0.0416830521134815,0.0014666500468008,0.0304932059027994,-0.0005833559038114,-0.0014960812549475,0.8601811891002021,0.5099858639648571,-0.0685580621925756,-0.0606082930531781,8.90247093623608,-0.0212525344262319,0.0404278169850342,0.0757344175391949,7.212067034160933,-3.361107620852255,4.650159738475892,1090.1047868898652,1080.3114342298163,1086.3515295781947,1074.9423816544067,-251.5257449387732,405.5557924332839,350.01188296428154,-57.62265204999279,156.58917799556687
58.08,-1.3985638228072834,0.0523487514526473,-0.5526094196498743,0.0371398304039274,0.0022232782185913,0.0297493504386375,-0.0005668361645554,-0.0014682276269011,0.8601964255690677,0.5099604062292552,-0.0663028688610846,-0.0640737427052483,8.899739727656977,-0.021285023812123,0.0404677842089233,0.0733649766912345,7.211999559524078,-3.361206768885669,4.6503463865634656,1089.1841339990135,1081.34757463743,1087.3054279136295,1074.9085030196957,-407.6171248211455,344.72017825465275,343.04538467668596,14.688200425954836,156.59078748440737
58.0825,-1.3550393766187472,0.041858599215443,-0.6468609647088007,0.0343452356102551,0.0026011123676992,0.0289275750137863,-0.000550657201412,-0.001451981184615,0.8602163812516057,0.5099268753707993,-0.0639792950176514,-0.0677128202442142,8.8978230762797,-0.021305455441711,0.0404857158042395,0.0709843232642552,7.211934372914822,-3.361307404439115,4.650525492310372,1088.0667012657584,1082.0350351210907,1088.0667565015788,1075.0158226565368,-491.6349944184034,230.3059238490009,287.1040004509164,55.37051830121423,156.59211542925053
58.085,-1.2930027303556348,0.0304805937171389,-0.7579659229077385,0.0323166600263705,0.0025848565899531,0.0276362909050401,-0.0005338089752213,-0.0014424489931445,0.860239211140628,0.5098884203088088,-0.0616519362207399,-0.0713748744999456,8.896751609297835,-0.0213128188690614,0.0404833779646707,0.0685975645837109,7.211871392344783,-3.361408924303828,4.650698239417675,1086.7259590269205,1082.4991042566755,1088.7409479158848,1075.1853556112019,-604.4039077237852,150.40448422701084,262.8629314339949,81.75665244751302,156.59342523123595
58.0875,-1.211128071150644,0.0270552823911984,-0.8999335877039634,0.0297608946330784,0.0021855306390212,0.0254390098190272,-0.0005160477823633,-0.0014331945312733,0.8602628765187694,0.5098485183287668,-0.0594106903873195,-0.0748927003447184,8.896540317819625,-0.0213069933748521,0.0404630208970945,0.0662095099983791,7.211810134168931,-3.361510855853951,4.650865495197281,1085.0446817271422,1082.787057542225,1089.3810711587475,1075.424605918774,-603.3189606320872,64.1049033859544,198.67714313840065,94.35915835515237,156.59497152196025
58.09,-1.1328481626806939,0.0373940790650984,-1.013759887164002,0.0270558610179964,0.0017831619836747,0.02318433075382,-0.000499453541582,-0.0014195259474376,0.8602867025936274,0.509808333502431,-0.0573638410299616,-0.0781482961999974,8.89718812017152,-0.0212886542174798,0.0404268132606974,0.0638249707855917,7.211750398425736,-3.361612893949741,4.651027242035379,1083.7093642237585,1082.8196287736057,1089.734333631577,1075.657151402978,-497.691638530223,-22.74277509362692,101.2947914708484,103.52881405728272,156.59623597796738
58.0925,-1.0313710628705106,0.0595905028319114,-1.1077203293567868,0.0241719114325667,0.0016468751142848,0.0206744354361302,-0.0004858014124848,-0.0014036225011782,0.8603094474790905,0.509769961394634,-0.0555500598057938,-0.0811286560188488,8.89867773598516,-0.0212591051090857,0.0403761715759502,0.061449264564305,7.211691896539875,-3.36171389595404,4.651182473279523,1082.5562235344898,1082.6733436667569,1089.8875451161023,1075.9422499890607,-421.75878555428585,-82.80359184485205,32.66284498570955,124.7810358866216,156.5974724001843
58.095,-0.90208471322571,0.0855061063346872,-1.17356069850454,0.0214949932154418,0.0018187058936523,0.0179663263589258,-0.0004750094565412,-0.0013883530311596,0.8603294279708735,0.5097362402848309,-0.0539695517749601,-0.0838180634118152,8.900976760002926,-0.021220593834332,0.0403124255362065,0.059087619766461,7.211633816826349,-3.361812574891615,4.651330169605714,1081.6005702959887,1082.4056108143818,1089.8976478565055,1076.2810565824104,-333.5908863814551,-132.69007107248888,-18.98484193778979,148.15924884480103,156.59868367086165
58.0975,-0.7339225187213795,0.1065887304177093,-1.191192788083486,0.0191467839101133,0.0022590846293833,0.0149738981919633,-0.0004665547039705,-0.0013753104063937,0.8603458455437948,0.5097085188533985,-0.0526227320433916,-0.0861816917690049,8.904039000281836,-0.0211762453602572,0.0402368271265273,0.0567448340400063,7.211575205095606,-3.361908446271004,4.65146955433694,1080.8882691025815,1082.009893311394,1089.7926209064133,1076.683046233285,-266.2545117561424,-202.5083435871112,-55.991163802508254,187.5796276146907,156.59986270968514
58.1,-0.4878605249297796,0.1165741133223235,-1.1399368269247023,0.0169185085129684,0.0028289881954814,0.0111964235529823,-0.0004595807468402,-0.0013623413303134,0.8603573727415322,0.5096890490723612,-0.051533510521713,-0.0881293691820589,8.907806404475897,-0.0211300894978469,0.0401504845095732,0.0544247455815052,7.211514495102885,-3.3620009898683128,4.651600477880076,1080.2692977372076,1081.3930690964455,1089.617692037493,1077.2189547204844,-198.6291524571685,-248.9947772385667,-62.012404700873965,200.83122800128956,156.60123834003983
58.1025,-0.2521561382838459,0.107944193027617,-1.0283996287253565,0.0157446011659289,0.0033307803993286,0.0080601587596356,-0.0004544084180258,-0.001346297343519,0.8603628417106339,0.5096798152551014,-0.0507474296265103,-0.0895720110983743,8.912210840119442,-0.0210864025942041,0.0400540037549396,0.0521301112197407,7.21145045201585,-3.3620900998609167,4.651723318401799,1079.8951233402968,1080.7649194252024,1089.4825588829092,1077.6872023732903,-134.57246097229864,-270.1822550693105,-44.092056339400365,185.3936975337508,156.60235093918527
58.105,0.0024053214453099,0.0803689762242817,-0.8428230011979096,0.0153328927721701,0.0038120864572721,0.0051135639284703,-0.0004505376795477,-0.001326462518588,0.860362957899993,0.5096796324350754,-0.0502705345150871,-0.0904567845336224,8.917176090480648,-0.0210484428810399,0.0399475807407847,0.0498625398635124,7.211383306762318,-3.362177233047776,4.651839372873428,1079.5964354323455,1080.0421578210985,1089.397231755796,1078.1459232081536,-129.035936868538,-327.5872737467723,-22.12157181546677,192.252675297679,156.60342746420037
58.1075,0.3104848758348175,0.0289092780151123,-0.5448387336220514,0.0159810890061891,0.0039940569488412,0.0022709678355885,-0.0004426977672708,-0.0013004272642716,0.8603577459690301,0.5096884733943315,-0.0500465941515884,-0.0906686714985488,8.922620744657582,-0.0210182127481789,0.0398316322611096,0.0476218660866597,7.21131317511662,-3.362264230414162,4.651951363767752,1079.2499436559535,1079.1269830564677,1089.3719510238316,1078.6484657497795,-133.70390325115633,-330.93271708306105,4.35146068657955,171.63614062307863,156.60467645202215
58.11,0.5555971809431622,-0.0247805316950163,-0.2514343653802093,0.0173889163870656,0.0038980728074057,0.0008706686500105,-0.0004263497554281,-0.0012639666691536,0.8603480825201854,0.5097048762229139,-0.0500438946799386,-0.0900795160570932,8.928460316159283,-0.0209963720617547,0.0397069683141016,0.0454062295880212,7.211240890306045,-3.3623527012616363,4.652062429817466,1078.9279159160903,1078.3874942356847,1089.4189890592288,1079.0041039112682,-141.33606503266537,-274.31836292370974,32.513820013838725,125.93844754867781,156.6056807348826
58.1125,0.7770362014199558,-0.0850799481787308,0.0583729939041303,0.0192961070551193,0.0039430152388395,0.0006598202835196,-0.0004016509194298,-0.0012192646643635,0.8603381841928701,0.5097217130269422,-0.0502429802714364,-0.0887117512897465,8.934608274707223,-0.0209816678460672,0.0395746091668505,0.0432132906058354,7.211168761965761,-3.3624440197875374,4.652173285200492,1078.54326333079,1077.7553912418484,1089.534520123901,1079.2781579875232,-181.73230681290784,-235.895216385022,64.44928814068021,103.79762423821522,156.6066460731631
58.115,1.0091794823017557,-0.1587966170625039,0.4094190013426157,0.0219728538990219,0.0041013228216399,0.0018020762208368,-0.0003716295695218,-0.0011715291453181,0.8603315055275105,0.5097331321253092,-0.0506399348322692,-0.0866713163697019,8.940978064865105,-0.020971793286323,0.0394362652617948,0.0410406258483931,7.211098449587944,-3.3625381519221103,4.652282435901214,1078.0192543820256,1077.2080181537588,1089.7412354999324,1079.5230920324595,-194.72007124781584,-156.7814728631736,83.30524361884572,82.53189430873365,156.60775824975437
58.1175,1.172853376468048,-0.2124589160814892,0.6584172217116341,0.0244562617331873,0.0038433804408421,0.0038332521126358,-0.000338349636734,-0.0011237313515024,0.8603315232541952,0.5097332521471212,-0.0512363279946818,-0.0840332547480586,8.947484857551084,-0.020963645405969,0.0392951197660693,0.0388859164722281,7.211031683982182,-3.3626348757010955,4.652388468490268,1077.5696629745519,1076.9714838775333,1089.9510463419947,1079.6908174590665,-166.96909388015783,-46.08242684400837,82.555100000403,73.06095412360163,156.6086456385765
58.12,1.3033889786270625,-0.2424454999206218,0.8407978782631564,0.0271256128439185,0.0026288026500989,0.0066449432875423,-0.0003018270830623,-0.0010758217176475,0.860338741879377,0.5097212161588682,-0.0520297447891774,-0.0808205922186729,8.954046185428052,-0.0209543070536684,0.0391555251613653,0.0367473658921199,7.210968785037889,-3.3627340798490737,4.652491383200363,1077.1844089126243,1076.9776060195388,1090.1540109999344,1079.8883968030775,-129.45898676173528,38.17643733139314,69.23642781958829,96.20490668002813,156.60949100177555
58.1225,1.4023771499905047,-0.2436388462190415,0.9629876884101216,0.0300122133501295,0.0009959034969322,0.009651443262073,-0.0002648570233606,-0.001029759289705,0.8603521828968712,0.5096986658755303,-0.0530425248116537,-0.0771265390754134,8.960581525729847,-0.0209415252216203,0.0390223363835016,0.0346245217782163,7.210909266982076,-3.362834384267853,4.652589926718758,1076.9223680407429,1077.1623660641903,1090.297228481093,1080.1718419924669,-59.223752708302726,103.85708224726282,26.783896275971333,147.20450509666736,156.61030066589603
58.125,1.45368216598936,-0.2117931118961288,1.0205767435736255,0.0333463604752818,-0.0001899374546211,0.0122949645934099,-0.0002310628873971,-0.0009891743115709,0.8603710495377322,0.5096669346519276,-0.054294590273384,-0.0730919193287491,8.967012438100134,-0.0209238286447654,0.0389008884888199,0.0325184537927761,7.210853127423424,-3.362934347332261,4.652681853054793,1076.888290149083,1077.4968914307747,1090.2879304813143,1080.6244193285604,52.44478504933108,158.79667069107998,-58.093227194156576,246.4823103529365,156.61106622141915
58.1275,1.444002414290994,-0.1535247240643256,1.0355095798603386,0.0380163976135956,-0.0004653079668501,0.0147634801559798,-0.0002018931863086,-0.0009553474623504,0.8603933717307582,0.5096293442158069,-0.0557928112810434,-0.0688152718872591,8.973262929910115,-0.0209010058850415,0.0387968436766929,0.0304313338040278,7.210799830270416,-3.3630317817172366,4.65276421158358,1077.1845919659893,1077.956349417645,1090.0067623451223,1081.4042535442304,169.52313982415458,160.33655056804474,-155.5221172074312,321.19728721824623,156.61193247873166
58.13,1.3672429323028663,-0.1044365320578699,1.0166772267665976,0.042176264204227,-0.0001758270173333,0.0166809024359062,-0.0001789122918223,-0.0009279356878288,0.8604169751184659,0.5095895651979102,-0.0575586872894476,-0.0643837144895542,8.979259492469696,-0.0208741001043139,0.038715629028273,0.0283660785169683,7.210748759597005,-3.363125296742871,4.652835520639654,1077.7359058482043,1078.2985741836153,1089.5103198952768,1082.2304057646525,281.1174123136351,109.84552894746068,-250.31595980936723,347.0692256804839,156.61260961661563
58.1325,1.218237847142532,-0.0671307264585827,0.9738757227269688,0.0458005554237864,3.555739982843974e-05,0.0188639059246215,-0.0001610662584758,-0.0009064842267425,0.8604419607508076,0.5095474268415794,-0.0595711469927924,-0.0598693226089703,8.984931678741866,-0.0208446371376815,0.038662085924848,0.0263257171503594,7.210699586288541,-3.3632151993339527,4.6528958648940915,1078.590179027558,1078.5055770623824,1088.755182546075,1083.1395996726335,432.77657686074485,44.95772354666311,-374.92542332877287,378.2612050888731,156.61323899098738
58.135,0.9687936384538652,-0.0396751607514209,0.8970733503450861,0.0490381912223823,0.0001377543956568,0.0216830452441057,-0.0001454973617985,-0.0008878624305305,0.8604673847327461,0.5095045292287222,-0.0618010027648251,-0.0552942571031686,8.99021334330381,-0.0208149454994515,0.0386397464148433,0.0243122964837189,7.21065108519287,-3.3633022499732323,4.652946941357121,1079.899788732506,1078.5233628013484,1087.6356927786346,1084.121711790095,512.5571498960759,-36.953538580454925,-428.1094064905657,304.97814792727553,156.61393742629735
58.1375,0.7158273201419881,-0.02950125652787,0.8129505733872255,0.0508894193940549,0.0001454381810504,0.0241058087809589,-0.0001287913154798,-0.0008675422445137,0.8604923205408551,0.509462446422222,-0.064217619205587,-0.0506587868270014,8.995044195233916,-0.0207876907845002,0.0386504051876593,0.0223262540462266,7.210601908996343,-3.3633880615771234,4.652992061335183,1081.1529647770399,1078.3208093694802,1086.6146355136211,1084.6644904122709,513.987740864114,-124.81624855193311,-405.6731505386068,118.39997911982518,156.6144709040244
58.14,0.431484326332835,-0.0279584492876607,0.7133183121430478,0.0521233197422996,0.0001140577365569,0.0263228267561945,-0.0001116243980175,-0.0008427214975681,0.8605178545179897,0.5094193468051307,-0.0668315346561494,-0.0460287853998692,8.999371759210776,-0.0207654117162851,0.0386939012141424,0.0203663110395592,7.210551834470704,-3.36347413476078,4.65303356816304,1082.469727436828,1077.8992815585884,1085.6073270259403,1084.7137116856943,571.8266410890209,-226.30205491107185,-422.8558941478449,-119.59235630762996,156.61495249254907
58.1425,0.0688820291249104,-0.0294377346792176,0.5902087844679411,0.0530633068250722,5.560019388273772e-05,0.0283102836523523,-9.47580488638878e-05,-0.0008111199634829,0.8605435688389377,0.509375939401077,-0.0696430529228334,-0.0414770863003968,9.003153821003059,-0.0207507797924696,0.0387680774873204,0.0184293576700784,7.210499849515414,-3.3635616098932024,4.6530731498409805,1084.0120979824824,1077.189299094926,1084.5003560428838,1084.0665286307333,547.0150794379081,-283.076400522478,-383.0519174100432,-351.37200939793945,156.61546860569615
58.145,-0.2397112452778612,-0.0282078123645785,0.4987410348426453,0.0532823251673148,-5.061417338186199e-06,0.0293274381729002,-7.68963878466899e-05,-0.0007719286191811,0.8605684531487181,0.5093339337767488,-0.0726003304457444,-0.037075285113811,9.006360691453228,-0.0207463929187884,0.0388691228174217,0.0165108475846707,7.210444678891002,-3.363651403406556,4.653112150860606,1085.204802834019,1076.4838995559753,1083.6920674388891,1082.956851638704,448.6294517122111,-288.787631682169,-299.6089425798632,-527.970337587979,156.6158458406437
58.1475,-0.5366224315401235,-0.0179517449451906,0.4340274506190353,0.0525561679918981,-7.946509808768665e-05,0.029837508820985,-5.6613605566920856e-05,-0.0007276663733634,0.8605924506677332,0.5092934235894064,-0.0756123874775218,-0.032937235623866,9.008977144957452,-0.0207546699685926,0.0389920677841434,0.0146055061171509,7.210386399314426,-3.3637434061062974,4.6531504056756114,1086.2552452410443,1075.7453609365143,1083.0023113299835,1081.426676942792,392.799056424922,-286.2870295868891,-259.52042765994474,-639.6435393053158,156.6161665203389
58.15,-0.8061609616611797,0.0045746137660972,0.3975708913908775,0.0508880889161365,-0.0001660025193963,0.0301273702735193,-3.223284113384762e-05,-0.0006778223481865,0.8606140074517846,0.5092570382536151,-0.0786062789525792,-0.0291171437336131,9.011003669400992,-0.0207783976421354,0.0391313142275659,0.0127073903245539,7.210324936924137,-3.363836459984665,4.653187179225599,1087.1687981161415,1075.052464408042,1082.3944653005908,1079.7586339421803,329.69537620066563,-247.66028889199396,-228.0828187788954,-643.3881437060683,156.6164389935336
58.1525,-1.020391177285081,0.0470113716603992,0.3927266638908014,0.0480330358689073,-0.0002580242243044,0.0304177243166269,-1.8207297304036496e-06,-0.0006210948785761,0.860632116057976,0.5092264856476069,-0.0815074542737349,-0.0256423279267185,9.012457073006077,-0.0208203300465546,0.0392812062140707,0.0108106369226564,7.210260129981567,-3.3639287474256414,4.6532209215072955,1087.9037221220487,1074.5070594920537,1081.8618972360887,1078.20973622426,278.72945785465447,-184.34949622928465,-219.96934872670525,-590.8503161449222,156.61665169715124
58.155,-1.1926432361308652,0.1252656931152567,0.4071910505171056,0.0437595401298671,-0.0003356385680476,0.0310856286645055,3.391579429821567e-05,-0.0005606898241898,0.8606475505988572,0.5092004532966359,-0.0842373489575002,-0.0226207636099314,9.013370655069682,-0.0208827572404211,0.0394364057263787,0.0089103130756281,7.210192607580874,-3.364019227406821,4.653249270277297,1088.5624454054157,1074.1307169268953,1081.2946185569567,1076.804382361454,201.3318599147181,-79.91793218910054,-194.01628455893297,-410.25230294522794,156.6168356515926
58.1575,-1.261314262026369,0.2134327277480326,0.4169135049786406,0.0401399702592989,-0.0003150149385978,0.0320856775269417,7.540781909537457e-05,-0.0004952446286496,0.860659920613727,0.50917960293727,-0.086740105661454,-0.0200653916975906,9.013793263567461,-0.0209675785571662,0.0395921537471023,0.0070016978719037,7.21012262912328,-3.3641077270873807,4.653272177263882,1088.9103814216214,1074.1074698311083,1080.891815813295,1076.1584747095355,93.2897039590421,58.67353579134669,-138.2850538314162,-139.44181951603383,156.61692788670234
58.16,-1.260774466762667,0.3202976251172075,0.3982076309383861,0.0369405378657361,-9.378115871085657e-05,0.0336075315044212,0.0001239350488576,-0.0004212314451199,0.8606694307843518,0.5091635927889975,-0.0889670816013845,-0.0179339627145094,9.013788076860862,-0.0210755386910911,0.0397444655161097,0.0050804352372956,7.210051161606898,-3.3641949858577744,4.653291077896013,1089.0288939252112,1074.424084605852,1080.6031932877993,1076.1071732638736,-5.90952857378095,218.38747597160105,-85.8627173089205,95.18516160814802,156.6169547072198
58.1625,-1.199238059300313,0.4557946210037803,0.3188291114946825,0.0335975260539293,0.0005796998631396,0.0357329612263168,0.000177432065111,-0.0003435349896118,0.8606779019719457,0.5091493370709997,-0.0908471618564864,-0.0163320303791823,9.013431501044543,-0.0212056698081948,0.0398901797205441,0.0031435045604965,7.209980222245725,-3.3642821808472094,4.653305719625817,1088.8808337787525,1075.1994072109671,1080.46250222675,1076.6344005175768,-105.93621975236232,344.7516635166673,-6.753207320486356,261.0933947877229,156.6169088226121
58.165,-1.1113355320271951,0.5587106692058078,0.198019784419871,0.0310506546214323,0.0016110963073369,0.0372030698333705,0.000232205884155,-0.0002697717131859,0.8606867538469092,0.5091344284081643,-0.0923150141185027,-0.015410074797887,9.012810850455674,-0.0213554725812633,0.0400269388218684,0.0011887859674799,7.2099109907579395,-3.3643703548682464,4.653315267323128,1088.4992128264498,1076.147842923434,1080.5694272511969,1077.412640237811,-208.2598003611409,428.9301606382276,96.25445323403788,335.522012903549,156.6168036905885
58.1675,-0.9989862001757268,0.6276781047892958,0.0266269835615728,0.0286449337172418,0.0032039753233563,0.0379965200524334,0.0002844705024732,-0.0002042106203733,0.860697699705054,0.5091159675850238,-0.093345482809276,-0.0152560283311998,9.01202141504499,-0.0215208924717063,0.0401531403893542,-0.0007854754818682,7.20984433798112,-3.364460497668301,4.653319271691305,1087.8395347769463,1077.3440580141591,1080.9437744929205,1078.3120105820951,-308.41072138207574,505.67942072908914,191.9195752983724,345.24266817152767,156.6166268671814
58.17,-0.8743674892341714,0.6506266752270659,-0.1732958861329782,0.0263170943317941,0.0051713284114278,0.0383857571211086,0.0003318148822008,-0.0001464355570999,0.8607103334939112,0.5090946399108294,-0.0939454351356047,-0.0158625391504946,9.011163534340826,-0.0216969630107861,0.0402674486600496,-0.0027808482776148,7.209780100757258,-3.364553430787588,4.653319026274448,1086.9571592195387,1078.6762400270807,1081.5290251276892,1079.1388535786696,-399.306966881158,546.1869310282929,272.8898260931354,280.74985475453167,156.61638885965442
58.1725,-0.7444785612743122,0.6011460236408926,-0.3831352791203949,0.0241738159465204,0.0074290508312746,0.0379706781795747,0.0003718111932339,-9.673745658428845e-05,0.8607248016396932,0.5090701992182939,-0.094127174645328,-0.0172242280736239,9.010339949105914,-0.0218778141521057,0.040368773781523,-0.0047982014169413,7.209718041401422,-3.3646496704213757,4.653315516276302,1085.8429999425423,1080.0749926692984,1082.3082236233847,1079.7157598558667,-527.8399098848723,604.8068362999036,366.351220897508,175.75237211799606,156.61607491795274
58.175,-0.5979779130306861,0.4483282292796765,-0.6073609756876718,0.0221181784333678,0.01009887338202,0.0360315150127558,0.0004022394761251,-5.648311872214072e-05,0.8607419276988812,0.5090412555155815,-0.093902496298154,-0.0193424631060186,9.009652695711571,-0.0220571829633979,0.0404561682513363,-0.0068374942246847,7.2096581553705406,-3.364749868721341,4.653308949323084,1084.3179596701127,1081.7002742085815,1083.3607812321775,1080.01761543926,-576.0219063217173,568.528928006963,392.1564599655807,49.40508090596469,156.61560754731255
58.1775,-0.4974216609138146,0.2482523924453668,-0.7440210395149583,0.0209883258745506,0.0118136305217672,0.0336044467503418,0.0004244953782381,-2.443024407702292e-05,0.8607609637796841,0.5090090731883647,-0.0932639977657633,-0.0221383930675105,9.009199758060339,-0.0222293780810404,0.0405285025525115,-0.0088978559460201,7.209599414228013,-3.364853585055899,4.653298517306628,1082.9628904109322,1082.9176373093346,1084.2690059232139,1079.9627852603967,-541.779171177124,437.6705496028878,362.3245499447078,-61.16089159355503,156.6151404060272
58.18,-0.4350146522743326,-0.0059794032567561,-0.8068104702066161,0.0204136260174455,0.0125810261519272,0.0309786824801387,0.0004408402719565,-8.841646082981309e-07,0.8607802203091777,0.5089765089857277,-0.092188922120185,-0.0255436568188469,9.009072101917228,-0.0223897500540052,0.0405845632395647,-0.0109769665096898,7.209540580467654,-3.3649595957012144,4.653282243699338,1081.6090638142296,1083.888626956594,1085.1724039818996,1079.7118109812925,-577.1773773257568,348.78063101537356,398.9402718359321,-111.77796267141925,156.6145900482498
58.1825,-0.415045997528149,-0.3347484716134523,-0.7882612828097477,0.020120278153244,0.011980989703663,0.027871293543797,0.0004529723043453,1.254819234469807e-05,0.8607988274613073,0.5089450341315703,-0.0906622262484721,-0.0295104972776679,9.009350546021876,-0.0225347710645809,0.0406233398022488,-0.0130710438542804,7.209481526782728,-3.3650664008212154,4.6532580537477,1080.077003524302,1084.6615404644124,1086.2637072823943,1079.4038954470393,-535.4597498159353,205.53016141865044,406.5873178002415,-79.4171931449958,156.61383033673332
58.185,-0.4430067640522531,-0.5972584325954369,-0.6984828389286039,0.0199773156630067,0.0100710589990992,0.0254238772479587,0.0004641987712744,1.7032183275256386e-05,0.8608152447675455,0.508917253029547,-0.0886785946295492,-0.0339299327208251,9.010102943646494,-0.0226624108369712,0.040643884973202,-0.0151754739060884,7.209422201260055,-3.3651724983661486,4.653225331556137,1078.9317650651487,1084.916277763688,1087.2053405709019,1079.314725015567,-420.5621007363521,12.15379284559472,387.027973488136,33.97863261178279,156.6131123222494
58.1875,-0.5021646244968028,-0.8184379974246518,-0.5473438358280404,0.019648217109194,0.0072297551550085,0.0234123662501611,0.000477138360546,1.4122492374436622e-05,0.8608281947205115,0.5088953267822485,-0.086254126362296,-0.0386907229035515,9.01138208516009,-0.0227718923537293,0.0406454663375882,-0.0172850242246085,7.209362274855486,-3.365276617554767,4.65318419928404,1077.974193020622,1084.7223094286403,1088.1988471498335,1079.573788610098,-368.88845295595166,-189.5881972969524,445.20191464739133,216.37262112318817,156.6123038435316
58.19,-0.5740456738273241,-1.0224075629174072,-0.3258705407925921,0.0187118666757239,0.0038385396947803,0.0219337974690124,0.0004931203200933,5.02344351700898e-06,0.8608380737117078,0.5088785859653095,-0.0834267873336568,-0.0436972763363829,9.013224104899237,-0.0228631957697133,0.0406276888961953,-0.0193942594305346,7.20930189906108,-3.365378828839596,4.653135379588336,1077.0873228003707,1083.968336777204,1089.4313501441368,1080.3965881211823,-276.4043506725052,-356.3018306042064,450.26151748452025,385.60087669105366,156.61122686256928
58.1925,-0.5997924982458733,-1.1435087788233531,-0.1354438153054908,0.017294586603235,0.0013503028831209,0.0216443125669766,0.0005147082653185,-5.923355882924463e-06,0.8608449133322402,0.5088669773845778,-0.0802472305466971,-0.048793699467392,9.01564759557808,-0.0229370522367798,0.0405900848072478,-0.0214982860084634,7.2092407946267585,-3.365479537980941,4.653080476826927,1076.592171267259,1082.9408002756184,1090.4501547372572,1081.5017929935543,-142.91075533030343,-476.50384877641216,392.3248644173139,505.35266460998696,156.6102390685874
58.195,-0.5444519714961845,-1.2211445219983872,0.0291193848715157,0.0151718145362274,-0.0009466911343642,0.0222621855012806,0.000543106938078,-1.37305867099514e-05,0.8608486860246274,0.5088605489461364,-0.0767942666467673,-0.0538271979975049,9.018653322835709,-0.0229945215587742,0.0405322005750981,-0.0235927530663171,7.20917846890732,-3.365578877821344,4.65302118578228,1076.3727690237188,1081.5858175333208,1091.3929744662244,1082.9233514442335,-39.98959331105652,-576.9437494783024,354.95976716056697,589.4611724041529,156.60915635760333
58.1975,-0.3920798306797128,-1.2646212243834183,0.1543852059694849,0.0126218880628067,-0.0033627772552157,0.0233973170349212,0.0005775965157361,-1.690203255033139e-05,0.8608520349837558,0.5088548298698655,-0.0731442594338074,-0.0587183673622559,9.022224369784011,-0.023036321753958,0.040454082543729,-0.0256734822077518,7.209115236520145,-3.365677874855949,4.6529575249093975,1076.3922233007036,1080.0560815282295,1092.2249535730584,1084.4490988555724,65.09643372788868,-624.2816318598204,299.0072042702939,588.8354198452987,156.60799434155797
58.2,-0.1033075910044922,-1.2610806183377643,0.2231863112837456,0.0098474818552595,-0.0061534074790769,0.0247096099464671,0.0006159181870477,-1.2662719963670734e-05,0.86085785408025,0.5088449284235702,-0.0694075175398975,-0.0633850097673187,9.026326802640336,-0.0230629061817584,0.0403560103400718,-0.0277367950528549,7.20905115623133,-3.365778131861172,4.652889949023975,1076.6982511923584,1078.46440937402,1092.8880104875764,1085.8675285434615,195.44395419274227,-671.5742052517019,251.86121268312337,543.1450326351701,156.60673632642525
58.2025,0.3897550503344834,-1.1878256436641004,0.2459919601746433,0.007352595792721,-0.0100393511444298,0.0260267421771214,0.0006537892908054,1.8553084209343177e-06,0.860867738670213,0.5088281517292532,-0.0657236282296655,-0.0677661487099706,9.030910803587378,-0.0230746637565693,0.0402386070096218,-0.0297792238421973,7.208986716504129,-3.3658806034532103,4.652819438713088,1077.369443071668,1076.6982105019692,1093.4842596364747,1087.1648240187496,289.2773685002241,-592.1551086413657,190.44985908598431,379.14275994255974,156.60511570388655
58.205,0.8820101415623566,-1.059094848056026,0.228965345085311,0.0072332019936238,-0.0135571273065991,0.0266508137457482,0.0006863309599176,2.2965805157686205e-05,0.8608812280652172,0.5088052812761885,-0.0621769648975841,-0.0719133034103715,9.035911879744573,-0.02307245180229,0.0401033339499419,-0.0317966565956823,7.208922672515957,-3.3659842481449775,4.652744205892716,1078.144638034858,1075.503633830816,1093.8402597830056,1087.7632423431724,344.14671347649926,-388.2910735363399,123.65595428789715,125.63327032192258,156.60367299784846
58.2075,1.3768689432745436,-0.8573434560987921,0.195804131060738,0.0101070343096159,-0.0166175930499978,0.0267960507467646,0.0007124627800321,4.607582035992047e-05,0.8608982465115662,0.5087764420544644,-0.0587794677403074,-0.0758632266594181,9.041252947696899,-0.0230575277031875,0.0399524976560741,-0.0337847217522459,7.208860018840482,-3.366087152430545,4.652661411189984,1079.0901766390512,1074.7567551342863,1094.1025394079145,1087.7929903703596,444.8858977167217,-203.0524631479564,108.16195184119275,-106.04484986146448,156.6021353792048
58.21,1.8638358349810649,-0.5444209413715266,0.1588008687529189,0.0168254251264369,-0.0191844027962101,0.0267728708011346,0.0007308008601554,6.89807530186064e-05,0.8609190984950446,0.5087411177343762,-0.0555640173795296,-0.0796250816379432,9.046846750679473,-0.023031355467465,0.0397891115345825,-0.0357392544094041,7.208799932707544,-3.3661883649483886,4.6525697700910245,1080.3690675234427,1074.4883715150756,1094.381069542212,1087.2330180938648,488.41078057711314,8.854295438149032,106.8489824641409,-280.107173720926,156.6001819188895
58.2125,2.113575951361274,-0.2432973618985792,0.1402601485057799,0.0241100821418076,-0.0203368814350793,0.0267007466010902,0.0007428990614664,9.222651382923176e-05,0.8609427788791039,0.5087010050410352,-0.0525365488778926,-0.0831452971926945,9.052598955847508,-0.0229960355877442,0.0396162690849263,-0.0376567968505521,7.208742565087888,-3.3662872770640035,4.652469421266129,1081.5322305419347,1074.8010266114773,1094.6367843202347,1086.3924545017562,483.4070098091416,223.78208466782243,119.7594436728947,-373.5805223633087,156.5984651430282
58.215,2.1575560587845004,0.0722018051422888,0.1389857062154567,0.0317136745887947,-0.0205331640908643,0.0265518760563036,0.0007523527480248,0.0001172564362028,0.8609681687957624,0.508657991685282,-0.0496727887642518,-0.0863445564860916,9.058411373156575,-0.0229540868769336,0.0394369152859027,-0.0395349989278984,7.208687457253214,-3.3663838843698946,4.652361598419189,1082.7861025724899,1075.607281938415,1094.9798667605767,1085.3651154820475,571.6789828347631,439.44165350740406,183.18180456103343,-445.468525598198,156.59665815195692
58.2175,1.974968471556268,0.4333575140865587,0.1529834998375359,0.0400217449186122,-0.0197192193004526,0.0266086909624985,0.0007603361578029,0.0001460686133013,0.8609946747012837,0.5086130808101519,-0.0469848627324323,-0.089163919710409,9.064185522915054,-0.0229079605496153,0.0392536525715245,-0.0413730734296268,7.208633922266534,-3.3664786779751856,4.652248320916565,1084.39062545611,1076.9982348790152,1095.5526933430403,1084.165111873764,603.2360813451335,554.4685215601062,240.59601749703745,-402.46643698478914,156.5943883801231
58.22,1.6599523777396155,0.6952623577245192,0.16880137087987,0.0454726283221711,-0.01816362263642,0.0271370320788733,0.0007699532765215,0.0001808427935168,0.8610202220571299,0.5085697813473727,-0.0444500085237844,-0.0915298549212488,9.069826666883358,-0.0228605244507632,0.0390680847874763,-0.043172026669304,7.20858016734644,-3.366572450836427,4.652131926141637,1085.8022829792128,1078.379624546213,1096.1828468480608,1083.3527832971251,575.6060319016581,568.9058825206577,277.5026935374116,-257.8677260702579,156.59241490463324
58.2225,1.240881396330712,0.890006526947586,0.1771363388902462,0.0489233644306569,-0.015738992496764,0.0279882581861072,0.0007814361721331,0.0002230816656384,0.8610427067648428,0.5085316586906912,-0.0420785923509338,-0.0934110612319657,9.075247536641603,-0.0228143940811327,0.038881090442172,-0.0449345456185987,7.208524845263666,-3.3666650573954047,4.6520133217056845,1087.2686556156195,1079.84276429162,1096.940206810728,1082.875773243412,590.2703097002068,581.5832085463834,310.05810557042014,-124.08487188607089,156.59035971798374
58.225,0.7916592481638738,1.0136479847383917,0.1739165082440032,0.0508142836055679,-0.0127246627348734,0.0288096794362554,0.0007920782591254,0.0002723165523711,0.8610623771321949,0.5084982990582224,-0.0399049685670377,-0.0948385960536509,9.080371928032152,-0.0227713872072314,0.0386932674472841,-0.0466646352966783,7.208467744289885,-3.366756372253214,4.651892100978793,1088.7536345277151,1081.2875405889467,1097.7331373759137,1082.7323589376947,590.3741277643261,561.2822705682095,300.7276664954595,23.52158721625849,156.5882396426836
58.2275,0.3697320651113029,1.0425816501609828,0.1565848398411196,0.0511078770552314,-0.0091850066347589,0.0294214193273339,0.0008038007236808,0.0003305761655942,0.8610790809429375,0.5084699588825334,-0.0379112136688685,-0.0957651058482145,9.085138688244882,-0.0227330649576134,0.0385041931465658,-0.048367719852458,7.208408513859043,-3.366846491336083,4.6517686952741215,1090.2205262544387,1082.6491756444586,1098.443845143204,1082.993381179493,630.6927310175025,573.2868613457208,260.8171435838388,194.38095063659665,156.58604520365577
58.23,-0.03955033978129,0.9743579212495858,0.1250886192751849,0.0498857596848401,-0.005099083361947,0.0298744874891982,0.0008174261576996,0.0003985306214786,0.8610930111383577,0.5084463120338357,-0.0360827069583367,-0.0961770430058002,9.089503867469933,-0.0227000754480623,0.0383132800611545,-0.0500499793508228,7.208347447301664,-3.3669359063938504,4.6516437828616555,1091.9070981828045,1084.1539748956768,1099.0372230938335,1083.704263690878,599.7766051843544,528.6891140479407,157.5569307773652,309.19057055805393,156.58333145640623
58.2325,-0.2692476835866622,0.8510912121320188,0.0958610036190923,0.0476755853675824,-0.0024677666744395,0.0300559503118462,0.0008304880356638,0.0004689136403071,0.861107478774351,0.5084217535201948,-0.0343840213848923,-0.0962175358272053,9.093441839123523,-0.0226716393940365,0.0381210049515096,-0.0517174193201697,7.208286244189126,-3.3670254466451137,4.651515960422242,1093.219409280362,1085.2926212146997,1099.2316297970913,1084.5393340322844,500.63720027897085,430.2820939084361,11.593431811853947,358.84201434961034,156.58100742483975
58.235,-0.3743026198365527,0.6938772625446751,0.0702148486401982,0.0447708244771182,-0.0008506251670189,0.0301025387055006,0.0008394121749055,0.0005351808497723,0.8611251335409555,0.5083918007060733,-0.0328055226794815,-0.0960300609246543,9.096947570971793,-0.0226457888642114,0.0379279701033899,-0.0533763604452984,7.208226492743862,-3.367116177769448,4.651384394400136,1094.410284184197,1086.305385365217,1099.0951902528927,1085.4984737626244,492.59913407379184,415.1466872143524,-118.05412096321888,421.2815637108752,156.57862421479396
58.2375,-0.3876107476535699,0.5088935458578819,0.0488570333185868,0.0420763214717303,0.0001297025426286,0.0300772963462731,0.0008430247653609,0.0005935186878432,0.8611478016256497,0.5083533620824121,-0.0313284156263457,-0.0956940229120409,9.100037232260878,-0.0226197379044399,0.0377345439609823,-0.0550334557042003,7.2081691691528835,-3.367209512192386,4.6512497713262055,1095.6824049507322,1087.3683546507723,1098.6413591922749,1086.6457418508398,437.4474329338263,363.8875407320896,-189.70253956776403,402.2414615818195,156.57570325618033
58.24,-0.3518937145438224,0.3832505206541728,0.0405670786940896,0.0415947283290028,0.0004028917332615,0.0300325735916275,0.0008408329979354,0.0006439950254352,0.8611750674478622,0.5083071391041608,-0.0299630484464939,-0.0952221090046959,9.10274768693969,-0.0225902660329492,0.0375406311909668,-0.0566956345615249,7.208114114422499,-3.3673061812852616,4.65111397706052,1096.5975213488673,1088.1248230688784,1098.1466775550534,1087.5096810705347,328.78363838124534,275.58877768085546,-187.834500978386,312.634461916207,156.57322394838653
58.2425,-0.3314200465012872,0.3055621444634142,0.0414960849727791,0.0428092108101648,0.0004145755501679,0.0300051736133294,0.0008317026322531,0.0006867457621941,0.8612057857194105,0.5082550731918126,-0.0287353940143612,-0.0946323081460119,9.105134441270184,-0.0225541200764375,0.0373461915565018,-0.0583694457546785,7.208060790037456,-3.367405841722949,4.650977866612723,1097.3263231426367,1088.7462985391755,1097.7021866873838,1088.2089141604195,262.2086736101687,241.53170537562264,-151.89392961357458,264.37460061570283,156.5707051040248
58.245,-0.3728575592101739,0.2721384716007235,0.0495937406809931,0.0445194482514108,0.0004171292676833,0.0300345588837858,0.0008177213673583,0.0007230050480652,0.8612384476562116,0.5081997170686114,-0.0276361958962661,-0.0938961595652259,9.1072693092608,-0.0225088496184626,0.0371509619979291,-0.0600606460362019,7.208009009928061,-3.3675068764500686,4.650840627834865,1097.9085647169188,1089.3324815957571,1097.3872079069852,1088.831554073614,150.29086179767134,187.7070154547204,-67.06529459726178,194.97577779442537,156.5676458544206
58.2475,-0.4674050694570297,0.2869002926800189,0.0580148425635828,0.0450554053758372,0.0005746878915828,0.0301402375070699,0.0008055731796115,0.0007544348727883,0.8612701505509421,0.5081459774034685,-0.0265924889203755,-0.0929366488415421,9.109236996441805,-0.0224535909804431,0.0369543189102254,-0.0617736363360976,7.207957783521331,-3.367607091241811,4.650700039244375,1098.0777774516257,1089.6848336164496,1097.366860214397,1089.183793049392,-13.583718461508019,113.58163153096353,40.50407558128473,115.24565095197909,156.565072752426
58.25,-0.5984267582702842,0.327422241918559,0.062369690228221,0.0440860286568515,0.001030543096233,0.0303591839146725,0.0008006471389413,0.0007823316729152,0.8612985351418062,0.5080978435851823,-0.0255523376973097,-0.0916957838912512,9.111131035601167,-0.0223883886030942,0.0367558429999742,-0.06351109685717,7.207905740404233,-3.367705699172204,4.65055463095427,1097.840646124611,1089.9003897534114,1097.5897282848914,1089.4077823283733,-168.18733104257095,66.51947879078445,117.55795729938431,77.27161305486085,156.5624832555962
58.2525,-0.7279054080411796,0.370436954653613,0.0592848439584077,0.0419611804453931,0.0017740721511381,0.0306784818455427,0.0008057546917343,0.0008077834359532,0.861323313039413,0.5080557991261849,-0.0245057591073397,-0.0901447036894424,9.11304942358136,-0.0223136802125235,0.0365555482806981,-0.0652739528868908,7.207852314690927,-3.367802759645945,4.650403865808885,1097.2368407964136,1090.0174310104032,1097.9546500008937,1089.570151114666,-325.9202809137302,29.6186261561464,156.6891002484334,60.81792916749308,156.5598864022762
58.255,-0.8187987273745649,0.3908900999542533,0.0442263473901,0.0390319427981161,0.0027981637313717,0.0310802613324391,0.0008217471473792,0.0008350807005239,0.8613441502959127,0.5080204035851592,-0.0235049173480079,-0.0882246732742631,9.11509042053715,-0.0222301510466104,0.0363533811938785,-0.0670617598375944,7.207797342358733,-3.367898126115639,4.650248119992061,1096.2110447200419,1090.0484828841923,1098.373173786134,1089.711871974211,-528.9898947796723,4.709022570657318,161.51687082616186,68.15908824020121,156.5572883458002
58.2575,-0.8525340774036085,0.3569712692543928,0.0129874672276028,0.0353047217235126,0.0043664944694803,0.0314945983320834,0.0008467775057035,0.0008685573405359,0.8613621819959006,0.5079897302211998,-0.0226456346025908,-0.0859042264198742,9.117347513859022,-0.0221382949986057,0.0361498909317052,-0.0688725376107863,7.207741163079217,-3.3679920033198303,4.650087857053942,1094.591891322514,1090.0409761232563,1098.7622343550247,1089.9109465558672,-635.9171840967391,-2.1400012185969355,100.63962256226716,81.87546480206208,156.55417935956723
58.26,-0.8108581039068555,0.2599568528947573,-0.019596849648053,0.0325683532784624,0.006094016877036,0.0315638070085026,0.0008771852697544,0.000908277692416,0.8613805030012341,0.5079585371081635,-0.0220124777356968,-0.083239327761086,9.119904466293315,-0.0220384546265158,0.0359468816515097,-0.0707024620590035,7.207685505077581,-3.368084987452511,4.649922601554225,1093.031458799561,1090.0377828780993,1098.8763718989449,1090.1212492982208,-636.8216797525672,6.09283915091198,-15.429066353900744,93.30221539130208,156.5516032496531
58.2625,-0.7039414408669524,0.0792851317932219,-0.0507591032336547,0.0305369854976508,0.0079705389893787,0.0312734861801207,0.0009092098083192,0.0009523020670897,0.8614010841594804,0.5079234914761517,-0.0216710193378889,-0.0803219601481797,9.122831567016979,-0.0219311696427134,0.0357468400796554,-0.0725461191545002,7.207631529556226,-3.3681771005821313,4.6497512467347475,1091.4077829237494,1090.0714403190111,1098.6850890232552,1090.377457632824,-693.4509113525654,23.8046670494774,-155.92058410262533,117.29490585751957,156.549051486375
58.265,-0.5188978114221686,-0.2226030637880547,-0.0783263454820525,0.0288468607886695,0.0093000995555563,0.030798989886919,0.0009400596891626,0.000997767752536,0.86142576338878,0.507881486126684,-0.0216602804635494,-0.0772536264893178,9.126182297364448,-0.0218170986392821,0.035552701289891,-0.0743967526656512,7.20758031114703,-3.3682686760215854,4.649573193941891,1089.5642042427964,1090.1568062133467,1098.096768978431,1090.7077238275087,-635.9987265030541,33.259540915499436,-262.7996140583153,116.94016000180176,156.54602793840235
58.2675,-0.3322301075303821,-0.5171697803130567,-0.0902457416917344,0.0279515955798788,0.0088975844809707,0.0304449970743152,0.0009660241952265,0.0010426746649897,0.861453701917086,0.5078339525512999,-0.0220375671452536,-0.0741344079506207,9.129990885597255,-0.0216971175350888,0.035367282212213,-0.0762466840439436,7.207531735939846,-3.3683598782373863,4.64938832948546,1088.227789291237,1090.2377380235885,1097.371090952965,1090.9621584328324,-472.07046503461646,22.3184634517906,-311.99570765095314,85.4301096016588,156.5435474488198
58.27,-0.1277611518488893,-0.8087820000646992,-0.0905901730969395,0.0274909244946947,0.0067718488018605,0.030195887277812,0.0009830059472962,0.0010849463580855,0.8614836833738893,0.5077829642595584,-0.0228611209049226,-0.0710728417280081,9.134270406494048,-0.021572285212385,0.0351932514928445,-0.0780875675921634,7.207484857671187,-3.368450876549151,4.649195869382133,1087.203851917622,1090.2683985306055,1096.5367904401755,1091.1348743755173,-362.11821790929775,-14.866593180151208,-355.62996428916443,44.184309387651545,156.54111487927952
58.2725,0.1219496669797037,-1.10078375590123,-0.0794742289906014,0.0273118999731149,0.0030675506298128,0.0300097288046626,0.0009917088233303,0.0011238253899358,0.861515175318061,0.5077294228447986,-0.0241208185748303,-0.0681153990023362,9.13901196650039,-0.0214444548325275,0.0350323622544818,-0.0799109077824045,7.207439179209779,-3.36854142678272,4.648995177671722,1086.4171982016896,1090.1634050576877,1095.5929411315183,1091.1830799797708,-209.33328595170616,-72.94691832805523,-313.8875989843781,-14.171793566050992,156.53825833624555
58.275,0.3213024990218528,-1.2653461031835052,-0.0618258591796885,0.0275547474637802,-0.0004760016105564,0.0299199690081564,0.0009971171218837,0.0011584854418828,0.8615470323268248,0.5076752626493402,-0.0257323889540568,-0.0652720040950263,9.144184898207536,-0.0213166688316187,0.0348853516597978,-0.081708451190048,7.207393720659375,-3.3686312547990958,4.648786349386865,1086.1571854878644,1089.9036639389656,1094.9673524452553,1091.064015407687,-24.96028881031267,-147.3833699444795,-201.33195846554983,-79.63467954278275,156.53593434019376
58.2775,0.4934322453314574,-1.3247623119190854,-0.035807782629819,0.0284208576877788,-0.0042881029002703,0.0298603741872414,0.0010046725900447,0.001186996472926,0.8615782915166326,0.5076221121509537,-0.0275874692480276,-0.0625668118631378,9.149738305563204,-0.0211926725517509,0.0347523652185904,-0.0834726609331631,7.207347490357224,-3.368720149081784,4.648569949605312,1086.292396757638,1089.426488207965,1094.58628133919,1090.7849065820567,109.55950533210704,-226.63111965887083,-110.69406926002353,-132.16273208142923,156.53367310126762
58.28,0.6268797317811229,-1.2886249864834431,-0.0022074648540279,0.02982814036079,-0.0081702274669067,0.0298046724767896,0.0010196580445458,0.0012090073117712,0.861608161175125,0.5075713085998252,-0.0295878856939695,-0.060000448712356,9.15560384003928,-0.0210765261444515,0.0346326489630542,-0.0851974514456993,7.207300103219127,-3.368807883078792,4.6483469931154175,1086.7049830145252,1088.7705083406709,1094.413882098955,1090.4032017472796,212.41915133415424,-295.31826138849766,-27.70927501362868,-166.5501636775539,156.53146625351656
58.2825,0.6939041913880892,-1.138332855164438,0.0416774185213043,0.0318576340184912,-0.0118851349772354,0.0297453071898707,0.0010480346015934,0.0012274592822197,0.8616352416886696,0.5075252134502816,-0.0316483234971971,-0.057513766620087,9.161699143550369,-0.0209724954034222,0.0345242244886853,-0.0868787314030133,7.207251136669717,-3.368893894722162,4.648118602260449,1087.3544925143078,1087.9498969010235,1094.447734964122,1089.9521557636697,312.83631131175207,-372.7834581666596,44.595710533872,-200.3896523080469,156.52932692997538
58.285,0.6776143399177902,-0.8428431250333678,0.106434670194796,0.0349378899794004,-0.0157733752646098,0.0296905981423683,0.00109057008129,0.0012465934519928,0.8616580896655723,0.5074862682723695,-0.0337711011312886,-0.0550726574305858,9.167931913292625,-0.0208839738822924,0.0344248340314402,-0.0885145071678382,7.207200169963267,-3.3689774273691486,4.647885894275732,1088.2691645710847,1086.9065910498366,1094.6368606516244,1089.4012534857388,341.2152699464132,-366.0418124119989,82.11990884874814,-195.78993844792407,156.52683921221907
58.2875,0.5784701589240696,-0.5248655883790527,0.1682972757716557,0.0377501582296778,-0.018036660387149,0.029703029308756,0.0011432581904264,0.0012668796153495,0.861677366159907,0.5074533577062019,-0.0359937195985845,-0.0527435321070703,9.17420407795146,-0.0208132724916282,0.0343330152280594,-0.0901045779440304,7.207147620409175,-3.3690591613116125,4.64765004180564,1089.0605688640408,1086.1196878389628,1094.858334508366,1088.9732060714296,311.8775341381132,-264.4029384459503,94.75801205803216,-160.46030740768444,156.524832736832
