t,ang_acc_x,ang_acc_y,ang_acc_z,a_vel_x,a_vel_y,a_vel_z,quat_x,quat_y,quat_z,quat_w,acc_x,acc_y,acc_z,l_vel_x,l_vel_y,l_vel_z,pos_x,pos_y,pos_z,mot_1,mot_2,mot_3,mot_4,dmot_1,dmot_2,dmot_3,dmot_4,vbat
7.9275,-0.4890791634687127,-1.4727342938058208,0.191378790414023,-0.0077093294494212,-0.0227387046698531,-0.0011710574645935,-0.0011249979383544,0.0010363076148592,0.0212716163011776,0.9997723868581144,0.0132914283978106,0.0299126868076663,9.85088988294072,-0.0054376619912574,-0.002322841560317,0.0084139943177554,3.49085139077394,0.0172949814442592,2.0619991498823005,1124.3072162528729,1115.6256632142004,1111.8121721412488,1142.9717991218272,225.32208611752253,-1046.2280879368975,393.3999867990064,21.23925597424781,155.9848667485597
7.93,0.0375204206592996,-1.2356654584789564,0.2091181950126295,-0.008298157773641,-0.0260027125768692,-0.0007431124690464,-0.00114655147071,0.0010226415658438,0.0212466051040808,0.9997728933032296,0.0139018619073901,0.0259904672129598,9.850461325982197,-0.0054376189754342,-0.0021631928251043,0.0085283498024376,3.490837499464993,0.0172962182845745,2.0620070740563623,1124.8210420762764,1113.274151378061,1112.5669105790907,1142.9577472293004,209.534983137114,-895.8676463680339,270.4675554704011,-27.18658506737541,155.98464228706032
7.9325,0.5378962276712463,-0.9750336337858416,0.2121374783586898,-0.0067007065242465,-0.0281148965236513,-0.0005720770971366,-0.0011696701625402,0.0010024676809601,0.0212146427758847,0.9997735438383496,0.0148557907820231,0.0221356849104698,9.849782122886658,-0.0054390127728722,-0.0020292799675653,0.008664186596325,3.4908238709067123,0.0172952534601234,2.0620180063582967,1125.3548911685584,1111.1463249823603,1113.1645099186007,1142.8358661964903,241.34093970329164,-852.7763542322828,255.24429381221668,-82.36893576431788,155.98440955348462
7.935,1.0448267061696455,-0.659009041236462,0.2021275117917482,-0.0026297638520832,-0.0296627900423728,-0.0005266317950075,-0.0011933452386347,0.0009668516473621,0.0211757399948564,0.999774351407972,0.0163288939819151,0.0184359222402234,9.848818206452036,-0.0054421683090117,-0.0019151639241205,0.0088188667161868,3.490811621158673,0.0172922459463465,2.0620326031089418,1126.0277467747928,1109.0102696068996,1113.8431320481518,1142.5459025504788,249.0613413636364,-697.9955869371828,258.6208615035558,-132.83698250520783,155.9841267909973
7.9375,1.3598914608548336,-0.4022170539858632,0.1792554440014981,0.001824830047627,-0.0304377591228974,-0.0004552949469545,-0.0012127779858628,0.0009128057591585,0.0211340190101473,0.9997752404312992,0.0183805166788501,0.0150421065931176,9.84754181553,-0.0054474127744782,-0.0018142233475798,0.0089883133891325,3.4908009896563255,0.0172871601981599,2.0620506616703125,1126.6001978753764,1107.6563470476744,1114.4576142261187,1142.1716812839643,223.44088906038928,-444.51721100141214,263.4264264803334,-173.947375925176,155.9838920233659
7.94,1.554549971808936,-0.1533742486954662,0.1304006501739687,0.0064703254731021,-0.0308515969397953,-8.064529020604822e-05,-0.0012228884561885,0.0008458336577946,0.0210945709132642,0.9997761075879616,0.0209009454223856,0.0120989944108412,9.845934912654531,-0.0054549193138985,-0.0017196273504783,0.0091674457172663,3.490791539755566,0.0172797083545954,2.0620714696011433,1127.1449512200948,1106.7876835518928,1115.1602641805534,1141.6761656708527,207.01667589928988,-268.047595071181,290.5801712412147,-208.54849635930336,155.98366186421964
7.9425,1.6602934926239792,0.0929264923355656,0.0491501441309847,0.0108369608368534,-0.0310188830498175,0.000775582874638,-0.0012236074062789,0.0007765420054536,0.0210614401614764,0.9997768598908828,0.0236750368874956,0.0096390919765464,9.843992343236462,-0.0054644665870605,-0.0016248538732616,0.0093505949925643,3.4907823113468113,0.0172697672456366,2.062093294956002,1127.635281254873,1106.3161090723183,1115.9105150823248,1141.1289388021676,179.7712558376172,-102.0172211960038,294.32910102382885,-211.79143535619457,155.9834377061794
7.945,1.6845894778525308,0.3422055163454307,-0.07922932547816,0.01436386053892,-0.0308527326287814,0.0021779663209653,-0.0012128416189795,0.0007124445611569,0.0210294512893235,0.9997775996227948,0.0265448543970539,0.0077183041910291,9.841722993399754,-0.0054751745480663,-0.0015240638624475,0.0095318463292462,3.4907725275170858,0.0172582340657404,2.062115632648008,1128.0438074992828,1106.2775974459128,1116.6319096856723,1140.617208494072,165.8398235233143,63.71642504318651,281.70961069000134,-189.2970800006464,155.98322270745348
7.947499999999998,1.6521097804317535,0.6477865163524078,-0.2768480669689553,0.0177824479901407,-0.030071135949464,0.0036634226489192,-0.0011905904557888,0.0006584368134271,0.0209961555017492,0.999778371434951,0.0293994321047104,0.0063366096318942,9.83915105927002,-0.0054855771461445,-0.0014123958253057,0.0097050927549907,3.4907620218484854,0.0172456457312435,2.0621388615934375,1128.4644803724896,1106.6346911975345,1117.3190631357747,1140.1824534021644,152.03078640188647,179.5239784959487,202.4378135573941,-113.78183263373344,155.98297693852837
7.95,1.5858290179891423,0.9035674808755056,-0.4478765177208824,0.0208198499220671,-0.0287057009407401,0.0037784795220316,-0.0011595568537106,0.0006193625343617,0.020963429363929,0.9997791283256016,0.0321234792947652,0.0054291716901356,9.836316100139987,-0.0054937640462223,-0.0012862179180039,0.0098640658893749,3.4907507152874446,0.0172320504724069,2.062164027904384,1128.8039614312922,1107.1752173383925,1117.6440987534595,1140.048299330903,146.43896294789997,239.30531565043464,64.24614428700711,1.4842787251379783,155.98278317933827
7.9525,1.4765670839898535,1.1472185294552093,-0.5679322145445278,0.0246918218109099,-0.0263235981717849,0.0016486490492277,-0.0011243948826193,0.0005952131312922,0.0209370683540754,0.9997797434871936,0.0346915612934058,0.0048817748921743,9.833272222652349,-0.005497394433762,-0.0011433314221778,0.0100025642733056,3.4907386240374216,0.0172174639167567,2.0621928012520225,1129.1966751872292,1107.8312177757869,1117.6402938572098,1140.1898747957903,194.74446956306073,277.4334460083596,-77.00412198155556,119.91657028284207,155.98260189842102
7.955,1.2867922656541144,1.4044989608940692,-0.5860591216461193,0.0297941000148737,-0.0222253021771973,-0.0029514338259015,-0.0010852908460894,0.000585171257296,0.0209237298204538,0.999780078997464,0.037090588614243,0.0046616888894067,9.830085823008329,-0.0054938813589599,-0.0009830572919571,0.0101147928069402,3.490725580468357,0.0172033924270409,2.062225722464329,1129.7776837791075,1108.5623845684343,1117.2590781435515,1140.6478821823175,231.57831152184863,229.1757192893377,-190.6858435789713,204.81960986922317,155.9824000451249
7.9575,1.0815188275219543,1.5762766056619,-0.4711115285989472,0.0338446330547682,-0.0180637674505188,-0.0068016160715469,-0.0010375862286807,0.0005879126181253,0.0209218171524219,0.9997801736077808,0.0393131479455159,0.0048283595686242,9.826833133204223,-0.0054805124158507,-0.000806387561605,0.0101958795680025,3.4907115723671858,0.0171917416527795,2.0622623616361127,1130.3545667448384,1108.9770963722335,1116.6868646393148,1141.2139728451364,241.69436815891967,94.62636681532989,-259.12704502684943,250.25362877645955,155.9822458802208
7.96,0.8475127802513361,1.6962285150630545,-0.2335302386568579,0.0369473343520881,-0.0136981052129801,-0.0092687368490073,-0.0009823856224716,0.0005994954187207,0.0209247283383954,0.9997801638342504,0.0413954801143208,0.005327062633317,9.823597951562927,-0.0054545691251019,-0.0006160039388679,0.0102424248237947,3.490696502307969,0.0171832400611447,2.0623015799768423,1130.986155619902,1109.035516402511,1115.9634429184175,1141.8991503261996,250.22441650149253,-48.74125963392648,-296.0784805997782,285.5611178062251,155.98210753018495
7.9625,0.617812555005602,1.7743955703959327,0.0694494304885222,0.0386154857650636,-0.0095655493664484,-0.0105428812095891,-0.0009206583421069,0.0006200893814897,0.020928205179676,0.999780134971556,0.0432893813143364,0.0061101369961448,9.820467372910144,-0.0054136377200922,-0.0004157303798795,0.0102528943431598,3.490679478619124,0.0171777387496678,2.06234200423191,1131.6056888273458,1108.733390074064,1115.206472236316,1142.6417784341675,227.23726462000317,-203.2307421840003,-292.337815727621,305.28015255377534,155.98198327057028
7.965,0.4325542236838075,1.8069881379449784,0.386851311311339,0.038484828071046,-0.0056308373956811,-0.0101826783116141,-0.0008552728559595,0.0006500880939291,0.020931342413611,0.9997801020252028,0.0449391704074762,0.0070973848755167,9.817527796088967,-0.0053557629088146,-0.0002101584614012,0.0102279383176875,3.4906598628226235,0.0171751368100941,2.0623823332941447,1132.122341943002,1108.019362691591,1114.5017538397794,1143.4255510889686,180.01154406129373,-375.063890816872,-283.2124462213929,351.3056645341369,155.98187724744068
7.9675,0.2966167011748024,1.7957812424648882,0.6903454750025181,0.037663042515311,-0.0009049961481844,-0.0071050234816957,-0.0007881971111613,0.0006835201420653,0.0209336114078033,0.9997800778651916,0.0464134238823715,0.0082297423047419,9.81486021454548,-0.0052796354556752,-4.223179553739474e-06,0.0101705464237235,3.4906385261365678,0.0171754861480489,2.0624209168606567,1132.5057465476523,1106.8580706199796,1113.7904100052092,1144.398306756838,86.14584819693118,-436.43649006381594,-235.5710284628963,360.60417669310334,155.98177279088893
7.969999999999998,0.2603210295710675,1.7412857307957004,0.8176471957341273,0.0376276009894373,0.0031342462945764,-0.0024875073088598,-0.0007200425518963,0.0007119111163343,0.0209305777775534,0.9997801603394711,0.0478306160885957,0.0094805105763579,9.812536096090977,-0.0051849924786335,0.0001971671613255,0.010085865446715,3.490616712090848,0.0171794706274617,2.062456352544125,1132.5530711839867,1105.8371802412719,1113.3238986974648,1145.228571972434,-49.74560780992866,-366.5996445917777,-165.9168325816189,331.43539928883706,155.98170600726553
7.9725,0.2910104938883352,1.6314545552476816,0.7760223019710679,0.0384206785155455,0.0074644779037942,0.0025427295337285,-0.0006497352687162,0.0007307518918014,0.0209238751951614,0.9997803178311304,0.0492355109410275,0.0108637735882753,9.810613934411522,-0.0050729299935662,0.0003896860083598,0.0099807641729063,3.490595466337752,0.0171868815314793,2.0624868685993247,1132.2570185086026,1105.0250723970207,1112.9608258423011,1146.0554837532823,-212.15996543738905,-258.1387520804634,-150.96438220696115,349.9207218954233,155.98166186348493
7.975,0.3841387587735476,1.4273095463741932,0.5483302228226467,0.0394383471162085,0.0127011647384965,0.0064950666840987,-0.0005718594726182,0.0007391881331578,0.0209173779797369,0.9997804732707296,0.0506080553052864,0.0124854409845135,9.809136199376423,-0.0049458970828037,0.0005700434493307,0.0098632487717707,3.4905757669732966,0.0171963550323921,2.062512101717077,1131.4922713567996,1104.5464864808691,1112.56907678643,1146.9781755819115,-339.94820689941474,-70.44832214665044,-151.0421056107166,311.8065370280486,155.98163702006164
7.9775,0.4945900758675339,1.1980857774472145,0.257059933613459,0.0402965265670659,0.0164560500580693,0.0074536932788472,-0.0004852541010315,0.000739628091467,0.0209145957259226,0.9997805540170908,0.0518691274518436,0.0143729336377969,9.808128448269299,-0.0048075525445774,0.0007361221256022,0.0097417489976397,3.4905582824615946,0.0172068267204976,2.062532674061331,1130.5572774741056,1104.6728307862875,1112.2056153142476,1147.6145164384225,-411.9899595019066,164.4957011817531,-172.71274092054597,205.57903449308,155.981641245068
7.98,0.6213693429818858,0.919919675259662,-0.0703353623293361,0.0414631675010428,0.019102578415775,0.0067322685313839,-0.0003913921940755,0.0007386760075434,0.020919381657198,0.999780476450652,0.0528644389283457,0.0165053014655858,9.807598567840621,-0.0046625285468857,0.0008871919601008,0.0096243897433159,3.4905434270677222,0.017217936144795,2.062548319117252,1129.43232155929,1105.368964986778,1111.7055130818271,1148.0060707543769,-499.6163719474332,417.95004789601967,-273.6762321295432,91.7047773073156,155.98167319036173
7.9825,0.768181008869056,0.5517069068208139,-0.4344730393004667,0.0429942492482686,0.0210210516522153,0.0048588773569584,-0.0002930683039807,0.0007368357395215,0.0209272673635613,0.9997803322161984,0.0535667936200402,0.0188328904073491,9.807536688143992,-0.0045159076188782,0.0010239121775525,0.0095184026033084,3.490532498728309,0.0172292529776246,2.062560589093291,1128.0591956143685,1106.7625810257675,1110.8372341535999,1148.073040324959,-478.05855835346046,577.1089090781184,-375.451626798448,-54.91471456634944,155.98174580391725
7.985,0.8644644191079623,0.2322472159114715,-0.6757216193830641,0.0446293213308217,0.021694187726212,0.0028718515008614,-0.0001954422572553,0.0007318662280265,0.0209336049959878,0.99978022031499,0.0540110115012377,0.0212554228866015,9.807916819348824,-0.0043728210026607,0.0011483683481648,0.0094295227498225,3.4905263665578827,0.0172392156097072,2.062571902428676,1127.0420287675229,1108.2545095321686,1109.8282549478351,1147.7314971815451,-353.8563243881602,626.6109869763701,-468.4170288465893,-221.019061221664,155.98183656925104
7.9875,0.9021876288442812,-0.0850995654164447,-0.8206719884743292,0.0471203997483108,0.0214997554245419,0.0006750597001117,-0.0001031328514149,0.0007246302742825,0.0209375898973306,0.999780160601214,0.0541805412326243,0.0236788862623826,9.808698977790575,-0.0042379556173624,0.001263985153871,0.0093616307162442,3.490524154083967,0.0172467449281755,2.0625836568013107,1126.2899139924275,1109.895635960649,1108.4951490093667,1146.9679450188507,-247.141504062716,652.4889555570692,-581.4796192763548,-363.5683364990732,155.98196081034547
7.99,0.8678134748089342,-0.3933215374250003,-0.8690439215294381,0.0501625360769402,0.0206994390080027,-0.0017882714884243,-1.7007379583039976e-05,0.0007238544111755,0.0209465198702719,0.9997799953412366,0.053914994380143,0.0260783597865772,9.809831721819357,-0.0041150483493044,0.0013752647781344,0.0093166746519314,3.4905237062420595,0.0172519787083378,2.0625962170198475,1125.806321247209,1111.516954309954,1106.9208568514534,1145.9136554990498,-129.5850016705369,614.9654402700837,-668.6697302511993,-461.46230849110066,155.98211427060156
7.9925,0.7278365859155619,-0.686167329471412,-0.7873347150279146,0.0533064361054533,0.0193032265589383,-0.0047623570350251,6.100600777825098e-05,0.0007319859597348,0.020966884019966,0.9997795867443378,0.0531828731105534,0.0283971170781643,9.81125523805771,-0.0040062803940377,0.0014871935601346,0.0092949130693293,3.490522962346855,0.0172552796793377,2.06261002239858,1125.6419889840747,1112.9704631620002,1105.1518003581104,1144.6606334763949,-10.870049584309756,575.7129497961737,-786.6447189030334,-546.1797969092574,155.9823042070813
7.995,0.4352871029183082,-1.0172212849534799,-0.5361129493564079,0.0565636527344874,0.0170459802370551,-0.0088361860451846,0.0001256166263212,0.0007469066735752,0.0209943235392663,0.999779025014582,0.0520437683210317,0.0305021694373981,9.812904892064202,-0.0039122781064317,0.0016047412868729,0.0092950815841098,3.4905209822958905,0.0172565914169524,2.062625610456631,1125.7519709992876,1114.3955190589347,1102.9876332569384,1143.1827565145036,79.10663428097165,460.85411980135245,-770.1435110553283,-500.6711024120357,155.9825750146425
7.9975,0.1038438669932729,-1.2737140940074343,-0.2167800060427594,0.058473823766503,0.0148070403498339,-0.0120170820618681,0.0001760212078252,0.0007637682819192,0.0210221276439328,0.9997784516675312,0.0506147297990688,0.0323386812972229,9.814713183739872,-0.0038322788554398,0.0017327364455345,0.0093146056791487,3.490517464862111,0.0172563358808345,2.0626439474784735,1126.0375221554796,1115.2747337610067,1101.301082802834,1142.1572779643348,140.67794617785995,288.23522622820445,-617.9253458267017,-334.54558401814006,155.98283629744452
8.0,-0.2783107200402944,-1.5020611684892395,0.1620710454349932,0.0586352095710828,0.012018484138235,-0.0132436068468146,0.0002139131655428,0.0007784049469954,0.0210502427764617,0.9997778678472692,0.0490019617801741,0.0338928506508154,9.81661266669842,-0.0037644220655315,0.0018755870124512,0.0093499279767067,3.4905119703487846,0.0172547540754369,2.0626653541156,1126.455360730177,1115.8366951900755,1099.898006527805,1141.5100285944127,202.29936775489864,184.38170084667976,-527.078067685002,-181.87729206710156,155.98313362232307
8.002499999999998,-0.7321334898541911,-1.723674116976241,0.5867010524940243,0.0559535673221027,0.0074800270490692,-0.0107806217397145,0.0002434554553885,0.0007857550225312,0.0210762462857817,0.9997773260653244,0.0473289733019509,0.0351929391613342,9.818537896826696,-0.0037060651743187,0.0020369407669382,0.009396957241581,3.490503975859861,0.0172519874510504,2.0626900977303975,1127.049018994254,1116.19664226524,1098.6656924644094,1141.2478915039994,226.3058546555941,90.01037194646825,-370.0419953425684,-15.999295635308272,155.98353004083006
8.005,-1.0647042371088884,-1.8458766025001097,0.8434402959067971,0.0517899601978416,0.0028685000542088,-0.0061881839445332,0.0002659804791885,0.0007798564395756,0.021095937918562,0.9997769194730995,0.045733396560441,0.0362074969740752,9.820427647160146,-0.0036541667136709,0.0022193517721243,0.0094515549253279,3.4904934164396746,0.01724794582829,2.062717034988805,1127.5868900034552,1116.286747049808,1098.0477965510916,1141.4300321162364,217.49037866444507,3.3651726440433967,-167.59074166604583,131.53958650616678,155.98389128229476
8.0075,-1.3262761859405279,-1.883328866720962,0.9475703023851264,0.0471673352806179,-0.0021773291860931,-0.0013738497949401,0.0002825763593276,0.0007593717156861,0.0211081890930647,0.9997766738447488,0.0442596054195322,0.0369010079623498,9.822225398181331,-0.0036057880171712,0.0024241329630896,0.0095098879613602,3.4904805424941947,0.0172431106138533,2.062745446634298,1128.1364708875765,1116.2134681284604,1097.827738756079,1141.9055894365304,238.73757813112408,-63.90355652689684,-23.10378963261888,234.39604598015765,155.98428129433006
8.009999999999998,-1.5703813536467128,-1.8172653550983209,0.8943823318492283,0.0423985309999526,-0.0084808574833642,0.0033054775836576,0.0002977338809682,0.0007286805383162,0.0211114068231096,0.9997766190505574,0.042838014333893,0.0373093311770817,9.82387884498517,-0.0035585306864757,0.0026511991973775,0.0095686850494129,3.4904658303098515,0.0172385655277244,2.06277540454625,1128.7805778941104,1115.9672292671737,1097.9322776029287,1142.6020123461367,231.44243894080373,-117.56102776587404,82.8959517392542,243.11855745513927,155.98477806772215
8.012499999999998,-1.740452236856706,-1.6701791824178258,0.7307908372184517,0.0392874653866378,-0.013519283105611,0.0062264052721905,0.0003146552658899,0.0006894765318865,0.0211047492340336,0.999776771289734,0.0414486439215456,0.0374473887894799,9.825340072878948,-0.0035107083730736,0.0028988737925569,0.0096255369902672,3.490450482097239,0.0172343617184169,2.062806775387033,1129.2936830822803,1115.625662989631,1098.2422185147752,1143.1211822238058,200.85452646646033,-170.57308496298054,151.3697490613358,162.11150275737248,155.98521264257707
8.015,-1.9028299300309215,-1.4421834958826003,0.5000353612514394,0.036560032877035,-0.0176249738548964,0.0078041621354873,0.0003420439928346,0.0006398440447236,0.0210880524962132,0.9997771318459427,0.040142819397873,0.037445450779666,9.826563797503216,-0.0034615216209444,0.0031639952432051,0.0096790587196248,3.490435844391204,0.017232213295813,2.062838771787964,1129.784850526443,1115.1143638423587,1098.6891263482355,1143.412569859924,195.2569685303992,-237.72357264034247,191.5724783103697,64.25013502329325,155.98566464820473
8.0175,-2.064121360971006,-1.1662546305814212,0.2633258818434723,0.0331321072139696,-0.0207658646849865,0.0078990432848548,0.0003835122448033,0.0005792804730144,0.0210660086641042,0.9997775991522424,0.0389416899889069,0.037346020586457,9.827508190020776,-0.0034111329456016,0.0034418494458374,0.0097290338689658,3.4904229731951486,0.0172333111605138,2.0628703741901875,1130.2699679249324,1114.4370451264292,1099.2000809063272,1143.4424328989223,196.6212206460505,-314.38216151483965,215.8887809102882,-53.64528321489318,155.98612821601583
8.019999999999998,-2.2087390204339976,-0.8588015915152406,0.073874249916329,0.0282085181119504,-0.022815264488912,0.0064516339423988,0.0004367807312286,0.0005111565061264,0.0210461310317864,0.9997780124477136,0.0377882349769192,0.0370916656907182,9.82813402954208,-0.0033605401454934,0.0037264171270984,0.0097764165238083,3.4904120362925832,0.0172376587001086,2.062900851342029,1130.767956629673,1113.5424530347848,1099.7685702527867,1143.1443434438495,225.894255637296,-441.0228979212426,269.23733426556623,-192.86157324669767,155.98660229332577
8.0225,-2.3300607037095102,-0.4835350341193455,-0.0559420662872668,0.0211962641570024,-0.0241876175989018,0.0040857115434693,0.0004991770363523,0.0004381084245886,0.0210373115126132,0.9997781852687588,0.0366408188441699,0.0366329913612251,9.828402957712376,-0.0033112154763131,0.0040108461538953,0.0098232042265294,3.490402576524378,0.0172458163787799,2.062929383000358,1131.399439203119,1112.2319306368227,1100.5462675776553,1142.4781250326887,237.12600688673703,-511.35818935973674,311.0048299248288,-276.4244267903928,155.98717898274225
8.025,-2.3652506315305355,-0.1818762044484022,-0.0785107905329204,0.0149472216845264,-0.0246861709511402,0.0024767570510392,0.0005663319370678,0.0003622412702788,0.0210441894180663,0.9997780243722336,0.0354686681407838,0.0359041669935704,9.828277212749343,-0.0032648908205853,0.0042878180836567,0.0098721863414605,3.4903941658756863,0.0172577157371896,2.06295480320228,1131.9535866641068,1110.9856620879857,1101.3235944024111,1141.7622213098973,223.14325971556065,-512.8842837573413,350.9861159953987,-291.9309848750926,155.9876629357142
8.0275,-2.31442558573573,0.095514043826097,-0.0358042448374295,0.0086948317482474,-0.0246053453157925,0.0018222479086009,0.0006279110283435,0.0002866736177688,0.0210643895972398,0.9997775859957482,0.0342200398648856,0.0347396695721742,9.827720287143864,-0.0032234205777922,0.0045499022747271,0.0099265705379715,3.49038671892058,0.0172726256770718,2.0629768230587198,1132.5151555016967,1109.6675092180365,1102.301198157632,1141.0184701083135,240.111491615246,-571.059872974888,485.7634755786478,-303.4550323226689,155.9881467403081
8.029999999999998,-2.1475607673626382,0.3906578452018589,0.0429080751301132,0.0016761295483749,-0.0236484300403629,0.0023501214916091,0.0006771552699964,0.000221695156069,0.021093138525746,0.9997769711833924,0.0327063460311936,0.0330632752487069,9.826695991757044,-0.0031887136778224,0.0047901823696049,0.0099893618740988,3.490379957126857,0.0172898418636864,2.062996148706916,1133.1541441221827,1108.1303627231118,1103.7524117803039,1140.2449461482843,221.89247566421895,-537.8356956873245,577.4799422768417,-247.69816725088953,155.98872297441636
8.0325,-1.9239692143037437,0.6007217847062066,0.0958322278295898,-0.0035888942499644,-0.0222192467112742,0.0038118337518106,0.000713810039312,0.0001763514752012,0.0211245298784452,0.9997763026993663,0.0307692569542145,0.0309402002710933,9.825169237459269,-0.0031624409382624,0.0050026404146241,0.0100628893099018,3.4903730016370926,0.0173095130760177,2.0630133020919095,1133.624617880018,1106.9783307395994,1105.1885978690163,1139.7799792720589,169.8065696018337,-416.08134439227666,610.1066411010336,-139.38373313792547,155.98919657651183
8.035,-1.6245175635689704,0.772226199772833,0.1080083728794367,-0.0082223877977122,-0.0203696252057603,0.0059180709480086,0.0007388116641619,0.0001547554776729,0.0211520397817197,0.9997757194281292,0.0283511356480505,0.0284682990141185,9.82310877856834,-0.003145922427451,0.0051823494332882,0.0101484659772152,3.490365166316092,0.0173324078958097,2.063029508773923,1134.0031769701923,1106.04995600115,1106.8029449858095,1139.5480274825943,143.48420698150346,-343.55074540701486,728.344045174171,-49.89853515890983,155.9896598344748
8.037499999999998,-1.1997922594469452,0.9367261434806604,0.0769414539419016,-0.0125974854162597,-0.0177749104565432,0.0080761918243883,0.0007488137015982,0.0001535815567944,0.0211701154637208,0.9997753429119108,0.0255419531794199,0.0256659141260134,9.820490458673312,-0.0031401199177765,0.0053257225387483,0.0102461791639837,3.490356495394443,0.017357869851521,2.063044912032727,1134.3420389149253,1105.2605770125647,1108.8303180948867,1139.5304865962644,105.81274798717624,-231.6261877252693,738.5730019333758,29.00260135565533,155.9901997956236
8.040000000000001,-0.8126205821155855,1.0439319418039512,0.0384272322651175,-0.0148895065213509,-0.0153634397966198,0.0085626542461117,0.0007457914052675,0.0001656207668343,0.0211819814589752,0.9997751016838444,0.0225137768211664,0.0226580039784339,9.817298668403708,-0.0031457121797921,0.0054311203618479,0.0103545794504087,3.4903476970357885,0.017384924804714,2.0630594266178224,1134.5322407101282,1104.8918250625236,1110.4958099954767,1139.6930404893728,57.21745514441879,-90.10075831991753,637.7761046084655,87.64200956387408,155.9906336079175
8.0425,-0.4173373241656295,1.1269566795796373,0.033290545229953,-0.0160410130794864,-0.0128928240719547,0.0074060435608716,0.0007344781168904,0.0001825619478887,0.0211905234751872,0.9997749301211672,0.0194631606268898,0.019622338579859,9.813529666264222,-0.0031632890812004,0.0054990142107839,0.0104705262890799,3.4903397776646488,0.0174126137640049,2.0630741468760307,1134.6281261906474,1104.810073220965,1112.0191986179295,1139.9686966440838,20.467034807511006,8.522060202905653,569.6034448794985,118.09549729580417,155.99104728533175
8.045,-0.0324340248399585,1.1947174295316174,0.0861150019275813,-0.0165623440142838,-0.010289278513572,0.0054852169476617,0.0007164173685566,0.0002015478787998,0.021199326215774,0.9997747499859548,0.0164793521289757,0.0166708018481235,9.809194813728004,-0.003193413888675,0.0055320000950989,0.0105891425865994,3.4903333391176607,0.0174396056274533,2.0630910037900008,1134.6345758841655,1104.934435363538,1113.343827219874,1140.2835179758515,-24.5220336314154,88.36917774298793,463.9532234923095,125.60657256028885,155.99144178934355
8.047499999999998,0.3217155010082093,1.2477259442590158,0.22063512035492,-0.0161872519856499,-0.0074519791383175,0.0036728997485675,0.0006936492370149,0.0002229111983124,0.0212097259861355,0.9997745314836228,0.0135892408997975,0.0139162564230732,9.804322242243614,-0.0032364386187868,0.0055348197443395,0.0107039410893498,3.4903281149291376,0.0174651045431014,2.0631118508925987,1134.5055160224904,1105.2519191096799,1114.3389647353906,1140.5967295068851,-94.72678044656617,168.42865329747025,340.15039981594924,133.4449449244194,155.99181022090747
8.05,0.6879163945574466,1.2966513126644748,0.4502554660502962,-0.0145909428615715,-0.004166881900954,0.0030503414714875,0.0006629020866174,0.0002471194533145,0.0212210953619615,0.9997742914052542,0.0108140733181929,0.0113533665442491,9.798959084468782,-0.0032922501824988,0.0055140422989547,0.0108073145770934,3.4903229603047325,0.0174875569863411,2.063136474129235,1134.1609419819329,1105.7765786300256,1115.044579218954,1140.950742700474,-158.74810420561764,204.83255261598492,163.56706980756996,131.17769031430495,155.99221843732496
8.0525,0.9278853424471684,1.3241807376455756,0.6545550837170607,-0.0122473901269839,-0.0014505315333949,0.0046579331842362,0.0006222157558395,0.0002747052310208,0.0212355859985128,0.99977398826323,0.0081730186096869,0.0089854724712688,9.793171365805987,-0.0033601174944467,0.0054778678872588,0.0108909996937696,3.490317163786542,0.0175055353675661,2.0631645833629495,1133.711775501462,1106.27608187276,1115.1568000844284,1141.2526179584568,-206.2265171347418,200.57113271804508,-65.40558112975697,136.19336418721994,155.9925276614555
8.054999999999998,1.0854093267712033,1.3308751213580177,0.8116617787362757,-0.0090879433778458,0.0016208364336849,0.0082863716539623,0.000579411150164,0.0003040511672309,0.0212556820188872,0.9997735657374216,0.0057287560759686,0.0069870731633037,9.787043011180199,-0.0034387043081363,0.0054357377494885,0.0109465321852666,3.4903102571406337,0.0175186023282842,2.063196018585347,1133.1298093962591,1106.7794342936156,1114.7175513133052,1141.63170952141,-268.5155049314325,211.60848755054175,-324.7607860489954,203.53171744801787,155.99280156948927
8.057500000000001,1.1742753292338668,1.3014431038401475,0.8980975813785806,-0.0050893311068091,0.0057020308233812,0.0131235627909863,0.0005414176011165,0.0003284630393093,0.0212809571667113,0.9997730317434544,0.0036389289570751,0.0054920562327688,9.780675745600016,-0.0035261722340048,0.0053973904401487,0.010965894579369,3.490302455783515,0.0175270705798734,2.0632308020230847,1132.3691979768048,1107.3341243105128,1113.5329961541831,1142.270276545697,-272.2630731894725,189.86446501059376,-539.0365852490571,273.26953255910945,155.99308578879052
8.06,1.1708242092057033,1.237094665309956,0.877474242301825,-0.0019951667114366,0.0091369570609971,0.0164621204903145,0.000515426593555,0.0003380577433951,0.0213086102237241,0.9997724478571604,0.0021186539230293,0.004617282077762,9.774186243599843,-0.0036203532658613,0.0053721781884593,0.0109419967170671,3.490294848014189,0.0175316212066887,2.0632688432854858,1131.7684940303116,1107.7287566186687,1112.0223683870595,1142.9980571842057,-215.00415641534985,140.12415038303575,-696.3848761932262,328.261826448417,155.9932829566948
8.0625,1.101656939472788,1.1267343660075155,0.7784903566024179,0.0006851305918604,0.0122730891602514,0.0186625868348271,0.0005029259321759,0.0003261447999741,0.021339486038334,0.9997718002431412,0.0013130406468405,0.0043505822763216,9.767702441420022,-0.0037188810625909,0.0053683263038622,0.0108692054528552,3.4902879177169366,0.0175324822549859,2.0633105199448,1131.2941771947283,1108.0347450624279,1110.051071773218,1143.9115856779388,-168.48501553857827,111.54007797842895,-940.5757701616545,420.5095491250104,155.99343584586447
8.064999999999998,0.9625479900449672,0.9432738034027894,0.6050990353063986,0.0035371039664164,0.0154507745451587,0.0201492332994903,0.0005023202604784,0.0002991793825281,0.0213777030333628,0.9997709984009148,0.0011037928803255,0.0046092341241597,9.761357821046824,-0.0038193603193467,0.0053924063613936,0.0107437726082511,3.4902808993277548,0.0175302711126892,2.0633551261466185,1130.926068952619,1108.2864570085608,1107.319489536252,1145.1006049298303,-103.55111079068791,71.00903142257975,-1030.4551156106052,423.01257215420014,155.99356458547368
8.0675,0.8134745994712876,0.7529958338566991,0.4399829930642051,0.005653237228638,0.017556896467422,0.0207004350581721,0.0005116235231662,0.0002714889971627,0.0214211177834872,0.9997700821794964,0.0012131428619235,0.0052937321602337,9.75528613787136,-0.003919302411499,0.0054488155078834,0.0105643404766467,3.4902723790883705,0.017526836699454,2.063400337262211,1130.7764216407747,1108.3897902195408,1104.898796195164,1146.02664853871,-41.66794417673631,16.55717596749778,-955.5068298031853,317.6876460706311,155.99362371614407
8.07,0.6452626629429425,0.5319047442703762,0.2734564713621771,0.0075627422268276,0.0191263115334628,0.0208648447422455,0.0005272826382019,0.0002551061006854,0.0214635545451049,0.9997691815570376,0.0014023153685891,0.0062652898411538,9.74961653512256,-0.0040159782283851,0.0055394382725667,0.010332336131566,3.490260765528948,0.0175240547067374,2.0634439316986337,1130.7177292317351,1108.3692428883983,1102.5419553872355,1146.6890431601837,-25.442238713463272,-29.81456315515654,-901.5413957143184,193.9202633389345,155.99363001000071
8.072499999999998,0.4734353276053428,0.2919936961059193,0.111905902125809,0.0091489723026702,0.0201973019149085,0.0208913614106938,0.0005438075127398,0.0002532492197825,0.0214968346499003,0.9997684726685307,0.0015987527313118,0.0073410380863729,9.744468229557015,-0.0041065666743731,0.0056635926428722,0.010052037544663,3.4902459927173606,0.0175229045779846,2.0634843631960647,1130.6492104472075,1108.240717403765,1100.3910892165934,1146.9962498554044,-52.43514814611578,-75.34186334507147,-780.8122022426877,15.018331416152508,155.99359079759742
8.074999999999998,0.3150106307874995,0.0384237660945606,-0.0447375059740547,0.0097530442857064,0.0206718482347223,0.0208684151045714,0.0005591780069735,0.0002634576677022,0.0215201760593124,0.9997679717165996,0.0018384042172901,0.0084062198648996,9.739944234501069,-0.0041885360492948,0.005818370725039,0.0097302341881917,3.490229277407236,0.0175239637548099,2.0635207828498854,1130.4555534910048,1107.9925335716728,1098.6378943760228,1146.7641348172644,-138.81945079736045,-127.47865142817145,-654.7777772926452,-233.76101803847612,155.9934954461857
8.0775,0.1618074930962985,-0.2683054712132861,-0.2332210431865832,0.0093081173020657,0.0205354400985505,0.0207952646863762,0.000574768061535,0.0002808408950153,0.0215369736164125,0.9997676059140485,0.0022030778563638,0.0094183501893827,9.736126177937791,-0.0042600891276945,0.0059988812674293,0.0093757677914284,3.490211731098628,0.0175283742999674,2.063552983961843,1129.9551131932203,1107.603324146624,1097.1172003301297,1145.827444765212,-239.2942023357672,-146.01624379190517,-454.0297754994498,-441.6770354093151,155.99331550755866
8.08,0.0715884404879845,-0.5143225679378869,-0.3939286193242669,0.0085773353573783,0.0197542201565166,0.0206069538864637,0.0005890245967864,0.0002977302280085,0.0215483067234802,0.9997673571449438,0.0028253041321548,0.0102876044674248,9.73307094053303,-0.0043204076873639,0.006198460796392,0.0089991055652393,3.490194734102444,0.0175372082738544,2.0635813144149244,1129.2590824793256,1107.2624523527131,1096.3677454985252,1144.5557496402175,-338.6673329672922,-121.41633335834427,-198.82919046289635,-582.0500433327446,155.99311124554353
8.082499999999998,0.0118793125928697,-0.7341572593027176,-0.5553797052220883,0.0083296135504967,0.0181236575001954,0.0200746883963347,0.0005959103718034,0.0003062998106419,0.0215539467710805,0.999767239043389,0.003838185596874,0.0108509722379429,9.73080787549153,-0.0043696722738433,0.0064091935618524,0.0086118416810577,3.4901792827697955,0.0175508476454676,2.063605113872238,1128.2617765283844,1106.9962424798323,1096.1230543778152,1142.9171945485489,-496.52428367327474,-78.12729824348622,-14.844562018013175,-762.8891315681984,155.992851816444
8.085,-0.0482971488760317,-0.948924468095328,-0.7342496974039625,0.008714467817734,0.0150775624921098,0.0187023171947436,0.0005920036367318,0.0003087468387143,0.021555694026386,0.9997672137946072,0.0051821036800415,0.0110170002919934,9.729336075514183,-0.004408995394824,0.0066226974502116,0.0082259866436838,3.4901647239866262,0.0175690605754917,2.0636229929695578,1126.776461060959,1106.8718158614959,1096.2935226884351,1140.741303982376,-576.0521643155253,-0.590532803926088,114.1495496492829,-800.8217668149085,155.99247922408804
8.0875,-0.1059845253340369,-1.077883166213868,-0.8522404904567008,0.009238826371197,0.0117973559977465,0.016710783848346,0.0005819590599474,0.0003100221810595,0.0215563773484995,0.9997672147775482,0.0067496792418214,0.0108697303174115,9.728624427106281,-0.0044400544009975,0.0068308194222523,0.0078532876633011,3.4901504465152207,0.0175915229656785,2.063634694733484,1125.3815157068063,1106.993289815813,1096.6938021260619,1138.9130857144737,-566.1741705011299,102.49222802014847,178.7889001102386,-701.7513679678391,155.99212021400487
8.09,-0.1828222162575115,-1.1557033028479051,-0.9133685292798303,0.0095132771671911,0.0084161613426613,0.0137374553501129,0.0005730354829328,0.0003140244021001,0.0215563467265255,0.9997672295987328,0.0084580048233589,0.0105601648958225,9.728614117964877,-0.0044649294543956,0.0070260792056888,0.0075045521684792,3.4901363204030926,0.0176172208644488,2.0636408642891237,1123.945590208454,1107.3842770015965,1097.187467188986,1137.2325471425374,-613.3659606486018,228.656794706194,201.9467420885068,-680.1528457572192,155.99171452597307
8.092499999999998,-0.2963635967352686,-1.2073706334834535,-0.902777367100648,0.0091929016035831,0.0048798318624041,0.0095082642003609,0.0005737543789306,0.0003210505042864,0.0215540893487616,0.9997672870398556,0.0102981670044007,0.0102778366498631,9.729222072039335,-0.0044859831250797,0.0072021450975683,0.0071889320060101,3.4901228118005294,0.0176456884612579,2.0636424210737285,1122.314685903564,1108.1365737893436,1097.7035358365042,1135.5123214856883,-564.7666567560944,308.03467535670006,157.50096620892958,-572.5550427317118,155.99117799741072
8.095,-0.4016190900953893,-1.23416025633611,-0.8263538229683792,0.0084233424922049,0.0024940237339596,0.0063030266841135,0.0005832361173455,0.0003258608502785,0.0215464066193284,0.9997674554824696,0.0123685279709121,0.0100402391065956,9.730346498859442,-0.0045057458479437,0.007354079075661,0.0069134468099362,3.490110826179484,0.0176760198794544,2.0636404651852853,1121.121756924673,1108.9244503783802,1097.9749720200307,1134.3697719288784,-424.5395065200019,319.0458429969978,66.231530164158,-395.1966666807785,155.99069226771283
8.0975,-0.506581717321431,-1.2627153073800224,-0.7033955100938809,0.0071809334099188,0.0005209828372263,0.0043224726933501,0.000596226767998,0.0003242735760295,0.0215332890474556,0.9997677366731224,0.0147486787725821,0.0097902884254608,9.731871422959571,-0.0045267564174275,0.0074787488993933,0.0066823695469417,3.490100557244224,0.0177065216113697,2.0636371512209832,1120.1919883709636,1109.7318030043289,1098.034693487325,1133.536338152284,-316.7370715320606,298.89546675477993,-8.190006087763132,-285.35341534262665,155.9901693906847
8.099999999999998,-0.6032726681839105,-1.2973958281881914,-0.568305201438442,0.0054795041026007,-0.0014839108221823,0.0034701378213749,0.0006083394414512,0.0003142758610011,0.0215172093976044,0.9997680794741464,0.0174791162144761,0.0094948019356515,9.733672210519796,-0.004551317702141,0.0075749927725631,0.0064968896414363,3.4900919929052234,0.0177367298771621,2.0636352114060164,1119.538071567013,1110.4189277121538,1097.934021989592,1132.9430048521656,-183.9429867685961,213.8752639852676,-66.14513355410838,-186.28291366396112,155.98961761218382
8.102500000000001,-0.6843630803165414,-1.3296736749174072,-0.446679008640397,0.0035773885608451,-0.0040418468748233,0.0035595076501703,0.0006131091835056,0.0002952152710293,0.0215001511408582,0.9997684458560384,0.020574153751384,0.0090825737492783,9.735622280868153,-0.0045812487297452,0.0076434979060545,0.0063552405566031,3.490085313280668,0.0177664066499276,2.0636358589568222,1119.2722734371205,1110.8011793242551,1097.7039678195545,1132.604923583964,-18.90752011681502,67.72489492899545,-108.6360187216372,-101.35324949636248,155.98903293108987
8.105,-0.7636503257241714,-1.3378207704113398,-0.3326009497007413,0.0014275705836104,-0.0081357512694781,0.0037839729361714,0.0006055782087906,0.0002650986940157,0.0214851679741943,0.9997687750476154,0.0240744299941308,0.0085088964457813,9.737599023541447,-0.004617538914259,0.00768673723177,0.0062530184824197,3.4900804909603784,0.0177946131487468,2.0636392715875984,1119.4435339664287,1110.7575521867989,1097.3908418959838,1132.4362386046837,143.8800338539581,-108.07276790649088,-103.54584532721915,-32.37751332295109,155.98829534595856
8.1075,-0.8176452096880557,-1.2963745033536715,-0.2590270849662017,-0.0003365356143082,-0.012195703414439,0.0034534997484505,0.0005891910976741,0.0002267354266277,0.0214753050066258,0.999768997601966,0.0279280886879932,0.0078885125455271,9.739488644583217,-0.0046601563510988,0.0077088422358578,0.0061834828812593,3.49007683641222,0.0178207566418891,2.0636461329447062,1119.99167360639,1110.260815484723,1097.1862385929185,1132.4430360173494,292.211840655922,-284.91548003800045,-51.179468896690366,21.3833580520756,155.98765190939704
8.109999999999998,-0.8621629521582275,-1.1872946442353762,-0.1891251453408652,-0.00224936329565,-0.0160970300020065,0.0025004897150126,0.0005693625933973,0.0001868228804011,0.0214705708738067,0.9997691075380472,0.0320034055681601,0.0073666952668099,9.7411918113236,-0.0047078693635576,0.0077151981166626,0.0061381880262212,3.490072557453383,0.0178446039530619,2.063656784176988,1120.9045931697083,1109.3329747866092,1097.1349445515004,1132.543155394944,459.17738961608944,-475.7475465152477,30.616161630173096,55.58587259387463,155.98697964190808
8.1125,-0.9059447951692362,-0.9772937757714096,-0.0882683234488619,-0.0045363327824041,-0.0199317656491851,0.0012236054086871,0.0005509328157495,0.0001500935093047,0.0214692219041648,0.9997691391850504,0.0361997264897469,0.0070646129614053,9.742627726342356,-0.004758121426163,0.0077120853524708,0.006107674688914,3.4900663581503,0.0178663770624353,2.0636720708663403,1122.2875605544707,1107.8820777521464,1097.3393194010691,1132.7209653803188,528.3386671797044,-557.0060365725606,129.3094175610602,71.34599300978856,155.9861403292642
8.115,-0.9332325212213168,-0.74659549549161,0.0172584150430788,-0.0065580276100356,-0.0223228260611087,0.0003587294213844,0.0005353353440684,0.0001186035251094,0.0214672581923702,0.9997691784422496,0.0404583015483941,0.0070219970097942,9.743736681720138,-0.0048072066908484,0.0077063009106206,0.0060821893751566,3.490058115689097,0.0178854537946691,2.063691589883741,1123.5462865056072,1106.547944603746,1097.7814916393058,1132.899885359993,491.31722901393687,-523.2398721751583,241.80248638040476,76.68225005096862,155.9854139724151
8.117499999999998,-0.9464579742402432,-0.4778330495037463,0.14115551532093,-0.0089473274026289,-0.0238160062110139,-0.0001085622647765,0.0005232339984498,9.374016120428131e-05,0.0214672032308215,0.9997691714760376,0.0447236479125288,0.0072482010956354,9.744480724814563,-0.0048504574839201,0.0077049073235063,0.0060523119920076,3.4900471042136254,0.0179012326898835,2.06371471137174,1124.74414669954,1105.2658783912711,1098.5483318329711,1133.1043766305736,447.05656202461176,-483.7803808795951,363.31002994232904,84.81571912965174,155.98465957356223
8.120000000000001,-0.9443172178074428,-0.1947414681204075,0.2682058796075446,-0.0113361970312243,-0.0244294483539078,-0.0001533256272988,0.0005150535059735,7.336309737767166e-05,0.0214726025702349,0.9997690440414054,0.0489981861948984,0.007731267646629,9.744843140093748,-0.0048826749824606,0.0077147450514016,0.0060096018985148,3.490032813049549,0.0179136525287904,2.063741167319607,1125.7815693157306,1104.1290426993476,1099.5980417890175,1133.3239639556411,359.92966455809267,-407.3867140598668,484.68689971897834,88.23965820296037,155.98388158373984
8.1225,-0.9210206242506552,0.0860813582535476,0.3753876951683435,-0.0132187906580882,-0.0240909362451603,0.0004281305630757,0.0005033260051728,5.128140466890852e-05,0.0214834124459957,0.999768802085028,0.0533487009154185,0.0082897277464085,9.744827453012467,-0.0048986553603922,0.0077418103210371,0.0059472726865162,3.490015868643889,0.0179232584676798,2.0637700976199818,1126.5437950223309,1103.2289448209715,1100.9717663315664,1133.5455749215885,267.1624086689539,-340.27650426798976,664.0351671851433,94.18070298476832,155.9830744150719
8.125,-0.8626797610427328,0.4019111451134887,0.443901319321608,-0.0151872579412904,-0.0230601749716955,0.0020020581303361,0.0004811034514627,2.5243096444845574e-05,0.0214971498959954,0.9997685043575965,0.0577548392543706,0.0087419094789522,9.744454206912195,-0.0048937231890949,0.0077909161690648,0.0058604386950059,3.4899968702851334,0.0179308310865515,2.063799878188891,1127.1173813590751,1102.427660178008,1102.9182176249428,1133.7948674705651,161.63200777121833,-253.7218336973233,744.6043063399545,89.03954871218,155.9820707266976
8.127499999999998,-0.7784368314635173,0.6389568952073479,0.424658918695381,-0.0170829390868376,-0.0217901041153788,0.0040862985401635,0.0004486428800494,8.582228173086925e-07,0.0215105798457964,0.9997682203593444,0.0620369393443624,0.0090406196579818,9.743757254364063,-0.0048641257758278,0.0078654196603322,0.0057462472286924,3.489976409993581,0.017937138945784,2.063828797673266,1127.3519550611868,1101.9603356524851,1104.6947878632654,1133.9907726651493,62.97992192288727,-155.02141595236327,715.0461188917935,81.86773695264121,155.98120380394087
8.13,-0.6401445193715393,0.8414744240739856,0.3064133015106073,-0.019366740427336,-0.019969505486236,0.0067516449280674,0.0004117018658897,-1.90418846467598e-05,0.0215185677660894,0.9997680591049126,0.0660645826742209,0.0092388846731591,9.742779661443953,-0.0048072087034505,0.0079669249589905,0.0056040520049879,3.489955306157799,0.017943430653011,2.063855799996457,1127.4322809686896,1101.652553098246,1106.4934482194024,1134.2042061553284,26.60602774298734,-105.87102542384108,765.5691468963763,109.3005703560095,155.9803033718528
8.1325,-0.3975711746777449,1.0370236791482863,0.0571986985476946,-0.0222045481968411,-0.0170573124792623,0.009654729066253,0.0003776321812065,-3.406447057993128e-05,0.0215145362739393,0.999768161388563,0.0697509256522043,0.0094176383941057,9.741569972858963,-0.0047215991783235,0.0080951249099631,0.0054353042942104,3.4899341063456752,0.0179511253585932,2.0638799907501175,1127.4849851999015,1101.4309805253658,1108.522633597748,1134.5372755169294,27.765280990212045,-57.854027807309336,705.4814641058823,142.45648364547483,155.9791818275002
8.134999999999998,-0.1334340190200325,1.15638589780436,-0.2080041904547103,-0.0240468625443578,-0.0140458119728976,0.0106059936623772,0.0003450473924424,-4.866849488547847e-05,0.0214982393853398,0.999768531126364,0.0730990293413716,0.009486617602766,9.740179159767337,-0.0046071353540561,0.0082478333237739,0.0052434195636234,3.4899138419174114,0.0179615447081606,2.063900007869691,1127.5711073736406,1101.3632829592095,1110.020855539931,1134.9164885735556,51.58745568070233,-1.5491253830990344,548.1351514266588,175.847487153022,155.97821140182157
8.137499999999998,0.1736363048898736,1.230537447749131,-0.469140080963841,-0.0245500241393597,-0.0107840683298128,0.0091435737418119,0.0003141142290513,-6.814148148791151e-05,0.0214773205024166,0.9997690007192094,0.0761311169140049,0.0093898329702623,9.738656400420489,-0.0044648403198572,0.0084213693116546,0.005033092550752,3.4898945995114983,0.0179751297706276,2.063914854188335,1127.7429224783052,1101.4232348984503,1111.2633093548807,1135.4165129526943,91.05618578354036,55.24277459848282,484.91577084093166,239.4291537134985,155.97720197505947
8.14,0.5485955207137593,1.2757488954551608,-0.699040277882493,-0.0232398888554264,-0.0070243645063963,0.0054040586622291,0.0002871008347389,-9.560777726958067e-05,0.0214571550466115,0.9997694526055116,0.0788327931496663,0.0091214204131271,9.737046620445744,-0.0042970030701117,0.0086108404419269,0.0048096312778822,3.489876089172934,0.017992238560939,2.063925617730564,1128.0263883025584,1101.639496832202,1112.445434394136,1136.1136343421233,107.04872423660308,98.6208810440376,384.4414086661654,257.0172190640331,155.97594356759683
8.1425,0.8325796032311663,1.2868811536422304,-0.7802132983319607,-0.0207960115323336,-0.0040270691709049,0.0017272358881393,0.0002664294834851,-0.0001273399426951,0.021442194768811,0.9997697906141166,0.0810641907004613,0.0086922775116832,9.735389370550088,-0.0041070869447087,0.0088105769599059,0.0045783450290386,3.489858779170984,0.018013088526057,2.0639342289688,1128.2781660994883,1101.9163393036706,1113.1855163982118,1136.7015990480147,89.00303000375011,119.96976426860442,250.447451669156,212.798982502633,155.97485427046436
8.144999999999998,1.055661838543546,1.2828747699746614,-0.7286783136857204,-0.0173808822749875,-0.0012936639948249,-0.0016845971877839,0.0002554328346333,-0.0001578957278624,0.0214306994518911,0.9997700515669948,0.0826627012743914,0.0081451155583206,9.733717410778777,-0.0038996407980939,0.009014572829227,0.0043441892321068,3.4898434630200335,0.0180374120624614,2.0639420579502854,1128.471403452577,1102.239345653545,1113.6976716524816,1137.1776292546363,56.65833589991077,126.4951636197368,171.70645540820303,154.96638076558463,155.97372126837735
8.1475,1.21693848108638,1.2733299618290894,-0.5759300307918938,-0.0134575294192354,0.0012807657833559,-0.0044489033214176,0.0002505678656179,-0.0001823996782057,0.0214188186078064,0.999770319117627,0.0834869870802998,0.0074028066984685,9.73205707269146,-0.0036800164891417,0.0092169193180789,0.0041117622673066,3.489830558118716,0.018064091141248,2.06394888274728,1128.561457778988,1102.5488151217692,1114.0440486752527,1137.4764309518428,1.3296794575124036,107.71905511113025,104.86885135281406,66.09530530748873,155.97255095734653
8.15,1.307939281769925,1.2595179745870686,-0.3329470675292194,-0.0095566479195995,0.0038909763846516,-0.0059156022254688,0.0002505389995656,-0.0001974267038756,0.0214066535270045,0.9997705925539692,0.0834404628687828,0.0064453534339637,9.730427730223784,-0.0034539866261657,0.0094122849138928,0.0038850768611974,3.489819605075603,0.018091607506203,2.063953670938369,1128.4780518498646,1102.7779409291006,1114.2220159092456,1137.5081057811735,-80.9249933438584,68.00473060581214,48.66049269127019,-41.405083374192195,155.9713344718469
8.1525,1.3613582442472096,1.2326070585170843,0.0075239252961098,-0.0057388233672258,0.0072714940794035,-0.006025032779485,0.0002607854302887,-0.0002007949747011,0.0214017219132431,0.99977070886238,0.0824707006538997,0.0053964704797062,9.728842570910697,-0.0032274230392917,0.0095961258587493,0.0036673108983187,3.489809967964216,0.0181197757073976,2.063955592770679,1128.1568328122687,1102.8888387747984,1114.2873511387093,1137.2694055349718,-149.06733274168127,6.308733696370273,6.637775270520662,-113.82521899838584,155.96981991706576
8.154999999999998,1.3840110259236973,1.193644606660559,0.2909669093803077,-0.0032285033231491,0.0104218269025836,-0.0048522801239163,0.0002850164891886,-0.0001944649429728,0.0214114060251297,0.9997705072646688,0.0806221936896368,0.004357393023002,9.72731093785061,-0.003006233985139,0.0097645916429528,0.0034606990286593,3.4898020158767125,0.0181479603611041,2.063955058904879,1127.7327151861564,1102.8094845975825,1114.2552047855984,1136.938979686182,-184.79870054076693,-69.93915070874026,-22.78119728157079,-124.43679301170832,155.96851123553873
8.1575,1.4067545568487103,1.1288441118982147,0.5349651184457331,-0.0008713119506813,0.0136668501925887,-0.002835439576351,0.0003254067376216,-0.0001820834687904,0.0214346728401635,0.9997700057113268,0.0779879273374966,0.0034109304735864,9.725840784798253,-0.0027963848424695,0.0099144606147066,0.0032662079477557,3.4897968967250295,0.0181762770229835,2.063953541722885,1127.2328393095647,1102.5391430212546,1114.1734451523012,1136.6472215699132,-209.09385348274012,-158.07549823968915,-42.61605859573381,-78.9377521734754,155.96715327923894
8.16,1.4423808550969115,1.0188815670760976,0.7563626226186159,0.0022941559460739,0.0172377820981585,3.2713493589035716e-06,0.0003776823426868,-0.0001674344269079,0.0214684566150597,0.999769266918193,0.0746771523460962,0.0025238353184809,9.724441736423689,-0.0026035217354746,0.010043118496432,0.0030834468015852,3.4897955486498584,0.0182057513661415,2.0639521530850615,1126.6872459187423,1102.019107106384,1114.0421244926197,1136.5442909253145,-171.41088886722855,-214.71883751368927,-55.7326003901946,23.40689654079608,155.96546582988077
8.162499999999998,1.4727684135810069,0.9049958443277304,0.8753683486570599,0.0055514641081511,0.0197370865394595,0.0025715963259233,0.0004370168289898,-0.0001509422244339,0.0215089357889146,0.9997683717427764,0.0707487025823531,0.0016603400273237,9.723127263031548,-0.0024325632780975,0.0101486464541769,0.0029105468651605,3.4897963908835936,0.0182372632441745,2.063952341383163,1126.3757848652288,1101.4655488336864,1113.8947821503505,1136.7642560526172,-81.15100626413191,-230.68289593671608,-77.5017509757951,157.2440585399572,155.96401080701943
8.165000000000001,1.4883167920421367,0.7785483202315197,0.9313738221110311,0.0095572723265004,0.0215535098146936,0.00519455452616,0.0005008675444029,-0.0001322332041297,0.0215533014911021,0.9997673805735776,0.0662603149912741,0.0008333284105917,9.721916386977249,-0.0022872853336982,0.0102300054719928,0.0027443228069361,3.489797060581782,0.0182703247290659,2.063955012530808,1126.2814908874216,1100.8656926267,1113.6546157377406,1137.3305112180144,6.004905975622903,-249.58993195778663,-148.622453367147,313.7396549537208,155.96250459017892
8.1675,1.4744712929099857,0.6246075690425847,0.9429629009997056,0.0145835622408376,0.022996277589716,0.0079439662344844,0.0005653024357108,-0.0001087071662536,0.0215990273488055,0.9997663507836256,0.0612369870541944,3.0662539910825126e-05,9.720835846715124,-0.0021702407188223,0.0102872109146679,0.0025806960782434,3.4897957265531008,0.0183036962332117,2.0639596028015736,1126.4058093951069,1100.2175991738973,1113.1516698835146,1138.332954327386,70.62084870059648,-203.502419363344,-238.50957848021807,399.99470181545576,155.96063752963911
8.17,1.4326884303425846,0.4988528577945802,0.9224001988943747,0.0183756513683926,0.023904531368812,0.0096557368265438,0.0006263957969878,-7.957007891468316e-05,0.021642538859142,0.999765364187106,0.0557472844325431,-0.0007622620371489,9.71992086037325,-0.0020829450058051,0.0103214542463945,0.0024150684984318,3.489792775684277,0.0183370520455565,2.0639650877591675,1126.6345951309247,1099.8481805298836,1112.4620678453396,1139.3304847270913,90.15004015029237,-84.1253130022491,-350.3077067987548,402.52187328077355,155.95903181020165
8.172499999999998,1.364012542013726,0.3731776638121016,0.8857939434184745,0.0215952386052197,0.0247691682546598,0.0111570175163535,0.0006836894996946,-5.0338089012643595e-05,0.0216799497379854,0.999764506948085,0.0499896481332209,-0.0015001086384852,9.719215256076335,-0.0020261226106166,0.0103351425115464,0.0022425569332472,3.489789862062689,0.0183700365969557,2.063971456707201,1126.8565595958582,1099.796972608886,1111.4001313495212,1140.3455636937895,65.68314623522265,50.680531631898056,-492.48785993837856,387.9461436698269,155.95737432737815
8.175,1.2780871973043788,0.2416619566318977,0.8400484475469595,0.024504262098516,0.025543505388526,0.0128507464114691,0.0007372602116236,-2.7271020955675668e-05,0.0217127641809908,0.9997637487647516,0.0441805659818579,-0.0021350310762231,9.718771880743583,-0.0019997723051921,0.0103318585576497,0.0020582547947663,3.489787957052677,0.0184019476184511,2.063979724481665,1126.9630108621009,1100.1015831880432,1109.9996285456475,1141.2702154454407,-4.9048911152105195,219.43841022044788,-634.9724974631871,330.22425626754125,155.95567402161865
8.1775,1.1749157694359345,0.0949352084424965,0.7806663816940251,0.0273198043891583,0.0262250703965942,0.014823492323655,0.000783993719573,-1.013670786853888e-05,0.0217434476354413,0.9997630418302454,0.0384093695388962,-0.0026878320747693,9.718651823044478,-0.0020032549452776,0.010316204115626,0.0018575789019561,3.489787073422371,0.0184322334355264,2.063991013172222,1126.832035140282,1100.8941646599883,1108.2252688622048,1141.9966849751274,-121.08654631076796,455.1479653116072,-840.2035491415371,264.46624304722525,155.95392236416856
8.179999999999998,1.0325197984950059,-0.1057818986306275,0.6875248633171765,0.0306005750736347,0.0268329736725104,0.0171418142111843,0.0008162880661371,8.45121786111105e-06,0.0217724806934628,0.999762384447836,0.0326220593475224,-0.0032744137311869,9.71892207732157,-0.0020352284237768,0.0102935703122458,0.0016367284329077,3.4897864875199134,0.0184596707683542,2.064004655283044,1126.3575781305472,1102.3773230146007,1105.7986107999407,1142.5925466606764,-220.08953769396808,610.0993360472286,-910.5569411603879,175.08099974508687,155.95176159629793
8.182500000000001,0.8993843449923262,-0.2929535648591605,0.5888134760133859,0.0331594589758249,0.0268768468425992,0.0186986829649909,0.0008293948435419,3.312724067709002e-05,0.0217955526575949,0.9997618763523306,0.0268143273918052,-0.0039683949726661,9.719651878389602,-0.0020935832556081,0.0102698042101348,0.0013930487610145,3.489785259528163,0.0184831108235987,2.064019839369548,1125.731587451812,1103.9446613402251,1103.672484156402,1142.872089973853,-278.96174477014216,651.9251904983665,-834.5135157158497,77.21365746505101,155.94991256568792
8.185,0.7553071893491053,-0.4915379845444765,0.4665088270823407,0.0353461722711407,0.0261313842866199,0.0198080466253848,0.0008296558680767,6.660806616573227e-05,0.0218060849244393,0.9997616543620776,0.0210168521960281,-0.0046410582543683,9.720908787388348,-0.0021754403850086,0.0102507206961811,0.0011252520961897,3.489782088880492,0.0185023222093141,2.064035961512124,1124.9627694066962,1105.636948967093,1101.6260432213608,1142.978614948002,-343.1407265451299,713.6889324857349,-842.9827039736523,21.54093543813789,155.94801421321844
8.1875,0.5793713998996745,-0.7248650437384689,0.2893223688461438,0.0371891809763366,0.0243499211991959,0.0207936895671379,0.0008272599895431,0.0001088008240803,0.0218045821064078,0.9997616967578484,0.0153083074458737,-0.0051015460437518,9.7227554912836,-0.002277159947059,0.0102415037435662,0.0008338637619225,3.489776761084343,0.0185183548556726,2.064052225484904,1124.0158838190869,1107.513106002653,1099.4575706365347,1142.9797946510437,-331.48711311721166,622.690472697592,-724.826543410571,-12.78850456133368,155.94568048797606
8.189999999999998,0.4384616429336074,-0.9006978485215619,0.1124314352012973,0.0381826733636084,0.0223126949504219,0.0214719974642785,0.0008305325754211,0.0001554357574652,0.0217951003296966,0.9997619075469156,0.0098379734432746,-0.0052066953974673,9.725246255366496,-0.0023947061930003,0.0102461424679501,0.000521532623291,3.4897702321292075,0.0185329317165487,2.064067568827502,1123.3053338411105,1108.7504013305804,1098.0019105043086,1142.9146724251952,-247.509570611744,395.0407976631433,-490.749681548246,-37.807805048254075,155.9436905220306
8.1925,0.3109037311401595,-1.041374279641872,-0.0986524934589935,0.0390416097275588,0.0196578143921283,0.0220762621977425,0.0008401083366963,0.0002003336567616,0.0217830473763085,0.9997621674101028,0.004778311350171,-0.0049712987656555,9.728423236265796,-0.0025239353743899,0.0102670908362517,0.0001931931874271,3.489763154799049,0.0185480779450977,2.064081056114736,1122.778335966028,1109.4883099909691,1097.003822228793,1142.7907556258024,-169.95051696410044,197.28835300822183,-322.6249993939241,-76.36060891185195,155.94165582898614
8.195,0.1792553071603743,-1.1559412920350498,-0.3875402144653688,0.0396596080489277,0.0157993769506727,0.0225526817033785,0.0008553886919888,0.0002422637605255,0.0217761240919889,0.9997623075415736,0.0001941040851983,-0.0044372269663713,9.732311810355448,-0.0026606951513,0.0103052329867468,-0.0001441998384738,3.489754978709556,0.0185654584814612,2.0640914524960206,1122.4555812562899,1109.7368430956217,1096.3887855073388,1142.532869380636,-55.85293234945513,-6.071623034314442,-128.82608858438124,-122.4993949452044,155.9391663279935
8.197499999999998,0.0912517729282032,-1.20279481605613,-0.6438778109206947,0.0396399273821717,0.0125397675302758,0.0223873792122869,0.0008789572739029,0.0002819676044106,0.0217805410109809,0.9997621896017636,-0.0038979188610916,-0.003586423521764,9.73691708735141,-0.0028009758350692,0.0103600567662349,-0.0004820152821009,3.489744942574041,0.0185850672409736,2.0640973705167838,1122.4990713042807,1109.4579518757976,1096.3596917858713,1142.1782586510765,88.90306599548188,-183.4887992187215,77.08109509036771,-179.43243561134227,155.93705556053249
8.199999999999998,0.0269959229190423,-1.2037474898397291,-0.8828669042719898,0.0394576730050785,0.0099528541230515,0.0209168560243961,0.0009115458326594,0.0003200672221929,0.021796389294189,0.9997618100433732,-0.0074902303314747,-0.0024376408367944,9.742222152264103,-0.0029411673563736,0.0104299382737469,-0.0008102970028452,3.4897324037459057,0.0186064422501493,2.064097313246724,1122.9000965862672,1108.8193990995283,1096.7741909827903,1141.6357072025792,217.62600798784896,-284.1086358083896,223.0035837217762,-248.30218524212552,155.9349127436597
8.2025,-0.0208036355836855,-1.1715504356623476,-1.073050386337002,0.0391483511807775,0.0077812822906933,0.0178923428145457,0.0009560093011449,0.0003540467187707,0.0218193531717393,0.999761259636637,-0.0105229375027699,-0.000968110593024,9.748187010917288,-0.0030782892381951,0.0105124434323763,-0.0011185025010917,3.4897178934125526,0.0186293988436717,2.064090644728432,1123.58720134422,1108.0374086967552,1097.4747097044803,1140.9367477248657,330.3898536140816,-306.23594627595355,323.5547823773635,-309.29679590094275,155.9327482793869
8.205,-0.0575922883398025,-1.098373176054022,-1.1655322469575808,0.0385973751616364,0.0052864383355704,0.0133199407620684,0.0010107054508827,0.0003815372330647,0.0218453782682064,0.999760627170006,-0.0129489105791444,0.0007610998576375,9.754749151443422,-0.0032101576685976,0.0106046108512358,-0.0013962164576961,3.489702348210269,0.0186533009034006,2.0640777066503824,1124.5520458543378,1107.2882193681482,1098.3919648946776,1140.0892232230744,457.7722413755056,-273.71152012911796,419.2166653200199,-390.9970680778638,155.9305646743177
8.207499999999998,-0.1079282525580872,-0.9538812412969307,-1.1401148226414195,0.0383873983538836,0.0016661681722861,0.0076746411529183,0.0010735092655155,0.0003987301764452,0.0218711847603562,0.9997599865025754,-0.01469953300018,0.0026840585281622,9.761825036853534,-0.0033355538714206,0.0107031346659062,-0.0016340835790511,3.4896859551439943,0.0186782335918006,2.0640597803068994,1125.8760625510972,1106.66885109611,1099.57079303108,1138.9817623844767,484.09023832493114,-154.2883787835976,422.8538533144522,-408.51091855254685,155.92793249895524
8.21,-0.1718906268769058,-0.7820236008775296,-1.0151708716968917,0.0388943697086453,-0.0014565210959788,0.0039681244329319,0.0011414126116686,0.0004044348801745,0.0218908967012124,0.9997594691348582,-0.0157626142777753,0.0047245480440987,9.769312664249645,-0.0034543703697566,0.0108044830275814,-0.0018245793662242,3.4896695302575464,0.0187047265312343,2.064038791712851,1126.9724970459629,1106.51677747423,1100.50623416125,1138.0466686303112,402.2477514020292,29.310561241795728,344.5273465190356,-363.1634998064215,155.92573753644493
8.2125,-0.2716645457662991,-0.5651573297885952,-0.8199410019812218,0.0396080451161003,-0.0040392033547614,0.0017861247604254,0.0012086088985079,0.0003977778630725,0.0218997484151237,0.999759186329404,-0.0161366305753837,0.0067583581129659,9.777095952386718,-0.0035675276994976,0.0109051032532191,-0.001962483857445,3.489654401490993,0.0187335811951605,2.0640165513003383,1127.8873013081077,1106.815403902319,1101.2934297636755,1137.1659448854443,329.9148600604641,227.51288322901908,300.1541756676176,-361.06115230502746,155.92355166654326
8.215,-0.4259478686334233,-0.2838133445846544,-0.5596407633540574,0.0398927613621248,-0.0057141157379271,0.000765907988493,0.0012713117386969,0.0003785869282214,0.0218983565239635,0.9997591298145968,-0.0158345380874103,0.0087078307939766,9.78504910094597,-0.0036767185569002,0.011001687801824,-0.0020452533960222,3.489641204505051,0.0187647602091339,2.0639948334273934,1128.6220713462649,1107.654341890375,1102.007005039588,1136.2413628687866,197.87919895683743,366.2610508540912,222.60702500616273,-306.32275106692487,155.92095149858665
8.217499999999998,-0.5619625841772243,-0.0640831315632423,-0.3557124050358584,0.0390091094422587,-0.0056843826924249,0.0009124245468714,0.0013281934517704,0.0003462271377906,0.0218924836460547,0.9997591772182952,-0.0148598238141363,0.0105494537976683,9.79304190597555,-0.0037841045712632,0.0110914723309999,-0.002073034451403,3.4896308131765914,0.0187981958888369,2.0639749713698667,1128.8766973028917,1108.6467091565892,1102.406464888706,1135.63433113011,29.58354787928776,420.0010620372521,127.96629927582033,-194.67029452927505,155.91881266654096
8.22,-0.6690464757058576,0.1026178660016392,-0.1891678399010213,0.0365066806485704,-0.0044886922350173,0.0015686604646557,0.0013819279219137,0.0002991244064584,0.0218870507236232,0.999759220457674,-0.0131963951833924,0.0123423938938767,9.800944991969004,-0.0038920180415734,0.0111724836759853,-0.0020484911138891,3.489624014710013,0.0188336042086239,2.0639577913429648,1128.769989085661,1109.7543472005616,1102.6468365359672,1135.26801139614,-111.21151641853513,467.0240432030093,87.52938845080729,-89.97501903189416,155.9167133812276
8.2225,-0.7295449434209557,0.2142752873017071,-0.0334005531082677,0.0324919176226103,-0.0026446827127784,0.0021757702630899,0.0014371076036406,0.0002432071202762,0.0218807940537465,0.9997592793358516,-0.0109754515541677,0.0141896145668715,9.80863435327932,-0.0040025105350345,0.0112437668228819,-0.0019764848309161,3.489620511565806,0.0188700107282865,2.063943314732785,1128.320639720799,1110.9818293726044,1102.84411183096,1135.1844560349505,-196.15314066372127,405.0223672298568,72.39304643882481,35.2402989539839,155.9142520087555
8.224999999999998,-0.7171939406011298,0.2299219461512575,0.0735874228253396,0.0294333091017549,-0.0012895616587659,0.0020451881792143,0.0014943270543342,0.0001872744202592,0.0218716961377812,0.9997593957304144,-0.0083878221799815,0.0161187158597294,9.815997216123593,-0.0041167007345955,0.0113056110077366,-0.0018635045718969,3.489618867329797,0.0189057905343049,2.063932022711591,1127.7892233823427,1111.7794590367105,1103.0088017681612,1135.44421289091,-214.35830904571333,252.65139079829763,81.18385537276122,169.07213336532635,155.91225771153847
8.227500000000001,-0.6576385894025318,0.1772431344218497,0.1785345970415157,0.0275901070871732,-0.0003786125364431,0.0014656985765579,0.0015530992310148,0.000142914166151,0.0218613188094179,0.9997595362118756,-0.0056817938200492,0.0181374557092052,9.822935792749224,-0.0042342726242667,0.0113595520071538,-0.0017172988712655,3.4896163964174614,0.0189394557122067,2.063924155060649,1127.24884817557,1112.2450863265963,1103.250031107824,1136.0298167017772,-195.83496353081168,128.87729805482,115.94630014040384,276.17575941276533,155.91033271188272
8.23,-0.5828195044920104,0.0849958687528418,0.2918206702996476,0.026748906738371,0.0001215979224111,0.0009629988193471,0.0016102318812412,0.0001181917298113,0.0218539774514311,0.9997596140786555,-0.0030409760004043,0.0201972674284003,9.829371005206049,-0.0043534178385943,0.0114081452091994,-0.0015463121993265,3.489610819934689,0.0189703343436968,2.0639202348223926,1126.8100485646887,1112.4238455269847,1103.588533268863,1136.825091687974,-131.8182836855875,13.446155045042307,160.6458427041936,345.03821252744774,155.9084727740056
8.2325,-0.5152946777998648,-0.0297369508608744,0.4126240504536085,0.0264580120687739,0.0001304081930439,0.0009520301873996,0.0016580461512141,0.0001129753049325,0.0218542987853509,0.999759543206469,-0.0004940468473417,0.0221544674684887,9.835244838623101,-0.004471166869608,0.0114545781301619,-0.0013590776692169,3.4896002961241925,0.0189985367329714,2.063920379343314,1126.5897567571424,1112.3123171018215,1104.0532603213449,1137.755007764414,-35.40939328996296,-90.63262956762611,229.59896430716088,407.5469788460752,155.90670008215915
8.234999999999998,-0.4591589822251083,-0.1599982747454915,0.5444852169317589,0.026037730898962,-0.0004293439170507,0.0018578455472264,0.0016919493917826,0.0001165715290342,0.0218598601313615,0.9997593821384976,0.0021340101090196,0.0239166248055148,9.840520089217568,-0.0045841061527011,0.0115021716435924,-0.001163813319279,3.4895857615975046,0.0190244643484916,2.0639236385190047,1126.6330015982387,1111.9706823791466,1104.736528090399,1138.862826582204,64.35536055086135,-139.1024954941041,265.8073696796276,386.84818500722344,155.90468410666904
8.2375,-0.4323101898650554,-0.2400388583120578,0.6186409845233883,0.0254577810721465,-0.0013774993623613,0.0035096346361167,0.0017127380498362,0.000121377702318,0.0218651089885296,0.9997592477794384,0.0049544563781521,0.0254939088054484,9.845178490266157,-0.0046888618285302,0.0115540466081632,-0.0009681261436711,3.4895691141280096,0.0190491483609071,2.063928828268112,1126.9115335598967,1111.6168046243508,1105.3822971697432,1139.6892486894503,147.40922434846166,-134.76847134591193,267.22752123141987,302.6116256172354,155.90310366574636
8.24,-0.4143671087777565,-0.2699590810372491,0.6251716282384208,0.0245507575737952,-0.0027715479741183,0.0059893002406383,0.0017240074553681,0.0001229958774128,0.0218655260660211,0.9997592318235742,0.0080115303003131,0.0269487011752441,9.84921960263419,-0.0047824504177084,0.0116129113764473,-0.0007786332549392,3.4895516012091203,0.0190733936654082,2.063935565237468,1127.3700477199811,1111.2968400224167,1106.0726656965562,1140.3758847102904,218.44670998943707,-117.02371680105496,309.62059887985356,277.9000860646745,155.90163379973703
8.242499999999998,-0.3832766475569765,-0.2375077739391762,0.5327171607974927,0.0231081073115781,-0.0046452104428435,0.009241300512667,0.0017293465640296,0.0001187038829003,0.0218604296279255,0.9997593436300942,0.0113118453159394,0.0283402841238737,9.852659026177268,-0.004862432322602,0.0116809525453704,-0.0006006708064942,3.4895341180405723,0.0190975382815209,2.0639442026669097,1128.0037671098437,1111.0316860403457,1106.930400164142,1141.0787491197736,227.96327801112128,-72.64278315136609,319.97285218753404,250.37177168961256,155.9000051012312
8.245000000000001,-0.3360231371480259,-0.1581119039152147,0.3722857555051052,0.0218317762539836,-0.0058326932449253,0.0115804628353047,0.0017284366403354,0.0001032856921369,0.0218504807512833,0.9997595704354184,0.0149052963243162,0.0296466883942345,9.855526198605938,-0.0049270127061089,0.0117597429601207,-0.0004379719000485,3.489517496745044,0.0191213037417192,2.0639539586296567,1128.5098641100371,1110.93362610666,1107.672529957494,1141.6277435687387,182.49681296453548,-16.84781983358071,307.26624716603254,228.3266485616521,155.89876506889854
8.2475,-0.2563010025852757,-0.0436133142362222,0.1470262612378951,0.0206763911350134,-0.0059065493282778,0.0132275688379965,0.0017215499096399,7.777984816233155e-05,0.0218390174413758,0.999759838631207,0.0187157684837004,0.0308580318784252,9.85785999256963,-0.0049749124389221,0.0118501750821378,-0.000292715016266,3.489501918428933,0.019144586136764,2.0639635623010824,1128.9162511746665,1110.9474469411775,1108.4667313999723,1142.220382362582,151.85093694511417,17.911293917681103,368.9806102676181,283.9654467040074,155.89765133139153
8.25,-0.1203333563212959,0.1065429622222587,-0.1489614192265363,0.0195789908183293,-0.004788105604377,0.0137714019785514,0.0017123550450311,4.9327783639625125e-05,0.0218300874338315,0.9997600529475162,0.0225462099415775,0.0320328418118135,9.859704862007586,-0.0050052698623881,0.0119523438263799,-0.0001655905620598,3.489486783707551,0.0191674983210237,2.0639714803921,1129.2691187947623,1111.0231825762485,1109.5174330088319,1143.0475708022584,113.79526995954156,22.964033919065532,405.26122860404814,325.36843042004983,155.89646514431652
8.252499999999998,0.0220796564091629,0.2293338872763812,-0.3704248305717485,0.0191745268029994,-0.0035032349511492,0.0125614304886967,0.0017054657487942,2.3879120081845126e-05,0.0218261733509396,0.9997601520916596,0.0262224611230787,0.0332478299665696,9.861107852633216,-0.0050175787243208,0.0120654295775182,-5.585612455021206e-05,3.4894714847915975,0.0191906919663941,2.063977481615967,1129.485227524464,1111.062267110773,1110.4930375429924,1143.847224514682,85.84598619394022,-7.022827690751722,409.0706788131044,336.7593075892201,155.89560432260632
8.255,0.1832962151498441,0.3491494032800275,-0.5116249401568755,0.0195688231172128,-0.002474514210368,0.009770613553862,0.0017086464075903,1.1017507907344688e-06,0.0218277560648242,0.9997601123851684,0.029696065742139,0.0346404396316496,9.862114791088512,-0.0050116599698218,0.0121876598603869,3.8370162806668016e-05,3.489455528359909,0.0192155440513947,2.0639828508262195,1129.6983487257323,1110.9880684377947,1111.5627864028977,1144.7313673402048,97.30625087493834,-58.25607829300679,434.8988138313646,357.04043514719035,155.8948780660369
8.2575,0.3504805825830659,0.4742359796584726,-0.5596867441616862,0.0204718080339249,-0.0017769279363465,0.0064503720791755,0.001722651038598,-2.3662259635276266e-05,0.0218343427991858,0.9997599411204364,0.0330030773929239,0.0362103712434481,9.862768497124595,-0.0049876681621511,0.0123164306690078,0.0001200962463806,3.4894395851028825,0.019243026723016,2.063987792850651,1129.9717587788389,1110.770986719308,1112.6675316121496,1145.6324266904182,134.9719853529946,-125.71389611682888,430.994916010872,346.6625416607947,155.89426430780432
8.259999999999998,0.5162708367785994,0.6154839524787346,-0.4915902234280407,0.0215885263574076,-0.0013103715334432,0.0036246512286884,0.0017458719076619,-5.172361076180659e-05,0.0218461491636775,0.9997596350008586,0.0361165653497647,0.0379151954035866,9.863105516699843,-0.0049460791310648,0.0124485890465853,0.0001931282010831,3.4894240052887886,0.0192731210665038,2.0639920949917734,1130.3732086524972,1110.3594989572107,1113.7177609829516,1146.4646800485084,212.56093035949243,-219.9511158024944,418.1173309899272,324.992400935681,155.89378655525292
8.262499999999998,0.7056238460037054,0.8046860691666731,-0.3052591526078673,0.0228312994690555,-0.0005214136299398,0.0015532476462235,0.001775834875777,-7.75028861673781e-05,0.021864745405304,0.9997591639045172,0.0388791050541975,0.0397016007396437,9.863154207570238,-0.0048876582307898,0.0125807799572192,0.0002618717492616,3.4894081110373016,0.0193054549150379,2.0639950528528703,1131.034563430636,1109.6712311402955,1114.7581182670988,1147.2573886950963,271.7743552486839,-271.7243162571352,322.6611932946476,239.5418754902574,155.89336998082388
8.265,0.8470318426150883,0.9662216518445876,-0.1008620192175776,0.0239448135084029,0.0008301511462769,0.0010612637515553,0.0018110323016996,-9.111551657660544e-05,0.0218897409220665,0.9997585402379736,0.0410558050858629,0.0415402397006267,9.862933491559684,-0.004813563526473,0.0127097411411872,0.000331128981346,3.4893905704206807,0.0193398907161471,2.063996101469637,1131.7320804287408,1109.0008773759248,1115.3310669494251,1147.6623894259599,303.6601145378861,-264.94145001088725,149.32859245566243,95.95881291546311,155.89315238728514
8.2675,0.9518265389846444,1.101988238557705,0.1030944885089258,0.0257326922763291,0.0035503490431114,0.0017649470334605,0.0018551918455389,-8.405030859684817e-05,0.0219157264536153,0.9997578761844688,0.0424493776823933,0.0435068546134909,9.862451766732407,-0.0047255820492084,0.0128325797507556,0.0004057779127102,3.489371026891883,0.0193765139424934,2.0639952714390097,1132.5528640033256,1108.346523890241,1115.5047612293772,1147.7371827596735,376.8919527098955,-254.267958402948,-22.593359555962653,-44.1908367697212,155.8930671947627
8.269999999999998,1.0011993218951,1.195552224049527,0.2951726651005311,0.029040319285603,0.0084290387055182,0.0036673305504565,0.0019100796754449,-5.400775282009767e-05,0.021938877086275,0.9997572521673034,0.0429948434265091,0.0456369914355701,9.86170842364219,-0.0046262297924331,0.0129471279511055,0.0004906696176353,3.48935045814919,0.0194149171293153,2.0639915978088754,1133.61654019229,1107.7295375839103,1115.218100151645,1147.4414352421113,389.45973955745376,-179.74063723783647,-181.48168863237407,-163.3151219956034,155.89311462015112
8.2725,0.9541809615060628,1.1980150046082167,0.3859310561870379,0.0325187563655499,0.0127772700822539,0.0056907928744031,0.0019747299912379,-3.177982477689929e-06,0.0219614603178734,0.9997566206262922,0.0427272375436428,0.0479098509652267,9.86069539387328,-0.0045188634777044,0.0130522451672189,0.0005902143424651,3.489330393937671,0.0194546774697173,2.0639840167931935,1134.5001627011131,1107.4478207040515,1114.5973527862152,1146.9206071496956,332.93980633892966,-51.37865214746049,-309.4213724883018,-247.11759559291525,155.89327578871703
8.275,0.7994799338427089,1.1247068353714456,0.3939563737432664,0.0360862068131671,0.0162505699338289,0.0075187703449397,0.0020453370380461,6.0785796269672155e-05,0.0219863948636384,0.9997559262160252,0.0418010942117623,0.0502440570195551,9.859399518493884,-0.0044078762949692,0.013147960838182,0.0007078435456698,3.489312165119546,0.0194953447286705,2.0639728010391187,1135.2812392239848,1107.4726443231727,1113.6709932892036,1146.2058472641463,281.1950479318616,62.409735426866646,-402.7087509198173,-304.48570580044054,155.8935591017011
8.2775,0.5595387969158994,1.0048153374994897,0.3387874778637991,0.0390543137873047,0.0187907691716794,0.0088253917254846,0.002112073652101,0.0001278101599608,0.0220139506140482,0.9997551828143564,0.0404291276524035,0.0524345571008966,9.857806348945513,-0.0042986457160927,0.0132355481756569,0.0008454721721302,3.489296428892632,0.019535477189831,2.063960192036748,1135.9061379407724,1107.759869381186,1112.5838090316165,1145.3981786206937,201.44863956683733,171.62675084126707,-449.4073054023359,-334.5939107507758,155.89394033796654
8.279999999999998,0.2427885610887981,0.8537268952792242,0.2239191525117809,0.0406578044996716,0.0204361495593587,0.0095304743146688,0.0021726764936071,0.0001856713112069,0.0220413447198274,0.9997544537930966,0.0388826119954444,0.0544188897256854,9.855901257605547,-0.0041972405253663,0.0133175056852317,0.0010027146528829,3.489284725600989,0.0195739649161706,2.063947848438181,1136.2884824218188,1108.3307780773791,1111.4239567621923,1144.5328777103928,110.08185005487672,302.6844222023082,-497.1736538946648,-389.282152673407,155.89443523823303
8.2825,-0.1741239315548178,0.6622732571827077,0.0424249195383254,0.0406036621453912,0.0218649987117619,0.0101822714132971,0.0022299317687837,0.0002271491980004,0.0220653500441968,0.9997538014067436,0.0373488579145877,0.0562291955756417,9.853673530626496,-0.0041098971774931,0.0133973665179339,0.0011767296092343,3.4892780012188886,0.01961012370411,2.06393735974786,1136.4565471910469,1109.2732914921978,1110.0979407621428,1143.4517678573263,18.76552867501848,378.1163548790892,-455.89751536619735,-405.6757546731935,155.8951543721196
8.285,-0.5104982109700079,0.5048577962738767,-0.1248739104100412,0.0389355823520106,0.0229052748444656,0.0104780070699941,0.0022850584245827,0.0002491579447461,0.0220846791738276,0.9997532496366016,0.0359443506660369,0.0578604871127428,9.85112101498946,-0.0040423295177058,0.0134793501806655,0.0013625190466636,3.4892760527263,0.01964397902867,2.0639308431683916,1136.382310065194,1110.2213598517749,1109.144469185361,1142.5044989370267,-65.45395878839764,403.87380606079057,-331.7366165320187,-394.1337980164792,155.8958532187284
8.287499999999998,-0.7943277997913011,0.3539378577741574,-0.2798245005094585,0.0361578776386621,0.0239117498533613,0.0097140142467209,0.0023400279589651,0.0002558313009413,0.0220969327629988,0.9997528446171768,0.034652299266848,0.0593175150978672,9.848252612582387,-0.0039991488083949,0.0135679313637273,0.0015532380032051,3.489277202924981,0.0196759620024746,2.063930040940967,1136.1292773971047,1111.2926605225011,1108.439257679483,1141.4810988672443,-148.33024387760315,493.83984512398007,-241.49198770688463,-470.86704809259487,155.8966492938892
8.290000000000001,-1.0483653287481007,0.1813092897123212,-0.4171199971744068,0.0324616445663255,0.024764715482633,0.0074240111308118,0.0023962493566775,0.0002553277479203,0.0220987012691829,0.9997526575278842,0.0333821727652448,0.0605879368764027,9.84509067663427,-0.0039833148767264,0.0136674602073247,0.0017409079633476,3.4892795479944207,0.0197064843583808,2.0639340650924027,1135.6406588458055,1112.6905590773952,1107.9370092468264,1140.1501636965631,-212.6252943115228,527.9384444583313,-127.43185717784226,-500.3240134597618,155.8977094019642
8.2925,-1.183603983618178,0.0457735843462887,-0.475503954616869,0.0293855699071335,0.0248274198533109,0.0051348015954608,0.0024523819958359,0.0002539954102787,0.0220872422577357,0.9997527545704212,0.0320805140082277,0.0615979608055522,9.841672688757678,-0.0039957670632399,0.0137818486246219,0.0019172354086919,3.489281829058964,0.0197353123860696,2.063941554055574,1135.0661509255472,1113.9323527447934,1107.8020983935935,1138.9794787999451,-271.5361820535776,506.3040921351882,-7.344063858319357,-465.15705523156765,155.89867431262908
8.295,-1.2451645777749722,-0.0808035749800201,-0.476643915193762,0.0263251591871434,0.0242543163324438,0.0033487582061313,0.0025041386811631,0.0002565424770959,0.0220631834886292,0.9997531374050223,0.0307242021778695,0.0622106067703635,9.83805144810883,-0.0040352717382342,0.013914285722682,0.0020741988861181,3.4892825326860266,0.0197618962494707,2.063952207420074,1134.282977935538,1115.2220795380706,1107.9002889275348,1137.824378420406,-399.1735566540568,565.4098435336651,71.62813062288085,-476.08189267744285,155.8997164229149
8.297499999999998,-1.2465901894799727,-0.2296626554809064,-0.4325035423977066,0.0227490976649636,0.0234491504747747,0.002068590614282,0.0025474641367488,0.0002673685990197,0.0220344999919177,0.9997536459331048,0.0292925857439255,0.0622915740895684,9.834293350968792,-0.004098448390296,0.0140669434843907,0.0022044185831675,3.4892801605381742,0.0197863643000871,2.0639659521097755,1133.0702831422773,1116.7594019624612,1108.160239046708,1136.5990693365584,-490.53205302244874,548.5972167702637,97.90656093594696,-397.9443104517319,155.90104714455296
8.3,-1.1977449595796577,-0.3623000521197579,-0.3772377148803561,0.0200189694576352,0.0230010257276189,0.0015433021640982,0.0025821229461438,0.0002892489078885,0.0220090767596851,0.9997541126289076,0.0277903392424802,0.0617823867708369,9.83047544616657,-0.0041803159118107,0.0142405851946409,0.0023015014830103,3.4892736195553953,0.0198094793637318,2.06398292096835,1131.8303176704255,1117.9650656219223,1108.3898217322146,1135.834656868147,-539.0186561303902,447.9380861088184,74.26320679950298,-222.72700744848564,155.9022159603882
8.3025,-1.1075756535330972,-0.517594342922228,-0.3219563569379566,0.0176062892782724,0.0227161470158055,0.0011358625779562,0.0026085628754508,0.0003115797925938,0.0219883021415518,0.9997545074544903,0.0264731515801394,0.0606369669288455,9.826683096576339,-0.0042749440019444,0.0144342040378558,0.0023606733172816,3.4892631466895967,0.0198316090856864,2.0640026263711078,1130.375189861625,1118.9990923930056,1108.5315550807056,1135.4854342993156,-611.9295718684806,370.92708673965814,35.210602363356614,-51.82690493617096,155.90343824805535
8.304999999999998,-0.987801007298129,-0.6959449450396499,-0.2755041439967659,0.0154813172616977,0.0222162525255091,0.0006722867948069,0.0026270296736188,0.0003239701543125,0.021971655490678,0.9997548425334108,0.0255785638818436,0.0588136954673267,9.823006001680781,-0.0043759739310401,0.0146448479860388,0.0023791046095887,3.4892495165277833,0.0198544469721364,2.0640241267669657,1128.7706698110835,1119.8197010556203,1108.5658747440311,1135.5755223434662,-669.2301940934476,261.87744712406584,-9.206429508866147,154.99788600047702,155.9046980913768
8.307500000000001,-0.8323725514921191,-0.8944532609666968,-0.2452220282256123,0.0137739152024858,0.0209738925887199,0.0002413141815812,0.0026416957619178,0.0003261036185538,0.0219592774336062,0.9997551001953552,0.0251333664838038,0.0563642153381457,9.819532460541296,-0.0044771106167316,0.014867617634901,0.0023560214027387,3.489233556392743,0.0198804517019348,2.064046584274682,1127.0290388911571,1120.308479628626,1108.4855229331613,1136.2604237293183,-784.319577618376,125.84795784466984,-49.23952481489463,435.9250105474758,155.90599464084275
8.31,-0.596517091625132,-1.130825906469431,-0.2304837687549931,0.011708911007505,0.0183226417569898,-0.00015130437956,0.0026545717711936,0.0003211040080133,0.0219529276531502,0.9997552319846414,0.0250814024755786,0.053314000749535,9.81634570705836,-0.0045724432060633,0.0150958817736492,0.0022931349492961,3.4892158786496226,0.0199110710006258,2.064068825786148,1124.8490719229912,1120.4489408448435,1108.3196771199569,1137.755147396204,-801.5711292039443,-24.34314201919308,-62.97373479948308,641.5926641422542,155.9075813959219
8.3125,-0.3497247847843902,-1.3017149769754095,-0.235336741690296,0.0094474280365331,0.0149939104753766,-0.0003378193614583,0.0026716229037141,0.0003118304457572,0.0219513991223193,0.9997552441441188,0.0253589289996241,0.0497832022849018,9.813517890599885,-0.0046568246245324,0.0153217722180328,0.002194555769833,3.489196415016853,0.0199468956171609,2.06409001262047,1123.0211832451382,1120.1867639185302,1108.170654259164,1139.4683870500287,-714.4547403901527,-173.41749015193994,-57.140053661180445,742.262617164772,155.90892087564083
8.314999999999998,-0.0492254117836993,-1.41838203787418,-0.2518391259459549,0.0068391906731345,0.0105510063249115,-0.0003354769929532,0.002695136747766,0.0003025447693272,0.0219508558984145,0.9997552102941434,0.0258600678045254,0.0458390670847378,9.81110697496201,-0.0047260773004226,0.0155368097875361,0.0020669105736101,3.4891758182953967,0.0199874136920292,2.0641078876263568,1121.2767982210412,1119.581853394084,1108.033976851651,1141.466460482027,-721.3385172681463,-318.674446243763,-63.737781884482544,883.2210782344174,155.91026823869214
8.3175,0.3409858553767693,-1.4814890049571496,-0.2679740779064432,0.0052169634732372,0.004801994360535,-0.0005644852954637,0.0027251199415208,0.0002989882001078,0.0219502412042116,0.9997551497085612,0.0264386200622751,0.0415240204900291,9.80915254677371,-0.0047769852281951,0.0157326352308016,0.001918984154497,3.48915410221131,0.0200316316400059,2.0641204498172145,1119.4144906587967,1118.5933916873112,1107.8519653497415,1143.8844924412017,-622.0404245471336,-380.8084693559836,-81.36320969818918,842.0327509584743,155.91188315753155
8.32,0.6397500378429848,-1.4774661301638448,-0.2585450544495768,0.0065767510251232,0.0007247081326316,-0.0018488544550469,0.0027607842285207,0.0003027120923343,0.0219480828481916,0.9997550952689684,0.0270219077903981,0.0368817693024577,9.807672765626313,-0.0048074847347325,0.0159015582723038,0.0017611319346529,3.4891319329700416,0.0200784728291777,2.0641271704505786,1118.166596098305,1117.677811047304,1107.62716080316,1145.67662423682,-408.34345123415847,-355.9546640343141,-122.11950483481516,619.4502644735944,155.91321962094875
8.322499999999998,0.8376010465243497,-1.4393577218370763,-0.2034358235376348,0.0104818305483545,-0.0021014669388069,-0.0040794144915347,0.0028021352650966,0.000313242452682,0.0219406534246165,0.9997551296349784,0.0275715910842688,0.031987718573923,9.806662493301284,-0.0048168131180851,0.0160369811059538,0.001604407247125,3.4891096408465807,0.020128059861159,2.0641270281058617,1117.3727734026263,1116.81361836714,1107.2413678255675,1146.981743763569,-216.3522093783716,-344.01935037437875,-222.00098388893687,420.16094615645846,155.91453763652896
8.324999999999998,0.8974575567731446,-1.381805327818666,-0.0834456037551916,0.0158882484729227,-0.0049344335854389,-0.0059172714610642,0.002849326948871,0.000327423213825,0.021924528591923,0.9997553309509664,0.0280995673968633,0.0269334385223148,9.806093330206524,-0.0048054511102775,0.0161337802674491,0.0014596726519715,3.489087319521561,0.020179901127459,2.064120930811381,1117.0848350514132,1115.9577142954324,1106.5171558837155,1147.777428967602,18.069885210385923,-274.5490726226788,-311.8987244539734,148.67562922720427,155.91608822602888
8.3275,0.7867591877641236,-1.3324414479250717,0.0420599146454789,0.0196690514947231,-0.0075190227384285,-0.0060672012591921,0.0028976925959712,0.0003413470467138,0.0219006706329039,0.9997556952397656,0.0286312430322136,0.0217267135690004,9.805915629061728,-0.0047749894374968,0.0161886418722333,0.0013368306909777,3.4890652876496255,0.0202321598572289,2.0641105912633635,1117.4631228286785,1115.4408730040263,1105.6818742032974,1147.7251219097052,281.2015109480414,-164.0027745123205,-372.70597385184914,-167.9069962962068,155.91734777289108
8.33,0.5292391254043763,-1.277657060182401,0.1603299506298349,0.0219768895263209,-0.0105785046403229,-0.005076170611132,0.0029428791281449,0.0003527612652136,0.0218758828350259,0.9997560888453773,0.0291632436826249,0.0163892959817122,9.806060460599577,-0.0047280426405715,0.0162002487250944,0.0012438978841457,3.4890448772079066,0.0202837268279315,2.06409751608022,1118.4908426061538,1115.1377004228707,1104.653626014456,1146.9378939861208,507.96413971694267,-88.77686156149086,-426.4812407140592,-423.136225593446,155.9185657946497
8.332499999999998,0.1812188028328965,-1.2105155927728892,0.2508181186668341,0.0229412992879218,-0.0138305554912566,-0.0036151511853249,0.0029843638380804,0.0003584585188165,0.0218544657631424,0.9997564223559096,0.0297178397549178,0.0110204623713758,9.806443344703267,-0.004668374555122,0.0161691676821166,0.001186419411665,3.4890263972703974,0.0203341243208568,2.0640837737526008,1120.0029435272627,1114.9969886962188,1103.5494679997275,1145.6094407817384,695.2946968011297,-23.306428015117486,-430.21542740141376,-634.5796119071027,155.91974397710905
8.335,-0.2318656074400415,-1.120518092451514,0.294318032709296,0.0224215593894646,-0.0168221785730945,-0.0021773323271357,0.0030172092404313,0.0003537369077147,0.0218393948175337,0.9997566494959296,0.0303521501260229,0.0056308817058004,9.806970193947409,-0.0046006164659307,0.0160976826211375,0.0011675042931124,3.489010617597309,0.0203830251978777,2.0640707562900937,1121.96731609016,1115.021168282795,1102.5025488774484,1143.7649959265848,924.1850652903314,38.91151149973058,-403.51965985449226,-887.9864201221584,155.9208681754397
8.3375,-0.7501368881261409,-0.980678499404844,0.2917383189829319,0.0204965662135759,-0.0198359984416504,-0.0008706071536005,0.0030379008095502,0.0003358502158681,0.0218363125053448,0.9997566607476174,0.0310945011055539,0.0002545143344944,9.807542103341763,-0.0045298136939438,0.0159896351565258,0.001187604928509,3.4889981323174464,0.0204303331958355,2.064058827734668,1124.623868853715,1115.1915462537177,1101.5318697004548,1141.169508681127,988.870659103592,77.55126473013385,-278.5584519891572,-981.9079759728216,155.922148023475
8.34,-1.1685823460282518,-0.8351899313715581,0.2517897931222247,0.0180052253373032,-0.0219908552885487,-0.0001748566457443,0.0030488580733352,0.0003089603823621,0.0218447115152575,0.999756456684933,0.0318495786533463,-0.0049644060556051,9.80806084300426,-0.0044613046427865,0.0158501212526048,0.0012444679634688,3.4889885779180845,0.0204758483729751,2.064048549056284,1126.9116693856768,1115.4089246064457,1101.109756617503,1138.8554560467217,890.7039785842653,90.72817799330537,-63.622956166967846,-916.7402859395684,155.92315260914165
8.342499999999998,-1.5404599704663209,-0.6565528134812634,0.1854469411532405,0.0147457325067549,-0.0239720237274567,0.000193681539132,0.0030513407848853,0.0002782789226518,0.02186078766578,0.999756112988942,0.0325104529847572,-0.0099159740449248,9.808435274709748,-0.0044001775189943,0.015685253962375,0.0013336381362826,3.488981698115428,0.0205187325634067,2.0640406467234884,1129.0773887466355,1115.645187143684,1101.21375491962,1136.58580725143,884.0254955609889,92.82966286185368,177.08573931610732,-941.7044815097033,155.9240885277244
8.345,-1.8976568914234255,-0.4024132830525623,0.0890928538755386,0.009909195901419,-0.0260503807237814,0.0003931587786882,0.0030509513109548,0.0002468581622466,0.0218781324430326,0.9997557497088404,0.0330231524278853,-0.0144203614916994,9.80858610754727,-0.0043508456746663,0.0155018790404666,0.0014486244500177,3.488976718424033,0.0205586517153528,2.064036423364756,1131.3317968634826,1115.873072920755,1101.9951853140835,1134.1469336391724,744.4732225179196,63.13822825913044,389.96513650239007,-813.2404070793749,155.92512814721294
8.3475,-2.094625624010764,-0.1612888634295724,0.0026575732393027,0.0047907107015074,-0.0271625239127217,0.0004354041096826,0.0030485909851171,0.0002156877053364,0.021890983870118,0.9997554878347354,0.0333794254278544,-0.0184066346580073,9.808450785575856,-0.0043166272068238,0.015307207809037,0.0015816185254873,3.4889733868300774,0.0205956105769324,2.064036187942288,1132.7997548592257,1115.9608782849796,1103.1635806021322,1132.5196052160325,480.9094368715752,3.310477342666421,555.3256291154153,-530.5670192992384,155.92592257100887
8.349999999999998,-2.1577651065764387,0.0984060702604605,-0.082894065460752,-0.0012111976494994,-0.0272706218399431,0.0003923372976751,0.0030413377958591,0.0001841065164329,0.0219002696436077,0.9997553132576098,0.0336067985073504,-0.0218959851441348,9.807986548650383,-0.0042993224630416,0.0151084615084154,0.0017239893921131,3.4889710964996206,0.0206289412061132,2.0640394504582606,1133.73634404784,1115.8896253074684,1104.7718134596603,1131.4940985426767,279.91226013614494,-75.2269466472963,777.8395932486238,-281.63534177415534,155.92664026866007
8.352500000000001,-2.058313545287357,0.4128807933043049,-0.1762886105096782,-0.0085325012156682,-0.0261841280484035,0.0002208191353011,0.0030293420347498,0.0001511994059693,0.0219061686056847,0.9997552197152124,0.0337417442851713,-0.0248655308966593,9.807172242472738,-0.0042992911578188,0.0149123846217834,0.001866584841179,3.4889685672996262,0.0206588284775334,2.064045721740588,1134.1993161599066,1115.5847435517433,1107.052778568376,1131.1114285071615,64.77850071968429,-150.90366360097875,870.7059667390243,10.984097261414817,155.9274112342392
8.355,-1.828220878971266,0.665411375951006,-0.2387480815451628,-0.0140908995108961,-0.0243235494303346,-7.961179661544739e-05,0.0030148668276377,0.0001133215060819,0.0219078263813737,0.9997552196843308,0.0338753756260539,-0.027267025363853,9.806009354267438,-0.004315425820695,0.014724791089571,0.0020002532964306,3.48896450250806,0.0206862613446028,2.064055112606787,1134.0602365514385,1115.135106989463,1109.125343293356,1131.5490190289838,-144.85727326376187,-222.49798563193383,839.2201535473157,325.50163082557555,155.92797770049876
8.3575,-1.4600614043220947,0.9014161141238796,-0.2731242975408988,-0.0186094840624461,-0.0218693922753203,-0.0006403842441941,0.0029989621039118,6.834853711515524e-05,0.0219027181712468,0.999755367645378,0.0340663271886375,-0.0290883571449025,9.804521756161641,-0.004345333062644,0.0145501849185124,0.0021163389226075,3.488958380623527,0.0207123867328372,2.0640677054618912,1133.475029793588,1114.4722536235838,1111.2488793361117,1132.738936661289,-285.68231695127224,-301.72246926241854,842.8953447748285,580.4994147977386,155.92846466230856
8.359999999999998,-0.9980356715253746,1.1261361221529496,-0.2734905786791819,-0.0220884283641772,-0.0194409919213229,-0.0014793676973231,0.0029762844011506,1.4964500514453628e-05,0.0218909193619032,0.9997556808160248,0.0343503041617959,-0.0304529248751916,9.802754158082157,-0.0043854739358146,0.0143915581215356,0.0022072756921958,3.488950651135944,0.0207375747157356,2.0640834506891563,1132.6318249666824,1113.6264946431515,1113.3398200172292,1134.451516102972,-367.8750670304332,-382.10243972137897,814.52709537808,768.7317391350169,155.9288854647984
8.3625,-0.4562283842316099,1.3444128178503647,-0.2209205774620528,-0.024198549443198,-0.0173481309646265,-0.002644473686251,0.0029434975950355,-4.438957796015964e-05,0.0218772460614296,0.9997560668145516,0.034684244880882,-0.0314508028259964,9.800769124247848,-0.0044314066805304,0.014250348080328,0.0022667617118882,3.488940671073476,0.0207625685774432,2.064102246375377,1131.6356544584355,1112.5617414249766,1115.3215148130028,1136.5825953569647,-433.91156594891567,-513.7683339066476,831.1833942083533,963.6782032060496,155.929226485832
8.365,0.2343669781236719,1.5988904603653107,-0.0891543358861241,-0.0248152579334598,-0.0144631690298874,-0.0041529364781098,0.0029053950574059,-9.95765881882518e-05,0.0218668899491751,0.9997563979727588,0.034871094681947,-0.0320141957893441,9.798643299684583,-0.0044782486194565,0.0141264330273645,0.0022900004388193,3.4889270464875435,0.0207883922927123,2.064123941761709,1130.4622671369375,1111.057652973618,1117.4957369882718,1139.2699071190027,-402.673296970932,-581.1791810210044,752.3491665912521,952.1205103357336,155.92954382329484
8.367499999999998,0.8010657016870171,1.7906628003878267,0.0730851570607626,-0.023459005101306,-0.0109684506004571,-0.0050192352983786,0.0028678499431447,-0.0001415510559446,0.0218628605354888,0.99975659225772,0.0347290409122593,-0.0320566797234464,9.79646305138651,-0.0045211397231547,0.0140182047530491,0.0022744135346202,3.4889093975282166,0.020815751705035,2.0641472092527904,1129.6222879735813,1109.655845519872,1119.0832606459583,1141.3431979086424,-288.8079488445786,-578.3800104194603,575.061371333096,738.3543299821877,155.9297322013024
8.370000000000001,1.3076630506571583,1.9308217656785276,0.269809571676201,-0.0199358018871436,-0.0060975952082582,-0.0048320666530807,0.0028380041812438,-0.0001643784904083,0.0218618979884778,0.9997567011388112,0.0341318652935434,-0.0314679474195986,9.794319392473009,-0.0045558754075804,0.0139227783620609,0.0022199716733693,3.4888888259947546,0.0208451414067525,2.064170038992723,1129.0182273927144,1108.16575292152,1120.3710438449375,1142.9616787689145,-204.15219833077109,-658.5804607242487,481.9482829505134,567.3819652214684,155.92984251606657
8.3725,1.7992121443603915,2.002732515396197,0.5115003593019314,-0.0136512483641088,0.0007166326138571,-0.0034503622970202,0.0028166998296497,-0.0001697179028157,0.0218602309737425,0.9997568023773522,0.0330944198707373,-0.030262046971645,9.792302918606127,-0.0045792020456756,0.0138363501768415,0.0021295151492311,3.4888671899879338,0.0208775180719257,2.064189010992457,1128.6015269819272,1106.3629432162504,1121.4930020607112,1144.1801077347502,-105.52506961819115,-649.8424383594212,331.29556514020123,320.57521621656645,155.9298860551727
8.375,2.095172252569895,1.9654991568033593,0.6925757911907289,-0.0075193852976671,0.0067443406658978,-0.0017370327605356,0.0028036139905291,-0.0001631673126318,0.0218603147963528,0.9997568404195116,0.0317047693529343,-0.0284739002426681,9.790498863929507,-0.0045889408943308,0.0137547274315207,0.0020082606000019,3.488844965394415,0.0209136021677043,2.0642022568197027,1128.4906020446235,1104.9165407297237,1122.0275216706384,1144.5645548499967,-9.15455617569205,-549.1889981963324,123.94316670759244,43.823131896633264,155.92984957963975
8.377499999999998,2.2788081144475933,1.826233893683964,0.8271805989651942,-0.0012339097937838,0.0125143200805698,0.0003768057102268,0.0028014597262659,-0.0001490394301624,0.0218647775630367,0.999756749830884,0.030026282131401,-0.0260743524932991,9.788982715050624,-0.0045843086066697,0.0136738348896282,0.0018629746371043,3.4888221935857247,0.0209531579818684,2.06421058028201,1128.5557542010488,1103.6169982252693,1122.112717894249,1144.399223394233,46.854668974303365,-514.5657309598951,-65.95086154146763,-151.9992724669681,155.92973939371277
8.38,2.402651882501379,1.5664699999407123,0.9118134156323554,0.0056077761464247,0.0180239221333008,0.0034446992576207,0.0028120633540368,-0.0001294103271443,0.0218756369285109,0.9997564839232947,0.0280800383268606,-0.0230469228924339,9.787816773672628,-0.0045659993849363,0.0135902589443476,0.0017013239863056,3.4887998840725425,0.0209951764226959,2.0642151344862154,1128.724875389495,1102.3437120749238,1121.697767362931,1143.804558487662,60.804624242372974,-400.357041661374,-232.524134153764,-245.95688998834493,155.92952442193675
8.3825,2.4579647154025817,1.303884875937556,0.9066886157929706,0.010104222930656,0.0211104423720072,0.0064259109113304,0.0028388193754682,-0.0001017175827187,0.021893072443486,0.9997560319643474,0.0258016207963235,-0.0193398103407112,9.787047496351866,-0.0045362073207217,0.0135017277203766,0.0015311688741884,3.4887785053547766,0.0210386900641225,2.0642173621682027,1128.8597773222607,1101.615213016962,1120.95009722348,1143.1694389442914,38.464393747707085,-199.43010406518044,-371.1644420898039,-247.34131460750547,155.92927836518007
8.384999999999998,2.4924371071242404,1.0318274318599323,0.8198940599314882,0.014087039337237,0.0230497218583063,0.0093971115654995,0.0028775272728883,-6.989819307095388e-05,0.0219145224443041,0.999755459033123,0.0232576427316457,-0.0150516833158903,9.786704585711796,-0.004498504725741,0.0134074065432384,0.0013604805839142,3.488758473156337,0.0210822902219017,2.064216844697212,1128.9171973582336,1101.346561554598,1119.8419451524824,1142.5678519146247,5.719312477687027,-16.85363519637002,-493.3728192955713,-220.69302008430736,155.92896558115842
8.387499999999998,2.5113537843587945,0.7735088616713126,0.6737475857585998,0.0187258839492847,0.024380789343015,0.0117350220939847,0.0029225802822411,-3.74225451883167e-05,0.0219387903115833,0.9997548043522668,0.0205141008001507,-0.0103095723916141,9.786800580288292,-0.0044575852614446,0.0133080988141857,0.0011967335639072,3.488740409500844,0.0211238251808447,2.0642122393666,1128.8883738846491,1101.5309448409803,1118.4832331270027,1142.06597384387,-29.445004559415732,191.1864001963905,-592.5005267049056,-173.89584133727124,155.92859971606427
8.39,2.489172478241106,0.5452251072216794,0.4769906395537604,0.0244117369998499,0.0251796382745393,0.0131064717088482,0.0029735902742053,-7.489844973742731e-06,0.0219655434406576,0.9997540744166064,0.0176446943477746,-0.005141526173932,9.787331168212194,-0.0044190276865302,0.0132061300365721,0.0010462743691314,3.4887255655727327,0.0211621738998358,2.06420399488596,1128.7699723354365,1102.3024935555802,1116.8794425189571,1141.6983727079382,-60.098739000240734,468.1588752696094,-747.2224069606195,-139.40276860432823,155.92817283181265
8.3925,2.371864895058362,0.3080117482403821,0.2141440358012575,0.0320687915225432,0.02593148849743,0.0139991510617199,0.0030281324576765,1.781771467962884e-05,0.0219959295362844,0.9997532503742736,0.0147121032000202,0.0003797186736852,9.788277053594232,-0.0043889052598307,0.0131049579684132,0.0009140136433854,3.488714804625061,0.0211965819429481,2.064194260481732,1128.5878801896479,1103.8717392173287,1114.7471210921988,1141.3689600008483,-59.7985431417447,663.4832812845572,-803.3407915867663,-112.2820021940011,155.92759418067828
8.394999999999998,2.1689978066260407,0.1343804331710682,-0.0044353749561895,0.039035994225664,0.0265896003261374,0.0140198835967254,0.0030863280729473,3.59460950744147e-05,0.0220277825420712,0.9997523792960976,0.0118010147831978,0.0062238014709531,9.78960591862093,-0.004373391504746,0.0130086248578268,0.0008030060405076,3.488707977244492,0.0212280726676382,2.064185389957979,1128.4709796197278,1105.6199099620023,1112.8627385610243,1141.1369626969683,-22.72912925463615,754.2475282854142,-755.7283676848056,-94.22277589190689,155.9270597374197
8.3975,1.8395494913155277,-0.0244067070088606,-0.1983580722825094,0.046231693908491,0.0269640993845828,0.0130274967345425,0.003145710886703,4.3559852030263e-05,0.0220591321150789,0.9997515120660871,0.0090211302138235,0.0123009051374297,9.791275531924612,-0.004378088124689,0.0129212895975174,0.0007145764465179,3.488704718515337,0.0212586055221671,2.0641782703294718,1128.4742345433747,1107.6429768587564,1110.9684792537744,1140.8978461213887,41.731081139408,903.1347034287088,-806.561445434328,-109.19262789278147,155.92647466318175
8.4,1.3195317674966942,-0.2057281549546971,-0.3850394313300191,0.0534651191633453,0.0266152582407266,0.0111472607762674,0.0032056135968289,4.5724862386427885e-05,0.0220853664093986,0.999750750303644,0.0063274055048025,0.0185506595047198,9.7932357513874,-0.0044075586356002,0.0128469146332642,0.0006483449490889,3.4887036863948815,0.0212888369213526,2.064173261066684,1128.679635025425,1110.1355834791464,1108.829931333852,1140.5909995575043,108.79032961145076,889.5284797702467,-739.6040024582924,-108.19638605773768,155.92571804229016
8.4025,0.8313655612911293,-0.3532148011682502,-0.5008213473488091,0.0567774872196098,0.0256252948561909,0.009817486869042,0.0032654505983279,5.166078699210248e-05,0.0221025333291176,0.999750181541042,0.0035999601656629,0.0249066411763321,9.79543146602312,-0.0044647978364147,0.0127891784268336,0.0006026380065978,3.488703387747187,0.0213186195032919,2.0641705780275434,1129.0181861914318,1112.0906192576067,1107.2704592414836,1140.3568641911,155.66241466534308,724.0038274877027,-555.994899228264,-70.49556552180131,155.92504489905843
8.404999999999998,0.3694794300429805,-0.5047301698753978,-0.583298179668072,0.0566833969081117,0.0242849881607882,0.0090872083298557,0.0033272254818669,6.4291271345288e-05,0.0221089583126553,0.9997498351109096,0.0008469310022733,0.0313414368322199,9.797805370890968,-0.0045509385436845,0.0127514364375447,0.0005748914530058,3.4887026800460035,0.0213474299058226,2.064170471485393,1129.4579470987514,1113.7556026165844,1106.0499568377113,1140.2385217298954,182.0445070695939,645.5482544812539,-445.703362350126,-0.7867466500555244,155.9243307536341
8.4075,-0.0662753118955646,-0.7067798286168749,-0.6500485360236005,0.0539148916387979,0.0228018064402652,0.0080317287556724,0.0033979947635131,8.219731470375013e-05,0.0221049415746909,0.9997496801651836,-0.0018358086236293,0.0379167124675301,9.800299605321932,-0.0046652170090867,0.0127366347178709,0.0005619673171856,3.4887006748976574,0.0213752832028205,2.0641727268846566,1129.92840872678,1115.3183605300135,1105.0419424297327,1140.3529304578499,129.79655917740973,499.10517540271405,-293.4769227229022,95.90655218288111,155.92342999146547
8.41,-0.2955254860964863,-0.904037720508388,-0.6750856045169376,0.0506976683042639,0.0217181277939031,0.0064407555258529,0.0034807699544995,0.0001062677801214,0.0220927534122662,0.9997496555194764,-0.0044020955243,0.0446092804469691,9.802858233380125,-0.0048050880630372,0.0127471877612863,0.0005607063982633,3.4886962690791603,0.021402701851468,2.064176792745579,1130.1069298946384,1116.2511284935983,1104.5825722240963,1140.71805449081,-11.446817553999155,309.0346858067893,-114.78483854118632,198.83130968755128,155.9226454100651
8.412499999999998,-0.3897817064736832,-1.137060778577806,-0.6588958581910866,0.0479018687395634,0.0204601199790542,0.0042632589819802,0.0035732810164506,0.0001336751562376,0.0220737510004212,0.999749738471764,-0.0067413555888797,0.0512857234305961,9.805429342319341,-0.0049665445958032,0.0127848667882447,0.0005683494646722,3.4886881868372392,0.0214298027958474,2.0641824617979783,1129.87117463901,1116.8635339590471,1104.4680182370269,1141.3470870062874,-182.4775848780233,209.11225436167484,-2.1397172683006214,277.9198411909895,155.9218285680086
8.415000000000001,-0.4056308452940304,-1.3917501805360288,-0.6047081432873199,0.0464531170204247,0.0186302019303466,0.0020961260697152,0.0036732651478971,0.0001600340179331,0.0220506072563989,0.9997498794664508,-0.0087210946711318,0.0578091963942509,9.807964942136968,-0.005144474870962,0.0128507828329581,0.0005826486954543,3.488676076165634,0.021456728140746,2.0641887297782606,1129.1945419702483,1117.2966897654069,1104.571873637755,1142.107653696765,-379.5872093407386,154.2323991395947,73.34639376412032,299.54669649678044,155.92098729445453
8.4175,-0.3858746508541433,-1.64520660756846,-0.5092844399215072,0.0466485488366867,0.0155503018214723,0.0003238809192328,0.0037748731319642,0.000178278633548,0.0220284275774947,0.9997499901478376,-0.0101683791096259,0.0639709841674186,9.810422101256366,-0.0053331430538588,0.012945373395379,0.0006021309740449,3.4886607306217745,0.02148377642382,2.064194181744903,1127.973238592306,1117.6346959547452,1104.8347502058475,1142.8448204887716,-633.2469409447081,153.5983691062789,124.5326124726282,264.4494731698686,155.9201196416871
8.42,-0.3886053164691296,-1.8966592446666224,-0.3635222770094333,0.0475645553635619,0.0099706333004164,-0.0011669607563156,0.003865862934378,0.0001833786721113,0.0220118288285691,0.9997500158266992,-0.0109653639698208,0.069439800021506,9.812763273391838,-0.0055267456485627,0.0130683631756429,0.0006261061826836,3.4886432653649675,0.0215108859172353,2.064197948218908,1126.0283072655254,1118.064681610938,1105.194536700118,1143.429901062614,-747.6033639120155,174.5353905845497,122.00000596433408,129.46553552181132,155.91905231860963
8.422499999999998,-0.4422741957453552,-2.023867121589659,-0.2325670776032721,0.0480977139991966,0.0039637643364083,-0.0017865857458516,0.003938135324088,0.0001738998687036,0.0220026080210973,0.999749947926638,-0.0110766718030179,0.0739716542022496,9.814953662428431,-0.0057198147676294,0.0132187344649125,0.0006541982173958,3.4886246812133423,0.0215376813134293,2.064200193701579,1124.2352217727466,1118.5073729076676,1105.444750235669,1143.4921481663805,-679.4708188009129,200.10559678391073,76.86417749058526,-88.78390990997536,155.91814455156563
8.425,-0.5573364933656871,-2.0346591440833244,-0.1122127760678476,0.047780201980199,-0.002574859602585,-0.0017268173455779,0.003989670298916,0.0001530253526068,0.0219989034118328,0.99974983463626,-0.0105691045548793,0.0774512131295624,9.816959927607748,-0.0059074293628245,0.0133946504461334,0.0006860358613059,3.488605695883601,0.0215636329919996,2.0642018784015113,1122.6309531715203,1119.0652095948578,1105.578857587571,1142.985981513064,-572.3374250802423,265.1110250581991,29.48639277619344,-354.8041561841628,155.9172222036644
8.4275,-0.7504217879442074,-1.9090377275428296,0.0021992666475719,0.0460653925689969,-0.0099519733281678,-0.0012508110008541,0.0040240380795815,0.0001245790646147,0.0219980363712005,0.9997497207172504,-0.0095329834495357,0.0798837787688475,9.818750007170879,-0.0060851985349111,0.0135933496146886,0.0007211394671985,3.488586434803806,0.0215891778475591,2.064204265014216,1121.3735346473447,1119.8329280329588,1105.59218219955,1141.7181273854594,-296.7055378778831,283.89163451785146,-14.219339548392883,-556.1197377070781,155.9161041065222
8.429999999999998,-0.9384657959936162,-1.7080117373905863,0.066501313927242,0.0435478104731059,-0.0149286480723646,-0.0007896736913632,0.0040425206386101,9.16592321924068e-05,0.0219977673405218,0.9997496512600268,-0.0080573620617678,0.0812430231627055,9.820294722916973,-0.0062492241285857,0.0138110036703958,0.0007591255602374,3.488566661733028,0.0216150738296489,2.06420721096352,1121.1474254821312,1120.4846677674468,1105.5077608898291,1140.2053828245291,112.6144331056645,238.8926928418268,-41.86346931209555,-660.1145120648075,155.91516730724757
8.432500000000001,-1.1358998401176499,-1.4470841442292495,0.0990070724143111,0.0403608414570505,-0.0183062295689198,-0.0004174423963616,0.0040484583551215,6.210797935149711e-05,0.021999482176595,0.9997495821454424,-0.0063333248223279,0.0815614906730791,9.821566054158422,-0.0063960306108045,0.014042687879794,0.0007995802108189,3.4885451534759446,0.0216417397362724,2.064210324827896,1121.9366068128732,1121.0273914971683,1105.3828648529895,1138.4175548251349,479.0508490498884,179.69606806020158,-47.06861136914259,-724.8966703247108,155.914230638886
8.435,-1.3347182649644989,-1.1688640808326598,0.1090891913422366,0.036982897030343,-0.0205809012646072,-0.0001500084540204,0.0040495206022929,4.0580320718458784e-05,0.0220058100137886,0.9997494254264672,-0.0044955564637816,0.0809737202179878,9.822537131387604,-0.0065227186198078,0.0142823735702356,0.0008421290894217,3.488521817577751,0.0216701157132338,2.064213195185204,1123.542679727381,1121.383148107748,1105.2724178329831,1136.5808994729052,798.8029636259622,79.2948998111727,-30.487480071412087,-705.0528138814153,155.9132978062487
8.4375,-1.536210936762127,-0.8996660239036149,0.0983195066014052,0.033464330337227,-0.0220257907067078,7.1282812504706254e-06,0.0040560882628359,2.8017266023172416e-05,0.0220180395399561,0.999749114209959,-0.0026106349465048,0.0796856537571155,9.823182590695684,-0.0066272346285299,0.0145230157751415,0.0008864704708905,3.4884963815753065,0.0217011437937459,2.0642160201844746,1125.9306216310024,1121.423865996224,1105.2304274526325,1134.8922907557285,1147.8348636806923,-65.67654309930218,8.283995182729825,-666.9395739436329,155.91237331988657
8.439999999999998,-1.7871667012685069,-0.6071864689408595,0.068370795855048,0.0291054073929386,-0.0233556885436818,0.0001132708743585,0.0040745092314653,2.3475616816264008e-05,0.0220365990607081,0.9997486178298496,-0.0007130654364486,0.0778438632610275,9.823480084403943,-0.0067085993174979,0.014756808531885,0.0009325141098828,3.4884691820632274,0.0217359016307793,2.064219224773512,1129.2818540457831,1121.0547653922515,1105.313837808897,1133.2462016031875,1239.2155199749932,-203.4809896840352,59.58259225930284,-520.7813735139648,155.91127733121232
8.4425,-2.006682999427454,-0.3917660181457581,0.0329164418257267,0.0253101749452499,-0.0242981802110413,0.000165390596653,0.0040983848657572,2.577183621296848e-05,0.0220605001849617,0.9997479829071276,0.0011614367735351,0.0753650792916327,9.823412251839379,-0.0067671510582615,0.0149755707218749,0.0009806238377533,3.488441333117736,0.0217750089824857,2.064222230467805,1132.1266992308783,1120.4064610478035,1105.528340413929,1132.2883838881583,1069.9161200449144,-319.44902788481625,122.63912657024676,-287.0395266682414,155.91037714210404
8.445,-2.2316430862345222,-0.2010876213954095,-0.0106349055158137,0.0210882199307149,-0.0248851045082111,0.000204277231247,0.0041224384812024,3.1921444275640726e-05,0.0220859457887806,0.9997473131931937,0.0030152621330031,0.0722069933581315,9.822963598492455,-0.0068047058449115,0.0151712756066041,0.0010312349558895,3.4884140613729184,0.0218179058632657,2.064224873972308,1134.6314346460088,1119.4575202528272,1105.9270334417483,1131.8110039698463,953.600079474844,-468.08970891798015,224.03017878536863,-101.9742234117278,155.90949204222073
8.447499999999998,-2.4853537615077785,0.008550064892389,-0.0696291745200151,0.0151538343029047,-0.0249298376850949,0.0002361224636848,0.004142033916909,4.00993461397941e-05,0.0221092515667357,0.9997467103087176,0.0048337003484503,0.0683585210170054,9.822120740463145,-0.0068244335820906,0.0153366292205828,0.0010847649530717,3.488388457289738,0.0218643291329398,2.064227418332566,1136.8946996282516,1118.0660125032143,1106.6484913078557,1131.7785127710997,674.7842447879044,-537.5854554571266,307.64535201107475,66.92278354277245,155.90844792729612
8.449999999999998,-2.6559550066746422,0.176214753245408,-0.1215235306853119,0.0092559462939451,-0.0246244219782432,0.0002273824202235,0.004150793813836,4.8986820361518166e-05,0.0221255441976197,0.9997463109857913,0.0065988420211252,0.0637899788685944,9.820873512016329,-0.0068306847840762,0.015465535345271,0.001141628558895,3.4883653371363645,0.0219136479232648,2.064229629702192,1138.0053558699476,1116.769592975542,1107.4652602018034,1132.14561788756,270.4408238978008,-532.8056065100176,371.0384961586317,206.28629611002407,155.90759250072708
8.4525,-2.7441412817292505,0.3496710148400302,-0.1700019375999389,0.0024154719439122,-0.0242615632801774,0.0001237798433002,0.0041485123550806,5.2016935995023375e-05,0.0221359745623151,0.9997460914319672,0.0084086316475795,0.0586028678102148,9.81921435450939,-0.0068284018876912,0.0155536217880326,0.0012020099672795,3.488345294804308,0.021964542188541,2.064231465427026,1138.2469037477408,1115.4019844706638,1108.5036837886491,1132.80994425165,-81.78914035996598,-609.5076773294252,501.70210571001354,328.82694486183345,155.9067510241283
8.455,-2.71016492323226,0.577706495052579,-0.2120808694127868,-0.0066129053238316,-0.0235274659367907,-0.000212930894867,0.0041416539913708,4.232659310202007e-05,0.0221422047611627,0.9997459880929472,0.0103798546993176,0.0530372418314302,9.817139130720719,-0.0068228467295171,0.0155984437636378,0.0012656872901036,3.488328718145561,0.0220159620389916,2.0642327309370927,1137.5964101681477,1113.7220545888945,1109.9737707303539,1133.7897526118695,-371.5979922003328,-620.6134879724557,567.7614034054607,366.9866859129163,155.90575479762418
8.457499999999998,-2.542666102050241,0.7884339917252353,-0.2218256597649856,-0.0143301465852263,-0.0223857184749161,-0.0007549344279792,0.0041347463957295,2.4021199322672384e-05,0.0221444193237153,0.999745973685864,0.0124232323846401,0.0473029361580433,9.814649640610527,-0.0068191867647655,0.0155995511204236,0.0013320298161976,3.4883154193413404,0.0220670939478786,2.0642327789452355,1136.3889137867395,1112.298917030802,1111.3424908056759,1134.6448776812142,-582.2303814997665,-573.8306142337036,563.1147055448794,330.0694659679659,155.90493328696536
8.46,-2.224050582465196,1.0175071349573728,-0.1898024653023536,-0.0214583378963789,-0.0206583722839556,-0.001637896012005,0.0041291269926221,2.0813645894659235e-06,0.0221410105329906,0.9997460751664432,0.0144406394745554,0.0415459846606964,9.811755633291396,-0.0068219766769925,0.01555846061289,0.0014000299450468,3.4883043364581257,0.0221171812853236,2.0642319631246977,1134.6852582606484,1110.8529015177255,1112.7893442580787,1135.4400999417096,-731.3162102607059,-580.6650550036013,577.8902057586498,301.73823221475516,155.90411681295168
8.4625,-1.7932580698482596,1.2537113814003853,-0.1138924544097465,-0.0276898517763431,-0.0184024439068844,-0.0027777846741998,0.0041208945783327,-1.8673792880091903e-05,0.0221298869330242,0.9997463545760265,0.0163435312103937,0.0358036612560119,9.808476287609587,-0.006834700659377,0.0154785334216538,0.0014681968006485,3.4882946091241687,0.0221648475818363,2.0642297770188396,1132.7323327354354,1109.3955917557837,1114.2319418344696,1136.1535688422882,-803.7750807585105,-578.9865980810433,554.5871071337582,268.91969362578385,155.9033009118942
8.465,-1.2647625914121063,1.4821137223739336,0.0172618360821101,-0.0322896169339966,-0.0153976521646183,-0.0039894703048847,0.0041027139031916,-3.400257964347824e-05,0.0221125892384622,0.9997468087686934,0.0180603562150774,0.0300359161236856,9.80484090834572,-0.0068593792683131,0.0153647680607385,0.0015342966043827,3.488284861411034,0.0222095993775518,2.064226098236933,1130.6663828568567,1107.9579685273209,1115.5622797937467,1136.7846984098383,-893.5471243863462,-611.1504035963515,527.514450588856,272.2403717639823,155.90248057198363
8.467499999999998,-0.5886433989606144,1.7192697946034328,0.2228881683681597,-0.0348217955356798,-0.0109776279430482,-0.004792083048446,0.0040739024113441,-4.5399556283030047e-05,0.0220904944967418,0.9997474097184742,0.0196394178517334,0.0243173486727244,9.800888641522423,-0.0068965739100427,0.015223394924288,0.001594902128253,3.4882747254785578,0.0222506605680024,2.0642229820974975,1128.2645971135044,1106.3398397378023,1116.869514087413,1137.5147707011079,-842.5556185034156,-558.2569681933855,409.1337868061871,275.0441219050142,155.9014834293571
8.47,-0.0484445383689618,1.862814111152458,0.4084799839657649,-0.0339628753091823,-0.0065821086029569,-0.0042838315366924,0.0040383800141158,-5.6281675588200656e-05,0.0220671475303758,0.9997480642213844,0.0211707385613548,0.0187958834096156,9.796669668843506,-0.0069453619268824,0.0150614445925188,0.0016453413237746,3.48826363804356,0.0222881586320506,2.0642224093879538,1126.4536047643387,1105.1666836863535,1117.607948727778,1138.1599190193635,-659.2641563839486,-411.1172303037432,205.2474636554641,276.44677805378933,155.90063561872992
8.4725,0.4132388410282601,1.9224762461201712,0.5680206011576234,-0.0310129264909805,-0.0012926028366007,-0.0025038585672954,0.0040042663553809,-6.49692536066622e-05,0.0220469022317189,0.9997486447349064,0.0226458269696193,0.0136859165901249,9.792245573653751,-0.0070035258780257,0.014886254704983,0.0016798311273843,3.48825078929244,0.0223233870215738,2.064225666334578,1124.9682763315843,1104.2842535862835,1117.8957514056908,1138.897004591377,-554.1701127396401,-301.1726204888563,19.92005629518131,347.97412530517806,155.89976210330937
8.474999999999998,0.8567257644717782,1.8746297212045988,0.6859546454810048,-0.0272091643616888,0.0056862181509439,0.0005317216666346,0.0039716519500924,-6.615671366320193e-05,0.0220317234773788,0.9997491085188414,0.0239791798560197,0.0090272843616709,9.787690429473448,-0.0070678597220478,0.0147050088731441,0.0016923209741805,3.48823568039066,0.022356721165219,2.0642328927871607,1123.6827542006413,1103.6608205839095,1117.707549009254,1139.899789645889,-376.533121073667,-147.59112657177377,-148.3643615265687,379.8508978434572,155.89867448542685
8.477500000000001,1.1486404017360348,1.7333057659109323,0.7027142951308761,-0.0247076689912737,0.0111080347469594,0.0034607086571283,0.0039314888395057,-5.055610736934941e-05,0.0220222617476763,0.999749476666826,0.0249994473974805,0.0046643192728813,9.783089303498247,-0.0071344397071382,0.0145244733653483,0.0016770761684081,3.488217548855862,0.0223869378685868,2.064243350086215,1123.0856107262157,1103.5462979534243,1117.1539295980579,1140.7962590805946,-135.93860887447283,41.91244140069357,-283.8611233655694,351.2300711217809,155.8977288135745
