t,ang_acc_x,ang_acc_y,ang_acc_z,a_vel_x,a_vel_y,a_vel_z,quat_x,quat_y,quat_z,quat_w,acc_x,acc_y,acc_z,l_vel_x,l_vel_y,l_vel_z,pos_x,pos_y,pos_z,mot_1,mot_2,mot_3,mot_4,dmot_1,dmot_2,dmot_3,dmot_4,vbat
46.6875,-1.014668918495772,0.6391696746361158,0.303064133960089,0.0087638279674605,-0.0226908415607009,-0.012495551145924,0.0009100697428047,-0.0090296854921865,0.0284985755455838,0.9995524013021198,0.0621870939967514,-0.0445208723023287,9.87662587350832,0.0248327050997449,-0.0283151544127712,-0.0004434605905311,4.265160937553346,-0.707911775047045,2.0985458493042506,1150.102914382886,1142.1791100545172,1133.519899951322,1145.289859577813,-87.0991639750965,-339.4619566829437,472.7420262940748,227.46498243198167,158.0328150795752
46.69,-1.0404095462175895,0.8360424867248882,0.1212366323927982,0.0073251612420459,-0.0215373447573573,-0.0109515411615335,0.0008958974160908,-0.0089820189663915,0.0284678658440625,0.999553724919396,0.0629089722829145,-0.0431393644261234,9.87730699353683,0.0245918693475391,-0.0281224129496114,-0.0002525230691465,4.2652156599988285,-0.707978083685348,2.098539128154245,1149.803373298372,1141.3974396419444,1134.8000392818044,1145.5489625084235,-140.10175397304118,-331.93085164745145,546.8973241534899,11.938931086609305,158.03276373829553
46.6925,-1.0364133186759608,1.0170424503591884,-0.0998336507109088,0.0046448655527319,-0.0194217987330162,-0.0101675623563879,0.0008888539473238,-0.0089286467343646,0.0284286213714827,0.9995553310763464,0.063344292822187,-0.0414800962106843,9.877700491802388,0.0243759665207251,-0.0279242754654415,-4.012442586144084e-05,4.265270449012035,-0.708046402045257,2.0985336290146432,1149.4024056130204,1140.519455796279,1136.2543865720909,1145.3495542332464,-169.9239235463705,-426.967462056118,623.9354416540655,-160.96894773700976,158.0327389556493
46.695,-0.9535947632247738,1.1725742271101516,-0.362458633830296,0.0003043488976136,-0.0152786803551786,-0.0108828397295978,0.000895217871221,-0.0088760469966123,0.0283868388006497,0.9995569841730116,0.0635661321378551,-0.0394385014381613,9.87774251384531,0.0241847009837469,-0.0277186548827967,0.0001912123891593,4.265326693800821,-0.708116460324233,2.0985296383999494,1148.9537536806397,1139.2626023316627,1137.9197164900763,1144.7441177697383,-136.4111109424233,-503.4867887295636,559.2227496084516,-249.26639241784804,158.03273930556225
46.6975,-0.7979428479780495,1.224356698559346,-0.5389547964112528,-0.0033189171070084,-0.0106909530386895,-0.0127539836006862,0.0009142918450032,-0.0088273838926976,0.028345840116496,0.999558560551594,0.0635774503921603,-0.0370479274073038,9.877378244595569,0.0240164757130817,-0.0275036817652598,0.000437892381611,4.2653850433702845,-0.708186988933297,2.0985266367405684,1148.720350058309,1138.0020218526336,1139.0505003201304,1144.1032222711583,-43.20498380591352,-548.7643559068978,363.31719599565594,-241.02865571914157,158.0327637561084
46.7,-0.5497195869534373,1.1853528473846224,-0.6308929079278626,-0.0060456144398572,-0.0060300619549188,-0.0152544287506426,0.0009431075549669,-0.0087828753511649,0.0283044675802789,0.999560093602465,0.0633237906776598,-0.0343863334724988,9.876563571631815,0.0238688071380594,-0.027277888104103,0.0006955825830493,4.265445124422032,-0.7082568053891612,2.0985245941268937,1148.73772876161,1136.5187805521268,1139.7363024700555,1143.538974491142,74.10042437528163,-687.3910482694677,174.97865062068882,-185.4640650227754,158.03281163754872
46.7025,-0.1697235871205914,1.0586367955641676,-0.6163114581892095,-0.008051586948138,-0.0020919190185385,-0.0183471620310192,0.000975149679853,-0.0087409204423611,0.0282631187552558,0.999561594259828,0.0627189680590391,-0.0316013836201658,9.875267363616553,0.0237383327691702,-0.027040604364228,0.0009591628435022,4.265506066915198,-0.7083256109419203,2.09852437317702,1149.0908521801855,1134.5650666112845,1139.9253935732345,1143.175901946044,177.84118437955644,-721.2243478156516,-41.201418207712045,-58.35565063208229,158.03289357762685
46.705,0.1834882565175282,0.921454597744044,-0.4954743575005149,-0.0084246428229223,-0.0004960326293047,-0.0206382688946433,0.0010017977601982,-0.0087007077412158,0.0282240517996228,0.9995630169003888,0.0617002042258817,-0.0288824416595879,9.873472388364036,0.023621064848013,-0.0267919626260564,0.0012228046690835,4.265566941234176,-0.7083937630592247,2.098526623673597,1149.6269346835068,1132.9126588130518,1139.5302953790172,1143.2471962379818,243.29093325419595,-626.7546958032631,-264.98994384496734,112.88361662681064,158.03297996578956
46.7075,0.5269493531571365,0.7916292756995517,-0.273186732359741,-0.0074488074784069,0.0002065335663967,-0.0223768376039315,0.0010192905888743,-0.0086598922588328,0.0281875122156253,0.9995643823277568,0.0601876800978939,-0.0263207006846135,9.87117517985941,0.0235127351279233,-0.0265326629772235,0.0014806748908567,4.265627505762785,-0.7084611540241024,2.0985315709188512,1150.307306846457,1131.4312931322663,1138.6004438540087,1143.7403200291783,300.8684402928618,-563.4161465812969,-509.1823302002591,291.7167999873854,158.03308232371973
46.71,0.8698745868373359,0.6691162651755111,0.0788944716592258,-0.0048819964188235,0.001189929155198,-0.0234437217103253,0.0010295837932972,-0.0086215929194271,0.0281556781808797,0.9995656036087752,0.0582257367459705,-0.0238953612909921,9.868384779349892,0.023408638901588,-0.0262641211066116,0.0017269186860423,4.265687184991177,-0.7085275383882854,2.0985387089467302,1151.131276884972,1130.095578080144,1136.9843837280143,1144.7057802379195,282.3768612682055,-387.1051085097744,-650.6498220781856,381.0668493296189,158.03322064440107
46.7125,1.0594649639419247,0.5970882190801664,0.4096836208819107,-0.0012758050932139,0.0025221952531453,-0.0230494933851128,0.0010400852541155,-0.0085922074527178,0.0281353629502215,0.9995664260525516,0.0559414220488408,-0.0214770141538131,9.865122754649745,0.023303480162913,-0.0259885261015569,0.0019560242327718,4.265746531379016,-0.7085920734867434,2.098548036260941,1151.7191911527968,1129.4957675897194,1135.347194743621,1145.6456542758247,197.89722044787476,-116.93353395060896,-677.4922812822923,350.80396970365894,158.03334689587643
46.715,1.118193353764982,0.5499256842446031,0.7325416160350184,0.0034195729524404,0.0043201673111555,-0.0211202683582402,0.001053093083813,-0.0085765412495972,0.0281286780021143,0.999566744594194,0.0534412398188912,-0.0190328102930597,9.861425509804235,0.0231918363899045,-0.0257083108337344,0.002162761871593,4.2658070403097845,-0.7086540615730254,2.0985593236997984,1152.120762987212,1129.5109104103904,1133.5969223216011,1146.4598000864387,124.77851970486864,102.50028261356633,-687.8085540912825,268.84746224386504,158.03348253947135
46.7175,1.0660645347326247,0.5197836012191503,1.0159132596811031,0.0076688291399752,0.0061730058887073,-0.0182626729279434,0.00106944028778,-0.008578665111818,0.0281317586428683,0.999566630203628,0.0508298686281565,-0.0165549221732031,9.85734163794387,0.0230683500845346,-0.0254258600926775,0.0023425783089906,4.265869974575658,-0.7087127672130545,2.098573198373179,1152.3430837513215,1130.0082690027875,1131.9081519731628,1146.9898915870447,48.680008787640574,287.453261318285,-626.3703147391665,120.9348727986898,158.0336246855995
46.72,0.9050115092626048,0.5132366082634545,1.2219935486115667,0.010281954532126,0.0073414198234288,-0.0146196326672276,0.0010875525837936,-0.0085963871057992,0.0281412961955908,0.9995661949257838,0.0481016477316251,-0.0140763167319686,9.852930716544442,0.022927688620883,-0.0251435020511679,0.002492093265947,4.2659355602680415,-0.7087682282260616,2.0985896699375295,1152.36416303115,1130.9481767169807,1130.4650707479084,1147.0644744504316,-23.545769182043617,462.13156616562634,-549.455783612885,-63.732692909765454,158.03377337675968
46.7225,0.6344957940490163,0.5409037311808211,1.358932795651092,0.0116169655569997,0.007654359193042,-0.0096781996250618,0.0011068828277672,-0.0086218485033715,0.0281547328807173,0.9995655784127196,0.0451533869771437,-0.0116039754502289,9.848259457906275,0.0227649820011425,-0.0248631383428787,0.0026095423812243,4.2660030206259,-0.7088209940373902,2.0986076417498314,1152.2253549054112,1132.3189268336168,1129.1608730550968,1146.6712281224957,-63.27230132789228,500.66245480481336,-403.2867691065104,-193.0469190046928,158.03395802780977
46.725,0.3768648404111274,0.5920806221952613,1.3797636680496703,0.0118689121731864,0.0078450687443791,-0.0057215866429322,0.0011224716881011,-0.0086449289027764,0.028168219220461,0.9995649817594896,0.0418463924223766,-0.0092288581588405,9.843399405252372,0.0225763533135676,-0.0245858576519715,0.0026945850729895,4.266070883084227,-0.7088719631957972,2.0986260752016923,1152.0478015245103,1133.451488991006,1128.4486369023748,1146.0992398554076,-65.1507559375797,409.5998802495248,-224.4895191625569,-225.7123570369692,158.03411634379555
46.7275,0.1096486032716318,0.6527623696762557,1.3165369981834472,0.0121281120521212,0.0091141827048429,-0.0025312574530846,0.0011275781594137,-0.0086617682156519,0.0281781555953453,0.9995645479139036,0.0381736962049613,-0.0070798613627799,9.838421926445092,0.022359156302854,-0.0243117753989021,0.0027481320318752,4.2661384664488375,-0.7089224221085006,2.098642998630017,1151.8996011257236,1134.3669262348626,1128.0384254592852,1145.5426663373119,-43.99655772938354,327.35081684328713,-149.73704011300995,-181.50807963743128,158.03427866006828
46.73,-0.2077023377675137,0.6997160596695202,1.1652001244868189,0.0126960737623539,0.0120495263521917,0.000518189545943,0.0011182865043321,-0.0086726043535221,0.0281832991621868,0.9995643157555452,0.0342175711516337,-0.0052331630000877,9.83339439126798,0.0221119884717982,-0.0240400321516347,0.0027725562317714,4.266206045703422,-0.7089735343724864,2.0986572312904124,1151.8278187358633,1135.088243075223,1127.6999517018091,1145.19169945722,-7.603930121372942,200.47303394384215,-129.83599276019683,-46.48418893968833,158.03447771115378
46.7325,-0.456751153244042,0.6948275866350804,0.9887917275929244,0.0128197780477317,0.0149460323118311,0.0027646065925137,0.0010953536360469,-0.0086779442559294,0.028186040481424,0.99956421442169,0.0300724733491694,-0.0036750274478029,9.828377467375148,0.0218346745320004,-0.0237689461988613,0.0027716236527829,4.266272830407045,-0.7090264684156072,2.0986683453278774,1151.8615814751167,1135.3692914045823,1127.389245495484,1145.3102453926133,21.050956992049624,60.95496708991136,-159.3562841136275,143.29431280020188,158.0346471216778
46.735,-0.6622917175379816,0.6348734600028715,0.7686744349147862,0.0116963659421065,0.0173500589786888,0.0050829034228611,0.0010651117195306,-0.0086830909095046,0.0281894627628613,0.999564104307986,0.0259306708769488,-0.0022878696528227,9.823422131395665,0.0215284410012229,-0.0234961623752427,0.0027498751399766,4.266338017592549,-0.7090819142883483,2.0986763854341697,1151.9330735208234,1135.3930179106724,1126.903170281242,1145.9081710212204,13.610075216631545,-21.90163191174877,-268.61608575013526,355.6259201304328,158.0348204462988
46.7375,-0.8151596301500663,0.5098543945373708,0.4629598362304752,0.0087337017281751,0.0192323923653855,0.0079114502026439,0.0010381123578361,-0.0086873813255581,0.028193120258669,0.9995639913569964,0.0218659587769961,-0.0008721232173913,9.818569672502115,0.0211959500734637,-0.023218889965838,0.002712573846004,4.266400904507031,-0.7091392351217296,2.098682314328968,1151.9296318512,1135.2597832450235,1126.0461650667323,1147.0883749932664,-38.08627677069906,-57.23560819557661,-355.4683562415449,481.5283506573716,158.03503359186763
46.74,-0.8359143051266879,0.3763341099859781,0.1880769688258998,0.0053986077314415,0.019954187546745,0.0097512901176636,0.0010215070465176,-0.0086842132058835,0.0281940318796194,0.999564009307058,0.017827839684986,0.0007036946974527,9.813852649005609,0.0208410318399821,-0.0229344194990617,0.0026649483706621,4.266460733310404,-0.7091978523853407,2.098686642503546,1151.7426421369698,1135.1068398696943,1125.125828500033,1148.3158127745085,-133.27894022744047,-55.63991891759146,-390.2434855803133,498.98403315855734,158.03521619865944
46.7425,-0.72928583251489,0.2287600634335209,-0.0743164892773828,0.0019061936784712,0.0200613814798622,0.0101729998454508,0.0010186583869763,-0.008665705906253,0.0281891018013912,0.9995643111898954,0.0137314190263116,0.0024931919655748,9.809294204079972,0.0204682905559929,-0.022640562837813,0.0026116943682226,4.266517061957118,-0.7092567533246114,2.098690146963932,1151.263237150063,1134.9815836504358,1124.0949476388328,1149.583295159057,-245.6865085601709,-42.25953234585383,-407.29618671890177,480.6534435462987,158.0354050721758
46.745,-0.5230221412285244,0.0759895788143932,-0.2924649646182612,-0.001082890828522,0.0200783053077993,0.0090895318197713,0.0010256815788764,-0.0086321205630766,0.0281761454696622,0.9995649589041746,0.009638870220144,0.0043998894916156,9.804908806229983,0.0200827314711764,-0.0223359144977725,0.0025562676882319,4.266569901528281,-0.7093148906248653,2.0986927973588685,1150.51420959417,1134.8955422079655,1123.0893475664407,1150.7190799922375,-356.2256893683294,-28.5346007264106,-365.62436676289906,386.6148814616122,158.03560014932424
46.7475,-0.227095757249107,-0.082360685167973,-0.419002876242319,-0.0026781343723869,0.0202649191117757,0.0066638342201333,0.0010348482863599,-0.008586133577127,0.0281536426681517,0.9995659790270855,0.0056477207432026,0.0062482254853648,9.800703082194227,0.0196893430711075,-0.0220198660240267,0.0025012086776506,4.266618867071609,-0.7093716505570165,2.0986948763426887,1149.4821087032208,1134.8389106468037,1122.266825805017,1151.516369566366,-491.3917942434396,-29.05965392054318,-288.5933217036724,236.57581220397051,158.03580402214456
46.75,0.1720263222701844,-0.2787705666009124,-0.4382119959609775,-0.0026097683307699,0.0203854625033615,0.0035638405121436,0.0010439608748706,-0.0085317999267425,0.028124462946752,0.9995672569795154,0.0018763421259314,0.0079692713386968,9.79667470351149,0.0192925183354921,-0.0216926269719144,0.0024485286690228,4.266663981852489,-0.7094269658052441,2.0986965854440287,1148.0572506229516,1134.7502439383627,1121.6463809579216,1151.9019590532582,-524.619660963776,-46.91730493354672,-156.48091099147356,31.107676018728952,158.03606041467353
46.7525,0.493742676935642,-0.4425181734778518,-0.3459139472946104,-0.0012300160108101,0.0200348552505618,0.0015129465896721,0.0010530882014032,-0.0084737062718132,0.028097195712875,0.9995685110686636,-0.0015537656169382,0.0095384048647373,9.792815127160338,0.0188955840765875,-0.0213551526181445,0.0023995530116466,4.266706106936113,-0.7094806620753825,2.098697976060198,1146.8590103984043,1134.604324122136,1121.4844212500607,1151.6719079464594,-445.266252032388,-87.66443202985165,1.5686975686540952,-206.63427288562505,158.03628488407148
46.755,0.7539632133613169,-0.5915141287597586,-0.1659015511797499,0.001193637815699,0.0188875197379324,0.0003379390021397,0.0010652158449168,-0.0084185766543095,0.02807959571439,0.999569462489786,-0.0044872510195826,0.0109875086842782,9.789111307447705,0.0185007596227734,-0.021008735018329,0.0023548537036779,4.266746828689308,-0.7095325403682398,2.098699175748859,1145.8309193627883,1134.3119217782132,1121.6542244457648,1150.8687876888296,-379.8247901403887,-175.8499223543377,121.46488357819332,-461.7924849234808,158.03652163634544
46.7575,0.9531621105112464,-0.729908994723419,0.1052039036463727,0.0050905452884272,0.0165721675061084,2.4366264901511513e-05,0.0010794938611719,-0.0083752212616833,0.0280739590744057,0.999569972387813,-0.0067399754194239,0.0122731664192228,9.785549850345694,0.0181091880517535,-0.0206547235573259,0.002313956630109,4.26678842708959,-0.7095827515232733,2.098699921011871,1144.9598864477011,1133.725074510364,1122.091745667952,1149.3629455218409,-246.81928959134603,-257.9683898374314,169.18960998907022,-612.7908220360157,158.0368209757302
46.76,1.0091406125446722,-0.796265844985899,0.3379479326634338,0.0088328305257365,0.0140492924054123,0.0006889279840231,0.0010967809635517,-0.0083498515122468,0.0280776371348263,0.9995700619412308,-0.0081864081231895,0.0133885864046927,9.782117586851863,0.0177210064232783,-0.0202944022669651,0.0022757264867349,4.266832524877995,-0.7096315239057366,2.0987007611044723,1144.5968229148327,1133.0220798290272,1122.5001724957094,1147.8048335786523,-73.87233405089178,-319.00376383006966,135.61204790387248,-645.4697286597701,158.0370837472208
46.7625,0.9537268322396903,-0.8024431013927695,0.5311728674498938,0.0122212801241201,0.0112891285734883,0.0023082787854738,0.0011176187732878,-0.0083411285222442,0.0280874176251042,0.9995698318143034,-0.008855116824662,0.0143278720135272,9.77880414918307,0.0173355371280097,-0.0199290842571563,0.0022384540052386,4.266879558910675,-0.709679340376134,2.09870296746789,1144.5905247774467,1132.1300556912129,1122.7698059074717,1146.1355968785404,53.5512444647519,-415.2328958637249,53.22667483334959,-717.3111351934464,158.03736093544276
46.765,0.7872619579893491,-0.7457785653583184,0.6711098177221164,0.015060086878936,0.0082990346606304,0.0051959830133226,0.0011391437678256,-0.0083436123583244,0.0281030304385842,0.999569337503908,-0.0088608915611864,0.0150248641607507,9.775604399354009,0.0169517138480794,-0.0195602223359333,0.0021997218511888,4.266928191411365,-0.709726381599002,2.0987077856694087,1144.8645791371569,1130.9459153497075,1122.7663058698763,1144.2182779026832,119.9257232811032,-431.7930570161769,-68.95265386480692,-665.7763390152611,158.03771074118663
46.7675,0.5954122206001982,-0.6597025739262125,0.6881069682312629,0.016359477071585,0.0064870100484089,0.0080388855097835,0.0011599077317688,-0.008354262236495,0.0281251561495692,0.9995685872697336,-0.0082749777407253,0.015444137361801,9.772518079599699,0.0165686864457608,-0.0191893284515939,0.0021566661902509,4.266976540612829,-0.7097726515873697,2.0987155324972626,1145.1901533938517,1129.971090406134,1122.425042638148,1142.806715183467,118.00995488377669,-360.0542443538393,-206.5029838299632,-511.4454892291745,158.03801695301584
46.77,0.3833441896124696,-0.5569700916819778,0.5925196905054407,0.0166390813328376,0.0054717903744366,0.0107566569972084,0.0011767046183911,-0.0083736602546788,0.028153734019075,0.9995675833519124,-0.0071032309790884,0.0155184615953947,9.769551627818249,0.0161861639405059,-0.0188179601058121,0.0021062354218024,4.267023877543428,-0.7098183929319016,2.0987248254492648,1145.454628911576,1129.1456441279374,1121.733790950726,1141.661050456536,78.19070754485983,-287.5061742074088,-322.09739750362024,-412.0560318123518,158.0383391126339
46.7725,0.1731384440299291,-0.456641844323842,0.411803582464422,0.0163268499847316,0.0049020903205721,0.012952040849908,0.0011905093496195,-0.008402567307452,0.028187199807594,0.9995663638361412,-0.0053504442309267,0.0152668368295869,9.766716802069807,0.0158045182915142,-0.0184477041466835,0.0020458837538814,4.267070801173028,-0.7098631209992269,2.0987344135773247,1145.581106931576,1128.533559535096,1120.814555650629,1140.7464350244043,8.819992197421762,-178.78127145443503,-394.3715553592432,-313.6043924375496,158.03867519937702
46.775,-0.0263546339466628,-0.3707872898637587,0.1547252551894194,0.0158432688960148,0.0044456435289846,0.0141947721871172,0.0012030655721452,-0.0084321888446082,0.0282237198621594,0.9995650529634748,-0.0032120242674166,0.0147333665803876,9.76403206318371,0.015424750399589,-0.0180802426114158,0.0019739219561558,4.267117246388439,-0.7099061443453833,2.098743693568179,1145.498728872563,1128.251737770666,1119.7619331739315,1140.0930284943497,-79.94729375027875,-38.7466399590523,-446.8917575225975,-232.0408813362696,158.03902916326032
46.7775,-0.2580563191102819,-0.2882649949408313,-0.1935556607832171,0.0151787899653288,0.0036313055651382,0.0142808812043942,0.001214714589053,-0.0084501362527561,0.0282594172481932,0.9995638668742968,-0.0009592935695294,0.0139413548558788,9.761522663871121,0.0150486500646855,-0.0177172447461763,0.0018892574227394,4.267162137048417,-0.7099474234458111,2.098752765052713,1145.1813704628244,1128.3398263353008,1118.580096863015,1139.5862306177223,-141.49864903462947,103.93184683311259,-384.90305983394455,-139.94305417179137,158.0394762813897
46.78,-0.4541310140446321,-0.2350086286525443,-0.4766647724028019,0.0144515797238242,0.0028910645994064,0.0131361394633716,0.0012236284533,-0.0084465347345176,0.0282892167081595,0.99956303903474,0.0011794439707371,0.0128749001080805,9.759219802237501,0.0146787738018047,-0.0173602794799288,0.0017911734915047,4.267204176955,-0.7099871882216575,2.098761680429022,1144.7912356273896,1128.771397004832,1117.8374178747608,1139.3933132234904,-165.4651143634196,242.31449581015323,-215.27162865155813,-24.254731458017208,158.03986896121924
46.7825,-0.6653348300986281,-0.196152122335611,-0.7067232912978814,0.0137965752759845,0.0023456380051615,0.010878052118989,0.0012244696190505,-0.0084185142759226,0.0283073427778509,0.9995627645861453,0.0031058770388203,0.0114499483351323,9.757159551227485,0.014318261610448,-0.0170107066173171,0.0016791687356703,4.267242731845803,-0.7100254828444524,2.0987696310155712,1144.3540448910082,1129.5513988143505,1117.503738719758,1139.4649569604323,-187.89782689149823,411.6525526550672,-39.04047849303246,104.2824414590917,158.0402844598829
46.785,-0.9416730552300956,-0.165778576425773,-0.8812666175847843,0.0128237875599401,0.001776667258372,0.0071738564976117,0.0012195271388103,-0.0083726043471243,0.0283087952593802,0.9995631238580384,0.0049051112079714,0.0097297463762141,9.755377825383336,0.0139704729198293,-0.0166695529706728,0.0015532398835579,4.267277986937428,-0.7100622056834581,2.0987760215641345,1143.8517464929316,1130.8296597681083,1117.6422154822956,1139.914725430786,-175.40458688386147,511.5742274154056,132.2180489335784,233.83590496752592,158.04081201229934
46.7875,-1.1821484245831002,-0.1543244777748001,-0.926900445217772,0.0112357558853295,0.0011684676551847,0.0037262384973094,0.0012111153739159,-0.0083167784362949,0.0282929359122655,0.9995640634480853,0.0066878683582954,0.0077804400532924,9.753911662230054,0.0136384649325208,-0.016337517837557,0.0014137466903418,4.2673099570312605,-0.7100982406809802,2.0987814431911858,1143.4770219565885,1132.1092699514288,1118.1648289644263,1140.6341364852703,-142.0835482772346,532.7990294006511,266.4067573746856,362.1619092113744,158.0412776991817
46.79,-1.4056055913750662,-0.1599143755115065,-0.8714656233359612,0.0086102444165597,0.0004996857277405,0.000610164829301,0.0011998164819355,-0.0082569575397379,0.0282654297177674,0.999565372460156,0.0085228781422881,0.0056380277265073,9.752798486040913,0.0133245638509564,-0.0160149567913761,0.0012613340620034,4.267339103387489,-0.7101346248808929,2.098786561557904,1143.141328751546,1133.4936549151091,1118.9742492691676,1141.7255349768411,-145.50978892659091,599.6872483951053,381.61908062446423,552.8966761904385,158.04177260497448
46.7925,-1.6074463092206552,-0.1949374499011802,-0.7147610319852055,0.0040048985671777,-0.0001607737810859,-0.0022039192331543,0.0011890124437902,-0.0081984981240111,0.0282367258370336,0.9995667060911892,0.0104693255828312,0.0033948559244578,9.752073207387816,0.0130300992892509,-0.0157018810239276,0.0010969828049753,4.267366034437376,-0.7101718216835728,2.098791397886101,1142.7494730119552,1135.1077061934059,1120.0729243675496,1143.398619866224,-147.39308765457926,557.6505524388598,397.4343453727001,651.1080125540353,158.04240257006148
46.795,-1.6845221182978047,-0.2570634372401529,-0.5383832008493473,-0.0011546255517999,-0.0004809084735666,-0.003471491370047,0.001178821444996,-0.0081493756319286,0.0282110541859189,0.999567877963961,0.0126343241339602,0.0010779762475592,9.75176828761392,0.0127554921404743,-0.0153978617739219,0.0009217377430805,4.267391809863939,-0.7102096003383941,2.0987957884383697,1142.4043633132728,1136.2819076773048,1120.9614209960323,1144.9810750396132,-146.93593035280804,404.4586360681064,329.37017910574406,632.418578630752,158.04295914010217
46.7975,-1.6365710249453163,-0.3638562672111987,-0.3510132643486111,-0.0068301369050572,-0.0004185209703331,-0.003661398387302,0.0011690764971187,-0.0081168658473252,0.0281873222252704,0.999568857320033,0.0151120917283418,-0.0012913535591136,9.751911575099284,0.0125000551567289,-0.0151022618829522,0.0007369117463808,4.267417913942283,-0.7102471244156568,2.098800040126717,1142.0147933601916,1137.1299993737443,1121.7197752630768,1146.560712759375,-164.98486005739977,267.0654265829851,275.9727830707968,598.6934022845281,158.0435501589536
46.8,-1.480317814543518,-0.5096160470900662,-0.1752929694288752,-0.011958506841037,-4.640565859106796e-05,-0.0034684386636117,0.0011568621715806,-0.0080998939345749,0.02816637918727,0.999569628206083,0.0178372550179328,-0.003741425536457,9.752526218057183,0.0122617915727645,-0.0148145669682316,0.0005442399711674,4.267445200187363,-0.7102838616317452,2.098804727198215,1141.5794390129854,1137.6172348102205,1122.3412849113868,1147.9745420510371,-184.11133806561924,94.69887900467869,216.06764821133623,492.102351479046,158.04417083823594
46.8025,-1.2111161851463519,-0.6880982740227093,-0.0261014983781306,-0.0157227255212,-0.0001806890851976,-0.0032444917895869,0.0011405218367307,-0.0080952423808387,0.0281497013094257,0.9995701747050172,0.0207093196422998,-0.0062759340676658,9.753627827679415,0.0120376640676408,-0.0145343927627532,0.0003459112461054,4.267473747737792,-0.710319906149512,2.0988096187555114,1141.0942366698632,1137.6034937687682,1122.800113504134,1149.0212245167716,-218.52432337420265,-124.56642713234449,167.30995630097578,349.73516247400744,158.0448284359876
46.805,-0.7984144890889983,-0.895680706121011,0.1182215344865686,-0.0187374043724165,-0.0023359101871177,-0.0029842364556454,0.0011202243190841,-0.008101323310679,0.0281382056788959,0.999570482939566,0.023667452672459,-0.0088654046944101,9.75522284769069,0.0118239130715119,-0.0142614729203826,0.0001445946178845,4.267503339037424,-0.7103553250058317,2.0988144264128263,1140.4868173961152,1136.9944026745593,1123.177834692891,1149.7232178634058,-218.14295957707887,-312.38795380501176,111.66673592557495,161.43486253869145,158.04566148115197
46.8075,-0.4143957620447409,-1.0210086396921123,0.2104547979422834,-0.0201346361382827,-0.0058825863704641,-0.0026973885553331,0.0010968639792945,-0.0081205140760573,0.0281311862826088,0.9995705526825016,0.0267359692133625,-0.0114702066103686,9.757307569254989,0.0116163622158805,-0.0139956482086154,-5.657132293760054e-05,4.267534552866864,-0.710389575547993,2.098818334040427,1140.0035218719788,1136.0415539997443,1123.3584471837614,1149.8283988294643,-173.3598877967347,-446.70762969631033,48.93296908905766,-44.32472190671894,158.04639291290323
46.81,-0.029969926026187,-1.05653915435645,0.2745787527560497,-0.0203255025201877,-0.0102028142469275,-0.0023912612039305,0.001072166374596,-0.0081560715867495,0.0281280392742049,0.9995703739790252,0.029964906490357,-0.014036911838755,9.759867581270134,0.0114106771286406,-0.0137368862863002,-0.0002539070884682,4.267568515118974,-0.7104224434599387,2.0988203093654105,1139.6200179571313,1134.7608645260766,1123.4224995383363,1149.501594253872,-122.87487428782777,-589.6747600331929,15.064207007927987,-211.85447333312445,158.04716317139437
46.8125,0.3883240456954825,-0.9809684989875213,0.3161551505376937,-0.0191074729526991,-0.0146841039082005,-0.0018207510584838,0.0010463759534385,-0.0082085634137329,0.0281286884904095,0.9995699462854252,0.0333588353383295,-0.0165416824406074,9.762878334216996,0.0112027813734696,-0.0134852195128089,-0.0004433121273341,4.267605414660244,-0.7104537401240916,2.098820047838363,1139.3891475005391,1133.093180199577,1123.433768218801,1148.769126462798,-28.08800658879417,-589.6078467067942,10.831960405049204,-296.6967295129477,158.04813180803148
46.815,0.6755497124491918,-0.8309953747939021,0.3155054331696042,-0.0170354318215653,-0.0171210266783399,-0.0010377755053961,0.0010206464792745,-0.008271235623415,0.0281330402714442,0.9995693280219194,0.0367865279515534,-0.0189414010865323,9.766305190733304,0.0109893877183264,-0.0132406258426369,-0.0006203453198,4.267644103416145,-0.7104832339637321,2.098817310653604,1139.4795779241874,1131.8128252925453,1123.4766593403615,1148.0181106063087,114.2703209829376,-439.2255735144344,51.317264485734206,-296.20010300621595,158.0489750164801
46.8175,0.8805072304535062,-0.6174101808946318,0.2694623054471351,-0.0143503674394227,-0.0184573388668601,-7.372209635547005e-05,0.0009966910170936,-0.0083354669803373,0.0281389917909317,0.999568648525172,0.0400850945644811,-0.0211838196794053,9.77010350351444,0.0107684896766493,-0.0130028500016136,-0.000780665778737,4.2676829854529785,-0.7105113343895724,2.0988125219196982,1139.9604991054543,1130.8970523320036,1123.69035454123,1147.2881259477663,312.5272494635048,-277.6042291999546,163.9504945837032,-287.2768408404121,158.0498538792074
46.82,1.0269793124470412,-0.3174528056255335,0.1546231459862614,-0.0108348680482021,-0.0192471625725306,0.0011147598624981,0.0009745311501025,-0.0083966765032262,0.0281422420718549,0.999568066316793,0.043172220174718,-0.023255048837682,9.774219302550334,0.0105395919060788,-0.0127712679961937,-0.0009204977239995,4.2677205127380216,-0.7105387543518848,2.0988066220610535,1141.0422141715055,1130.4248041465448,1124.2964118132807,1146.581726402106,474.8946602501063,-57.09222447736201,294.6356680537925,-220.54938260782413,158.05094694876078
46.8225,1.0730103701358935,-0.0470272092953396,0.0092671429587791,-0.0077125661778277,-0.0194418222066302,0.0020015885817274,0.0009551673329073,-0.0084474248892926,0.0281388023520539,0.999567754365568,0.0459114656086154,-0.0251238836238718,9.778590888793886,0.0103036464827451,-0.0125448768347697,-0.0010365900770382,4.267754849351699,-0.710566207961193,2.0988000388125654,1142.3349724067027,1130.6115912096172,1125.1635328814975,1146.185379034728,571.9076119387212,185.65430251096183,421.89623999421445,-120.53943881053983,158.05188731401182
46.825,1.0586534346504752,0.2318535603651717,-0.178065771902189,-0.004938996026448,-0.0193999531093747,0.0024872843509281,0.000939397769371,-0.0084826117524707,0.0281265678093664,0.999567814027669,0.0482115323231859,-0.0267680051535983,9.783150162448328,0.0100627503379665,-0.0123223395632612,-0.0011264686241831,4.267785379702855,-0.7105939873198436,2.0987918268442938,1143.9017522312008,1131.3530756591,1126.4058930132528,1145.979029208053,639.2658352507536,367.0277733528051,543.936329809907,-60.38482758332614,158.0528546059128
46.8275,1.0136310335668968,0.5089963533626787,-0.3844979117542757,-0.0028324512413109,-0.0190231884033015,0.0022690788769657,0.0009292594491198,-0.0085024006735932,0.0281057855823292,0.9995682348577052,0.0500828130524264,-0.0281476093878986,9.7878238449538,0.0098197020944748,-0.0121020766644875,-0.0011885938339286,4.26781297017373,-0.7106225540058136,2.098781589933037,1145.531301582958,1132.4467300763822,1127.8832145305485,1145.8834548968111,618.3354988195046,486.2187322569172,613.0215012426679,-26.887093769325368,158.05384108450218
46.83,0.9538572821879272,0.7684556037094306,-0.5865827667800027,-0.0014495125807956,-0.0177974475606907,0.0009108029943284,0.0009306544124504,-0.0085076700423885,0.028080086180366,0.9995689017714938,0.0515489911943101,-0.0291514581971967,9.792535838283785,0.0095775733790429,-0.0118824296752047,-0.0012224130136039,4.267838997027972,-0.7106520667468125,2.098770524627743,1146.9934297252955,1133.7841693203825,1129.4710005194631,1145.8445937392064,545.0655159699576,596.6205270846007,669.3495068451953,-22.84242465474304,158.05484661030476
46.8325,0.8800460505704086,1.0316935884927532,-0.7870751671431148,-7.849396135052524e-05,-0.0149797245057425,-0.0017680436108002,0.000948045566711,-0.0084987268720819,0.0280528810927457,0.9995697131044836,0.0526175239738908,-0.0296997112776112,9.797211073984409,0.0093395262540185,-0.0116617636686141,-0.0012286276918672,4.267863615948718,-0.7106822515771127,2.0987603664421224,1148.2566291628093,1135.4298327118067,1131.229962064776,1145.7692427735376,350.25377423344526,581.2601269439465,582.832061465726,-42.7821726255624,158.0560697264352
46.835,0.8135827882232733,1.189876173244073,-0.8976445774469598,0.0013768986387413,-0.0117204096662663,-0.0045220260479226,0.0009778679122197,-0.0084757100762734,0.0280261868785096,0.9995706150121824,0.0532835537847442,-0.0298729025195111,9.801779288338356,0.0091086636208135,-0.0114386223546654,-0.0012093143187523,4.267885822453128,-0.7107130062735841,2.0987529455248297,1148.7446985964636,1136.6904699551037,1132.3851608267935,1145.6306828760785,64.22582418528165,460.793517574676,366.871067627032,-77.71029641005744,158.05709850810794
46.8375,0.7246280840299735,1.2662237013131414,-0.9352959694806644,0.0035818555393581,-0.0082630896786603,-0.0076187496207445,0.0010114532338021,-0.0084396252790671,0.0279989649040881,0.9995716367049796,0.0535518905204494,-0.0298549025095552,9.806176399932333,0.0088878460380773,-0.011211875234055,-0.0011675930243783,4.267904978700102,-0.710744042574214,2.098748165083257,1148.5777582837354,1137.733800299678,1133.0643174029096,1145.3806912914877,-210.38534456072887,404.2135775967586,179.55169093006495,-135.84745392529257,158.05813191611188
46.84,0.5698577321403031,1.2539040641425487,-0.8970908041239256,0.0067311322918219,-0.0040525639636014,-0.0110367685640607,0.0010449815305931,-0.0083941794589148,0.0279660686146683,0.9995728947594869,0.0534792026220596,-0.0297381604945321,9.81034390804221,0.0086793899546455,-0.0109808501613007,-0.0011070458257735,4.2679212740048,-0.7107743393095882,2.0987453180843447,1147.6927718736595,1138.7115378430883,1133.2829192814443,1144.9514456064517,-411.7468402376911,318.4417517588107,-8.432050599408518,-174.85336625163805,158.05937097728963
46.8425,0.3950662911695888,1.1571549954421083,-0.8074474890090916,0.0093262390176725,-0.0001942752988841,-0.0130791071443096,0.0010789908729873,-0.0083462794002692,0.0279253971148051,0.9995743887934148,0.0531864334820321,-0.0295325342734034,9.814230406847107,0.0084845574905401,-0.0107454827358449,-0.0010313920956292,4.26793539165576,-0.710803097994184,2.098744132694115,1146.519024082546,1139.326009058473,1133.0221571499123,1144.506424460229,-516.3779509512245,214.23456204830856,-168.6250734970314,-187.86328206118728,158.06039782815523
46.845,0.1866909729667655,0.982780403915636,-0.6772335857655256,0.0110275592440673,0.0034317867040902,-0.0144685508862319,0.0011111269457647,-0.0083010677521905,0.0278823662635394,0.999575925400766,0.0527600600652048,-0.0293038640848937,9.817795051275231,0.0083032052801073,-0.0105062748533942,-0.0009442874153703,4.267949053448494,-0.7108304327460936,2.09874428652896,1145.1108821189057,1139.782710653329,1132.4397939139599,1144.0121291961464,-618.8160484337931,171.93018380808397,-290.9226250120686,-217.05202785931567,158.06141276344283
46.8475,-0.0604469564749152,0.7191580713792957,-0.4928972002797691,0.0110360377758607,0.0061129068547705,-0.0160398334229517,0.0011358063472924,-0.0082599719568579,0.0278444175144573,0.9995772902248325,0.0522142171252185,-0.0291787745326825,9.821008552458496,0.0081338225212704,-0.0102640593742196,-0.0008490911185411,4.267964219910959,-0.7108567102282409,2.09874533978106,1143.4249438403751,1140.1856599775135,1131.5675440248515,1143.421164320932,-580.6871332530803,123.1369164799896,-321.36306675885794,-207.378576546292,158.0626099181227
46.85,-0.2273386082091023,0.4889353029288416,-0.3264592364659885,0.0094306822297876,0.0067413232973342,-0.0171973184705006,0.0011466213874318,-0.0082241157879867,0.0278138653388443,0.999578416516605,0.0515592226388468,-0.0292986429056921,9.823852276168408,0.0079738324886613,-0.0100197995748621,-0.0007487474507823,4.26798218674314,-0.7108824290817893,2.098746158585367,1142.2074464526388,1140.3983952357291,1130.8329785801648,1142.9752363134144,-413.4945916674619,51.55613032989236,-269.9687631027882,-158.69896440622932,158.06358548049198
46.8525,-0.3219393987629503,0.2838551721143848,-0.1598917105138275,0.007121335279492,0.0065273787141492,-0.0177753945768644,0.0011415438163956,-0.0081960262969302,0.027788146733917,0.999579357231365,0.0508395466685706,-0.0297177199977839,9.82631663607978,0.007819957303351,-0.0097745823014794,-0.0006456988625556,4.268002841665326,-0.710906992518711,2.0987465805738266,1141.35747088204,1140.4434406291628,1130.2177002093388,1142.6276694989015,-263.02487783991825,-20.464751415318904,-214.56745576158875,-116.71069385141377,158.06453304579836
46.855,-0.3508241633175388,0.1146312830208071,-0.0042173387895803,0.0050334669199419,0.0063614135368779,-0.0177307606263248,0.0011202510840951,-0.0081763602609832,0.0277673074190123,0.999580107549215,0.0500707522397471,-0.030453379319761,9.828401774462575,0.0076685359731778,-0.009529700096795,-0.0005419747279209,4.268025137711442,-0.7109296239132789,2.098746334786855,1140.8923220634383,1140.2960714786527,1129.7601413013563,1142.3916828441572,-88.01986022308526,-121.3446895047416,-139.94044533753484,-64.17867944534365,158.06545403241708
46.8575,-0.3153853494778275,-0.0062966616047754,0.1269010296111908,0.003886089916198,0.0067227565128052,-0.017047891015834,0.0010828893841863,-0.0081606765282201,0.0277525340829197,0.9995806722213452,0.049175778274732,-0.031508424898717,9.830117707103023,0.0075159496319595,-0.009286502592331,-0.0004392988593413,4.26804753454305,-0.7109503877577859,2.098745350554273,1140.9173715809243,1139.8367171816387,1129.5179979826507,1142.3067761016744,113.0710760781886,-292.22403740194954,-60.07680991475361,-5.968885672751611,158.06633943317192
46.86,-0.2324114315646358,-0.0918408799034421,0.248936075537503,0.003792868597093,0.0073909928817286,-0.0160104429873754,0.0010357536766645,-0.0081481620000498,0.027745960339276,0.9995809929849456,0.0481596960716237,-0.0327642084051272,9.831480946347746,0.0073588331740696,-0.009046215565002,-0.0003392683482987,4.26806951352253,-0.7109696553838054,2.0987446020289684,1141.4576774438287,1138.8349512916443,1129.4597572517828,1142.3618384157935,263.7896835125972,-447.4618180774981,9.666013230612007,37.96155590010007,158.06735687799545
46.8625,-0.1526155321010659,-0.1040427424695807,0.3227489308831261,0.0044750671673555,0.007270300898682,-0.0155182915206385,0.0009870505321585,-0.0081400898166941,0.0277509897832693,0.9995809594290356,0.0470770229879581,-0.0340632170119261,9.832514848229556,0.0071941472121579,-0.0088097761907251,-0.0002434815707736,4.268091297534408,-0.7109881189199502,2.0987448225369034,1142.236319998488,1137.5994080912503,1129.5663280488038,1142.4965838811752,347.78295838805604,-566.7876502703449,60.9266798801543,58.70622229892158,158.06816485699423
46.865,-0.0746791382125484,-0.0368489508268442,0.3714495675772952,0.0050885429357274,0.0058009483508839,-0.0153611778587474,0.0009469704422255,-0.0081393202444398,0.027768727928129,0.9995805101101402,0.04602066419441,-0.0352077886793174,9.833248692661297,0.0070192766222607,-0.0085776949010805,-0.0001534813616892,4.268112958610731,-0.7110064957244688,2.098746513202841,1143.19659223577,1136.0010130402911,1129.7643906511837,1142.6553695272883,424.6296332000608,-750.3926210000376,87.05803197193478,62.600148282365446,158.06892916734364
46.8675,0.0227780254129313,0.1439564401717352,0.396404978369815,0.0048200764333351,0.0035508086428796,-0.0146057867176471,0.0009170448836272,-0.0081495463097866,0.0277959526392673,0.9995797027521912,0.0450999389795478,-0.0361695079549583,9.833718873794536,0.0068321104750166,-0.0083500509956523,-7.078496736013718e-05,4.26813514823885,-0.7110254568856454,2.098748881088687,1144.3594681644863,1133.8474449862535,1130.001618208663,1142.8095846225867,403.14819471732613,-788.4194569561154,69.16105662782607,48.23178707824648,158.0697936734069
46.87,0.1166781299669589,0.3609837289966116,0.3792469857442616,0.0039586676827018,0.0027975526512506,-0.0131258958190697,0.0008992296267146,-0.0081669377255343,0.0278250625374113,0.9995787770695076,0.0442799265539313,-0.0369066911892531,9.833966797881327,0.0066311385546988,-0.0081266208531818,3.514301831832315e-06,4.2681581647160165,-0.7110443883949932,2.0987512672357185,1145.2123332093547,1132.058915755514,1130.1101959343223,1142.8965284626793,297.5961314786515,-658.1880432091382,4.605683635188515,34.70937325576458,158.0704685389773
46.8725,0.225072528832691,0.5986793628113575,0.3128633367494392,0.003332606977467,0.0041864905533803,-0.0110169547134449,0.0008967216604633,-0.0081842597261219,0.0278485388471226,0.9995779975913388,0.0434621672037019,-0.0373510652445862,9.834036629048825,0.0064155274994236,-0.0079070649040707,6.872288528034359e-05,4.26818133241756,-0.7110625969348155,2.0987538604917098,1145.8474488218803,1130.556504770206,1130.024646626839,1142.9831314888656,222.20908658616733,-534.5808311955345,-98.14950193107943,58.620688921716486,158.0710938500961
46.875,0.3520434538262154,0.8404293304197284,0.1841514836287469,0.0036589644386923,0.0076818468739446,-0.0087495224429964,0.0009062210701948,-0.0081932473157204,0.0278637924467273,0.999577505246022,0.0425262762663465,-0.0375616121337474,9.83397502610579,0.0061851829584685,-0.0076910333095409,0.0001243902723646,4.268203392422423,-0.7110801649938987,2.098757041988035,1146.3233786422863,1129.386011599535,1129.6194484246669,1143.189631907288,131.1568753388939,-292.04223776345503,-200.9602172853656,108.76531920058255,158.0717839366845
46.8775,0.4304958477355612,0.9665017894940898,0.0599421754279306,0.0050365315967693,0.0113137499615663,-0.0079634951326441,0.000923094328762,-0.0081880152736375,0.0278737495178939,0.9995772697758424,0.0413980607935721,-0.0376252960492002,9.833828045904486,0.0059407659812129,-0.007478151724284,0.0001703861795444,4.268223336316999,-0.7110973211679398,2.0987607877199577,1146.5032331985742,1129.0962935813902,1129.0198455404131,1143.526958084868,40.05390356085397,42.477248186720416,-283.7558569624347,180.44323717144695,158.0723063393102
46.88,0.4513466036387252,0.9902344916965377,-0.0385063478289772,0.0073009842957526,0.0149493535068666,-0.008836958570332,0.0009410257320092,-0.0081686585995462,0.0278795190915806,0.999577263908367,0.0401169099996062,-0.0376663405343175,9.833639247895087,0.0056836798025678,-0.0072679108970124,0.0002069179913164,4.268241452029519,-0.7111139111652515,2.0987645201855885,1146.5236481600907,1129.5983978404688,1128.200669139854,1144.0918480931457,-5.385252525636107,326.6380024828925,-348.13636216831964,261.3437933088817,158.07277088046183
46.8825,0.4124146753952002,0.9287200484278222,-0.0847525123385035,0.0096397933882706,0.018090554262206,-0.0106897564857083,0.0009590980815564,-0.0081406302123313,0.0278800589453649,0.9995774709275504,0.0388256790886213,-0.0377070013702139,9.833446935640994,0.0054158849120378,-0.0070596471043762,0.0002346815526654,4.2682581183029,-0.7111296811224167,2.098768060894288,1146.476306935946,1130.7294835938055,1127.2791637295707,1144.8336770514131,-19.790220548856983,579.2782758870355,-368.3137585594234,321.8738951818267,158.07318483542403
46.885,0.3055638085933316,0.780094037732336,-0.0501379402183138,0.0111899587058618,0.0204220491821265,-0.0125324958062817,0.0009773165989924,-0.0081107074029354,0.0278781235576649,0.9995777585618346,0.0376885784253468,-0.0377534478627225,9.833284324917503,0.0051396610378797,-0.006852581075335,0.0002548289390461,4.268273627992094,-0.7111453994255033,2.098771262675073,1146.4246970573463,1132.4947892199011,1126.3591003470583,1145.7012175690531,-7.828087440380473,875.816417118592,-372.1302476584612,374.9741752472247,158.0735343766308
46.8875,0.1230175484138979,0.5316754947129878,0.0750576046647934,0.0120357090287124,0.0222975905364059,-0.0136484758462557,0.0009962308175392,-0.0080827845973492,0.0278772976386717,0.999577995448528,0.036806483548554,-0.0378010184383785,9.833178980631773,0.0048575535585122,-0.0066457903132841,0.0002689605410718,4.268288252160224,-0.7111615905959973,2.0987739978449045,1146.437166498744,1135.1085656794007,1125.4185124912772,1146.7085479276502,24.05756835131476,1001.137991722714,-298.55214742022514,334.9207462776682,158.073874738629
46.89,-0.0505574321463924,0.2906565992802139,0.2235406985228883,0.0121014789998877,0.0230757340141313,-0.0135344958321034,0.0010155931875309,-0.008055698159891,0.0278765329195187,0.9995782201819228,0.0361715280564701,-0.0378594920056824,9.833152346538899,0.004572381314634,-0.006438251140661,0.0002790555290391,4.268301677624676,-0.711178224914017,2.098776411340121,1146.5449848991032,1137.5004791785175,1124.8663396099566,1147.3758213004423,65.77304093486033,954.2692706427299,-159.35481038869452,203.7711725584848,158.07408912130805
46.8925,-0.2169557385319273,0.0412919819240619,0.3777426530814822,0.0114436382252304,0.0230811413131479,-0.012401713520031,0.0010312625927746,-0.0080310634609065,0.027873488519505,0.9995784893314716,0.035819564387013,-0.038017991716778,9.833218606514142,0.0042871287757331,-0.0062290136385262,0.0002872914300406,4.268313937430841,-0.7111948971784611,2.098778682154376,1146.766031703418,1139.87991203261,1124.6217384393346,1147.7274037904417,118.12405675599037,995.5948285416888,-33.772580075975384,70.69361332529319,158.07422774819327
46.895,-0.3781272695067116,-0.2426796848879319,0.5248545830590419,0.0099366423487262,0.0224342599669226,-0.0099564721685225,0.0010390994938066,-0.0080086599653439,0.027866451660806,0.9995788579616832,0.0357417309095893,-0.0383654673593785,9.833384035553788,0.0040048442301673,-0.0060173187409019,0.0002961029773247,4.268324833454115,-0.7112109673501272,2.098780597153638,1147.1356051828834,1142.4784533212285,1124.6974767095767,1147.7292893670692,143.20337084797703,880.1253974146266,84.646002923639,-58.658323287424544,158.0743021788886
46.8975,-0.4644013180347676,-0.4530944259072648,0.5929483753883643,0.008214967508137,0.0214930514134763,-0.0072470798243535,0.0010343265879746,-0.0079838994238682,0.0278567566190731,0.9995793317912802,0.0358349476651875,-0.0390013167331138,9.833647330250594,0.003728515405276,-0.0058026484521409,0.0003081477286373,4.26833354455376,-0.7112266012981112,2.0987821053275337,1147.4820485576583,1144.2805390196854,1125.044968453953,1147.4341121740044,128.8385702629319,617.7175933119704,188.79468126650752,-146.26102936753907,158.07428453740488
46.9,-0.4923018419584939,-0.623807351460487,0.5967552581876834,0.00647810051193,0.0201846556624498,-0.0046313823623672,0.0010195979335579,-0.0079557209440234,0.0278470886882467,0.9995798424487627,0.0360617623899268,-0.0398805109985721,9.833997218941144,0.0034609355897207,-0.0055846970657376,0.0003262612152628,4.268339816614214,-0.7112419223934144,2.098782464139391,1147.7797980341975,1145.5670412877855,1125.6414501159084,1146.997984220232,96.06952597823324,428.41252988983706,309.79659174261155,-171.99169912987895,158.07418066518343
46.9025,-0.4621220448987343,-0.7698161191444559,0.5450379101930453,0.004902283260081,0.0180383649402882,-0.0024142337041722,0.0010039806468348,-0.0079258884104458,0.0278390942797249,0.9995803197642332,0.0364364500030412,-0.0408325685299356,9.834413461887037,0.0032044993807725,-0.0053633573293089,0.0003533169507878,4.26834429099786,-0.7112569487940547,2.0987810669226254,1147.9623961875495,1146.4226016691357,1126.593951412667,1146.5741536783546,23.036948738933496,197.64717736101264,382.75432389194486,-103.43714360641737,158.07395237348172
46.905,-0.3919755609758715,-0.8338405073337505,0.4799260157126376,0.0042065988456129,0.0156579116629286,-0.0014709962263453,0.000993351751332,-0.0078976031438824,0.0278330670347712,0.9995807237857764,0.03699368520035,-0.0417488305546311,9.834870041109037,0.0029609907674446,-0.0051387470022103,0.0003919093028066,4.2683478823556,-0.7112717346210545,2.098777746299331,1147.8949827778922,1146.555277174591,1127.555221735369,1146.4807985021998,-82.68902114680958,-52.79743663695881,411.1839334387343,42.63526142521425,158.0736729760607
46.9075,-0.2832831512215933,-0.8326968050164422,0.4231607295714773,0.0039356451308573,0.0127881935911025,-0.001273049029785,0.0009920822460829,-0.0078747386155243,0.0278288866407734,0.9995810229279664,0.0377760947818329,-0.0425481333327147,9.835336317316253,0.0027314630559399,-0.0049112520929878,0.0004441071880489,4.268351422273201,-0.7112865236714778,2.0987733315333115,1147.548951081816,1146.1586144859511,1128.6498710798587,1146.7873299854805,-215.67212760067255,-263.054509306905,495.79840317384975,229.22464349082568,158.07329789958075
46.91,-0.1089211655751095,-0.763961318980138,0.3886811438531267,0.0032738755286466,0.0095400536542612,-0.0013954347538073,0.0009979200050584,-0.0078584543903862,0.0278265798898528,0.999581208329896,0.0387666374584176,-0.0432748174305736,9.835780213780351,0.0025162409523433,-0.0046815962009695,0.0005111823863201,4.268355122870817,-0.7113010612843148,2.0987679454249992,1146.8166221398883,1145.2400046280559,1130.0342137512396,1147.6269217196543,-311.31524623585835,-380.83516045402183,499.95805234268,369.4217768123437,158.07273404995098
46.9125,0.0757624093720644,-0.6681985676188326,0.391811992845059,0.0022045482299977,0.0075409971040966,-0.0013226576782246,0.0010091036891448,-0.0078467146960607,0.0278240976109983,0.9995813543639032,0.0398843322839495,-0.0439579396259611,9.83616889706371,0.0023150229754268,-0.0044508851801055,0.000593490911806,4.268358727185665,-0.7113148788055237,2.098761697629216,1145.992374850636,1144.25443868368,1131.1496613415732,1148.6344388695431,-351.90244966543275,-407.0949646368328,407.9679128174193,430.50655531513297,158.07216752772263
46.915,0.295669517085751,-0.5625641125638507,0.4164451573616866,0.0013832645667052,0.0063191787929997,-0.0007568714762138,0.0010231186402116,-0.0078362202480831,0.0278218809964712,0.9995814786390764,0.0410240509864729,-0.0446361474137394,9.836470942737426,0.0021269274812968,-0.0042206466659484,0.0006902912966921,4.268362305375417,-0.7113277212588186,2.0987557848272727,1145.0571098915627,1143.2045298048736,1132.0740533153248,1149.7794544962283,-370.5127037581784,-412.5038827625012,313.90837587093614,447.7626294127259,158.07149902188047
46.9175,0.5264924749159591,-0.4719045250299123,0.4420747861440968,0.0015069426537172,0.0058141692451891,0.0002121120523426,0.0010375000273988,-0.0078210427977045,0.0278203320962886,0.9995816220633024,0.0420312313697588,-0.0453408003203288,9.836658535151626,0.0019505903707919,-0.0039927732424216,0.0007996938874149,4.268365585937017,-0.7113391622936257,2.098751146444268,1144.139811331844,1142.1919192698665,1132.7192032209289,1150.873252016608,-334.25618818388284,-383.7763642757492,166.71808625729335,387.28539337638006,158.07074510623977
46.92,0.7327120783229524,-0.4198447572363847,0.4451452982986066,0.0033793955935223,0.0059949980523286,0.0016838514345847,0.0010478871763594,-0.0077937289066923,0.0278183665495708,0.9995818791410715,0.0427236961283599,-0.0461346987429054,9.836709670977616,0.001784227198347,-0.0037694211134179,0.0009187259898894,4.268368069695017,-0.711348703469592,2.0987489471143226,1143.3858289506425,1141.2856479834938,1132.9076437466117,1151.7158814631111,-262.43066418797974,-368.15975734800134,-38.188325253202656,277.6720200952038,158.06988767782065
46.9225,0.8998438741776184,-0.4087996150209372,0.3963073887630615,0.0074976673643668,0.0060185164524517,0.003989632441483,0.001051460891092,-0.0077574665450455,0.0278155931046775,0.9995822364344156,0.0431343870171124,-0.0470512650951079,9.836607372251066,0.0016256422029498,-0.0035528415528866,0.0010435508347659,4.268369671500721,-0.7113558639574797,2.098749059763338,1142.8276580109055,1140.351120483128,1132.528261594663,1152.2616121170827,-131.8941057738137,-316.6351709393183,-236.39730950768993,112.73846469456346,158.0687390570302
46.925,0.9472367619309746,-0.4316395875915939,0.3019087819871202,0.0116956922424029,0.0052880949021939,0.0061196947820517,0.0010504824342059,-0.0077184848743221,0.0278135716074577,0.9995825978599316,0.0433649332404827,-0.0480212648747637,9.83634123201212,0.0014721988050178,-0.0033451295216431,0.0011698256584081,4.268371681755996,-0.711360890909877,2.098750459441524,1142.726358421773,1139.7024721287964,1131.7256571990727,1152.2795737865843,39.0864994531312,-232.81293330307477,-398.8053712579364,-73.58295404343026,158.06768255073382
46.9275,0.8985969872899832,-0.4642527895548764,0.1582716024020668,0.0153327486452199,0.0038943316106848,0.0076928115935165,0.0010513528475999,-0.0076841297616904,0.0278148133291176,0.9995828294260268,0.0435476513842809,-0.0488910968770596,9.835908530887057,0.0013208964183854,-0.0031479618069692,0.00129293037044,4.268375441171324,-0.7113646210111485,2.0987533096507702,1143.0230905081712,1139.1870558166122,1130.5342347383723,1151.893697346865,207.57063832716767,-195.76143849830785,-567.3078008244076,-228.8911865948457,158.06652401621085
46.93,0.7642202116478896,-0.4879414971148253,-0.0393456611906035,0.0179164838130679,0.0019619713248165,0.0078994191737425,0.0010586604933893,-0.0076619691374284,0.027821845413345,0.999582798271376,0.0438246961027551,-0.0495405103596754,9.835315476298595,0.0011686118199557,-0.0029624321325594,0.0014081276587245,4.268381430619208,-0.7113676905204768,2.098759428593868,1143.764211613408,1138.7236649363056,1128.8891181949532,1151.135117853611,313.4199160355942,-143.6561979061877,-598.3916943437165,-295.2883084637463,158.06501775586946
46.9325,0.6255997340593805,-0.4809332743379737,-0.194556618333741,0.0187461163514535,0.0003848015678275,0.0067741178039871,0.0010734640678171,-0.0076534898039736,0.0278376224209857,0.9995824103939008,0.0442229992990292,-0.0499142869927868,9.834577708717104,0.0010124305219395,-0.0027889899103668,0.0015108961927488,4.268388720816068,-0.7113702645614672,2.0987695528572297,1144.5901900883475,1138.468774827082,1127.5422762666565,1150.417255804548,339.04604990262607,-75.01584215397797,-489.0066373211311,-270.37284913794605,158.06366773560308
46.935,0.4973175367534981,-0.4371902605302344,-0.3106126116294996,0.0192172099507261,-0.0011190772621162,0.0052092970794635,0.0010911778347394,-0.007657803380445,0.0278611125785379,0.9995817075857164,0.044724664640521,-0.0500673530652217,9.833718795131842,0.0008500027538202,-0.0026274356118969,0.0015973882055117,4.268396344308769,-0.7113727266028846,2.098782311206793,1145.459441862922,1138.3485857255357,1126.4440850083463,1149.7832536079206,352.3190431407345,-24.657851948119177,-392.28396453780016,-235.82728824341515,158.06222211297467
46.9375,0.3817820486488229,-0.340767888575566,-0.3894857998311464,0.0199041731527036,-0.0028622574995185,0.0033782906305096,0.0011058512684519,-0.0076731880126868,0.0278859655749715,0.999580886448948,0.0452984453577172,-0.0500830140380784,9.832767302273396,0.0006797488703646,-0.0024769365771103,0.0016649079491695,4.268403660073544,-0.7113748040540686,2.0987967533054728,1146.3517853040523,1138.3454855673413,1125.5808564439665,1149.2381193633303,278.1269669755403,17.53334602223507,-233.6959758810132,-159.80740140390463,158.06038080319755
46.94,0.3275764650513874,-0.2293305623084642,-0.4052769073235598,0.0204862224218575,-0.004143958779109,0.0019989745791911,0.0011179462782155,-0.0076968756519632,0.0279075154644318,0.9995800960235848,0.0458997116294564,-0.0499215148730525,9.831753043828913,0.0005008966579353,-0.0023360338851976,0.0017122527672058,4.2684100241755045,-0.7113764251791628,2.098811623220545,1146.8500766977984,1138.4362524556468,1125.2756051289423,1148.9842166009018,129.13999138761696,46.04347315964706,-48.09567491508728,-66.65743450136006,158.0587609449238
46.9425,0.3229767795405181,-0.1013947976126343,-0.3789548345949125,0.021024458081833,-0.0047728295993501,0.0009691789136963,0.0011273618470628,-0.0077235746006277,0.0279254855559593,0.9995793825783736,0.0464366637286516,-0.0495578880145053,9.83070593477587,0.0003134458570914,-0.0022026631976469,0.001739803795247,4.268415169018578,-0.7113783562425063,2.098825335595203,1146.9974852609907,1138.5757029331396,1125.340378069391,1148.9048321908233,-6.6446798752133525,54.081923614894166,66.68302892595646,-11.57171733088352,158.05705700100037
46.945,0.3608096150193836,0.0229595866959157,-0.3284960928278221,0.0216571040366649,-0.0045096544085933,0.0002711525989804,0.0011376279697021,-0.0077505017182705,0.0279415388937992,0.9995787147737004,0.0468697782525108,-0.0489036029124543,9.829651788968668,0.0001181114719298,-0.0020741808871789,0.0017494712993164,4.26841905211228,-0.7113815702353072,2.0988372289856527,1146.8168532984223,1138.7066620737214,1125.6090202735722,1148.9263580142472,-152.86230447582315,36.69416852361491,124.84528079910417,23.310843609418328,158.0552871901724
46.9475,0.4484053549805683,0.1231579254103766,-0.2615171983459501,0.0225226691069218,-0.0034640548559973,-0.0001008274572604,0.0011536389247724,-0.0077740328469924,0.0279541118240391,0.9995781575710674,0.0471426107692045,-0.0478503362001403,9.828610700631172,-8.379250098683753e-05,-0.0019475297226669,0.0017444593821033,4.268421508540484,-0.7113864127183888,2.0988468070801796,1146.2331737386123,1138.7591737757575,1125.9646044733859,1149.0213864088703,-342.4040507681251,-12.536073069843903,136.86182949120212,50.7413802658643,158.05344313387084
46.95,0.6067429847671403,0.2024379950868478,-0.173342617165289,0.0238445726583992,-0.0020789050735653,-0.0003114709159915,0.0011812169941338,-0.0077923525231331,0.0279597552989309,0.999577815074684,0.0472327375296343,-0.0462807203225987,9.82759456540979,-0.0002905049977077,-0.0018194941306121,0.0017289536265626,4.2684222478859,-0.7113923644129833,2.0988545475138976,1145.1048330445808,1138.643981708372,1126.2933294210286,1149.1800649155768,-471.39540162610024,-82.5672330070152,82.26499679231321,62.642282216270154,158.0511515760385
46.9525,0.778225125205545,0.2362382078032383,-0.0968537617427244,0.025199080719696,-0.0011555303132637,-0.0003834884031068,0.0012219086532115,-0.0078063622170721,0.0279556653088882,0.999577757612589,0.0471663003649471,-0.0441714330862822,9.826606330400766,-0.0005000090397865,-0.0016869620346681,0.0017077854780714,4.268421139788764,-0.7113991474266655,2.098859771715704,1143.8761967304806,1138.3463376107222,1126.3759294573476,1149.3345978199516,-523.7819115036234,-167.70460196836913,-19.113153601682928,63.46030163273414,158.04918176250195
46.955,0.9815343596265166,0.2485016856266751,-0.0163182034686123,0.0267900348309699,-0.0005832112560503,-0.0004197120878609,0.0012730330445077,-0.0078148960025632,0.0279429127199378,0.9995779671585606,0.0469240845050061,-0.0415895408159494,9.82563989411651,-0.0007102629424991,-0.0015471069350062,0.00168609317995,4.268418432364428,-0.7114065019128744,2.0988619074569086,1142.485923487065,1137.805458698531,1126.1977636530203,1149.4973664237402,-603.7131496940314,-290.0404309554568,-134.03437012436788,65.21793587340953,158.04715610069044
46.9575,1.2431859545560984,0.2563506986409366,0.0897701460940237,0.0290053212587909,-0.000221335673233,-0.0004406458804788,0.0013340665857335,-0.0078156511574964,0.0279253951976967,0.9995783528865176,0.0464630695307955,-0.0385671599665178,9.824678670924788,-0.0009193871199101,-0.0013974970528489,0.0016689250698742,4.268414073250328,-0.7114135135750754,2.098860881788892,1140.857630982009,1136.8961354559442,1125.7057576067255,1149.660687499319,-551.7017609590217,-363.8448233192733,-213.00285352265763,42.990657654241495,158.04466866295957
46.96,1.4526701981496153,0.2681358478861284,0.1894514774898428,0.0313786559797803,-6.404634921559353e-05,-0.000405686378268,0.0014015432425898,-0.0078055004526031,0.0279084261488263,0.9995787948501376,0.0457198069265132,-0.0352010996644573,9.823697250171504,-0.0011258382184566,-0.0012361673691947,0.0016607681586414,4.26840814727968,-0.7114198672242189,2.098857822440084,1139.7274146822683,1135.9862345819336,1125.1327493854064,1149.7123197120115,-359.3072026441035,-369.99920959371593,-240.38473976223972,-14.743624231882444,158.0425545439417
46.9625,1.6120065940413528,0.2919677518548844,0.3016208926478005,0.034762713909478,0.0001283028942372,-0.0002182327832781,0.0014745585151322,-0.0077853153918133,0.0278965241300801,0.999579161640812,0.0447083072128958,-0.0315464269282208,9.82266100900076,-0.0013285472690064,-0.0010615918281171,0.0016651994177193,4.268401411103527,-0.7114261305362034,2.0988541072235805,1139.06109496879,1135.0461394079773,1124.5038339079151,1149.5869693781597,-143.56397579351255,-385.57063203418977,-265.49713090639733,-113.20574233389956,158.04040491088313
46.965,1.6860016080886935,0.3322199659643263,0.4442549048140986,0.0402560540514029,0.0006229439293788,0.0003599330195059,0.0015489781592971,-0.0077610021332544,0.0278919659013035,0.9995793508182442,0.0435376166037212,-0.02772963259744,9.821529296730857,-0.0015270064259789,-0.0008727141789705,0.0016846619484483,4.268395038781872,-0.7114326560214757,2.098849588344841,1139.0095948033006,1134.0583814217619,1123.8052637308735,1149.1462910003415,123.24546782368148,-316.1236696611669,-236.8858374252038,-214.63085607527253,158.0377930448015
46.9675,1.6091778182413847,0.3681249508253284,0.5593890495203774,0.0456795756864807,0.0013971807897583,0.0012821592404299,0.0016198043666658,-0.0077392451235535,0.0278910465453758,0.9995794237014444,0.0423295383347798,-0.0238985674238753,9.820258235486975,-0.0017212413792045,-0.0006690270494515,0.0017203324876002,4.268389490866439,-0.7114390849137918,2.0988438722287945,1139.6773223079088,1133.4655210596707,1123.3194047207887,1148.5138150977828,413.9156425948967,-172.94364644387582,-175.90527232198465,-301.8052325645402,158.03559608642155
46.97,1.3576246776058356,0.3945357103992815,0.6526639673239522,0.0510702214824778,0.0026299676260115,0.0027835621495875,0.0016834558566595,-0.0077251415490588,0.0278905906600516,0.999579438117626,0.0411755213649123,-0.0201750291834829,9.818803405531412,-0.001911686860309,-0.0004506276184036,0.0017719681769678,4.268384422417351,-0.7114445025115831,2.0988378826831746,1141.0791730162732,1133.1936631895433,1122.9257373692647,1147.6372648375204,664.8984937168061,-54.37887288450785,-152.63192003709642,-378.1251707831755,158.03338552356144
46.9725,0.9586157767284196,0.4055427168407737,0.7127878839939087,0.0558464346465267,0.0041625447159078,0.0047249611050014,0.0017359089919929,-0.0077156162241689,0.0278931551490962,0.9995793544059774,0.0400084614164412,-0.0166862414870381,9.817124086833934,-0.0020990465262175,-0.000218198225653,0.0018377690839284,4.268379084444728,-0.7114483933145,2.0988332567905736,1143.0018147764945,1133.193626695248,1122.5562451206029,1146.623189243866,856.3474367743931,52.3854140318422,-160.26338518350698,-415.8315427148556,158.03116893905087
46.975,0.407674793669868,0.3956499817897164,0.717494969423713,0.0591536913748356,0.0056680424114287,0.0069424438693443,0.0017748509195478,-0.0077027931841753,0.0279009328927916,0.9995791779013002,0.0386698764111615,-0.0135231617711344,9.815185051611245,-0.0022841803900833,2.7082725443404776e-05,0.0019144477528839,4.268372289984663,-0.7114507949795541,2.0988311712255046,1145.3609102001471,1133.4555902597026,1122.1244204433467,1145.558107123945,1077.7402585438974,143.97515297613967,-225.13151749701603,-448.108822046832,158.0289509259847
46.9775,-0.3603243023569281,0.3676133787476185,0.6475861401900206,0.0603553119476661,0.0070172074804218,0.0099344646089193,0.0017957796259834,-0.0076822617032931,0.0279134962723182,0.9995789623920568,0.0370703426370199,-0.0108204232725682,9.812958942536989,-0.0024681168067621,0.0002836573889129,0.0019975288138359,4.268363754409566,-0.7114518493149445,2.0988323974261447,1148.390516069209,1133.913502460128,1121.4305875331188,1144.3826451336336,1097.9836573701343,163.56761163547887,-290.96766342835167,-393.84139834139967,158.0262945300319
46.98,-1.0205300672726183,0.341920566443095,0.527526684152723,0.0584191752455923,0.007712544004142,0.0126253402235737,0.0018015162905735,-0.0076574942387144,0.0279299646357361,0.9995786968659042,0.0352824231538431,-0.0085711427986444,9.810425344373876,-0.0026521672316532,0.0005497807565581,0.0020817870598714,4.268354220773116,-0.7114509328029937,2.098836650993529,1150.8508284870009,1134.2734283178804,1120.6695821262042,1143.588900132237,920.3834326041781,109.35585044761729,-338.0638103282397,-264.8810367522865,158.02408975936916
46.9825,-1.6150620595615623,0.3274281558689767,0.3624116992229448,0.0535760425155988,0.0077087638691817,0.0146351468814253,0.0017961667936825,-0.0076331465764364,0.0279529996647906,0.999578262067476,0.033407274328146,-0.0067410096423222,9.807574621939008,-0.0028380430939347,0.0008236976748727,0.0021616681554704,4.268344955382203,-0.7114480598627899,2.0988439100209986,1152.9924332322323,1134.4602817123664,1119.7402684814767,1143.0582399498717,819.3419678985441,21.714591657766245,-428.515207386798,-171.33999185845943,158.02189909155436
46.985,-2.173372419301468,0.3286844824217317,0.1575607620398218,0.0453503486165953,0.0074210893581262,0.0153542948400807,0.0017852390297803,-0.0076147980239379,0.0279867943267315,0.9995774884351196,0.0315694898909651,-0.0052653671025582,9.804408693333821,-0.0030278052553058,0.0011038305146106,0.0022317324985686,4.268337219852992,-0.7114438880768825,2.09885463791156,1154.9475383264898,1134.3820012761691,1118.527006089272,1142.7322001729456,585.8842724875744,-81.59564912166763,-442.97348085019695,-74.68891246795283,158.01929156788339
46.9875,-2.4794791466134942,0.336475504298561,0.0209424036667331,0.0375190492624012,0.0077922126721992,0.0144456711785721,0.0017753607046671,-0.0076021697656494,0.0280327950816613,0.9995763256115582,0.0297830652575033,-0.0040508514813559,9.800941927939473,-0.0032236793479285,0.0013888901838718,0.0022870763650819,4.268331440399424,-0.7114389585213174,2.0988684466852607,1155.9218545946717,1134.0523034667578,1117.5254010772246,1142.6847953875315,229.9616494911976,-176.43921163808113,-379.8984131700184,15.499863596725191,158.01713955035498
46.99,-2.6234857297959584,0.3286709423399573,-0.0427337252213699,0.0302168944490912,0.0091591479140683,0.0125099690902228,0.0017670954032437,-0.0075921069357387,0.0280852359213504,0.9995749565887112,0.0280047177554889,-0.0031177873035725,9.79720205212373,-0.0034277338612474,0.0016778522566371,0.0023238060104665,4.2683268148006475,-0.7114334174497243,2.0988831572435704,1156.0973465739464,1133.4998052179783,1116.627514023421,1142.8096994909292,-120.39876893056352,-270.89545960163457,-360.1421542492609,82.41187722131363,158.0150125358896
46.9925,-2.6490983349697887,0.2768023695173098,-0.0230064221015647,0.0229409173318598,0.0115026224085213,0.0104551654877534,0.0017577711659439,-0.0075812402839393,0.0281351767561027,0.9995736620293492,0.0261880521558851,-0.002545896481122,9.793227876319941,-0.0036415605518485,0.0019699708347131,0.0023393261293723,4.268322452654163,-0.7114273481453565,2.098897058060909,1155.3198607500194,1132.697826168751,1115.72469030598,1143.096854773638,-447.75568999197986,-295.3538123164393,-303.0581122968697,121.87096208506034,158.01249220469452
46.995,-2.583669002027602,0.1930066413576615,0.057338698215999,0.0177844736272745,0.0132653705332806,0.0100094073709194,0.0017457120669717,-0.0075655461574862,0.0281768028093666,0.9995726387014526,0.0242780718229518,-0.0023907924510184,9.789066545820344,-0.0038660642608673,0.0022647989975622,0.002332335615843,4.26831729653119,-0.7114216501259325,2.0989093701671746,1153.8585681239883,1132.0230361563974,1115.112223461938,1143.419054301354,-734.8525159917122,-242.704366625288,-226.81583295222697,139.44872960475692,158.0104205746393
46.9975,-2.459646931885445,0.0812315088314794,0.1671578566399867,0.0127138742473305,0.0138921563523918,0.0110119273871142,0.0017320087066547,-0.0075461007207624,0.0282102256131047,0.9995718721073248,0.0223245593097739,-0.0026522151746735,9.784770616276905,-0.0041013711770097,0.0025621209611075,0.0023026882715752,4.268310461581462,-0.7114167353630035,2.098919864601509,1151.6455981700587,1131.4843043356238,1114.5906111412182,1143.794098421662,-982.8254333627658,-172.0656569826162,-205.52989282371925,151.50413390093925,158.0083804746756
47.0,-2.297745885185408,-0.0331694987703156,0.2746079501898622,0.0072599982457821,0.0134349487071632,0.0124725358784335,0.0017177762490664,-0.0075256736712831,0.0282353841165264,0.9995713408166303,0.0204112569203374,-0.0033258052445518,9.78039737060365,-0.0043469697952831,0.0028617155406841,0.0022511327916621,4.268301383990305,-0.71141260855423,2.0989286073785887,1148.9444409571722,1131.162707871484,1114.084573997819,1144.176574970859,-1150.749906346528,-56.14150589900068,-211.25104826333995,141.4504803660215,158.0063675109598
47.0025,-2.09435248721852,-0.1274478802786838,0.3590588865381365,0.0015441764756611,0.0121546938400648,0.0136179931835018,0.0017004975137945,-0.007509195245987,0.0282515787209387,0.9995710312966342,0.0186617711217994,-0.0044744803033105,9.776008030424938,-0.0046019178540966,0.0031631206532385,0.0021790816036181,4.268290810716554,-0.711408991241785,2.0989353821080146,1145.8918486383316,1131.203596806129,1113.5343558999025,1144.5013508234915,-1350.8405855005003,114.3166590866128,-258.655175954304,109.37043910665896,158.00438804855648
47.005,-1.8112186196816968,-0.2035729948143736,0.4201182131080981,-0.004834573298427,0.0105651985094635,0.0145392810432459,0.0016806074659458,-0.0074989546945586,0.0282605533880758,0.9995708759513766,0.0171491033140795,-0.0060963543224998,9.771664787237528,-0.0048650272570223,0.0034654968255667,0.002088265816306,4.268280004393596,-0.7114052341901557,2.098939921568537,1142.1902380296663,1131.7342911669173,1112.7912981180468,1144.7234271663926,-1308.1127487475571,270.97086781009017,-281.5072226910994,40.154718297915146,158.00205190923742
47.0075,-1.5573786597821406,-0.2402689370311966,0.4288900744706916,-0.0091715916116217,0.0097205035561016,0.0154425256433859,0.0016589927723821,-0.007491844836066,0.0282630493907991,0.9995708760471652,0.015838936424291,-0.0081717839588081,9.767430331049194,-0.005134947037075,0.0037674556495818,0.0019804230709987,4.2682687061068245,-0.7114004192194675,2.098942920819072,1139.3512848945904,1132.5584511451802,1112.1268197864463,1144.7021244149812,-1026.4241718562755,388.96924944641705,-259.8052544746768,-61.415740777384976,158.00013784917644
47.01,-1.3104753317309932,-0.2645473528372168,0.381370334863715,-0.0120858473525824,0.0094287897757473,0.0168941065346431,0.0016378218951802,-0.0074831133562863,0.0282584803745017,0.9995710825914942,0.01466282604093,-0.0106487708569172,9.763366155736467,-0.0054101354315197,0.0040670398513249,0.001857068493331,4.268255562389717,-0.7113935473992641,2.0989449701823366,1137.0581171703896,1133.6791374141476,1111.4922718456746,1144.416348462506,-837.3242381894024,525.418655425487,-247.35166355563783,-188.3479461653624,157.99825782152269
47.0125,-1.0500291457044924,-0.2974231175806746,0.2487255252884312,-0.0146209742741614,0.0088989024599464,0.0188001807851126,0.0016191881880634,-0.0074693957224113,0.0282470603567399,0.9995715143012865,0.0135767095346165,-0.0134706270965436,9.759531791982628,-0.0056889027421928,0.0043618688989557,0.0017193862681849,4.268239921594434,-0.7113839664538756,2.0989471154266908,1135.1646637036413,1135.185544422309,1110.8900614686675,1143.760384684154,-537.4517982122576,550.2986186390813,-174.6249574180654,-286.5311737022592,157.9960416674275
47.015,-0.8749357047624367,-0.3373440109314554,0.0766902172752497,-0.0164802332446369,0.0080085639821414,0.0200851165685672,0.0016032328123097,-0.0074585492680329,0.0282285407238395,0.9995721197964,0.012751025789875,-0.0166178029847551,9.755983777654963,-0.0059695816778358,0.0046493670596024,0.0015683504708925,4.26822206527611,-0.7113726052964354,2.098949563127608,1134.370858179327,1136.4306305073444,1110.6191470585838,1142.983692593994,-162.5164014079587,464.5514342388329,-37.3579547533494,-342.2677254189623,157.9942288526785
47.0175,-0.7481603418048755,-0.4005901766677875,-0.1431542115828629,-0.0179834173546584,0.0072630524274966,0.020692759914838,0.0015892683437001,-0.0074606507345829,0.0282059338395947,0.999572740304694,0.0123961012236041,-0.0200806662463511,9.752775440768067,-0.0062507509343038,0.0049270461770333,0.0014047120587506,4.268203156318495,-0.7113606777864248,2.0989522933882663,1134.3520816966022,1137.508301593501,1110.7032716949009,1142.0490460570607,134.98586432267444,406.81499694371377,143.50913802720177,-417.25060315031016,157.99245263374667
47.02,-0.6482355644996979,-0.5150307979173531,-0.4270997654785011,-0.0193059100921966,0.0070187090824377,0.0202304548863888,0.0015800652000083,-0.0074777464381954,0.0281857554693123,0.999573172170335,0.012564666546893,-0.0237704766636866,9.7499559679188,-0.0065313790533677,0.0051926216853577,0.0012289340300382,4.268184229106589,-0.7113486083601258,2.098955418384084,1135.0457875009406,1138.464705492064,1111.3366927487202,1140.8974395782411,334.1240325054624,278.8840611063671,334.99708304349184,-397.8712203190536,157.99036557343769
47.0225,-0.5990199564538806,-0.6436920706753658,-0.6478352675289039,-0.020171168242664,0.0069457400605814,0.0185184405073753,0.0015787049722192,-0.0075073189229538,0.0281737409127208,0.9995732702358172,0.0132171118035007,-0.0275834693309576,9.747570218116472,-0.006810821232645,0.0054439184995156,0.001041361459505,4.268165739079856,-0.7113364171908392,2.0989590927318686,1136.0227018591304,1138.9027218990336,1112.3782571101192,1140.0596899554644,417.3683087982384,87.47993433488544,531.3176583835515,-270.8691991442455,157.9886652612599
47.025,-0.5641110940754828,-0.7902316992400701,-0.8146195147918044,-0.0210922518701617,0.0058830683313818,0.0153792511865595,0.0015878040663766,-0.0075461247170984,0.0281715019705235,0.999573013985778,0.0142955109935432,-0.0314190137391323,9.745657832118066,-0.0070887161140342,0.0056787545868891,0.0008424201833154,4.268147497561194,-0.7113229818608948,2.0989638103589168,1137.13262904493,1138.902105163738,1113.9932810406356,1139.5430935825211,422.9868666887451,-78.33657490182844,737.9313859087094,-127.7936599476362,157.9870080539544
47.0275,-0.5184847951074419,-0.9265165620941332,-0.9195321726622924,-0.0222727801807221,0.0033680704861893,0.0115632100503542,0.0016011538909465,-0.0075920441830851,0.0281766460526236,0.9995725002246768,0.0157554241675147,-0.0353443806941453,9.744253948241122,-0.007364826514741,0.0058949426074654,0.0006329236455292,4.2681294080938255,-0.711307192925606,2.0989687171987166,1138.1376361925752,1138.5110390245243,1116.0679140396646,1139.4207216557259,331.01377434319494,-248.5964269190937,923.7694135198858,62.30727998255584,157.9853889532079
47.03,-0.4284253276079237,-1.0189722084617592,-0.9526939571530512,-0.0238842465559936,-0.0004591030170012,0.0079229298316391,0.0016088518105551,-0.0076357550891229,0.028186034567923,0.9995719035434014,0.0174073223339055,-0.0394910957381326,9.743387598139279,-0.0076388685396769,0.006090528313012,0.0004140624194413,4.268110669475313,-0.7112887869524582,2.098973239823443,1138.7876979166467,1137.659123029142,1118.6121281082371,1139.8546299824343,161.38128959938635,-462.83360533994966,1189.6564978312103,311.3646314907886,157.98381881365418
47.0325,-0.2327725477748009,-1.0591138562099291,-0.9434598344917265,-0.026085587179501,-0.0049429032406668,0.0048278208975868,0.0016078138973323,-0.0076703917942824,0.0281983088053426,0.9995713169870476,0.0191110299079093,-0.0438568097655663,9.743077730062835,-0.0079103747936473,0.0062641278559905,0.0001874952204317,4.268090839030451,-0.7112680885178155,2.0989774640890526,1138.9445426405712,1136.1968709978266,1122.0161965288153,1140.9775448131784,-62.01864336841492,-582.8171321195641,1268.1841836582287,483.7040078738282,157.98199483957788
47.035,0.0189319889377485,-1.038240018484197,-0.9317163920311377,-0.0276141355970082,-0.0076005992447115,0.0035376613178818,0.001596961175543,-0.0076908835665995,0.028214780305864,0.9995707423091096,0.0207602189440127,-0.0484004166331812,9.743333421771005,-0.0081786819095834,0.0064152287417039,-4.456925133940678e-05,4.26806988797326,-0.7112462656723232,2.0989814042232977,1138.4776046998045,1134.7450373685426,1124.9530490265315,1142.2731500218047,-309.407873015858,-584.6371034761625,1141.2597228877148,538.6444435027415,157.98052734067403
47.0375,0.3623363337281349,-0.9784704185212946,-0.95424076305661,-0.0281183735957028,-0.0092795770988648,0.003182419401787,0.0015824812754019,-0.0076974788661237,0.0282364688770512,0.999570134913782,0.0223533954503176,-0.0529434516525947,9.744151776054666,-0.0084430207488013,0.0065443298465961,-0.0002793505984067,4.268047696484674,-0.7112249488496779,2.0989836590616324,1137.397503275491,1133.2736854804443,1127.7224951432568,1143.6707670306935,-589.6117558896909,-594.3317891535975,1116.1703077271488,566.2762832507872,157.9791167269287
47.04,0.8567583351515501,-0.8765008451388488,-1.0356585379250964,-0.0270500070205998,-0.0114835357061978,0.0027340358645061,0.0015678987026546,-0.0076975491948345,0.0282605213790228,0.9995695087740044,0.0240232135335365,-0.0573663970517085,9.745518916646109,-0.0087026504758802,0.0066528712482269,-0.000513402162914,4.268024801489208,-0.7112053083546326,2.0989833584345448,1135.5295459203587,1131.7733784227771,1130.5339005651624,1145.104531438056,-743.7567547280483,-468.5424848354491,907.9442992086927,439.3990763244826,157.9774921164512
47.0425,1.3093753412593443,-0.7693940953519101,-1.132204668757778,-0.0246243694561086,-0.0138581705131681,0.0012331232284242,0.0015575436773346,-0.0076988692516972,0.0282800429151146,0.9995689900182968,0.0259078060330552,-0.0615389763683454,9.747409476116387,-0.0089569294170716,0.0067430317593443,-0.0007429687709165,4.268001395215248,-0.711187187343329,2.09898091179694,1133.6787195018492,1130.9309730562659,1132.2622166393023,1145.867762412317,-742.5511503970323,-222.4054506181573,541.3633734372029,182.4856002717728,157.9761964842163
47.045,1.7654782747071844,-0.643047618601634,-1.2131762596582822,-0.0206063819314299,-0.0161579095657977,-0.0023436941571596,0.0015547466054338,-0.0077056728674869,0.0282904089799678,0.999568671020242,0.0280740458177724,-0.0653542266466285,9.749787183994068,-0.0092052407263061,0.0068175670800755,-0.0009642837526588,4.267977596112073,-0.7111704734137979,2.098977506378828,1131.8167901683717,1130.661351169686,1133.2407174323498,1146.0169594394151,-747.0618979738873,22.600653433821755,269.1946127586736,-79.22693243911382,157.97496265732326
47.0475,2.27431864818758,-0.4840317190947649,-1.2368361735085864,-0.0141725341276874,-0.0180138163478799,-0.0082453972949651,0.0015613456695376,-0.0077170887214987,0.0282908892591743,0.9995685745787036,0.0304869794345001,-0.0687382728083671,9.7526053706692,-0.0094469478951068,0.0068795897871345,-0.0011737437104629,4.267953127321122,-0.7111550976941557,2.0989741755195825,1129.9434100119831,1131.043976323435,1133.6081897030947,1145.4716277501216,-579.5849914292139,246.11314825266305,33.9073126312823,-299.2945745214289,157.97355471443163
47.05,2.6413655004895076,-0.3619903804833293,-1.1744608761521709,-0.0076982637794789,-0.0185929128869965,-0.0130037767211759,0.0015820832850527,-0.0077317579834647,0.0282806543051662,0.999568724376086,0.0331017964910153,-0.071568021241193,9.75580648014625,-0.0096814549026411,0.0069322617483024,-0.0013678900097719,4.2679276075001376,-0.7111404346805043,2.098970392103369,1128.918865211224,1131.89191691095,1133.4102539955063,1144.5204865668074,-263.3073268342304,416.5724352493869,-124.66528141524564,-437.1197476593844,157.9724425756974
47.0525,2.9297094633350196,-0.2686510874936952,-1.0346122344812017,-0.0003901412477635,-0.0183461830652027,-0.0164239207041226,0.0016174347195497,-0.0077517340847937,0.028260874948875,0.9995690670926404,0.0359363906812703,-0.0738133959914192,9.759323617887471,-0.0099082212693801,0.0069786805211399,-0.0015432077635593,4.267901951414894,-0.7111261918538714,2.0989652253596347,1128.6268733778113,1133.126838499683,1132.984863296018,1143.2860290118235,10.59509105808556,524.9944444980201,-161.5847931344084,-498.43588149978893,157.9713943175642
47.055,3.146361798175201,-0.2039115265196741,-0.8538327241460117,0.0072534254980478,-0.0179137847613632,-0.0185736898731702,0.0016679699747949,-0.0077793484357496,0.0282327313205845,0.99956954852828,0.0390127307286704,-0.0754506283081503,9.76308161540213,-0.0101267809160986,0.0070217217268597,-0.001696314890199,4.267876809987265,-0.7111125431050371,2.09895748196756,1128.9718406665145,1134.5168891334376,1132.602330029835,1142.0283071593108,275.33550225282426,550.1600203093404,-100.96368984664056,-460.31564124010424,157.9703991117338
47.0575,3.276712663788078,-0.1646412049263671,-0.6571030476886607,0.0148554110679454,-0.0178688707965839,-0.019461910626221,0.0017320894359389,-0.0078142205952921,0.0281988171715728,0.9995701007817042,0.0422977099226914,-0.076504415240668,9.766999563863372,-0.0103366182380628,0.0070639757380408,-0.0018242277581979,4.267851853126133,-0.7110993614383342,2.0989468770143396,1130.003550889074,1135.877638601227,1132.4800448467854,1140.984450805625,571.5297576930229,540.9628288344682,27.683098587871815,-364.659147590687,157.9694677016836
47.06,3.3363459682172727,-0.1215899713153133,-0.4347744861356542,0.0237008818890718,-0.0184372054220712,-0.0196606063056313,0.0018069032181235,-0.0078509522573108,0.0281633515398925,0.9995706526607444,0.0456588529591344,-0.0770289177998228,9.770993348553475,-0.0105370379910717,0.0071076624896032,-0.0019247689687646,4.26782654124062,-0.7110859033521502,2.098934138754359,1131.829489454981,1137.2217032776111,1132.7407455227744,1140.2050114213564,731.059988588039,415.1331288958922,152.99555677062375,-192.27541422700764,157.96842318945397
47.0625,3.3033173973973873,-0.0682135738976891,-0.2701337717050861,0.0311071440249383,-0.019174574887169,-0.0196040366079196,0.0018889025057801,-0.0078804019648291,0.0281287268032832,0.9995712169061868,0.048889514633962,-0.0770945141221215,9.774978127576327,-0.0107271650978153,0.0071545238380604,-0.0019968755074119,4.267799702597663,-0.7110722083913874,2.0989206760466184,1133.6588508320162,1137.9533042457076,1133.2450226306387,1140.0230737344896,753.2533466435809,189.1254393343744,222.8564287969428,18.365122104858855,157.96761308320197
47.065,3.1733068919988168,0.0228053447364258,-0.1207006844955957,0.0389616428045125,-0.0198759083531466,-0.0198417592894483,0.0019756429984096,-0.0078937002640823,0.0280947428578468,0.9995718759626459,0.051788662212304,-0.0767559525934978,9.778870408117257,-0.0109060585352108,0.007205809468517,-0.0020407130533226,4.267769800967639,-0.7110587440015582,2.0989077243785506,1135.5957561881955,1138.1673304742824,1133.855027666758,1140.2968370318806,835.1585690791854,-33.09371345488342,230.60172536817873,194.31581453149252,157.96686451277105
47.0675,2.8886128802851574,0.1859133270851943,0.0600096057815028,0.0487116995102272,-0.0204485744546893,-0.0204706677552664,0.0020703912314247,-0.007887600594661,0.0280619642582779,0.9995726340010718,0.0542690955942307,-0.0759631182546688,9.782589406868327,-0.0110729666314745,0.0072623311362944,-0.0020576114574125,4.2677363986599435,-0.711045117428373,2.09889589873835,1137.8346436774143,1137.787835678433,1134.3980312574804,1140.9946528071475,782.1213740016082,-236.51584755345263,124.0860016678018,284.80383461304865,157.96603576685257
47.07,2.5393378938032005,0.3646425738322021,0.2238693628276694,0.0566356849426045,-0.020549631899996,-0.0210141793817688,0.0021721332701408,-0.0078703628732059,0.0280318877908334,0.999573384045276,0.0564681242635432,-0.0747582676056693,9.786059977836793,-0.0112277444526312,0.0073245138006137,-0.002049649501151,4.267701488731774,-0.7110315157262151,2.0988849309544446,1139.5063630582056,1136.9847512365145,1134.4754576750975,1141.7208562049464,606.568250396737,-395.21658512803253,-80.85841684804187,280.9563911799441,157.9654016926251
47.0725,2.0873638458402044,0.5731720157777329,0.4048492776249816,0.0636583599504086,-0.020029859539361,-0.0211847965958608,0.0022785643598787,-0.007856200104963,0.028006848457829,0.9995739527847703,0.0586417906105387,-0.073213361037042,9.789215621299002,-0.0113711141430933,0.0073923793555043,-0.0020196501729986,4.267667637316664,-0.7110182530980632,2.09887457183234,1140.8674849293952,1135.8117527527947,1133.9937391732403,1142.3994347630462,512.3003407487539,-553.688703803608,-346.86794782515324,254.20071630006257,157.96482436899055
47.075,1.473128884001902,0.826717564821216,0.6268008251375446,0.0699198392891147,-0.0183512055132808,-0.0203655355232604,0.0023867917560508,-0.0078524053295187,0.027989526621182,0.9995742150105899,0.0609141726274684,-0.0714080913341293,9.792002955238026,-0.0115045956524486,0.0074654857546863,-0.0019713630781547,4.267636242064151,-0.711004928592488,2.0988653092757645,1142.0678647619507,1134.216307717495,1132.7411179359708,1142.9918597864475,365.4126710029636,-575.8792250856696,-553.6169453519402,169.8881782134362,157.96419459451005
47.0775,0.9534441770229248,1.0118100025232408,0.7942767908224624,0.0723309919311911,-0.0158464366468123,-0.0184932292245836,0.0024924743549343,-0.0078562150926207,0.0279814976237048,0.9995741594203408,0.0632157968885341,-0.069443937438682,9.794384485561075,-0.0116302254401872,0.0075428482612385,-0.0019094137812711,4.267606647692868,-0.7109906640355037,2.0988572837984307,1142.6945482844108,1132.9323566273647,1131.2256544464794,1143.2488756541138,181.01050217217647,-457.6332448290556,-663.8054949031482,58.08059333576973,157.96372017785094
47.08,0.4913724389261878,1.1358508473949496,0.9151127477268098,0.071854101233144,-0.0121518514118274,-0.0154960264315497,0.0025887205684854,-0.0078615201464131,0.0279849051669786,0.999573794621276,0.0654148292869703,-0.0674686379304871,9.796339130105522,-0.0117502025463694,0.0076230145874898,-0.001838979918217,4.267577787616406,-0.7109749616089,2.098851032522857,1142.9729172728107,1131.9281414933519,1129.422090461458,1143.282262753126,67.35729277858091,-327.5215388168506,-732.5995183859394,-11.513474660017458,157.963295283966
47.0825,0.1105295144418014,1.192516678571883,0.982571291222688,0.0702118576844277,-0.0078497333577412,-0.0119643884209472,0.0026704232157061,-0.007863558485216,0.0279973666812293,0.9995732403091784,0.0674110293730657,-0.0655930839572606,9.797861541693184,-0.0118667286826792,0.0077040725103992,-0.0017655337292691,4.267548871569441,-0.7109569151830691,2.0988467808607725,1143.031334748304,1131.2947489332798,1127.5626568545479,1143.1913082808137,-6.826564919671146,-144.63904991018228,-714.9094120832141,-47.512864780331505,157.9629091828135
47.085,-0.1657558203742208,1.1675935501029135,0.9845039926580628,0.0685970684401588,-0.0038078353310641,-0.0086745081144565,0.0027406848640512,-0.0078652994612282,0.0280132008052415,0.9995726211286317,0.0692643721302175,-0.0637686100086539,9.798959873754093,-0.0119818854543843,0.0077839190975144,-0.0016945293841375,4.267519509752224,-0.7109357634243126,2.098844113950036,1142.9387844482123,1131.2049462438004,1125.84754340104,1143.0446984292244,-45.42374628567397,90.04511122592707,-679.5852833756995,-56.09304152636113,157.9625668755423
47.0875,-0.4048132321296942,1.0693248003256075,0.930667406346882,0.0672487884533616,-0.0002136997339553,-0.0058568571707005,0.0028001432086626,-0.0078689925170215,0.0280314594787202,0.9995719421777948,0.071024122974792,-0.0619918983285426,9.79965828745533,-0.0120974274095751,0.0078608647726181,-0.0016312046973518,4.267490058658374,-0.7109125427913222,2.0988429295810622,1142.804216016876,1131.744974489409,1124.1647304376725,1142.910843073182,-35.08856908031727,295.53342215866337,-537.8707590436056,-32.60209343905596,157.96220259762958
47.09,-0.5612988506242883,0.9602602542843832,0.8602489158740435,0.0667161824955155,0.0016930763002905,-0.004289556450414,0.0028498085913149,-0.007872301096773,0.0280544724690817,0.9995711526895292,0.0726538957032846,-0.0602478041302301,9.799996090943974,-0.012214752531965,0.0079339379358756,-0.0015805041498664,4.267460898973971,-0.7108888463030698,2.0988432394782928,1142.7633416028107,1132.6826133545947,1123.1581896058208,1142.8816879620288,12.726365462588403,453.6678878171595,-318.17775595561307,8.020109929243961,157.96193469504684
47.0925,-0.7127846776795552,0.8567483579788508,0.7842328608222302,0.0665145049761452,0.0030237695953343,-0.0029227663110573,0.0028939690638868,-0.0078726577139613,0.02808293630913,0.9995702408662064,0.0741172566851873,-0.0584553856107259,9.800024550647747,-0.0123349199287286,0.0080029271362787,-0.001546808422723,4.2674322982885515,-0.7108658762848805,2.098845297492563,1142.8678478441889,1134.013313928496,1122.5738416578936,1142.9509436228284,86.88048574934953,644.6483166513141,-174.93864422360724,47.325373760711344,157.9617005050716
47.095,-0.9140444283388444,0.7640785424231419,0.6986627674214095,0.0656399299902144,0.0044870538960494,-0.0014187177159188,0.002932039434415,-0.0078695838331796,0.028113401714016,0.9995693087875366,0.0754174523647549,-0.0566296609273207,9.799805293798297,-0.0124585910763957,0.0080683057058875,-0.0015335207234986,4.267403791364084,-0.7108444077535597,2.098849016413176,1143.197744031557,1135.9058549378483,1122.2834963847035,1143.1183148308323,154.82698312044968,720.1085017587911,-56.638111263890224,67.7162282374974,157.9614553463709
47.0975,-1.0985065950869823,0.7207388449177486,0.6331714301319286,0.0638734872073971,0.0056818939383805,-0.0002961827881828,0.0029620542219982,-0.0078640440560436,0.0281416947122576,0.9995684728336114,0.0765859440941407,-0.0548139452258814,9.79940697659126,-0.0125858912439886,0.0081311178854239,-0.0015428832743992,4.267374838877649,-0.7108241985167553,2.098854355934704,1143.6419827597915,1137.6138564372918,1122.290651101574,1143.289524764016,205.7528357542508,685.0729433939383,29.856408557119,64.68260021794195,157.9612791677326
47.1,-1.2856986372423596,0.710910591815004,0.5668201535298601,0.0610133470056613,0.0068241267484908,0.0008558447445524,0.002981733703308,-0.0078548619988574,0.0281655661399985,0.9995678138965872,0.0776119919594114,-0.0530580470081498,9.798902606293584,-0.0127163449366353,0.0081928199542365,-0.001575841544295,4.267344720222916,-0.710804834810743,2.098860492479344,1144.2265082103288,1139.3312196548195,1122.4327784274892,1143.4417278319222,271.8989832485221,730.7326870892947,69.63900094626264,51.94204787067242,157.96113065248977
47.1025,-1.4898558065622831,0.7238250940546157,0.4704842130158871,0.056935514376265,0.0081316547887418,0.0025128505605312,0.002992219012893,-0.0078427033614584,0.0281846937898349,0.9995673344055662,0.0785217729705786,-0.0513480779702248,9.798364602794953,-0.0128489706439079,0.0082550899827513,-0.0016318154569171,4.267312823280641,-0.7107861847715641,2.098866672701521,1145.001477676033,1141.2675198727347,1122.6388461063048,1143.5492350033692,277.52985080346104,669.4465187749059,70.77623374517333,21.666868148247715,157.9609833903809
47.105,-1.6262866309558364,0.7366480724720249,0.3639153393761112,0.0532587506338023,0.0096158869627776,0.0041876138158283,0.0030005059957387,-0.0078276632370239,0.028198357182919,0.9995670347625872,0.0793313305266694,-0.0495579060334162,9.79786137411712,-0.0129824887278043,0.0083196281284733,-0.0017087157409842,4.267279009459619,-0.7107677175662505,2.0988722502214805,1145.6141574643468,1142.678452248696,1122.7866595962153,1143.5500621726635,211.0442400709701,497.9738948695011,51.47194788684924,-20.510147420226044,157.96088621299555
47.1075,-1.7084895368134523,0.7223128171698869,0.2221520333073195,0.0493004123996066,0.0120791455077758,0.0059146349927228,0.003016011653119,-0.0078156539592378,0.0282057892467387,0.9995668636572628,0.0801691755968719,-0.0475203454547789,9.797453289961153,-0.0131155623613392,0.0083881017484995,-0.0018027589123135,4.267243941516478,-0.7107487228008089,2.0988750295730694,1146.0566988763883,1143.7573893470835,1122.8962058457391,1143.446684266268,127.73514341936583,358.98537668809604,42.00664846947985,-57.7875430599377,157.96081581235308
47.11,-1.731063471903391,0.6658938095568625,0.0557446307855846,0.0449792440138278,0.0150030021285695,0.0071426527852982,0.0030445786662002,-0.0078129238109528,0.028206513904411,0.9995667700419822,0.0811651805543028,-0.0451417066511957,9.797192184367438,-0.0132469558976997,0.0084621735087084,-0.0019087614967703,4.2672089948752845,-0.7107296116145033,2.098873109458657,1146.252833181443,1144.4733791321348,1122.9966928385625,1143.261124457364,-3.685032625478859,181.3542968678557,47.10633201709561,-90.57880426234901,157.96076810218617
47.1125,-1.6656789693152314,0.5499033310455,-0.1205878650595186,0.0401679319512166,0.0175249182551853,0.0071699874107797,0.0030844781900472,-0.007818479388226,0.0282003090776082,0.9995667730079179,0.0822997278340188,-0.0424757562475002,9.797121770232994,-0.013375553446772,0.0085435248662386,-0.002020807245187,4.267174526335743,-0.710711198490204,2.098865862726638,1146.0382737132609,1144.6641608314235,1123.1317375058247,1142.993790244956,-210.024137405282,-51.89587696883864,76.76852690170271,-130.1622265920985,157.9607482763128
47.115,-1.4750162420598243,0.3531211300579412,-0.3093025283993129,0.0344482611628808,0.0195410705953978,0.0058786448108843,0.0031307707160248,-0.0078263622016141,0.0281891591070572,0.9995668781592006,0.0834509810559464,-0.0396393512390969,9.797275196924701,-0.0135002687170224,0.0086338221688246,-0.0021329679811637,4.267139962985643,-0.7106936917682082,2.0988541388722934,1145.202712494416,1144.2138997472905,1123.3805354730712,1142.6103133244033,-407.2909797830628,-281.35786934238365,107.31435264575094,-145.87520678660064,157.96075710494827
47.1175,-1.2274959187433128,0.1611528573415839,-0.4255452928600933,0.0304130165843078,0.0203891372078616,0.0041690529543794,0.0031782495349358,-0.0078292014418378,0.0281727246217242,0.99956716812228,0.0844656288937266,-0.0367558900057401,9.797673336995171,-0.0136200845966979,0.0087344379439188,-0.0022399460089778,4.267104560411656,-0.7106769395192437,2.0988398006362967,1144.0018188143474,1143.2573714847128,1123.6683092690532,1142.2644142110237,-572.5810543183094,-496.47547600365806,126.2294488617283,-137.9238123385566,157.96079170925088
47.12,-0.90877858877969,-0.0292765559906798,-0.4848373610383343,0.027544401188373,0.0204830828377901,0.0024205954970711,0.0032255110432833,-0.0078248415132991,0.0281519139211157,0.9995676358748916,0.0852917353693043,-0.0338787517843948,9.798322753365916,-0.0137340597091606,0.0088463673274135,-0.0023374511511557,4.267067980858054,-0.710660859400599,2.0988249177014047,1142.3398072228272,1141.7315223672745,1124.0116827173792,1141.920694262711,-797.2539235556281,-779.9426723609133,150.42375314984872,-145.09222260195963,157.96085441653787
47.1225,-0.48007919561577,-0.2187085983367515,-0.4891520422749647,0.0254661802982197,0.0198119898505324,0.0006319102865147,0.0032734126111542,-0.0078091574502573,0.0281291310996637,0.9995682402193972,0.0858376891667198,-0.0310166273878468,9.799218498052847,-0.0138414092004366,0.0089701041781276,-0.0024225741281808,4.2670298701415135,-0.7106445416428546,2.0988114857315567,1140.0155491965672,1139.3576581229063,1124.4204280348029,1141.5389530980135,-862.2259771652034,-933.9644133347288,137.82541337829795,-131.69203769478003,157.96096162512174
47.125,-0.1135921068485677,-0.3188675317612423,-0.4431319298375222,0.0247987097565816,0.0186221192418856,-0.0006003709112799,0.0033217353514325,-0.0077841397722466,0.0281065520092146,0.9995689025900608,0.0861291321207267,-0.0282021758849399,9.800344425608506,-0.013941735240921,0.0091055484958854,-0.0024934147504333,4.266990268705237,-0.7106276437488686,2.09879974606311,1138.0286773369987,1137.0617003005984,1124.700809784271,1141.2622340742369,-741.1115974149571,-942.9491544740749,87.43486665197217,-99.07848265661329,157.9610769986244
47.1275,0.2276540268530015,-0.3360244715255267,-0.3564285501351882,0.0250335151529601,0.0168351460493723,-0.0016661971254849,0.0033711948801856,-0.0077559266751279,0.0280876580835081,0.999569474145324,0.0862725455692423,-0.0254505707076831,9.801674932731927,-0.0140351681001696,0.0092520524616474,-0.0025489191205971,4.2669498501381415,-0.7106103848154945,2.0987890521531463,1136.3099912094958,1134.6429123505402,1124.8576023680623,1141.043560684731,-621.2491876372046,-1039.4752316488075,31.14186907144584,-80.88176088318005,157.96121842806497
47.13,0.5690449218887985,-0.250353626786801,-0.2203946349764194,0.0263233472055439,0.0143858253633047,-0.0027741394132253,0.0034256827932567,-0.007731196019815,0.0280767199940071,0.9995697708660012,0.0863865443678232,-0.0227124839828588,9.803177115647024,-0.0141224712185154,0.0094084263244367,-0.0025887858887013,4.266910087375745,-0.7105921990999036,2.098779084613319,1134.922431398811,1131.8643241423515,1124.8565191296284,1140.8578252698208,-354.5352169274343,-960.92119122537,-34.10295464098528,-56.790513312596936,157.96141711187275
47.1325,0.7695308672075512,-0.0992842763249514,-0.0938054700631568,0.0283755976222764,0.0129020833002408,-0.0033772085212841,0.0034874331389647,-0.007712502651954,0.028074903962491,0.9995697353234408,0.086507906886907,-0.0199649898627396,9.804814842590003,-0.0142050524736106,0.0095729104229921,-0.0026133515974938,4.266871771168553,-0.7105722593975117,2.0987697063951782,1134.5373151248575,1129.838306394411,1124.6870875948573,1140.7596081181675,31.125880634982536,-713.4708942977918,-98.93840183549305,-35.00589035755639,157.96160663569103
47.135,0.8552049121891349,0.1041624036218378,0.0268868355503416,0.0313721063967664,0.0129731159110702,-0.0032407629518086,0.0035549985904975,-0.007699141181798,0.0280799921218503,0.9995694450175612,0.0866077975164848,-0.017250996007763,9.806550934960788,-0.0142847788092108,0.0097433153996167,-0.0026234062146639,4.266835258282581,-0.7105501161732279,2.098761289459546,1135.078060801986,1128.296969670866,1124.3618271204512,1140.6827958180331,442.24706746572446,-539.3423543493979,-167.11773282000283,-44.86521510391391,157.96182216323948
47.1375,0.8092766420049525,0.3634714124765432,0.1421580692748866,0.0355049515219623,0.0146414456822898,-0.0023696179806927,0.0036219618899503,-0.0076903152285758,0.0280882067129323,0.999569040364516,0.0866537994718206,-0.0147060031486571,9.80834855160178,-0.0143636609277454,0.0099172959530161,-0.0026199488129475,4.266801060147796,-0.710526118683069,2.0987536548383297,1136.7485504621875,1127.1415946226623,1123.8514989307569,1140.535282042648,750.5604292126715,-302.2041877781976,-194.8417733751652,-77.7221810637059,157.9621139755945
47.14,0.6528195373125814,0.565460082697105,0.2021696796441771,0.0386316641504072,0.0166792465015732,-0.0014938349683857,0.0036800113332598,-0.0076790066872138,0.0280973282789636,0.9995686686059364,0.0864920514673532,-0.0124945731688268,9.81017339085651,-0.0144434087850939,0.0100926358402982,-0.0026043004956339,4.266768245786566,-0.7105012021166328,2.0987461067003195,1138.8308629480512,1126.7859487319743,1123.387618253575,1140.2941849127144,915.6335300548247,-27.28271719781995,-177.37984008761248,-136.55078018458568,157.9623882613267
47.1425,0.4039068110259728,0.7360932871900773,0.2194633216770334,0.0405607144227125,0.018836476451962,-0.0007553744027566,0.0037290034946746,-0.0076647566262076,0.0281059265556481,0.9995683692190536,0.0861032179854733,-0.0106200503955796,9.811989409946014,-0.0145252085354698,0.0102673076898291,-0.0025778660081478,4.266735300023636,-0.710475746761742,2.098738433689389,1141.3267181124575,1127.0051810366735,1122.9645997303196,1139.8525281417255,1013.4567483454064,162.60934707666686,-151.12415642280666,-216.20928121035683,157.9627003696023
47.145,0.1141115537636231,0.8781967079271296,0.2019143446637413,0.041137683215919,0.0209972165302524,-0.0001896505173397,0.0037740020647175,-0.0076465587690407,0.0281151102687132,0.9995680966607003,0.0854616763866896,-0.0089791058229787,9.813762112232489,-0.014609509641957,0.010439589411303,-0.0025422988087563,4.26670141299227,-0.7104499321975631,2.0987306060485804,1143.898146689781,1127.598995467358,1122.6319974714606,1139.213138506662,984.1768906449456,293.50923323616814,-100.55471033778616,-299.69304756648984,157.96304902412908
47.1475,-0.1772790315175632,0.9892971016850912,0.1452560451362264,0.0399717784759191,0.0231896096154563,0.0001928875804022,0.0038222551449052,-0.0076225427224421,0.0281284036889144,0.9995677364941896,0.0845273559876267,-0.0074213559130046,9.815460194378398,-0.0146960537670513,0.0106080938269997,-0.0024994806061724,4.266666185412808,-0.7104235739346167,2.0987231867136225,1146.2476025656847,1128.4727272028551,1122.4618261786304,1138.3540629038923,916.9642378137424,402.4916884788604,-28.490000585478345,-407.5027104560445,157.96344928088644
47.15,-0.4795535921506319,1.0927189985664263,0.0359250076728862,0.03739680993347,0.0257951622763098,0.0005020552152538,0.0038734212932641,-0.0075925792798597,0.0281464019082371,0.99956727076409,0.0832902184644168,-0.0059429486725077,9.81705821987877,-0.0147841289349405,0.0107716843943715,-0.0024512304890315,4.266629383350994,-0.7103964004777173,2.098716545166421,1148.4829678788456,1129.6114539097505,1122.4895474685331,1137.1756249543837,690.7873642972949,403.7260613550851,51.49667538550696,-431.84217250387246,157.96400008561693
47.1525,-0.6731895189851558,1.1557971040581292,-0.0868126333663815,0.0351137903391731,0.0279608365206325,0.0006579060813467,0.0039251225521947,-0.007555745123713,0.0281639300896772,0.9995668581138604,0.0817228695624423,-0.0045770101571846,9.818536144036464,-0.0148728077079897,0.0109294084766574,-0.0023994160310827,4.266590919880884,-0.7103683298660282,2.0987104476621603,1149.7015393871727,1130.4913575096316,1122.719309555558,1136.194852041372,337.37830685960057,315.66302482530995,133.08139851444608,-358.1489578732076,157.96452537871625
47.155,-0.803252311943817,1.1901369614262887,-0.2370842494288737,0.0330160883291833,0.0303425753785745,0.0006720099948765,0.0039736786222692,-0.0075105214186031,0.0281770807606242,0.999566633404446,0.0797862900646611,-0.0033809733327354,9.81987918400899,-0.0149610060568551,0.0110807793112383,-0.0023458802259245,4.266550877855006,-0.7103393151379175,2.098704941951867,1150.1698594131444,1131.1897690338778,1123.154954461106,1135.3848801650167,39.055081917321374,257.44064533633485,230.4837010834312,-281.81263293889225,157.9651270227801
47.1575,-0.8954278294675042,1.1829539269223632,-0.436631576018803,0.0307284906224546,0.0337701105503218,0.0003764684014589,0.0040148005410743,-0.0074528673341055,0.0281828527083022,0.9995667293176954,0.0773926704661385,-0.0024229430475452,9.821077886441504,-0.01504769084682,0.0112258495312354,-0.0022924288917894,4.266509057601374,-0.7103099981147797,2.0987009681596858,1149.8968147967591,1131.778560736312,1123.871728060974,1134.785788876679,-220.0161196222564,177.79165793976972,284.67477292696447,-139.59712922985224,157.96594404975008
47.16,-0.9273806307671159,1.122746046964764,-0.6029299749955884,0.0291020783767486,0.0372466868062823,-0.0003091881922343,0.0040472016572513,-0.0073767399559973,0.0281782442219397,0.9995672823574296,0.0744180152024561,-0.0017120545647371,9.822126560892185,-0.015132128080864,0.0113652136038137,-0.0022407470110628,4.266465138047003,-0.7102809955740492,2.098698642984105,1149.0697788150324,1132.0787273235771,1124.5783283257415,1134.6868945188671,-419.4465849159442,91.25762424014161,289.7588566420264,53.80744113146624,157.966707763262
47.1625,-0.917022504508928,0.9959073821609647,-0.7410584574703756,0.0276816276841753,0.0410553371394249,-0.001708856366898,0.004068700199927,-0.0072840291841431,0.0281613623951188,0.999568341626324,0.0708961448837691,-0.0012815079580494,9.823021739822092,-0.0152141511176869,0.0115000289658914,-0.0021918059536184,4.266419917451934,-0.7102526123476721,2.0986968740696135,1147.7995818721784,1132.234848857513,1125.320522344185,1135.0548260823364,-612.550023214601,52.82243240403916,315.4092118138264,268.21404051744884,157.96756028174184
47.165,-0.8466131854877545,0.7757366873783801,-0.8337674671073301,0.0257748864885523,0.0448709817417671,-0.0044332899170199,0.0040803487255833,-0.0071836661568493,0.0281328818455814,0.9995698160047856,0.0670048051109552,-0.0011077846571802,9.823760747908944,-0.0152943250685299,0.011631928666301,-0.0021458388090029,4.266375199700102,-0.710225558198497,2.0986944604949924,1146.0070286989624,1132.342839485597,1126.1553743848092,1136.0279647214531,-668.9043923365023,41.463966745256286,283.2182489747908,435.58526866946073,157.96868725993656
47.1675,-0.7237305455439634,0.5588371915107802,-0.8217493758174154,0.0236712106169827,0.0467310017671996,-0.0075123485233674,0.0040836703637835,-0.0070803968198652,0.028098009479561,0.9995715155681127,0.0628450686271404,-0.0011592034345357,9.824344063693967,-0.0153738831015762,0.0117628914401099,-0.0021026430186861,4.266332065748988,-0.7102002633843235,2.098691241043172,1144.4550599104944,1132.4421686912394,1126.7366135890595,1137.2327524256848,-603.4974721125859,61.06701813602344,194.68943371547584,542.1026010672405,157.96971268286515
47.17,-0.5126177045078356,0.3457974665314157,-0.6956016815595762,0.0210587840784905,0.0470480953974932,-0.0109357606987552,0.0040841664985655,-0.0069768164413667,0.0280614632797809,0.999573265823939,0.0584831217706054,-0.0013280056075886,9.82477316187075,-0.0154546959520379,0.0118947932456804,-0.0020617215693684,4.266290499813449,-0.7101759405238596,2.098686855111739,1142.9895413383979,1132.6481745762771,1127.128821553387,1138.7384777267907,-559.2426092569979,113.0103440484736,117.54689010164616,630.3008700350622,157.97082590295298
47.1725,-0.2200468923202041,0.1624049383790259,-0.4753920350594817,0.0184224172002355,0.0463244341886254,-0.0142272686614951,0.0040897912441104,-0.0068752529299372,0.0280262507978267,0.9995749333573776,0.053986917570034,-0.0014612300009135,9.825049977626769,-0.0155390694171607,0.012029118255662,-0.0020223710924576,4.266249838810704,-0.7101515059485864,2.098680952488006,1141.658846864212,1133.0072204114813,1127.3243480395674,1140.3842567758572,-493.4156066756463,188.3960398277796,24.769613402064408,662.0976459369808,157.97201008241976
47.175,0.1589897695619454,0.0310083274805051,-0.1687616824126382,0.0163897941116559,0.0450158771673934,-0.0164868896285145,0.0041037433998139,-0.0067793692020492,0.0279936562970611,0.9995764441542674,0.0494542056853544,-0.0015028953612558,9.825178239004662,-0.0156295402475304,0.0121668521014982,-0.0019836909504241,4.266209573535028,-0.710126553783547,2.098673436735016,1140.5224633050184,1133.5901547754167,1127.2526696203975,1142.048965956477,-451.74392614971646,301.61220375915065,-95.41569023294537,698.5575212576414,157.97327730363955
47.1775,0.6622193498180445,-0.0735729049483349,0.2320152643296078,0.0159318751685991,0.0440903458734904,-0.0165480533427084,0.0041297388079826,-0.0066932005211201,0.0279660946877042,0.9995776907238296,0.0449973067439247,-0.0013894707225885,9.825161918083273,-0.0157286607941129,0.0123085264680152,-0.0019449799090762,4.266169877050424,-0.71010062083493,2.09866515038258,1139.400127233462,1134.5152814302778,1126.8472695884025,1143.8770443821472,-368.59883557078194,358.9449374849745,-197.68500349232244,617.7456118192529,157.97489038055144
47.18,1.060582199399726,-0.1373718302228257,0.5329379952579563,0.0183109912517406,0.0445626217342917,-0.0141763392295458,0.0041663921830237,-0.0066191091617284,0.027947486506117,0.9995785578651656,0.0406997972368449,-0.001158386136153,9.825006990551357,-0.0158388581905584,0.0124543036191394,-0.0019058632389177,4.266130683347268,-0.7100739126383652,2.098656655713293,1138.679469127166,1135.38487946284,1126.2642446029367,1145.1376940155708,-238.4719679205213,336.64751973718614,-269.4833719979392,429.0933087082786,157.9763087670516
47.1825,1.3558303762814976,-0.201842581003688,0.7390024212218618,0.023575486500878,0.0457495853957494,-0.0105108619993799,0.0042095887607405,-0.0065575362696307,0.0279427071409121,0.9995789268769714,0.036612356968494,-0.0009004944113479,9.824720752539172,-0.0159623204914786,0.0126040135102755,-0.001866444806912,4.26609193238673,-0.7100469402205682,2.0986489401596704,1138.2077673938606,1136.1985190289622,1125.499852728414,1146.0225109256867,-143.20200933991094,307.7304880398759,-347.91341715445407,292.9204067133335,157.9778004230118
47.185,1.5251670974843028,-0.2848087403841246,0.8441099313396148,0.0311762794265055,0.0463546104097514,-0.0062990856092571,0.0042612180147796,-0.0065075471762101,0.0279550709212915,0.9995787036312768,0.0327669511078884,-0.0005880279338933,9.824309313154014,-0.0161009344399602,0.0127570658523063,-0.0018274701620423,4.266054105002982,-0.7100194967508872,2.0986428651992126,1137.9634590804662,1136.92353190304,1124.5246775171636,1146.6022960491382,-32.60720799738161,205.78784218294845,-339.0530141464381,136.0337909018867,157.97967043098998
47.1875,1.5009554390661328,-0.3432607086591336,0.8155925449921274,0.0370737672766127,0.0456063296964498,-0.0034031214552911,0.0043196055394076,-0.0064634298579969,0.0279825946140013,0.9995779860747492,0.0291029151153832,-0.0002600507866297,9.823780663529101,-0.016256214199813,0.0129123773806955,-0.0017900523533576,4.266016739629534,-0.7099907718189403,2.0986384340889974,1138.0447313538737,1137.2274582398775,1123.8045876576807,1146.7026798801965,91.68032496662973,56.61395855536886,-236.6852059825184,-23.459147687593447,157.98129177223447
47.19,1.334873992800578,-0.3632516594870479,0.6902563687713505,0.0413182735308702,0.0438033286820464,-0.0013468675175091,0.0043815195073742,-0.0064240027790916,0.0280190648252431,0.9995769676637836,0.0256497060937308,1.2326909014620524e-05,9.823142962994696,-0.0164291568960055,0.0130684691695063,-0.0017551844694689,4.265979194802597,-0.7099603402784133,2.098635773992695,1138.4218607052987,1137.2066016958167,1123.341251487252,1146.4850003107003,227.9248129385194,-61.42269766907289,-122.7384832702964,-141.70062180957783,157.98297379318615
47.1925,1.039082991074582,-0.3210499444767925,0.4678083111574655,0.0441346618531038,0.0411230489763046,0.0001288592203796,0.0044400297047984,-0.0063889838906328,0.0280584133680559,0.9995758481711232,0.0224536511642236,8.63807597548949e-05,9.822405545443248,-0.0166200227078264,0.0132237718230204,-0.0017235579668075,4.26594085234363,-0.7099282912596961,2.098634348921471,1139.1843554185668,1136.920344751532,1123.1908952413291,1145.9941767711482,322.2530785167862,-119.05083735603787,11.515655016949967,-196.33886056266377,157.98505648798107
47.195,0.7639408182670495,-0.2315094258785417,0.2521607104149397,0.0449850079728741,0.0391033113220115,0.0006568707832638,0.0044926803631275,-0.0063555405213275,0.0280973079700992,0.9995747482610076,0.0195134650508457,-8.937613749882e-05,9.821576739975034,-0.0168282470829656,0.0133768762654868,-0.0016956854626829,4.265901100590401,-0.7098948249139339,2.098632863832305,1140.0331260978835,1136.6113475090362,1123.3988297623368,1145.5033060078863,368.90819561905926,-97.85502119707219,131.1565546571102,-190.2710584737545,157.9868410540201
47.1975,0.50524780527327,-0.1096494442309709,0.0360943183413241,0.0450120448012373,0.037940609862577,0.000609355097903,0.0045399571055573,-0.0063212037908524,0.0281342099880958,0.999573724362102,0.0168347334506293,-0.0005066774639194,9.820663688448912,-0.0170525478209301,0.0135266931936896,-0.0016716878786649,4.265859847998392,-0.7098605560924901,2.0986311946009986,1141.0288963966605,1136.431069645547,1123.846678014614,1145.0428214787803,409.28629200672714,-24.287330556250108,193.04315369844645,-166.7550750175962,157.98867067438823
47.2,0.27723257385561,0.0073171268304508,-0.1617513827792654,0.0449423435441769,0.0378179386998019,0.0001451755526343,0.0045858735645097,-0.0062881704580805,0.0281687595083762,0.999572754682108,0.0145128936233691,-0.0010883023220643,9.81967157676917,-0.0172910804226988,0.0136725547339617,-0.0016511834964628,4.265817114072163,-0.7098261613322954,2.0986286890128705,1142.0795575579184,1136.4899108562547,1124.3640455308296,1144.669530632798,415.6282340411655,100.55518753742348,189.57426039659677,-119.49667851589108,157.99053307141983
47.2025,0.0880434874091552,0.0745496213494596,-0.3205936926673244,0.0449500201665893,0.0392344008088175,-0.000814595804262,0.0046353002385889,-0.0062582246167325,0.0282017390779754,0.999571784664098,0.0126304593535496,-0.001737738132044,9.81860469208964,-0.0175415565389304,0.0138142457761726,-0.0016334827779114,4.265773192835366,-0.7097926421392796,2.098625033622392,1143.1070375668671,1136.9338455832344,1124.7945493165976,1144.4453380862003,423.8101125104766,287.2771536099092,132.36358149445766,-57.93556179429101,157.992429124306
47.205,-0.1048793614081513,0.0556738890880977,-0.4510289235546826,0.0449067424644559,0.042006506824166,-0.0025298186180517,0.0046870339616336,-0.0062312510585202,0.0282318004197776,0.999570859339432,0.0112220258846369,-0.002474546034685,9.817468336184,-0.0178014436429258,0.0139518165237337,-0.0016176154552468,4.265728364523488,-0.7097601001095126,2.0986197416403383,1144.1986081204689,1137.9262966243032,1125.0258634383013,1144.3798528238267,362.5756467730717,426.4550010849781,20.117215018161623,11.973136470663363,157.9947352960432
47.2075,-0.2480142595734592,-0.0493007491918596,-0.5046720676931967,0.04457180325158,0.0440189210117943,-0.0043126929887167,0.0047378511005311,-0.006205408324631,0.0282572152888879,0.9995700553862416,0.0102791239183954,-0.0033547786407937,9.816267672547236,-0.0180679964266265,0.0140854513633942,-0.0016026489732026,4.265682857771641,-0.7097281500925597,2.0986128846730807,1144.9199158007336,1139.0661205886604,1124.8951353916884,1144.5052037685539,239.34675445294977,489.8724956606424,-124.98776842160594,85.69188806423136,157.99667671714485
47.21,-0.3850826429323251,-0.2197666386158786,-0.5048382911264157,0.0438508874271824,0.0445825892183024,-0.0060162770161966,0.0047856288275969,-0.0061747051624623,0.0282757854910679,0.9995694835974026,0.0097035222285666,-0.0044082678985598,9.815007243813252,-0.0183382926883166,0.0142152868079265,-0.0015881046291682,4.265636360629278,-0.7096965568174142,2.098605291972877,1145.3953418927342,1140.3756591026076,1124.400924596193,1144.8083122641483,152.569474147324,572.8960036859215,-287.63758866538194,163.87430693695376,157.99863082568683
47.2125,-0.5553050457643502,-0.4384053553531738,-0.4592427868083243,0.0429854406127089,0.0432442551593122,-0.0072836610054547,0.0048294921160078,-0.0061343787047197,0.0282856199759294,0.9995692330008592,0.0094124399648466,-0.005638523662006,9.813690911208644,-0.0186092686267869,0.0143413114849954,-0.001573937372457,4.265588509082636,-0.7096656324676613,2.098598352021123,1145.6827631714696,1141.9306006070872,1123.4569474483628,1145.324575303238,66.79101399719224,539.6970166156701,-382.36499965895285,201.10089004482404,158.00098149041943
47.215,-0.7080562830805595,-0.5834502830942484,-0.397501264127718,0.0422787798056236,0.0407328464583075,-0.0077086036974237,0.004870578341969,-0.0060787030950776,0.0282867228299821,0.999569334113696,0.0092959315596918,-0.0070062331631429,9.812322306303614,-0.0188777528099648,0.0144633033863192,-0.0015606457996067,4.265538585712183,-0.7096352058927121,2.098593223377512,1145.7292969627204,1143.0741441856871,1122.4890995978972,1145.8138167143727,-3.8100011662189512,402.884033150552,-389.18033784610174,188.17825815316988,158.00293894104755
47.2175,-0.8696391731278925,-0.645574147684973,-0.3224058537418604,0.0408965015117092,0.0374561841285599,-0.0081711619576632,0.0049124255308372,-0.0060123273212852,0.0282795413865916,0.9995697262647676,0.0094392262573904,-0.0084277793664753,9.810904423185455,-0.0191406970030188,0.0145806757213783,-0.0015486859626854,4.265486694317703,-0.7096042319582923,2.098588799082632,1145.6637131656385,1143.9450207728412,1121.511045759131,1146.2654665940042,-31.708355108986968,308.6055255024427,-390.64344005868463,169.67855097697765,158.004887923536
47.22,-1.057543275000096,-0.6054694365013708,-0.2196672001965871,0.0378958632502971,0.0338412634869657,-0.0090396680826476,0.0049557454166189,-0.0059428588668109,0.0282668021907958,0.9995702799947074,0.0099748006202963,-0.0098733768779444,9.809441977790787,-0.0193952781311425,0.0146925462055662,-0.0015384287872848,4.265434151845921,-0.7095720148244244,2.0985839240791866,1145.5707551871756,1144.617171813198,1120.5358823976055,1146.662209469257,-23.05336868706675,184.54855353197323,-300.95747342568814,112.5542994038248,158.00720936255124
47.2225,-1.195264573003542,-0.4860783625991058,-0.1234310243988044,0.0345717366995,0.0316855541478349,-0.0099448332301363,0.0049977240131222,-0.005872513561851,0.0282529998800217,0.9995708661459248,0.0109186227671086,-0.0113760371620495,9.807942490853236,-0.0196389701413314,0.0147978142264958,-0.0015304314925504,4.26538184256648,-0.7095385318237418,2.09857890393328,1145.548446322203,1144.8677635405015,1120.006258392002,1146.8282380910236,9.795766204565089,42.73800244316222,-140.7109740425502,32.50979637653628,158.00912428937994
47.225,-1.3041385005398418,-0.3084264531282194,-0.0207271582430462,0.0310374776822174,0.0305951251405326,-0.0107408768698088,0.0050359913895251,-0.0057986350997877,0.0282423541804883,0.999571391727224,0.012183035335595,-0.0129541225403149,9.806415474933429,-0.0198695489316558,0.0148952158290871,-0.001525568733538,4.265329595570496,-0.7095037717585673,2.098574505645342,1145.6197340181984,1144.830861825414,1119.8323275273924,1146.8247584511398,41.74723549239548,-55.97108680936432,-15.028772779910495,-21.03825389396756,158.01101312404472
47.2275,-1.3897484996166252,-0.1123457165882609,0.0769991094325778,0.0276175721192448,0.0303159831989415,-0.0108008666909278,0.0050699379065438,-0.0057173695855295,0.0282369491952002,0.9995718231442564,0.0136502728847777,-0.0145878829709363,9.804872040197768,-0.0200850563492522,0.0149833942272073,-0.0015248975316242,4.265276336105425,-0.7094682817390361,2.0985712724984875,1145.7571824996649,1144.5879081064547,1119.9311145281026,1146.723046821554,60.262848215203206,-141.39914499480298,85.26983232300337,-47.0737187938753,158.01287633334357
47.23,-1.453889991335508,0.0704554394417452,0.1508693619641481,0.0243640994614531,0.0308386949654941,-0.0096891804183149,0.0050944468702497,-0.005627805214885,0.0282339170021191,0.9995722721197062,0.0152509005813928,-0.0163450725755042,9.803326201551604,-0.0202838731576701,0.0150609226408441,-0.0015291903786171,4.265221787838635,-0.7094322826988365,2.0985685029081798,1145.9210482592744,1144.1238661004395,1120.2586766890076,1146.5893898571703,59.582802687251835,-253.18979927565812,160.03531162433316,-41.564736020360776,158.0147041345898
47.2325,-1.5148074783756795,0.2368710814596213,0.1969573826754084,0.0206451229671886,0.0320940626442957,-0.0078104418438872,0.0051056379441506,-0.0055281852663274,0.0282293455919981,0.9995728790078552,0.0168946626336248,-0.0182667058301125,9.801793596739776,-0.0204646662398821,0.0151265182802562,-0.0015391407657629,4.265166148873137,-0.709395484583271,2.09856565546404,1146.0550965131013,1143.321959110076,1120.7312910862247,1146.515223141452,25.915467154960343,-335.9592806119835,158.47464680355955,2.982404526440389,158.01685073764236
47.235,-1.5545376206492536,0.3126551019761814,0.2029378200930418,0.0176886883672354,0.0334511219486364,-0.0066895864642896,0.0051070324205546,-0.0054198468280681,0.0282219487770168,0.999573654714139,0.0185530055729708,-0.0202492578011846,9.800289458777351,-0.0206263847317689,0.0151792589297423,-0.001555343639489,4.265109668853225,-0.7093579150595934,2.098562576694702,1146.0506255950493,1142.444069697381,1121.0510499230247,1146.6043018798025,-35.93239104496187,-396.8920309400135,86.84874247342226,80.86240196712835,158.0185960424796
47.2375,-1.5760289006780288,0.3124248322605288,0.193878713184282,0.0148144668782388,0.0351467858074325,-0.0065899733328328,0.0051034141610992,-0.0053061687839211,0.0282130085076704,0.9995745227869656,0.0202364517325445,-0.0221655900745738,9.798829945146766,-0.0207683352495825,0.0152187003788626,-0.0015781724552925,4.265052100853425,-0.709320082049987,2.098559362271285,1145.8754345578764,1141.3374989553747,1121.165534798592,1146.9195351512878,-119.60878918146838,-541.4135845485775,-8.233421268228419,199.0939964822592,158.02029024403657
47.24,-1.556332284582648,0.2294232728482822,0.1899675377109666,0.0114149971875893,0.0373817556737344,-0.0071968290923171,0.0050982726116723,-0.0051949623240647,0.0282084083851657,0.999575261071658,0.0220417555480094,-0.0239176632078017,9.7974320891116,-0.0208902155223427,0.0152450440451579,-0.0016076245636323,4.264993219219744,-0.7092818880036174,2.0985558418716286,1145.4525816491416,1139.737001774637,1121.0098828166836,1147.5997718622143,-187.79338789894408,-631.7733169611818,-98.87246920957192,298.31380204809494,158.02225673211544
