t,ang_acc_x,ang_acc_y,ang_acc_z,a_vel_x,a_vel_y,a_vel_z,quat_x,quat_y,quat_z,quat_w,acc_x,acc_y,acc_z,l_vel_x,l_vel_y,l_vel_z,pos_x,pos_y,pos_z,mot_1,mot_2,mot_3,mot_4,dmot_1,dmot_2,dmot_3,dmot_4,vbat
16.8525,-0.3367119210374175,-1.4012882406275633,0.4199588529323947,-0.0193480564222549,-0.0474833147778302,-0.0048610937189767,0.0068223559915916,-0.0058998907102444,0.036628405007857,0.9992880778960858,0.1079714280094207,0.0071981295302196,10.071368123877129,-0.0042889527682535,-0.0131259277428764,0.1956174254184882,8.495465223346537,1.053125139787598,3.7178548955368873,1153.7570918150032,1164.5444342711762,1142.7097503731331,1152.1424951324987,655.4634379237026,-1394.2175279712092,755.2413157804177,-604.4597341722531,158.95886365112833
16.855,0.0789341048093846,-1.1359600822977907,0.6081184869347231,-0.0209991011631274,-0.0509584511455017,-0.0044089864237177,0.0068097108657515,-0.0059586935073523,0.0366198366859188,0.9992881191734594,0.1113042560248423,0.0060867929132626,10.068778613965936,-0.0043337522185199,-0.0133093125542302,0.1963162005301276,8.495447345327145,1.0530821971411375,3.718347202474239,1155.242731167566,1160.6301518119978,1144.7629216096902,1150.7988599259872,512.8740024463345,-1645.5432330904155,853.9914300521283,-428.3229879186448,158.95965573009252
16.8575,0.5661638187785532,-0.8108478955987166,0.8057598181580286,-0.0209594296237576,-0.053416082014379,-0.0041526646975758,0.0068011766922431,-0.0060249724268496,0.0366210117322044,0.9992877290629466,0.1145321350772,0.0052579454603227,10.065910402435035,-0.0043595934719569,-0.0134909767063933,0.1970043248402351,8.495432191106163,1.053038418384117,3.718844855625076,1156.3214618272364,1156.31671810572,1146.979707523396,1150.0008801929043,386.38331935488577,-1807.40003288242,949.097066229258,-209.94557677458573,158.96042531937633
16.86,1.1452277791697896,-0.3721602241303403,1.0263860077372995,-0.0184595936928163,-0.055383668843861,-0.0029002691766295,0.0068013303583111,-0.0060999606938298,0.0366291361427941,0.999286973332865,0.1176301566950197,0.0048114409178412,10.062766374539587,-0.004369000521544,-0.0136687655910671,0.1976780487524191,8.495419393329389,1.052994087828604,3.7193461255447566,1157.17464776434,1151.5931516475875,1149.5084069408356,1149.7491320421143,249.87627959176703,-1539.3890743543004,861.9406180606242,17.24227993350157,158.96132954940788
16.8625,1.553390143767384,0.0162306602083309,1.1577216652625857,-0.0141399726005537,-0.0563385858417298,-3.196463600131707e-05,0.006811160797683,-0.0061770289927351,0.0366400348200465,0.999286037241736,0.1204188634383303,0.0047787633509652,10.059357014862073,-0.0043676382031284,-0.0138422219736843,0.1983346208663365,8.49540751677443,1.0529498663589152,3.7198494199475456,1157.5708432251947,1148.61977273395,1151.2894106136982,1150.0870915925718,107.85559071499785,-901.0276633594849,606.0653042554433,216.9569793155715,158.96207204138025
16.865,1.8112855377109187,0.4014646207448844,1.1807703239049228,-0.0078382584261737,-0.0561561711158527,0.0047448691713397,0.0068308624503975,-0.0062531109898824,0.0366513223581825,0.9992850229862112,0.1227973465099957,0.0051708880623258,10.055696795228585,-0.0043596100034427,-0.0140116014370828,0.1989726377350282,8.495395526411121,1.0529062830283222,3.7203539325742545,1157.7139257179151,1147.0880133307878,1152.5387334621144,1150.8339169386927,19.41369694773516,-322.27013053991004,408.2046936052296,365.42268670735206,158.96280921907376
16.8675,1.8982755924258288,0.8202065704556605,1.0445410824113055,0.0004368517498625,-0.0541717672500808,0.0107370910572452,0.0068594822318139,-0.0063228972369601,0.0366620805118256,0.999284001332985,0.124627030444336,0.0059755772354972,10.051803745296047,-0.0043496618106913,-0.0141778148540051,0.1995919994511833,8.495382201787969,1.0528637799068448,3.7208592634816746,1157.6679117099336,1147.0084220812507,1153.330434081724,1151.9142050261082,-45.3751570894928,224.6364409320896,178.5828114460756,379.33304957217206,158.96369480683956
16.87,1.7830774803382148,1.1026551578578008,0.7966421177843215,0.0065607183722421,-0.0513570080093148,0.0146656207706786,0.0068946930570348,-0.0063854302637693,0.0366706805431592,0.999283051825148,0.1258645954888103,0.0071480740378912,10.047696705908123,-0.0043405774320081,-0.0143424366099079,0.2001938526853966,8.495367188747032,1.052822656767385,3.721363940773276,1157.487049932468,1148.211195535448,1153.4316475193443,1152.7305821865534,-96.88243127304415,655.0884990200241,-48.46605275525744,258.26510761758664,158.9644386168436
16.8725,1.5052017072670572,1.2863042872550563,0.4458220762288285,0.0110478485909352,-0.0476873514148126,0.0170048142018955,0.0069314440606469,-0.0064447806719838,0.0366788485872267,0.9992821187920023,0.1265746729406577,0.008583050098866,10.043394007928812,-0.0043332118572382,-0.0145079527730252,0.2007803173776188,8.495351638418676,1.0527825604976935,3.721866981473719,1157.1834995535685,1150.28386457635,1153.0881038179475,1153.205530564196,-140.79683552238822,893.728405367115,-182.27669437318568,108.31024114720428,158.9651941545572
16.875,1.13157819814685,1.373947735746201,0.0538884954199957,0.014151844367242,-0.0434463775253465,0.0179315312550959,0.0069635731258987,-0.0065057485464844,0.0366896496124086,0.999281102356156,0.1268446966371959,0.0101499861293136,10.038913156188515,-0.0043282540770798,-0.0146768392753302,0.2013540969277386,8.495336070382432,1.0527423459471124,3.722368030292917,1156.783065754856,1152.6798375622827,1152.5202640474788,1153.272133392289,-184.2687873273884,948.8793722173943,-244.73443821485705,-76.88932892061234,158.96596344532728
16.8775,0.6936118418213068,1.3430102242692359,-0.3252350318176516,0.0159933083182568,-0.0389685537059088,0.0170053068286035,0.0069872796439926,-0.0065693171805311,0.0367063121653003,0.999279906213943,0.126696163152205,0.0117658197833436,10.03427078031028,-0.0043280160790172,-0.0148499820590511,0.2019180458867781,8.495320849551577,1.0527007636950887,3.72286706084736,1156.262155616931,1155.0282614374396,1151.8644316268728,1152.8210839195926,-257.7689920690831,941.9278035886744,-270.1517795439114,-288.67602246174386,158.96675392419016
16.88,0.155200546422202,1.187666619162671,-0.6888443573421213,0.0168372910238636,-0.03438220751649,0.0138803402828636,0.0070010520298687,-0.0066349375123369,0.0367292919454122,0.9992785310572244,0.1261302295246597,0.013391362691974,10.029482183641916,-0.0043354172700798,-0.0150268034727744,0.202474665549092,8.495306253159582,1.0526571096055564,3.7233646712850055,1155.4942207945107,1157.3894765802252,1151.1695051497595,1151.828753279981,-304.29222797321614,760.0573181712354,-222.55339194261856,-396.6566981809472,158.96773259521785
16.8825,-0.2636552152696991,0.9876500460085134,-0.8737468772519297,0.0161139642155143,-0.0316932486869096,0.0100790315740783,0.0070072671566555,-0.00670073897076,0.036750682614842,0.9992772639101016,0.1251325664093119,0.0150628965281653,10.02456149119986,-0.0043536172200054,-0.0152048456810723,0.203025701351396,8.495293438506211,1.0526123606818327,3.723863115046103,1154.7406944770653,1158.828548028295,1150.75166466716,1150.8378004286883,-320.3263032143421,461.5910363027437,-130.64066404015327,-369.7679873274337,158.96857706879538
16.885,-0.6113342380670465,0.7547045238956152,-0.9140929726554033,0.0139456995823331,-0.0301498029099345,0.0061773737475981,0.0070130796355196,-0.0067694120362639,0.0367632894027085,0.9992763000074378,0.1237911111115054,0.0169044020081834,10.019521164378231,-0.004383718612649,-0.0153795456656522,0.2035719726284058,8.495282965141785,1.0525671983210416,3.724363860554252,1153.8925892784384,1159.69743176174,1150.5163018295584,1149.9799133433428,-384.2638984927217,270.68661150602486,-78.18852715792411,-286.3948454178286,158.96945582161496
16.8875,-0.9179597124723364,0.4789751746904859,-0.809028823177984,0.0104634451215674,-0.0292500051108686,0.0024899077517937,0.0070229156405758,-0.0068414107089009,0.0367651748943501,0.9992756749125528,0.1221533214862496,0.0189816040592647,10.014375542844954,-0.0044274782681388,-0.0155471995627508,0.204113100979329,8.495273939638986,1.0525215096224971,3.724867491096536,1152.819374984602,1160.1819810858249,1150.3607220313704,1149.4058262015994,-391.9511503754036,105.0200858687485,-57.214843400845446,-109.513699668445,158.97055431706497
16.89,-1.0759176611958952,0.2740353546213552,-0.6228858173170674,0.0074891741097654,-0.0289998661565273,0.0004731046014482,0.0070384228719767,-0.0069141314166335,0.0367568438464082,0.9992753757382448,0.1202086539403785,0.021301956332976,10.009142149891147,-0.004487283995401,-0.0157050519416947,0.2046476689222269,8.495264622615956,1.0524747857953656,3.7253741718869255,1151.9328335265618,1160.2225321910837,1150.2302276125542,1149.4323448450007,-339.5334051406817,-39.281370283177154,-80.52040521388761,118.01732912279805,158.97150881517754
16.8925,-1.1401798232448477,0.1088292204453078,-0.3799037913508327,0.0046683249261106,-0.0290073011301946,-0.0005634403422288,0.0070599409345501,-0.0069865736525115,0.0367428729872656,0.999275239168518,0.1179817869195385,0.0238410246024501,10.003841625119064,-0.0045641833153296,-0.015850818043122,0.205173546772259,8.495254200475303,1.0524264605165528,3.7258842305345334,1151.1217079588976,1159.985574234409,1149.9581200053008,1149.9959128472135,-304.12951789705085,-133.2092052666477,-149.4150992187157,299.48617135352424,158.97250563120713
16.895,-1.1374792033768777,-0.0202581955305197,-0.124901251649663,0.0019886806906092,-0.029130751516561,-0.0009533169552595,0.007083364848075,-0.0070573185147525,0.0367310119235563,0.9992750202573774,0.1154885910258738,0.026482077754218,9.998499477401165,-0.0046587922144383,-0.0159840844351544,0.2056880642425612,8.495242343776857,1.0523760769537027,3.7263973576893825,1150.4121859370769,1159.5564861647504,1149.4831521164608,1150.929775701768,-255.42020876301277,-216.3329864972614,-247.7670563674148,432.7861934379095,158.97353797388993
16.8975,-1.0677904243387573,-0.1072310321552406,0.1050677034927264,-0.0004530120657669,-0.0293980300894509,-0.0007069523497271,0.0071044700635498,-0.0071221135008447,0.0367283239831061,0.9992745203140816,0.1126898072080476,0.0291055437030292,9.993146273817176,-0.0047722664484325,-0.0161047551658567,0.2061884222773682,8.495228004702762,1.0523234232092535,3.726913377186268,1149.8446069150827,1158.9039093019228,1148.719284723464,1152.1598438144028,-220.68064852455635,-338.1569169961713,-393.4096141663632,563.7077147591965,158.97461262167707
16.9,-0.9217722775383276,-0.1679290332876496,0.305929275555005,-0.0031273475282817,-0.0299869398362781,0.0002728349602359,0.0071208112153512,-0.0071777765371814,0.0367325535914504,0.999273860423127,0.1095690822716684,0.0316253022292598,9.98781665528541,-0.0049046359408104,-0.0162126740061015,0.2066720530056116,8.495211157970386,1.0522691692333543,3.7274316002809673,1149.3087826944543,1157.86570157977,1147.5161040456292,1153.7483142755634,-180.996183479319,-417.54812667181005,-466.63086577500695,565.0777393392433,158.97594906126326
16.9025,-0.7564704166113463,-0.1875677539282632,0.3809834266777747,-0.0051100870800347,-0.0306561542081315,0.0016894063198522,0.0071334870974095,-0.0072227090890095,0.0367381044545895,0.9992732482467755,0.1061436590801593,0.0340243071578315,9.98254859237312,-0.0050550888809039,-0.0163070274245244,0.2071368919709782,8.49519220932641,1.0522144483901554,3.727951318434001,1148.9396259976863,1156.816168668564,1146.3861303945891,1154.9852325110985,-146.72650089479927,-440.0398628715743,-439.35169432106966,434.3020348894294,158.9770993404711
16.905,-0.5540807880451387,-0.1848699532103703,0.3324320102981506,-0.0067881441217996,-0.0312232641997382,0.003724358830896,0.0071464285986329,-0.0072587889120532,0.0367391990606034,0.9992728539064683,0.1025010115492381,0.0363400544692118,9.977382552201943,-0.0052215926707726,-0.0163866942926794,0.2075814898434316,8.495172018825667,1.0521605964429877,3.72847216072436,1148.57515018998,1155.665502265411,1145.3193455740227,1155.9198244500117,-177.76192291056657,-494.2185656860221,-407.4283328199173,300.68650058030084,158.9782834783527
16.9075,-0.2787664526110223,-0.1708271586767954,0.1181433519649351,-0.0085578529038208,-0.0314954614000791,0.0065596635598187,0.0071646142667756,-0.0072892774025051,0.0367338986936685,0.9992726898809712,0.0987554946859334,0.0386318302903749,9.972361255540305,-0.0054020993543156,-0.0164508056251017,0.2080049840199,8.495151780436403,1.052108243117546,3.7289946380213865,1148.050816383134,1154.3450758401343,1144.34898873049,1156.4886650139997,-217.16860198207317,-442.0393189202029,-278.38792254748193,98.6044206487091,158.979737555753
16.91,-0.0341867914851203,-0.1604299926571893,-0.1788628621817565,-0.0096669045144094,-0.0315030179193542,0.0085662376198886,0.0071910620322038,-0.0073174920685869,0.0367230367958268,0.9992726814240936,0.0950194142060468,0.0409232027466295,9.967529300765772,-0.0055951222078673,-0.0164997752951149,0.2084070318684757,8.49513214963701,1.0520572052240675,3.729518592230741,1147.4893071800695,1153.4553056708105,1143.9274059612856,1156.4128465532551,-255.602063136763,-273.9162906801957,-76.54244116889181,-147.396685526489,158.98097200650514
16.9125,0.2021338875105576,-0.1586062604340501,-0.5527081398035428,-0.0094867295981475,-0.0315265106110143,0.008817928112125,0.007221718917386,-0.007345592967628,0.0367084421888925,0.9992727760063908,0.0913748960048326,0.0431025330252647,9.962933043222717,-0.0058001382984901,-0.0165372069700175,0.2087876834413624,8.495113105842538,1.0520072386279242,3.7300432276569055,1146.7728060674494,1152.9754943867329,1143.9662765246455,1155.7516815863669,-309.2116315922955,-102.10950128114048,84.67652435703577,-350.55204074704005,158.9822238895521
16.915,0.4084678457911766,-0.1645268779292928,-0.9350176707734422,-0.0077316845194976,-0.0316059983386533,0.0068798749354477,0.007248875356679,-0.0073719686445376,0.0366940144951958,0.9992728985478486,0.0878243133907879,0.0449942247318269,9.958618794200115,-0.0060184951499086,-0.016568233975268,0.2091474634319217,8.495094376227575,1.051957796246465,3.7305677591140425,1145.9432490221086,1152.944758164405,1144.3507885830709,1154.6600863495203,-346.87693404655494,104.34968511528751,211.4906979992122,-516.0183027248539,158.98348539179062
16.9175,0.5585265171825953,-0.1753732561384873,-1.2536274184802652,-0.0046720486571582,-0.0316896989470078,0.0026392977144137,0.0072681548687292,-0.0073971780445209,0.0366840791456104,0.9992729190267003,0.0844134057238301,0.0464943438791665,9.954629077147873,-0.0062505947032046,-0.01659658502422,0.2094875731981156,8.495076739058023,1.051907934984014,3.731092532469382,1145.038421397217,1153.4972428123092,1145.0237300146412,1153.1715900727431,-391.61045682638337,357.20074614832726,315.2040006726317,-709.103347340898,158.98475234145573
16.92,0.6772449010625722,-0.1822383969558648,-1.4863697593613587,-0.0014887723562057,-0.0320585292141706,-0.0038135094719675,0.0072784167267854,-0.0074224655050522,0.0366814810272863,0.9992727344470054,0.0812010084766826,0.0475700556419931,9.951001346101972,-0.0064962420871848,-0.0166246033490867,0.2098097594667741,8.495059720353254,1.0518568907844754,3.731617868330914,1143.9851967379757,1154.7307618951475,1145.9268085864348,1151.114569612814,-360.43234674987514,509.9196488269277,308.10406600700605,-772.3643125969091,158.98627064128186
16.9225,0.749475745655789,-0.1709614756879491,-1.5263304900366423,-0.0004084884224625,-0.0329156500135006,-0.0095641216759295,0.0072847328539125,-0.0074491297336799,0.0366814220021108,0.999272475327448,0.0782476464263464,0.0483190928316652,9.947766041107037,-0.0067544303205626,-0.0166521803819716,0.2101163468024701,8.495042972517398,1.0518052704916547,3.7321447070581937,1143.236259663468,1156.046841056443,1146.564250344676,1149.3097685097591,-249.71281128755857,524.8136999363076,188.2941352093814,-713.7854003338417,158.98752782375598
16.925,0.8276380661006719,-0.1305318627222121,-1.4072694128572223,-0.0009624046547667,-0.0342824047715341,-0.0149621428453055,0.0072969903034692,-0.007481348973096,0.0366775015988937,0.9992722753884316,0.0756704902165667,0.0489399311710037,9.94494542745438,-0.0070222295284357,-0.016677389623788,0.2104102626345258,8.495025913975164,1.0517540115259087,3.7326730875772065,1142.736632681538,1157.3548303948285,1146.8682792624816,1147.5456426111455,-143.105660738383,501.8963980830155,22.330759172825708,-746.2927596487409,158.98876869894255
16.9275,0.934956140126114,-0.0502495332424363,-1.1243877026407405,-0.001039397210389,-0.0356231934104929,-0.0198193099615218,0.0073215884394585,-0.0075224089574778,0.0366660088796226,0.999272202217084,0.0735620259905677,0.0495696165546729,9.942554843944588,-0.0072965551026707,-0.0166998412477907,0.2106948108430528,8.495007649938632,1.051703821299511,3.7332021689610864,1142.5207313597757,1158.5563230468597,1146.6759041405403,1145.5783047115135,-10.67007628580753,340.3092236490688,-172.87558672663891,-690.0256203019135,158.99022948219772
16.93,1.0073846136876803,0.0280696452271829,-0.8245385596077396,0.0014317123225929,-0.03567294105871,-0.0218822869798216,0.0073544595183675,-0.0075680920491666,0.0366456240283506,0.999272362911233,0.0718531582990515,0.0501498212277098,9.940604091981257,-0.0075770686783717,-0.0167234103347911,0.2109733850523672,8.494986535130952,1.051654635661248,3.7337308381776264,1142.683282300109,1159.0563765130735,1146.0039013288483,1144.0955145096364,127.41861347037944,75.87641653582669,-365.51069924496903,-562.6087232400761,158.99141660319887
16.9325,1.011053266300017,0.0924543522673576,-0.5265618834772569,0.0062043089823299,-0.0346275740672069,-0.0220990774408221,0.0073885869015474,-0.0076158848806977,0.0366184923412669,0.99927274635813,0.0705015072462692,0.0505692550641924,9.939094611291338,-0.0078624243735118,-0.0167530223742327,0.2112497447764917,8.494961797909884,1.0516060355495092,3.734258048249627,1143.1578244271275,1158.9357051295387,1144.8483506443158,1142.765261095314,225.23386864836476,-145.13626746832574,-521.4589372509308,-512.4167344844064,158.9925649342341
16.935,0.9337594486120756,0.1309444699960487,-0.2713903024155445,0.0109679052548989,-0.0333675794503204,-0.0214257830578625,0.0074173774460801,-0.0076617408150015,0.0365893778707486,0.999273256687262,0.0694293262560964,0.0507321779112119,9.93801912529562,-0.0081518998629772,-0.0167930313064733,0.2115278435958331,8.494934038875764,1.0515571112859323,3.7347833497045695,1143.8094516433507,1158.330695175732,1143.3966066425944,1141.533430837215,276.7323390075131,-331.1732771129959,-614.8150600828872,-473.61300443695075,158.9936759027837
16.9375,0.7656618572378389,0.1350458776620994,-0.0947041027087479,0.0141871428197475,-0.0324364579889337,-0.0203707146179296,0.0074343664201866,-0.0077000190969529,0.0365621614905297,0.9992738436580274,0.0685219521686656,0.0505512306682539,9.937362245153633,-0.0084456828571545,-0.0168473394631666,0.2118114610134031,8.494904159475498,1.0515070981236967,3.7353066729333486,1144.5414861221648,1157.279838743974,1141.774275343902,1140.3971960731296,307.0793410067629,-517.7379234646729,-697.359365582777,-472.9102428919159,158.99473596929155
16.94,0.501888954107852,0.1114651935489345,0.0224041161642389,0.015854208048145,-0.0319263814530503,-0.0193477525342111,0.0074396069177857,-0.0077271252873659,0.0365326397299751,0.9992746870176332,0.0677046037951144,0.0500698434921336,9.937099800775245,-0.0087432487209359,-0.0169169446826587,0.2121040891009842,8.494873539049424,1.0514566367373,3.7358290702142622,1145.3448483483853,1155.7420055584073,1139.9098098146787,1139.1688796227543,263.9431383141143,-576.9878380746161,-630.193649925457,-414.6005305049045,158.99594219832176
16.9425,0.2692370734060098,0.0815141677028892,0.0549038892137269,0.015808710741549,-0.0318878035586041,-0.0190481048837102,0.0074394312044332,-0.0077455335883886,0.0364950856585938,0.9992759283550628,0.0670232086072451,0.0494536045517936,9.937200086744687,-0.0090420066575363,-0.0170000299579307,0.2124086827204536,8.494842741900598,1.0514066544515352,3.7363513880377224,1145.861201813735,1154.3948995536016,1138.623307094275,1138.3241934206055,165.97443117360518,-524.9245315014513,-423.2779519182191,-277.35559328158223,158.9968877975323
16.945,0.0599643748891637,0.0563023333117761,0.0460493034245632,0.0152347368355258,-0.0319236899333805,-0.0192619294087521,0.0074400445515808,-0.0077598071461839,0.0364484416919032,0.9992775239400514,0.0665619228944507,0.0488649857103432,9.937627417476673,-0.0093392728677316,-0.0170944409141951,0.2127271874436824,8.494811705405798,1.0513576064776664,3.73687360970715,1146.1747205042532,1153.1173829009003,1137.793420055088,1137.7821016563466,99.7754750501316,-532.239441766979,-243.31481113741856,-144.00514454993663,158.99776638106732
16.9475,-0.1419723251891891,0.0452790928027725,0.0165997050022399,0.014631491041117,-0.0319776913644035,-0.0197773709211832,0.0074404521185117,-0.0077717093837312,0.0363952178328635,0.9992793737682616,0.0663416163598636,0.048324864957929,9.93834599802028,-0.0096343289589224,-0.0172005015013473,0.2130600753174067,8.494780591709755,1.051309290923358,3.737396428495515,1146.360079188986,1151.733702344765,1137.4067330385876,1137.6041676978555,53.53546735301435,-481.4768486377992,-48.12816219351637,20.590368839388702,158.99873791648093
16.95,-0.2625372871796634,0.0596200570178916,-0.0085504571212144,0.0140822007320247,-0.0320829379813466,-0.0202416071135586,0.007439421277076,-0.0077845926660843,0.0363403845090556,0.999281278787824,0.066412751764545,0.0478459986338154,9.939320063392286,-0.009926307992311,-0.0173179976538986,0.2134065774079774,8.494749418416342,1.0512609808781213,3.7379204238184984,1146.442397841018,1150.709998657712,1137.5527792441203,1137.8850535005436,45.53596935439597,-385.6368782876274,125.8499600993014,190.80121234496048,158.99947534556318
16.9525,-0.3294861904911386,0.1040719176669603,-0.0247778744698694,0.0132542929885294,-0.032094220588686,-0.0205623511042093,0.0074373799710923,-0.0078007088988232,0.0362912934736727,0.999282951338958,0.066803933921203,0.0474711490628209,9.940515538824883,-0.01021518582603,-0.0174452329944662,0.2137647234199432,8.49471904439894,1.0512115237743005,3.7384471832499857,1146.587759035758,1149.8055179533276,1138.035982839084,1138.55817375958,108.5187473329724,-372.1624584509215,241.16917745460736,352.34637692042435,159.00013488089735
16.955,-0.3451939441713052,0.1942018400412476,-0.0309442195628993,0.0118304282947796,-0.0319055045718477,-0.0206569173247874,0.0074334329669523,-0.0078220967029754,0.0362539916386579,0.999284164323273,0.0675375529772747,0.0472114666063189,9.941902172705273,-0.0105011420257357,-0.0175804451616659,0.2141314355244433,8.494689555998516,1.0511598183362887,3.7389781909193434,1146.984991577683,1148.8491863654565,1138.758625131394,1139.6467853851464,196.72096202302149,-327.1776306681855,252.566775771543,412.201509669185,159.00083392050277
16.9575,-0.3058769016384279,0.2986332251167051,-0.0248635376239453,0.0103957986079348,-0.0317231198524845,-0.0205808921430835,0.0074303798282833,-0.0078481055035726,0.0362279143038776,0.9992849233005496,0.0685840648968174,0.0471463865103252,9.943453736448115,-0.0107851112011729,-0.0177199609358492,0.2145030634589289,8.494660847519299,1.0511058582658652,3.739514781550721,1147.5713638458728,1148.1696297999868,1139.2988167179415,1140.6191813079256,289.63766824423453,-241.69980157730868,170.81784011751313,362.8498633647536,159.0013384578837
16.96,-0.2224794491132865,0.4269767169512189,-0.0058007347575022,0.0089843641541908,-0.0315334519195281,-0.0204909489530352,0.0074367971776789,-0.0078801758286333,0.0362083839477717,0.9992853233447634,0.069958660106774,0.0474609767528275,9.945147698555166,-0.0110665783143114,-0.0178575907862599,0.2148761703443529,8.49463173500107,1.0510503178911357,3.7400571711822166,1148.4331799189042,1147.64068735757,1139.6127143319816,1141.46103470197,380.3150406785182,-180.7348594200353,76.83195643450455,294.01337154246386,159.00176170514683
16.9625,-0.1191834799913678,0.5636349003344796,0.026755212547913,0.0078418064831667,-0.0311743945175849,-0.0204443244742231,0.0074570010977497,-0.007920995609615,0.0361905415381067,0.999285488627586,0.0716973883041753,0.0482468780766607,9.946967222547569,-0.0113441087530533,-0.0179890402042406,0.2152478696014342,8.494601572857395,1.0509943133103612,3.7406037238732246,1149.472939049265,1147.2659555028868,1139.682976500114,1142.0892481656376,435.5905198732629,-104.26574888540272,-27.73477078117691,192.20476118361327,159.00211792817007
16.965,-0.0234918603438923,0.6849734513508358,0.0800432837538057,0.0073718291908546,-0.030226073809177,-0.0204538744226832,0.0074856749917078,-0.0079702779828153,0.0361722013514168,0.9992855401273426,0.0737692661416069,0.0493984408141317,9.948901932779345,-0.0116173447219986,-0.0181141904426665,0.2156161310278815,8.494570153360172,1.0509381821974524,3.7411519046438046,1150.61113251827,1147.1193586131433,1139.4740404780755,1142.4220585078879,487.10947433267035,0.6590050949395201,-138.11330571240643,91.56938269575085,159.00239456443848
16.9675,0.0321948783510365,0.7670949025168851,0.1723955115046197,0.0079174869657445,-0.0278499703653799,-0.0204629264728552,0.0075156503429583,-0.0080292551821993,0.0361548476249688,0.9992854680645042,0.0761709771851531,0.0507641749241087,9.950944793551555,-0.0118850508681305,-0.0182338032018407,0.2159804479950931,8.4945374873959,1.0508815208066016,3.7416990184491143,1151.9084864209296,1147.2692505283617,1138.9924099715515,1142.5470950791166,437.98145506366,118.13637769148576,-197.6505067157116,20.80631415060866,159.00263703310736
16.97,-0.0065702290668071,0.746884237083213,0.2731123373182303,0.0092996917521718,-0.0248400473497463,-0.0203669958436591,0.007540225317519,-0.0080940395680043,0.0361410127835912,0.9992852632527705,0.0787960520690672,0.0521977470585453,9.953090911059206,-0.0121479184032202,-0.0183484808597226,0.2163416935774407,8.494503768380524,1.0508237063974373,3.742243703041523,1152.801039793588,1147.7100405016004,1138.4857879444971,1142.526090078641,291.12578113923854,248.96314952193683,-206.38439293019945,-7.080473240741002,159.00276684473317
16.9725,-0.1614185706762257,0.6041225689031638,0.3924368721618716,0.0112416930653652,-0.0214185137395973,-0.0199816889535513,0.0075524490958929,-0.0081567338078226,0.0361345343389439,0.9992849038872176,0.0814561971663652,0.0535435652533024,9.955336393189,-0.0124082071518372,-0.0184590531117411,0.2167017265271078,8.494468662298578,1.0507641548768163,3.74278545301216,1153.3641153266256,1148.5140662759711,1137.9604880069007,1142.5116927129127,148.86104060543974,437.308370406985,-222.08767675335824,20.75649517086124,159.00282487785398
16.975,-0.4763264284253916,0.2876267638086988,0.5411794799046415,0.0130796683091312,-0.0178362524851593,-0.0189215081993176,0.0075522501977905,-0.0082129489367647,0.0361353164791229,0.9992844282577906,0.0840355302463092,0.0547738249067909,9.957674897464772,-0.0126662703087235,-0.0185639092439732,0.2170633114086969,8.494432621694047,1.0507030835745437,3.743325348877269,1153.5453449966155,1149.8965823536366,1137.37534956073,1142.6298725544953,-26.495416395760728,568.3545658775296,-201.59857250163813,77.94117935474519,159.00281577153055
16.9775,-0.8110584058874446,-0.0732976368721063,0.6534641369467423,0.0131021289605238,-0.0161107265909871,-0.0173637027892442,0.0075429595790409,-0.008260848898719,0.0361418920325716,0.9992838786956668,0.0864694743297954,0.0559214463680258,9.960097582391382,-0.0129212066239433,-0.01866058852556,0.2174294886022769,8.494394979760381,1.0506412387028998,3.743864081486652,1153.2316382446468,1151.355839105358,1136.9524951443927,1142.9013986096863,-225.9772113370213,626.6843033845245,-150.98618896498283,151.10388645087647,159.00274599100973
16.98,-1.1468431533823475,-0.4788315806439775,0.7335106936828365,0.0104350898068013,-0.0167988434846075,-0.0150477348753733,0.0075239847405339,-0.0082981302925462,0.0361510882131073,0.9992833929853722,0.0886797583308519,0.056937726161285,9.962594709779644,-0.0131723831294271,-0.0187490404968566,0.21780285478389,8.494355298910355,1.0505795311357673,3.7444025524220494,1152.4154589399307,1153.0300038705586,1136.6204186159052,1143.3853919867495,-403.7842438696524,681.3197469970116,-113.04176864899672,228.56880638120984,159.00261615028163
16.9825,-1.419130250334591,-0.869270369146184,0.7764224238779128,0.005513184135568,-0.019498138246023,-0.0123303432214336,0.0074968107279693,-0.0083276848873888,0.0361598795857066,0.9992830445480528,0.0906922908320539,0.0578091299080597,9.965153618273408,-0.0134171188982703,-0.01882905683464,0.2181856842687148,8.494313805803447,1.050518581712498,3.7449413760111874,1151.2127170252975,1154.762437840345,1136.3872863011475,1144.0442426415932,-552.0086612490293,669.4148810821356,-59.83134063200222,299.97925200588327,159.00244015910073
16.985,-1.5535858931603987,-1.1869305780002932,0.773768664042849,-0.0007991757138598,-0.0234835755289333,-0.0098853988173144,0.0074631439750785,-0.0083552294390608,0.0361681041784039,0.9992827787094272,0.0925898427161969,0.0585234773378036,9.96775972041974,-0.0136520238345099,-0.0189008402082221,0.2185796608429033,8.49427083327587,1.0504585721147075,3.7454803421090186,1149.655415633686,1156.3770782759686,1136.3212619127453,1144.8852882467786,-718.5354195436568,629.100941951208,27.161770327398646,398.921883993796,159.00221330247592
16.9875,-1.523038751619372,-1.4398505600048228,0.7312023968857697,-0.0079734460322965,-0.028587420615244,-0.0079566758255524,0.0074259512020703,-0.0083817025852514,0.036174177048832,0.9992826225136496,0.0943620199280801,0.0590971631317273,9.970397845919065,-0.0138762655830093,-0.0189643876836267,0.2189856134276077,8.494226827890449,1.0503995732218672,3.746020021204956,1147.62003992758,1157.9079425501004,1136.5230951527844,1146.0388520615616,-728.915679048705,455.70820723445985,135.13527770785367,433.6803710746663,159.0018889174294
16.99,-1.3495294597931171,-1.529815771478625,0.6752659329646094,-0.0126888387484407,-0.0328536711477719,-0.0068158539695696,0.0073899532721163,-0.0084086664747822,0.0361766388182297,0.999282580781549,0.0960144689040624,0.0595823026984536,9.973052295790266,-0.0140893662607809,-0.0190191185810075,0.2194035966092502,8.494181914423251,1.0503415590601335,3.746561246397536,1146.0108372384407,1158.655619312142,1136.996938301285,1147.053690102153,-571.4665407241,154.78985380926483,266.16077645758946,397.15686258276656,159.00158031783243
16.9925,-1.06624222708779,-1.4930778042435673,0.6064279858080036,-0.0157654796560878,-0.0370666642980337,-0.0054353715158921,0.0073575552778308,-0.0084400752660913,0.0361775805202798,0.9992825273443224,0.0976027471981129,0.0599853601583191,9.975708404201905,-0.0142906674234187,-0.0190653897067809,0.2198328045176222,8.494137213526894,1.0502840417712036,3.747105009474972,1144.76270722396,1158.6818918191464,1137.853899035072,1148.0246363744752,-417.14486991367374,-172.6601976162672,468.2842621570693,390.20640054007833,159.0012385709991
16.995,-0.6658739799945306,-1.315016175840433,0.5113700029837173,-0.0176520889509967,-0.0417699288701197,-0.0035478928379677,0.0073310326518964,-0.0084777331137501,0.0361775380500557,0.9992824118659533,0.0991440312718375,0.060314519652573,9.978353365563683,-0.0144810108003708,-0.0191034966428835,0.2202716891014873,8.494094008672995,1.0502267548209199,3.747652248837817,1143.9251128888727,1157.7923183240607,1139.3383596120696,1149.004722104853,-177.41782608308205,-473.1902093757103,609.8185297213907,309.16830661268943,159.00079829668948
16.9975,-0.3282375551172251,-1.0721113902501296,0.4242178794830714,-0.0178367374656581,-0.0450133424793477,-0.0021148103533659,0.0073088782709743,-0.0085177248108525,0.0361748224508452,0.9992823392045916,0.1005441203762831,0.0605099785344298,9.980978199606414,-0.0146641444115411,-0.0191351839681111,0.2207179997798466,8.494051765804729,1.0501693815573647,3.748203063192408,1143.8756180935447,1156.3159407722685,1140.9029916836785,1149.5704779075384,117.89847665434152,-711.6660677659689,665.0386405229215,157.36306854531395,159.00041252973563
17.0,-0.0284266067828535,-0.7589789331279425,0.3363386456357092,-0.0169859372076948,-0.0472098629907002,-0.0011468675871949,0.0072883377488794,-0.0085604139515448,0.0361670937643314,0.9992824097929432,0.1017995533564182,0.0604877560698786,9.983576032565043,-0.0148421070040007,-0.0191626311712098,0.2211694996721355,8.49400916094522,1.0501117831974436,3.748755946062108,1144.5146052721443,1154.2339879852318,1142.6635528146835,1149.7915374475795,358.3072927406633,-894.5420126618926,705.3630449604982,27.770517405119225,159.00001506262075
17.0025,0.223067891379789,-0.4110240819013855,0.2559884322254517,-0.0157720121949191,-0.04864121513109,-0.000604626865232,0.0072688579131521,-0.0086109737537482,0.0361551427455614,0.9992825531373548,0.1030116919313684,0.0602085980862237,9.986141043990685,-0.0150149535117508,-0.0191868240014262,0.221624375370969,8.493964895078843,1.0500538196865583,3.749309750600872,1145.6671545572488,1151.8432307089568,1144.4298069084828,1149.709330494564,557.7389516835156,-973.3613742516015,665.7467194852376,-95.99068055224144,158.9996140834094
17.005,0.4129074980827345,-0.0496160092466304,0.1937510823341512,-0.0146487782770375,-0.0491904170687648,-0.0004719077320166,0.0072513637697232,-0.0086713052825415,0.0361399991325461,0.9992827074648054,0.1042249084987347,0.0596697312922845,9.988669410287267,-0.0151842725243763,-0.0192078578865443,0.2220810696429865,8.493918958346644,1.049995308557464,3.7498649685688985,1147.303300030561,1149.3671811139748,1145.9922864121093,1149.3115840448183,784.7616352506717,-1035.0702398940723,593.4503214782396,-219.47398683014217,158.99921672062862
17.0075,0.5772437916906152,0.3625797604421865,0.1457761382890688,-0.0138513978430267,-0.0486045697493987,-0.0005475010370697,0.007235968853108,-0.0087399796912773,0.0361235819213031,0.9992828142132064,0.1054236858064138,0.0588596250725571,9.991159265292163,-0.0153534438288503,-0.0192259723645302,0.2225382131540996,8.49387253006183,1.0499360140471945,3.750421894756073,1149.5909627335016,1146.6678795094874,1147.3970585158731,1148.6119605604135,853.2254526255382,-899.3672732753967,415.26472783281537,-267.65943034774807,158.99875453649247
17.01,0.6655303010819675,0.6617012503429783,0.1261360355132989,-0.0134778670668927,-0.0469793305205549,-0.0005746327902965,0.0072215074716891,-0.0088142117098098,0.0361063718955612,0.9992828889229082,0.1065709926033922,0.057747590731696,9.993609680406472,-0.015526753734432,-0.0192419606061682,0.2229947261616745,8.493827667607398,1.0498756849130209,3.750980816212517,1151.5694272936912,1144.8703447475955,1148.0686100512744,1147.9732868930787,757.3299025496596,-590.1944272100801,159.2736295058647,-239.4470153596125,158.99838913401342
17.0125,0.694395187022224,0.887824783925097,0.1184594471238162,-0.0125750380826266,-0.0442612091721466,-0.0002529743833349,0.0072086396350779,-0.0088902995771288,0.0360872536169872,0.9992829999892556,0.1076185035939534,0.0563459704590094,9.996018833606383,-0.0157089855246181,-0.0192559415191557,0.2234500618671047,8.493785869037014,1.0498143547208503,3.7515418272802465,1153.377612246249,1143.7169073734376,1148.1934266634023,1147.4147254836157,706.6864249862689,-344.039940086009,-55.86740738450519,-206.88040468939585,158.99805281350416
17.015,0.6306956952001027,1.0570188134290464,0.1091281556991307,-0.010107787686765,-0.040358127334927,0.0004785701409105,0.0071949498439537,-0.0089631351973558,0.0360677450057481,0.9992831548587362,0.1084924653311293,0.054613221195418,9.998384121010739,-0.0159054857046775,-0.0192695608957913,0.2239041283284419,8.493747429325238,1.049751913344125,3.752104768201608,1155.1028594186218,1143.1501450471656,1147.789273014352,1146.938884869632,535.7062406945248,-75.45696203042786,-220.57820468601304,-135.75633742559475,158.99769224005567
17.0175,0.472062956127169,1.1124012447514884,0.093797958289867,-0.0072617758525167,-0.0372251644937525,0.0009831585059386,0.0071764286032592,-0.0090301184648439,0.036049047846067,0.9992833620008048,0.109171090002118,0.0524811618140806,10.000700017389345,-0.016119726266367,-0.0192856914408262,0.2243575810854282,8.493711031557961,1.049688800525113,3.7526687545850015,1156.056143449723,1143.3396225632853,1147.090535639972,1146.7359437964872,276.8415831143198,196.87377013914835,-329.37936875962083,-42.000412146407314,158.99743408239442
17.02,0.1922920015450858,1.0906172081269845,0.0669199890885664,-0.0046799001504956,-0.0345357788536912,0.0012400993905491,0.0071523500725993,-0.009091648147676,0.0360327347758231,0.9992835663194618,0.1096960476540348,0.0499526891302036,10.002955803310185,-0.0163525461684919,-0.0193063842744228,0.2248120772797615,8.49367455904589,1.049625690472147,3.7532329591596305,1156.4870673341932,1144.134513897861,1146.142376170554,1146.7288828089,99.61407300063165,400.56895365536326,-404.835102008236,23.59062945416113,158.99722713982612
17.0225,-0.1759883058752504,1.0176380065706203,0.029904288703972,-0.0031239762350142,-0.0321610115796483,0.0014464929745319,0.0071272935076352,-0.0091499290990578,0.0360178661180921,0.9992837484165747,0.1101477460641972,0.0471435399798817,10.005134566892693,-0.0166022785813289,-0.0193320846103236,0.2252702461252598,8.493636210616609,1.049563546193836,3.7537966632082633,1156.554213814726,1145.3424673315617,1145.0663601299311,1146.853896943758,-32.460162308559205,556.5001994506217,-448.0467050210773,69.13188544882826,158.99706778240673
17.025,-0.6115620355450309,0.8976442189199453,-0.0187064844984948,-0.0035069707283615,-0.0299753372059642,0.0016757917510391,0.0071054995816894,-0.0092096096214149,0.0360035031321745,0.9992838694421836,0.110652124524039,0.0441693372782295,10.007213979232793,-0.0168646850990758,-0.0193639845010852,0.2257352951155909,8.493594832177607,1.049503067399052,3.754359252097588,1156.3247665226504,1146.9170148951139,1143.9021426454492,1147.0745422361442,-134.17216589403264,738.573190892122,-522.59388089325,97.63076731535088,158.99697159402376
17.0275,-1.1419180992381475,0.7157389375289414,-0.0864610688020704,-0.0065812645519075,-0.0276581934523781,0.0018514009309064,0.0070879333257216,-0.0092727339936557,0.035989312266931,0.999283916440102,0.1112756816735176,0.0410903804004642,10.009167691773124,-0.0171355508006917,-0.0194050205959689,0.2262104346662542,8.493549430265887,1.0494445433369304,3.754920188894389,1155.883352985256,1149.0353332860216,1142.4533907254652,1147.3420507803348,-173.96352182463684,784.0275955144616,-535.7626208469798,81.00390742270467,158.99693601777483
17.03,-1.5382408130297975,0.5437911631497306,-0.1443478240968386,-0.0111846895835736,-0.0261829034974424,0.0016840179391333,0.0070730755644183,-0.0093372263069457,0.0359773222946801,0.999283847041176,0.1119941709409638,0.037928054033967,10.010965820922312,-0.0174118535702248,-0.0194591226994235,0.2266984688777856,8.493499722417475,1.049387620789144,3.755479587302275,1155.4549489135268,1150.837152872688,1141.2233295412127,1147.479561773258,-182.56063063562567,691.4924525482104,-492.09481481462495,18.01775389826975,158.9969770775371
17.0325,-1.8414843352054624,0.3635335074732585,-0.1928399023246679,-0.0171940509685637,-0.0254727018093818,0.001145673608352,0.0070553160163206,-0.009400513760906,0.0359694465509958,0.9992836569349408,0.1127626670827877,0.0346290369348743,10.01257558657214,-0.0176905595641847,-0.0195317826950909,0.2272014271757337,8.493446434184353,1.0493317832783415,3.756037990799788,1154.970549832078,1152.492795548762,1139.9929166513928,1147.432139549826,-240.22278698867245,655.6340723092884,-530.2815428763697,-77.44387706981519,158.99709524606516
17.035,-2.080653181138764,0.148026891496409,-0.2278346027540379,-0.0247691769843548,-0.0253049311139311,0.0002810780822843,0.0070296930621898,-0.0094592161953885,0.0359663406672802,0.999283390886922,0.1135123147555467,0.0311589542425204,10.013961800875352,-0.0179691123150451,-0.0196276924406383,0.2277203716428493,8.493390298899941,1.049276736552964,3.756596470816128,1154.2538349785837,1154.115323234234,1138.5719218268316,1147.0923423879087,-296.7934722184355,509.90129882831127,-496.3052948762386,-171.84392746490025,158.99732888815035
17.0375,-2.188733723306068,-0.0292915105459471,-0.2310729591235355,-0.0305146551627814,-0.0252436638639858,-0.0005526498030481,0.0069922029384344,-0.0095076991940119,0.0359710040779327,0.9992830229646495,0.1141219990667037,0.0275079467647341,10.015088881368403,-0.0182466168452199,-0.0197502302775932,0.2282551057285646,8.49333210984375,1.0492217600922988,3.757156369805396,1153.4865824709852,1155.0423020429048,1137.5113901770103,1146.5729199125012,-346.04677104141564,259.96073821002653,-370.5845552387755,-241.8701468601311,158.99760101841545
17.04,-2.236125748079175,-0.2072112754718749,-0.2037708618901049,-0.0347339765838389,-0.0249903958693222,-0.0014651445808805,0.0069418134062541,-0.0095442162004329,0.0359821981206152,0.9992826197953114,0.1145432966136851,0.0237243935102979,10.015921503752132,-0.0185209929660664,-0.0199007724694831,0.228804387004462,8.493272394741814,1.0491666494316152,3.7577185957405135,1152.5236011233767,1155.4151269252839,1136.718999050638,1145.8829916536083,-408.9063599301784,46.40586509754953,-247.141517687036,-282.34063124092404,158.99795331561035
17.0425,-2.257079313085393,-0.3854223795234141,-0.1526383418522567,-0.0377888506645439,-0.0248422232594339,-0.0023624921270329,0.0068804038383448,-0.0095715884248539,0.0359971735319207,0.999282238820362,0.1148156112235406,0.01991101218935,10.01642661123536,-0.0187889154257686,-0.020078545114398,0.2293660469536685,8.493211766386997,1.0491113478423166,3.7582839633846574,1151.4420506713348,1155.2743313683925,1136.2756825885751,1145.1612167562969,-436.97502054838344,-184.34408679285872,-64.29029754341522,-262.44323369155825,158.99837099154456
17.045,-2.2492419724144255,-0.5532805384141272,-0.0811087317767412,-0.0410722020013945,-0.0255093141316737,-0.0029701600938189,0.0068143059835887,-0.0095975296202614,0.0360125183284505,0.9992818838940364,0.1150755277254909,0.0162530864676472,10.016575108628084,-0.019045712421546,-0.020279829243186,0.2299372974680267,8.493151015983113,1.0490557019454367,3.758852992799119,1150.3387260206339,1154.493406491319,1136.3975475629209,1144.57077548515,-449.8613374253168,-484.9239535020898,207.40196913775011,-188.6003280255329,158.99886502518322
17.0475,-2.1673140331513334,-0.7164961170619765,0.0099328193424887,-0.047223034931619,-0.0277519847529068,-0.0029679282623509,0.006749967832472,-0.0096303718151134,0.0360268495760983,0.9992814796864956,0.1154699833318077,0.0129323691912009,10.016344980190276,-0.0192874602823582,-0.0204997213454954,0.2305147179454608,8.493090546807474,1.0489992995865984,3.7594258447933866,1149.1927439842086,1152.8497116008823,1137.312692434264,1144.2182151161694,-362.05675305653057,-707.0490918195943,463.056637490264,-50.90903273954712,158.99954179220995
17.05,-1.9938788403167849,-0.8006208442028505,0.075017963463165,-0.0540790197729041,-0.0305491093302348,-0.0023832606683944,0.0066881064954607,-0.0096739774447012,0.0360406374566191,0.9992809652766352,0.1160519612972407,0.0100114166561547,10.01572414101709,-0.0195133187945231,-0.0207347709536773,0.231094171621425,8.493029828595617,1.0489411246929548,3.760002438549004,1148.5284422553516,1150.9581610322218,1138.7128307503715,1144.3162303214524,-182.58073910141985,-837.8215107594576,666.1471740305617,123.22234917062876,159.00017239157413
17.0525,-1.672263531081989,-0.8181727095741747,0.1157832975811714,-0.0611108035645842,-0.0332436866934592,-0.0015911508946608,0.0066252357186945,-0.0097324573136475,0.0360541635915313,0.9992803132501334,0.1168777786406834,0.0074587959694179,10.014709876916447,-0.0197231641716772,-0.0209825894192329,0.2316713818418611,8.492969141450223,1.0488803269576907,3.760581937512813,1148.279840288701,1148.660604047083,1140.6434283044184,1144.8343268620229,-8.8997440288967,-1055.791643376443,914.1963148957984,301.2573216690415,159.00086858716864
17.055,-1.1174809046508227,-0.7656793215206315,0.132431683269524,-0.0677267883670343,-0.0355475543815163,-0.000771424587838,0.0065579339438612,-0.009808521861891,0.0360698392629946,0.999279433307326,0.1179787751221674,0.0052342705052987,10.013308610055237,-0.0199183018229594,-0.0212400169514283,0.2322423392273996,8.492909491656198,1.0488161614212754,3.761163932198365,1148.4839435352071,1145.6792028153407,1143.2838123248498,1145.8225169297973,146.03731320301625,-1082.4484421066124,971.4183153305044,392.0304836003068,159.0017762794331
17.0575,-0.5505360741251114,-0.6683682007968139,0.1230534169900338,-0.0708371212201483,-0.0370311432997652,-0.0002938454219119,0.0064870040761573,-0.0099004750399682,0.0360842276055706,0.9992784591760135,0.1193054646093185,0.0033731060226837,10.011535601706514,-0.0201022775700955,-0.0215018571521621,0.2328035842685084,8.492852068478912,1.0487491757426035,3.761748884472349,1149.010026854716,1143.248361836551,1145.50051988107,1146.794479280024,255.22995606157184,-894.7160540563306,834.9861257965428,375.4593454393509,159.0025906569194
17.06,0.0550706886026047,-0.5225513743737101,0.0985231597293143,-0.0709952292449173,-0.0384881033501317,-2.9042963037940224e-05,0.0064134806622924,-0.0100009538487225,0.0360930799121262,0.9992776080334996,0.1207005103975207,0.0019067084751197,10.009415072425668,-0.0202814653235327,-0.0217628619608789,0.2333521908329399,8.492797352689232,1.0486802340440087,3.762336518591911,1149.7600933155147,1141.20562254506,1147.4587429538317,1147.6998136569937,310.9784779587408,-704.7052447934713,711.4785746674949,321.4838651532503,159.00346294874885
17.0625,0.6351648158523769,-0.3403089925429486,0.0693495614842558,-0.0690734064312547,-0.0399825635673122,9.703833264431449e-05,0.0063389784002461,-0.0101004154636284,0.0360941414067656,0.9992770451522616,0.1219693543544603,0.0008672612353759,10.006978489291086,-0.0204631675424145,-0.0220177978642122,0.2338861033606104,8.492744213427873,1.0486101982872305,3.762925104455732,1150.5649192445092,1139.7248356125845,1149.0579127544067,1148.40189860579,306.9801749482643,-414.14328423540337,535.6778389754242,209.1193240851975,159.00438190031895
17.065,1.1264700858183114,-0.1223248811242745,0.0435759536493184,-0.0654319295349165,-0.0410424771159352,0.0001078327716585,0.006265493843066,-0.0101917815229965,0.0360874852087286,0.9992768272200516,0.1229730852910085,0.0002810646747912,10.004262408800871,-0.020653092612396,-0.0222617662924727,0.2344043639727053,8.492690958677665,1.04853968909479,3.763513384406324,1151.2949941902568,1139.1349061238818,1150.13713214871,1148.7454102774202,280.1241776962445,-31.64583700800624,348.3709580475317,60.942375625303,159.00535584328003
17.0675,1.564947563503296,0.160401802287465,0.0261529528924196,-0.0597723680125211,-0.041332939480321,4.165185035775151e-05,0.0061946174356438,-0.0102714114530315,0.03607619926258,0.9992768715567242,0.1236469891715062,0.0001532293240911,10.001306928381588,-0.0208547435943578,-0.0224906104592394,0.2349069769140761,8.492636215136654,1.0484685385283978,3.764100940125788,1151.9655401329903,1139.5666064275445,1150.799767544644,1148.7066104839164,205.20942842117157,336.8989503495174,138.9294898195025,-78.97551764159952,159.00658689508663
17.07,1.79017530727077,0.3932622412690854,0.0280389772542424,-0.0546953870506555,-0.0407792997311528,-5.107331107967338e-05,0.0061276782656223,-0.0103427499830729,0.0360635731310975,0.9992770167872114,0.1240729059049832,0.0004694724001738,9.998153560915584,-0.0210675751141433,-0.0227010481444351,0.2353948000887551,8.492579824770539,1.0483964954976612,3.76468762644318,1152.3210413323625,1140.819400875629,1150.8317795978076,1148.3505326892123,104.04346712602224,644.2143445624312,-90.4350595024872,-182.24082390947612,159.00766389411035
17.0725,1.874535864604724,0.5960258856543925,0.0506188340229414,-0.0498196290515253,-0.0392111380659198,-0.0001547027266465,0.0060639248797539,-0.0104053776151322,0.0360531760567427,0.9992771431691272,0.1242582130496974,0.0011695576931395,9.994846348176257,-0.021292303937138,-0.0228913738992324,0.2358687204925241,8.492521254790402,1.0483232673506715,3.7652739376585473,1152.4857574686207,1142.7876781503583,1150.3475922471312,1147.7954063643683,43.26653299573032,959.5555435177722,-321.2458781194712,-248.22564605683905,159.0087929754744
17.075,1.834804731270068,0.7760398151032409,0.1020882198982975,-0.0442133740439026,-0.0363122102968219,-0.0002499078846486,0.0060021492863515,-0.0104600896704835,0.0360442805249621,0.9992772757391308,0.1242377178730577,0.0021781340558106,9.991429715669712,-0.0215284914594707,-0.0230610709863003,0.2363296574457184,8.492460453898328,1.0482491552248494,3.7658605044929456,1152.537373997341,1145.6171785932167,1149.2255502072103,1147.1094044589283,8.67657428921293,1059.4702156765668,-486.3178889675113,-224.69192598568875,159.0102069092262
17.0775,1.705011345850638,0.8606063320872218,0.162377732376367,-0.0397910140551096,-0.0335990564494605,-0.0002564125221821,0.005942937473005,-0.0105113750881423,0.0360381872002188,0.9992773171949594,0.1241239097663951,0.0034501675262536,9.987946932782995,-0.0217738692607296,-0.0232095631308004,0.2367785904359865,8.492398133520984,1.0481743452025318,3.766447747845063,1152.5291403400668,1148.08502922874,1147.9160028022943,1146.6719467344403,2.712185775224929,952.1091114488759,-572.0565449724547,-120.68058866323744,159.01143349693396
17.08,1.5026995902312523,0.8750715014021045,0.2324119739706976,-0.0359086671675635,-0.0310903725896933,-9.742636898029571e-05,0.0058865287417424,-0.0105621940640828,0.0360343880978871,0.999277254566534,0.1240002448443417,0.0049340446069981,9.98444078642948,-0.0220268342394392,-0.0233373618438734,0.2372161454663108,8.492335147613696,1.0480993197931683,3.767036311382504,1152.5509349262172,1150.3777241504636,1146.3652674823468,1146.5060015156118,31.505336335437175,923.2034952068734,-691.9108578945737,-0.3151101458570964,159.0127091304125
17.0825,1.21067216805298,0.8214672559464664,0.3113281024687405,-0.0320007277057872,-0.02840410414775,0.0004269243371019,0.0058346036437554,-0.010611184183228,0.0360308497006155,0.9992771676924584,0.1238659635358049,0.0066113332301243,9.980953394379972,-0.0222878272320722,-0.0234451645356,0.2376425585613123,8.492272332765289,1.0480249440747635,3.7676278628108575,1152.686667021744,1152.7010467047735,1144.456448512822,1146.670371183711,74.12422314415946,764.984023040158,-672.1534206188126,111.73250347630932,159.01429526072528
17.085,0.9519129766277215,0.7294320576715179,0.3570449804615549,-0.0294041780990828,-0.0263869895657743,0.0012496114245336,0.005790232155278,-0.0106580502903351,0.0360260531675286,0.999277099553979,0.1237429812316514,0.0084937149213564,9.97752472857956,-0.0225568306083217,-0.0235337805257203,0.2380580569004263,8.492208996796506,1.0479519833879911,3.7682225226474526,1152.921556041938,1154.2026442656638,1143.0045003792532,1147.0646640329933,119.40209678189862,510.58880137039773,-516.7511546290001,183.52356733812192,159.01566216350443
17.087500000000002,0.7074650289702535,0.6051021555699666,0.3615874059007047,-0.0278106243529959,-0.024700641923735,0.0025396006799968,0.0057534531460766,-0.0107002515307774,0.036019173125246,0.999277110693572,0.1236059112059906,0.0105387443666672,9.974193459882285,-0.0228349495630589,-0.0236059671735256,0.2384627648417951,8.492144136608118,1.0478809776826947,3.7688185642803664,1153.2836775056537,1155.2539907116268,1141.8726927396758,1147.587989020402,160.1116216849596,355.9021787232067,-384.66028866867794,203.40482291616763,159.0170746406393
17.09,0.4953328467886721,0.4681918579484971,0.3193376821843504,-0.0271880638886304,-0.0234133863978782,0.0041375232557523,0.0057214969165345,-0.0107315272938132,0.0360114817753796,0.9992772406380698,0.1233522536545881,0.0126566197244099,9.970996871981587,-0.0231252081986733,-0.0236659462513993,0.2388568101331773,8.492077356727147,1.047811702083575,3.769414679426744,1153.7221141503624,1155.9821551592795,1141.0811989359104,1148.081688147574,179.09053259808314,229.67619187174955,-233.73690903117776,160.01841365972268,159.01852391830025
17.0925,0.3376342160247089,0.3339162596988937,0.2145693232469309,-0.0273355132227721,-0.0225775742361633,0.005700490799272,0.0056909841351203,-0.0107521930012864,0.0360018372267483,0.9992775456851613,0.1230083430561934,0.0147472739108166,9.967968262332784,-0.0234274819548401,-0.0237184479112766,0.2392408464531773,8.492009719106177,1.0477440770274087,3.7700096834486825,1154.179130168644,1156.4023716709853,1140.70400819452,1148.3880810887003,178.67325896321663,130.86581682175947,-88.43739890787158,68.53178349635071,159.0200163094358
17.095,0.2117119893111655,0.1974448080365798,0.0256326572668904,-0.0276173894234827,-0.0221208194416682,0.0068538023905775,0.0056589260885774,-0.0107622906495227,0.0359910572974258,0.9992780118924706,0.1225927732091333,0.0167255506147002,9.965137800828954,-0.023742008157389,-0.0237676035530058,0.2396155991394827,8.491942515152111,1.0476776972757296,3.77060406124756,1154.6154804451785,1156.636484243388,1140.639011941371,1148.4243470650556,120.26491311696763,46.76756740960648,19.61289398941907,-42.76839238019362,159.02185530474623
17.0975,0.1455915068473364,0.1175018162483625,-0.1665997599629422,-0.0275229148522562,-0.0221661583781295,0.0070680239249034,0.0056243820829342,-0.0107652345483309,0.0359794527908775,0.9992785961853649,0.1221892709363743,0.0185513167348931,9.962531320518751,-0.0240673864822905,-0.0238161007657952,0.2399818600146951,8.491876657465689,1.0476120570583105,3.7711991319465863,1154.7804547342287,1156.6362095080333,1140.8020726644672,1148.1742391267996,5.562673752680777,-42.027075309512256,86.05207146884058,-141.73821632659408,159.02342658982673
17.1,0.0928908645739447,0.0827134264514675,-0.3650310902710148,-0.0269101906922831,-0.0223569787082679,0.0064658381092776,0.0055884562717998,-0.0107649464259923,0.0359685711251386,0.9992791946108072,0.12188873209204,0.0202308904384407,9.960170617418472,-0.024401772526626,-0.0238648821742738,0.2403402240807592,8.491812111246345,1.047546343062947,3.771795728060433,1154.643293813942,1156.4263488668405,1141.0692722987155,1147.7156559834223,-135.8307051208428,-147.88089190663626,125.60042906200349,-217.9295552396504,159.025036481821
17.1025,0.0140892172477974,0.0959875142197158,-0.5713374882716548,-0.0257530281198566,-0.0222713918068837,0.0045977194919667,0.0055505510797157,-0.0107610070643897,0.0359601078709642,0.999279753876198,0.1216890126860135,0.0217450727910844,9.958074727468158,-0.0247449083867674,-0.0239148668787274,0.2406906927667541,8.491747509065394,1.047479385315579,3.7723945266281698,1154.1013012086244,1155.8968050485003,1141.4300748097771,1147.0845913506016,-251.55785894444764,-243.28922080276533,138.3090435733086,-220.60903150900072,159.02701094583907
17.105,-0.0788407342002797,0.1510883603046566,-0.6910489262403208,-0.0247116167187409,-0.0219299658377139,0.0021889093451947,0.0055103269535069,-0.0107556588326416,0.0359548013004216,0.999280225379168,0.1216347315582318,0.0230822126441084,9.956258029647396,-0.0250944639507299,-0.0239662829887124,0.2410332430918747,8.491681636412828,1.0474105984504238,3.7729962212697257,1153.38550451922,1155.2099027628267,1141.760817516582,1146.6126108258775,-313.3805221037835,-320.1664461503423,147.81007319799468,-154.7088631688102,159.02869025364976
17.1075,-0.2006254493731035,0.2491764865885281,-0.7373819069097582,-0.0241242845405621,-0.0215468985821764,-0.0007285057983675,0.0054698926583051,-0.0107523116049083,0.0359539879468159,0.999280513269534,0.1217882307147709,0.0242819549476586,9.95472976456755,-0.0254467624471071,-0.0240177038760728,0.2413681254402336,8.491613348023058,1.0473398815229495,3.773600451629683,1152.5343985981049,1154.2959728177475,1142.1691251757675,1146.3110470347572,-334.0340118003251,-391.2370952077577,185.6508485231103,-82.36547729363157,159.0304027552339
17.11,-0.3336566785716807,0.3807283520647284,-0.7216814460783901,-0.024345226601113,-0.021172534581169,-0.0035561974526951,0.0054331663746326,-0.0107553609507992,0.0359530213277693,0.9992807153048904,0.1222243494784837,0.0254215952710514,9.953493656776532,-0.0257966912782114,-0.0240669590109086,0.2416961068732535,8.49154257137126,1.0472678637721091,3.7742064842080447,1151.7153344602186,1153.2537172867883,1142.6890717591973,1146.2007834394094,-283.14089639931075,-427.12959866602733,242.2393332416532,4.8934486773769725,159.03214104514416
17.1125,-0.4548231782716554,0.5464496209957082,-0.6469212026083684,-0.0257171491936556,-0.0206675315898377,-0.0054764491804849,0.0054031106244591,-0.0107666265703722,0.0359468938481711,0.9992809756215292,0.122957492793075,0.0265630405451888,9.952548461632917,-0.0261399917206346,-0.0241122988772636,0.2420183743735254,8.491469445017543,1.0471953593007717,3.7748138190811495,1151.1186941161084,1152.160324824418,1143.3803218419755,1146.335514278144,-173.61869067899747,-465.2536780077192,341.4932319248764,110.22164718914428,159.0339078613234
17.115,-0.5548982999349049,0.766934671570731,-0.5214876077711648,-0.0283546576736393,-0.0195512334255472,-0.0061625122010473,0.0053797965456424,-0.0107860549624935,0.0359339113183751,0.9992813558356864,0.123954503936503,0.0277133334062512,9.951887610479268,-0.0264733885487367,-0.0241532318585733,0.2423365806067677,8.491394297740554,1.0471229464943623,3.775421195393672,1150.8472410068232,1150.9274488967487,1144.3965379188223,1146.7518916753554,-12.510704263197782,-421.42326835077455,392.09996007660794,186.30034686410977,159.03605705285335
17.1175,-0.5874563360679304,0.9467150342983622,-0.4068756271334899,-0.0308139793499398,-0.0178698081803582,-0.0059975137204463,0.0053605545326259,-0.0108092671229705,0.0359181756582381,0.9992817698828476,0.1250866466346211,0.0288290020951365,9.951499212680172,-0.026796112856606,-0.0241902636743528,0.2426526975396007,8.49131743335485,1.0470506598974458,3.7760277182566298,1151.0561405947926,1150.0532084826643,1145.340821642358,1147.2670160124644,167.6700834795035,-301.3404366247559,374.2060384713403,226.55949407826444,159.03786885739532
17.12,-0.5693572765938403,1.0879280909224616,-0.2871453040649539,-0.0329402938144664,-0.0150875403817825,-0.0061214733754231,0.0053404262654443,-0.010831119057338,0.0359053963813713,0.9992820955069232,0.1262013609672556,0.0298220377622637,9.95136507440602,-0.0271081320893103,-0.024224941668683,0.2429690344035344,8.491238741044057,1.0469780786147107,3.7766326140489994,1151.6855914242203,1149.4207467136252,1146.267568111179,1147.8846891457465,341.72731187534254,-207.18736228709105,370.42988882629373,275.25027328866616,159.039697682365
17.1225,-0.5110447724138917,1.1728919247476677,-0.1228727559876867,-0.0348795335870581,-0.010515448813214,-0.0070102618089649,0.0053136982916054,-0.0108470229101448,0.0358993184658096,0.9992822806796602,0.1271506371023471,0.0305891461840629,9.951460181508553,-0.027409455835362,-0.0242593399825866,0.2432880803571879,8.491158236056595,1.0469048699080172,3.7772357177290714,1152.7647771541688,1149.0172716712293,1147.1929710864893,1148.6432673789075,414.63235651380336,-80.3941999003815,285.59776367611676,266.1916452551925,159.0419059089058
17.125,-0.4556043964395615,1.1543735680498275,0.0450783506958875,-0.0357625580477639,-0.0062411047966526,-0.0082616469116178,0.0052764327247381,-0.0108531127589308,0.0359017508242923,0.9992823257566824,0.1277977755033803,0.0310618674826391,9.951752507248104,-0.0277001801088369,-0.0242948802656876,0.243612276656063,8.491075561331458,1.04683093871688,3.7778375146065706,1153.7587532067892,1149.0187757141234,1147.6955569295592,1149.2156473720222,371.8063398593048,73.64948843820326,125.89638785096137,204.03356363375244,159.04375256763652
17.1275,-0.421478380645532,1.0424733891366076,0.2500650723176812,-0.0357507441420625,-0.0024079077864703,-0.0094843928263183,0.0052303257150672,-0.0108501773847141,0.0359072213721706,0.9992824076461502,0.1280999701461279,0.0312804516474228,9.95220215622206,-0.0279784192302145,-0.0243309134979036,0.2439440859939257,8.490991344272425,1.0467570324753024,3.778439191694252,1154.6238088534665,1149.3855191134203,1147.8224530257444,1149.6634351970768,295.7404108709531,200.47727519562963,-18.17150472270803,156.38993735413734,159.04559961471165
17.13,-0.4183399692735327,0.8698733569122311,0.4723525231267731,-0.0352685807339654,0.0007374172617026,-0.0097638107329469,0.0051780537959389,-0.0108396369183904,0.0359121324945471,0.9992826233808336,0.128028046360033,0.0313043934087352,9.9527639934369,-0.0282429775653861,-0.0243663827108739,0.2442853273342781,8.49090579106289,1.0466831489607926,3.779041598932359,1155.2374552611436,1150.0211620901011,1147.6046994059457,1149.9975970587927,164.58568787287368,297.0674047902912,-167.94844549880213,112.96379150774072,159.04744227195286
17.1325,-0.4492536641340304,0.6600826558919674,0.6788993636949266,-0.0349242851871968,0.0029724201080302,-0.0081894410800224,0.0051220823538794,-0.0108262323123335,0.035914502867388,0.9992829775641172,0.1276216705237707,0.0311868972470967,9.95338861714042,-0.0284921567102197,-0.0244004408536183,0.2446371769144942,8.49081963169626,1.0466093252644224,3.7796451263016606,1155.4467372928307,1150.8708561373717,1146.9827107982503,1150.2282541546151,-3.573120314966209,380.1455487341957,-352.1693425569555,92.1183627102875,159.04927446844718
17.135,-0.4933958630566242,0.4236170767896054,0.8535998480391453,-0.0356017225341679,0.0043761301637926,-0.0046189109817013,0.005064462350076,-0.0108123353304302,0.0359132668329221,0.9992834706611476,0.1268785549437764,0.0309750084058142,9.954024970219688,-0.0287265398138033,-0.0244324672036192,0.2449998662938955,8.490733311851624,1.046535683653854,3.7802510411475567,1155.2195896595688,1151.921889833773,1145.84385269316,1150.4581888723444,-148.23146581623627,354.79267648904863,-465.19933657464367,85.92823992309496,159.05145511229858
17.1375,-0.4985862690944626,0.2840405801606456,0.9074673478381576,-0.037566344921666,0.004060214428317,-0.0009476599215764,0.0050072942109702,-0.0107999306280736,0.0359093721502043,0.9992840359631124,0.1257968042444742,0.0307175646340184,9.954621339451288,-0.0289480377492014,-0.0244617749138308,0.2453729461439378,8.490647259272707,1.0464621772420963,3.780859695508184,1154.7055799637496,1152.6448195198163,1144.6567141153776,1150.6578953542307,-242.10181530998207,220.35057244274705,-498.053092911422,86.22964672342172,159.05325357202858
17.14,-0.428241685231585,0.2464065536666648,0.8525064153102696,-0.040878359901349,0.0021773680881646,0.0029523732307909,0.0049500842302103,-0.0107917800943162,0.0359079972057816,0.9992844600052578,0.124398637809995,0.030411921521892,9.955127040987314,-0.0291593706591883,-0.0244887585148182,0.2457554480003318,8.490562164412195,1.0463884490886928,3.7814704416171754,1154.009080583019,1153.0236426959868,1143.3535872286031,1150.8893371059614,-307.45006576278416,61.616201874553866,-567.7749654422138,105.03718770459356,159.0550287495721
17.1425,-0.2387710873993967,0.3288979246225078,0.6807490973400618,-0.0449634384322963,-0.0001355709543417,0.0069308760706466,0.0048913432797389,-0.0107882980931438,0.0359135970805465,0.9992845861776716,0.1226707971874291,0.030038001037496,9.955494030631316,-0.0293651358917513,-0.0245143852264626,0.2461460055489577,8.49047814642438,1.046314254207534,3.782082876321903,1153.1683296349347,1152.9529005291895,1141.8178392881653,1151.183081292754,-282.9499950216467,-118.08656924665758,-536.2810167822473,103.22431395395375,159.05712841400367
17.145,-0.0147250687605088,0.4747502304348158,0.4874076405901457,-0.0467391563055856,-0.0003766492293485,0.0084766969197147,0.0048298210356765,-0.0107896048006031,0.0359234156817345,0.9992845180356184,0.1206070839669015,0.0295812239329901,9.955677417454416,-0.0295702095573618,-0.0245400975003616,0.2465431783403627,8.490395709866469,1.0462401996406212,3.782696966365452,1152.5943306079112,1152.4332098497537,1140.6721821446927,1151.405458675731,-183.08962467857788,-293.939998990358,-408.73001801363847,75.12351281481318,159.05885055460783
17.1475,0.2183449729726813,0.6338597619671655,0.3005605002028109,-0.045494886964793,0.0021716938022941,0.0075824968018674,0.0047681518315189,-0.0107965568506476,0.0359318656251748,0.999284433914945,0.1182326408207433,0.0291042519661793,9.955635598525392,-0.0297791095763933,-0.0245657878034761,0.2469458017695831,8.490314627801215,1.0461671124702983,3.7833122651311566,1152.2528815115422,1151.483200534238,1139.7741891980975,1151.558698856828,-93.65354751734895,-435.059672397397,-307.0190832115507,44.803767648249774,159.06054204532015
17.150000000000002,0.4096514173536407,0.7525657241644813,0.1534986129045967,-0.0422964713055987,0.0063083791996557,0.0056162872489143,0.0047095110465461,-0.0108069529675053,0.035933208501911,0.9992845485863288,0.1155264518914672,0.0286829805978104,9.955332403785885,-0.0299977559612726,-0.0245911247787423,0.2473526540100219,8.490234624673574,1.0460958138915266,3.7839282357567936,1152.126062870324,1150.2579114877656,1139.137086728634,1151.6294775139725,-8.00267100930955,-528.3232156395258,-185.9222616350877,5.356158050427595,159.06220658816653
17.1525,0.5169885126517157,0.7882871572035997,0.0632212300134928,-0.038623783618863,0.0105305859060869,0.0040402267664162,0.00465548332044,-0.0108174928848627,0.0359261840580421,0.9992849356425494,0.1124587323736518,0.0283625553920286,9.954737786532828,-0.0302324993831795,-0.0246161476481291,0.2477624411926009,8.490155569204417,1.0460261291282793,3.7845446004579646,1152.2128681564957,1148.841584456041,1138.8445778899222,1151.58547964708,60.099139570923526,-623.4319053871208,-51.89253334821056,-47.4212464967062,159.0638362416823
17.155,0.5547940461065499,0.738759496739562,-0.0100401205226245,-0.0356263349200204,0.0140250266419158,0.0036016913298188,0.0046070627509042,-0.0108272483396197,0.0359136197452697,0.9992854992115484,0.1090595938653517,0.0281744431368536,9.953827659461496,-0.0304881001631746,-0.024640622912255,0.2481739682578357,8.490077386241534,1.0459572447736276,3.7851608259672935,1152.4265585681787,1147.1407519608304,1138.8776240618931,1151.3923712814887,69.96959949161948,-589.0592144915253,66.28113962134603,-94.3784085460453,159.06574760283064
17.1575,0.5415596666486391,0.6475541810813497,-0.080194463905275,-0.0347781538472555,0.0153624128390296,0.0045998358518784,0.0045657882301245,-0.0108328914951025,0.0358980621571465,0.999286177918034,0.1053228863760545,0.02816178272618,9.952585048242042,-0.0307695970361511,-0.0246635114406485,0.2485857797352659,8.489999722648697,1.045888497804526,3.785777322964376,1152.5627161539535,1145.8962883835839,1139.1759835880289,1151.11358760435,15.053792436450104,-422.20382948102485,156.2573570127226,-134.54910632147352,159.0673001366484
17.16,0.5251119109299307,0.5429728537665341,-0.1996438668979503,-0.035100465568185,0.015620396427786,0.0065049944154507,0.0045322632852784,-0.0108286503754175,0.0358829406459064,0.9992869096756076,0.1012023012282344,0.0283494722789301,9.951000736418775,-0.0310822243553299,-0.0246835568452513,0.2489959394967687,8.489921415911226,1.0458189803950944,3.7863950830230655,1152.5018275303607,1145.0297328134259,1139.6589108469564,1150.7196257498815,-95.76092915712809,-258.2477183675608,227.35402513946804,-193.96889243998055,159.06880610742166
17.1625,0.5300735208316144,0.431088051268263,-0.4107571556074791,-0.0354363226079539,0.0159220047103646,0.0079678688882681,0.0045034579006505,-0.0108139052032354,0.0358691300124797,0.9992876832238236,0.0967578567700624,0.028684356125087,9.949072968237113,-0.0314274120320505,-0.0247010436778656,0.2494022996885105,8.489841905613442,1.0457479961493517,3.787014290449029,1152.0839115081678,1144.6050497917452,1140.3127537137268,1150.1437431421496,-214.9516616643241,-39.00088519195245,231.68486016093144,-220.2161222373872,159.07055302730643
17.165,0.5531485971836885,0.355658866024475,-0.621087898614971,-0.0348826129017867,0.0165731198603071,0.007295263444034,0.0044782725896788,-0.0107875917726466,0.0358562736290535,0.9992885279651335,0.0920460283387839,0.0291495292626315,9.946807621707704,-0.0318055473475943,-0.0247150088500934,0.2498025044034648,8.489760425455087,1.0456753304505415,3.78763529069051,1151.4270692220396,1144.834728387466,1140.817335147761,1149.618545138695,-315.9996809376654,212.46982036654703,173.17097171543344,-206.46475244620447,159.07195332024253
17.1675,0.5746214080919722,0.2960939379384449,-0.8196725253649286,-0.0332057778955153,0.0172778591306898,0.004870482743142,0.0044542107011762,-0.0107487155447652,0.0358431767342556,0.9992895102164046,0.0871250149623757,0.0296975537120658,9.944218784264551,-0.0322159256167885,-0.0247250949374576,0.2501939597239457,8.489676508219462,1.045601140680652,3.788259054756844,1150.5039131034798,1145.667398893578,1141.1786085723038,1149.1114193799187,-396.74837024970367,419.45036164630807,111.00237092394995,-189.3453194413664,159.07328906316624
17.17,0.5754271559434808,0.2451474200109809,-0.9730238073887268,-0.0310955990364159,0.0178470534908855,0.00191851023069,0.0044312050565086,-0.0107019804084453,0.0358270847499745,0.999290679986186,0.0821667392520762,0.030322417277171,9.941327311692291,-0.0326540258413713,-0.0247300095502829,0.2505745929871865,8.489590002688617,1.045525872337692,3.7888856199945455,1149.44332737079,1146.9319801956988,1141.372347002381,1148.6718185414877,-434.32314904734534,579.960052823414,32.98263482434524,-147.99814231649395,159.07456573556456
17.1725,0.5357555681719967,0.1979203757989448,-1.0400955665589122,-0.0291222678154993,0.0183105399433564,-0.0012274511453633,0.0044095162754863,-0.010654320218008,0.0358075987427231,0.9992919779637032,0.0773843647110974,0.0310208024999554,9.938161419835087,-0.0331137062005419,-0.0247284066303772,0.2509428053472676,8.489500966542936,1.0454497581327387,3.789513350921291,1148.3322973582435,1148.5671991576944,1141.3435217464255,1148.3714286683364,-476.2920664764389,754.6474083796194,-61.14682429794209,-88.55346124143523,159.07576447025207
17.175,0.4347978356481832,0.1354930372246885,-0.9951048500503228,-0.0272073464730945,0.018616467266234,-0.0053259100225823,0.0043838761328205,-0.0106076609592003,0.0357867270313863,0.9992933357813084,0.0728823669974662,0.0316814838275939,9.934757864429091,-0.0335911841266324,-0.0247218086129688,0.2512968644504416,8.489409218946358,1.0453728008869747,3.790141229114132,1147.0618670384083,1150.705217237596,1141.0666128808912,1148.2290512352806,-444.4186753733902,772.2161060327521,-135.6544768716264,-11.24293688885125,159.07710433561863
17.1775,0.3090684325670486,0.0699240122183866,-0.8463153247922546,-0.0260144758281826,0.018612629564354,-0.0089377702777613,0.0043514323463993,-0.0105647357726659,0.035769525550459,0.9992945569532224,0.0687762669966194,0.0322398601625599,9.931158993372609,-0.0340822611700006,-0.0247107850751181,0.251635666983093,8.48931491430178,1.0452952287748831,3.790769161179059,1146.1102039813754,1152.42827968786,1140.665249362067,1148.315213983892,-351.7320143955448,628.7743392732295,-185.72129137900504,76.76432089285008,159.07813260546362
17.18,0.1496038045445637,-0.0234139447262919,-0.593727906203333,-0.0252015544639169,0.018853053407736,-0.0120472708865159,0.0043140714368906,-0.0105322046579961,0.0357584931765753,0.9992954729377904,0.0652543646967643,0.0327218013081246,9.92741117210538,-0.0345806319240052,-0.0246943137102354,0.2519589782056303,8.489219863436473,1.0452180220431944,3.7913977183772114,1145.3032069664307,1153.8490889339616,1140.1380064239963,1148.6128728397448,-316.3328861747861,506.4677829326782,-246.7776433099552,171.95120586492305,159.07906207574885
17.1825,-0.0637447468745147,-0.1838675539762288,-0.2137167105635847,-0.0247905232106921,0.0195638880647104,-0.0140930630753323,0.0042720365661617,-0.0105093930309538,0.0357547645153766,0.9992960461411248,0.0623488971398497,0.0331256494811385,9.92356577778914,-0.0350838004880532,-0.0246727089190405,0.2522662794185743,8.489124349759495,1.0451417021117775,3.7920270583581126,1144.5285395505018,1154.960618602523,1139.4313611455175,1149.1749700132164,-246.55358351338137,282.09473595044227,-259.86862351701967,230.32715939502884,159.08005505590367
17.185,-0.2437651044820802,-0.3624396268730534,0.1205182595451555,-0.0250493615103859,0.0199520166640325,-0.0140972941509989,0.004226815279758,-0.0104935216890386,0.035756482768361,0.9992963634909386,0.0600413301736393,0.0334761914046613,9.919677039606285,-0.0355902484746996,-0.024646311172294,0.2525572214208018,8.489028452245524,1.0450665657999825,3.792657373121236,1144.0704390488643,1155.2595626137136,1138.8386633064115,1149.7645086367197,-136.3772666946987,-25.75207046020808,-224.8928183551463,246.5518993272817,159.08077469120596
17.1875,-0.404165207629791,-0.5771763568092758,0.4127950127248788,-0.0259341141209707,0.0196067986856628,-0.012305313897643,0.004184156375227,-0.0104835168454487,0.0357604178108128,0.9992965259301776,0.0583399785054105,0.033882419301641,9.91580014188854,-0.0360974195987669,-0.0246137711489234,0.2528320454702103,8.488931264996234,1.0449928320358293,3.7932881879637375,1143.8466532170285,1154.831858250222,1138.306897053742,1150.4077295098527,-37.08308121961558,-346.36508438157324,-210.28296028965244,278.83730672178274,159.08137553708588
17.19,-0.5485702082459595,-0.8453514317173503,0.6588475656544452,-0.0276448428256591,0.0180046899888253,-0.0086547372825383,0.0041481920664811,-0.0104784267708362,0.0357654935828047,0.9992965637357772,0.0572447735598616,0.03442293768665,9.911991364732792,-0.0366027421048913,-0.0245745221969884,0.2530911670317395,8.4888315664016,1.0449203515342307,3.7939190406881207,1143.885023642766,1153.5277371918048,1137.7872485049627,1151.158695170329,65.9403864981545,-583.6434150864785,-169.99947044140498,261.42019128115606,159.08195200135455
17.1925,-0.6129469860931145,-1.0464253366816327,0.7561980977712373,-0.0294852302601238,0.0155126704686549,-0.0053607604350754,0.0041188111817716,-0.0104769100155077,0.0357707812388148,0.9992965243583474,0.0567353048939737,0.0350942772067611,9.908307560076253,-0.0371039150019798,-0.0245300547522142,0.2533349440383038,8.488728730830182,1.0448487170843754,3.794549741325075,1144.1763551495192,1151.9136411747902,1137.4568997015351,1151.7148304662583,164.71697028012935,-705.3159084467136,-118.42956264401973,197.6389915103875,159.08230767215227
17.195,-0.606550911236831,-1.1862272655075787,0.7458078661165394,-0.0316745273410493,0.0119003942493367,-0.0027571600978844,0.0040949201127069,-0.0104784678479593,0.0357783136022159,0.9992963447053356,0.0567983683766066,0.0358751057613444,9.904804456414992,-0.0375985836713395,-0.0244819061633154,0.2535638393622611,8.488622795998996,1.0447772611427535,3.795180422662193,1144.7086084941664,1150.001157649572,1137.1951006917427,1152.146890127881,245.18752800055344,-769.1961697980489,-103.9103927002466,145.62114623715215,159.0825301800922
17.1975,-0.5392441448864188,-1.2537707012267922,0.6648767690705003,-0.0339675828524012,0.0077857205067128,-0.0009298686872537,0.0040741975962112,-0.010482071281188,0.0357880696996627,0.9992960460477596,0.0574007700623723,0.03672137713083,9.901535803906622,-0.0380850477185449,-0.024432067119269,0.2537782229197661,8.488514651012116,1.0447055517742478,3.795811956281896,1145.4022927895223,1148.067660325798,1136.9373477380336,1152.4429361974444,306.0640829703215,-721.817587844005,-115.19481266511792,78.7624454911722,159.08264051293625
17.2,-0.4082365417955568,-1.2243682154623807,0.5287397251516313,-0.035761886367853,0.0037937683412082,7.597902485885933e-05,0.0040547425154228,-0.0104868076047673,0.035800100613394,0.9992956444474966,0.0585044510897853,0.0375983984661413,9.898552045256624,-0.0385622151719488,-0.024381984411005,0.2539784969248853,8.488405515445079,1.0446337104578287,3.796445223180372,1146.238928909018,1146.3920697103526,1136.6191266284175,1152.5407023553369,389.0762017444423,-610.7869460117705,-162.13247239846666,-10.263617942475545,159.08261470245662
17.2025,-0.2050411334954141,-1.086005290263476,0.336437349975504,-0.0365472042108754,-0.0002831420875667,0.0006374054093471,0.0040310170869509,-0.0104908819253584,0.0358128895595384,0.999295235702763,0.0600446836416078,0.0384005151244977,9.89590018516343,-0.0390301509316831,-0.0243347634427973,0.2541649279965127,8.488296865176693,1.0445618312533556,3.797080598414844,1147.3476737982444,1145.0137255957395,1136.1266853760415,1152.391618107732,415.85848985293165,-361.4596487606802,-194.60824856991212,-103.71545512652268,159.08242678481952
17.205,-0.0215975124733431,-0.9030089921533004,0.1704428446976192,-0.0362340400681612,-0.0030073200422288,0.0007841838615135,0.0039988351880308,-0.0104942968372583,0.0358234487381603,0.9992949440336863,0.0619876332621807,0.0390473801466951,9.893621681242733,-0.039488491751596,-0.0242927162297774,0.254338310915559,8.488188710624593,1.0444902725221494,3.7977174758528127,1148.3182213582836,1144.5847714665483,1135.6460853855674,1152.022125079704,386.98720579089667,3.3679122863766104,-189.542899936388,-203.12816501531816,159.08214086334874
17.2075,0.1535493479096252,-0.6792943752781158,0.0114094529376198,-0.0356820698520335,-0.0049438717704963,0.0007773429781525,0.0039559001375736,-0.0104986209610828,0.0358301862283802,0.9992948200105408,0.0643274087324712,0.0394945042339512,9.891751305233043,-0.0399364592822866,-0.0242568433964966,0.2545001651979799,8.488080168800696,1.0444192371480647,3.798353998207896,1149.2826098271985,1145.0305651571716,1135.1789708763597,1151.3759772826556,406.7542230705285,392.3871943466891,-174.26152689362254,-349.898301412874,159.081723741296
17.21,0.3377331395936041,-0.4019973496786951,-0.1637313267109892,-0.0351169104381844,-0.0060498950766945,0.0006688673224931,0.0039060033407981,-0.0105054364691876,0.0358315045950843,0.9992948895297792,0.0670589660261546,0.0398165159211073,9.890315423669437,-0.0403733052435981,-0.0242247486726049,0.2546528509652257,8.48797112488138,1.0443484518952104,3.79898928539458,1150.3519924736358,1146.5467074382811,1134.7747777510995,1150.27263357264,363.4289291606324,688.0708445858209,-103.3937969499146,-455.495721445999,159.08107590933864
17.212500000000002,0.4593391626618067,-0.1892019272238193,-0.2918211189442214,-0.0343945769389199,-0.0060451331533112,0.0004634671084727,0.0038564739306085,-0.0105162509911803,0.0358282041267931,0.999295078976626,0.0701755235863578,0.0401565300535217,9.8893316472928,-0.0407984018925201,-0.024191684400939,0.2547992699183156,8.487861855980112,1.044277384968286,3.7996235445627446,1151.0997544730023,1148.4709193801025,1134.6620018916099,1149.0984986754245,252.068920282186,840.3578474379482,13.80948261744654,-508.54574674432234,159.08041639748072
17.215,0.5327551379584056,-0.016542768254495,-0.3920558372512219,-0.0329228393846388,-0.0055272542449265,1.0923176568651874e-05,0.0038108278057215,-0.0105305227784228,0.0358207879402858,0.9992953618704784,0.0736244816758984,0.0405815091675688,9.888809814313309,-0.0412121321946131,-0.0241545009872979,0.2549421150376112,8.487752752285427,1.0442057249699397,3.800257702213427,1151.6123370750463,1150.7484966754703,1134.8438251641867,1147.7299048389189,155.53954158693523,905.5091011375664,120.56460908913903,-560.4767021362228,159.07963601760719
17.2175,0.5549418750737097,0.1163597661827829,-0.4577667832902312,-0.0309545350881614,-0.0048750768682573,-0.0007870660578907,0.0037702607515389,-0.0105448101419602,0.0358097220462678,0.999295753059839,0.0772920406626242,0.0411122709520362,9.888751407854135,-0.0416161574227632,-0.0241109418126216,0.255083737333449,8.487643863022798,1.044133333606508,3.8008929696720224,1151.877452180937,1152.9984648857894,1135.2648249370554,1146.296115164744,41.48936036236508,813.2518888457324,213.00281906705692,-555.9094831793769,159.0787576260182
17.22,0.5087909013875181,0.2032501672295867,-0.4635612035940377,-0.028909977534881,-0.0043346628719999,-0.0021652429076369,0.0037322798223212,-0.0105564852129653,0.035799245102322,0.9992961375933196,0.0810763635611889,0.0416942189265598,9.88914934059188,-0.0420115692403532,-0.0240602034053424,0.2552263780545559,8.487534550218978,1.044059394853861,3.80152903753702,1151.8197838768583,1154.814756119698,1135.9088392595215,1144.9503574230223,-91.13305726884384,613.8277979019988,308.5849535688498,-520.7898701762259,159.07776341187443
17.2225,0.3801795240592644,0.2630801055943894,-0.3788388048828165,-0.0269033621289603,-0.0037785958803027,-0.0045438126133933,0.0036925793958928,-0.0105637108190218,0.0357928839743657,0.999296425685195,0.0848880448985865,0.0422341147684649,9.889987578950288,-0.0423985224065004,-0.0240025775694969,0.2553723360325224,8.48742358005413,1.0439835334487,3.8021651194135586,1151.4217868945927,1156.0676038752988,1136.8077497048992,1143.6921658138633,-182.8145028557148,268.43323027342103,329.72889818353406,-365.1912632374611,159.07643911194373
17.225,0.2258928183868305,0.2825061264984732,-0.2242306564864723,-0.0258457338441748,-0.0031249380578924,-0.0068961955804579,0.0036471883435493,-0.0105640436089879,0.0357938409745945,0.9992965449272364,0.0886242899174652,0.0426440278282139,9.891241074745757,-0.0427769593380258,-0.0239385765081605,0.2555239770583709,8.487309479728857,1.0439058318608283,3.8028008522776746,1150.9057113625793,1156.156922271066,1137.5574837504403,1143.1244011068343,-214.3609284924395,-165.54194288586243,279.71137004307013,-95.3116046393196,159.0752278152418
17.2275,0.0469030494219966,0.2772555043199075,0.0049612009571299,-0.0256257583087527,-0.0022240121249318,-0.0087689030504249,0.0035961978234797,-0.0105591941420438,0.0357990744258233,0.9992965854578784,0.0922652270025453,0.0429119151166882,9.892874892682265,-0.0431440449521509,-0.0238679343154019,0.2556842504025976,8.487191950102398,1.0438279173517488,3.803435594798703,1150.3499822521308,1155.2398941608697,1138.2063065551145,1143.2156077906668,-217.94357126891344,-587.7764562732215,250.23952857141444,201.37171776722795,159.07390636540674
17.23,-0.1660820037709123,0.252820524349421,0.3174665018667413,-0.0262552584008375,-0.0011934619893464,-0.0090507883341129,0.003541635519224,-0.0105540691715989,0.0358065631258321,0.9992965590182028,0.0958551302871305,0.0430619055552595,9.894845340230335,-0.0434954012646418,-0.0237901620117735,0.2558563620478821,8.48707161092253,1.043751284940021,3.804069084938491,1149.8159935062347,1153.2180399897004,1138.808681393297,1144.1312596956702,-154.65506536571684,-833.6886425569273,191.7463656209676,453.41727101153526,159.072195018807
17.2325,-0.3233436435593898,0.2281180579518378,0.557612799684014,-0.0272386733682262,-0.0005546958260077,-0.0073303408435527,0.0034838670325249,-0.0105478738492967,0.035813927644226,0.9992965553601044,0.0993246497733053,0.0430902152491108,9.897102880679988,-0.0438299823300371,-0.0237062799972913,0.2560426240854662,8.48694917211117,1.0436766611300443,3.804701993138848,1149.576706925302,1151.0714509480829,1139.1650383832196,1145.4826941457256,-44.55025985613224,-870.0958197615277,121.20390853804248,618.1641722299312,159.0706657555529
17.235,-0.4440676030074622,0.2141401433784279,0.7160260621763371,-0.0283838392808244,-0.0001843038960654,-0.0043600969557799,0.0034247501989476,-0.0105400060052207,0.0358209138551525,0.9992965813080488,0.1026110658897157,0.0430243171304191,9.899592105424428,-0.044147364827529,-0.0236168552958616,0.2562449118457908,8.486825005243702,1.0436042776346657,3.805335017091992,1149.5932422069543,1148.8675608908936,1139.4147009359872,1147.2220805568193,43.68136064868809,-834.957194559122,92.14904330890035,715.0329296794611,159.06903178891724
17.2375,-0.5269964061420178,0.2199990570767574,0.7741759824381491,-0.0295782072584799,1.7318522204946276e-08,-0.0010450596600882,0.003362354298822,-0.0105298146936919,0.0358309831683554,0.9992965244602148,0.1056513518197465,0.042819278741057,9.902254360966984,-0.0444481914860754,-0.0235242495990496,0.2564642680335756,8.486700041438388,1.0435333521691408,3.8059686389625194,1149.7951137285454,1146.896664975288,1139.625783599764,1149.0578587941222,107.14370377135286,-688.5646079521052,86.10260761816022,700.3100761851384,159.0673131607494
17.24,-0.5572486039980932,0.259243170511745,0.6947531829337804,-0.0309206711822757,3.082679814814268e-05,0.0022893000281806,0.0032945973759053,-0.0105160699159194,0.0358442300114477,0.9992964009806516,0.1083746751832929,0.042430043411835,9.905028734751879,-0.0447340753921801,-0.0234311711511508,0.256701014542476,8.486575158727062,1.0434633326823104,3.806603406221956,1150.128960725811,1145.424737851131,1139.8452139740782,1150.7236309377467,145.79588895333643,-513.993699289142,105.06943785974087,630.0372266846242,159.06549556121925
17.2425,-0.5242412372565911,0.3482117731025052,0.4495804893885364,-0.0328644978031079,-1.5051919398241859e-05,0.0059284392511979,0.003221110017157,-0.0104954760956659,0.0358593348731468,0.9992962953262842,0.1106759635328589,0.0418497663055622,9.907853629440686,-0.0450083632977398,-0.0233393721300955,0.2569547547985578,8.486450428354575,1.0433936430489634,3.8072392424377743,1150.524093173312,1144.326696478843,1140.1511307890628,1152.2080449275447,120.6718913570752,-301.29453989385723,116.13126304466768,426.64582743504366,159.06320469886137
17.245,-0.4353237158695272,0.4503723508308288,0.1500052719541171,-0.034757334948374,-2.274798788548926e-05,0.0081006808058943,0.0031460037671756,-0.0104680900112494,0.0358698901499765,0.9992964243271442,0.1125259442314864,0.0411607367211607,9.910667043478169,-0.0452730049238309,-0.0232486184612541,0.2572250489068102,8.486325734867611,1.043324639188436,3.807875637558949,1150.7323201825964,1143.9182651516624,1140.4258702893014,1152.8568600749215,35.478716141376715,-85.8003841116613,101.61262680319145,122.59924745301468,159.06120807869868
17.2475,-0.287103585335354,0.5590657989152694,-0.1874979888706705,-0.0365493645752652,0.0005362324450773,0.008307126432775,0.0030746739971742,-0.0104346087680002,0.035871053089235,0.9992969396740246,0.1139173241229908,0.0404731637351318,9.913409261486951,-0.0455301946811421,-0.0231575990752871,0.2575110528515098,8.486201278994153,1.0432567042022212,3.808513134769557,1150.7014867540188,1143.8976945582847,1140.6591939230786,1152.8210411648097,-84.93781010708388,45.67313997323253,74.43717331381438,-158.99240991169316,159.05912576258672
17.25,-0.0633945241563468,0.6540970896614186,-0.54802242287163,-0.0376818922102664,0.0027303794795189,0.0058716033663328,0.0030090506403141,-0.010397067103715,0.035863645885933,0.9992977884828188,0.1148766916857772,0.0398302767383312,9.916025199633944,-0.0457821636691581,-0.0230658967234141,0.2578113800024106,8.486076851632529,1.0431894439456166,3.8091521146442178,1150.3076311320613,1144.1466308515285,1140.7980561558704,1152.0618980253632,-207.2564837039257,117.52761225974052,16.674599581793355,-367.9260526067929,159.056534541221
17.2525,0.1343239475927645,0.6704974044184986,-0.7532409442887071,-0.0375094213857037,0.0055539264551606,0.0024315538994262,0.0029500348903309,-0.0103589248245593,0.0358522769001744,0.9992987718371916,0.1154682312115652,0.0392558831174776,9.918465194381405,-0.0460308609589441,-0.0229728413482937,0.258124315100787,8.485952715623757,1.0431221867937974,3.8097926743688144,1149.6652043354986,1144.4853326195837,1140.7425669209877,1150.9814109017748,-314.6370381450823,150.70416646393184,-63.078574728173216,-476.69078956478575,159.0543032123485
17.255,0.3083382116211645,0.5957043332010645,-0.8162951694902735,-0.0363313487491941,0.008387551389116,-0.0013295823274545,0.0028923148197827,-0.0103178639519327,0.0358418575229543,0.9992997544177108,0.1156468367893952,0.0386560721588647,9.920688372136256,-0.0462814743381089,-0.0228803912551843,0.258447018499943,8.485828694993774,1.0430540160989632,3.810434501309509,1148.734445941336,1144.900151683848,1140.4826632822296,1149.6784440775396,-405.3483655155912,177.00078684064349,-136.66748885573716,-520.3539360721733,159.05200337650487
17.2575,0.4404964930842361,0.4419024480979041,-0.7529060215460064,-0.0344546093850303,0.0109383665232493,-0.004972625564311,0.0028323068799139,-0.0102786109463472,0.0358323223438488,0.9993006954140246,0.1155168662682926,0.0379669227051206,9.922659643993615,-0.0465352979540023,-0.0227899196378242,0.2587771692211371,8.485705110717834,1.0429848227228655,3.8110774092232287,1147.638462507921,1145.3703365537867,1140.059229476709,1148.3796412214144,-450.6215729464625,204.26970280962917,-204.0058118982736,-480.08629359103907,159.049651494132
17.26,0.5077350663556887,0.2088061551052616,-0.5545138510222942,-0.0322736127922793,0.0128618016628867,-0.0079187766443077,0.0027697803525424,-0.0102452055610363,0.0358255051548413,0.999301482985338,0.1151803000983305,0.0371921267563318,9.92435122560352,-0.0467938661411088,-0.0227007490349918,0.2591124217308363,8.485582857292057,1.042914749364774,3.8117222355979736,1146.4813380766027,1145.9215001978966,1139.4626342227375,1147.2780126095831,-480.3022487826229,263.67890885022246,-295.235196560147,-406.283203107513,159.0472427812879
17.2625,0.5146716516837037,-0.1182254244727514,-0.2130931256222627,-0.0301751656336177,0.0133421771049679,-0.0095099600981774,0.002706415531743,-0.0102196845335093,0.0358202815871577,0.999302129001193,0.1147076975876843,0.0363750078046993,9.92574338042755,-0.0470592106852052,-0.0226115348808804,0.2594503155677493,8.485462462840365,1.0428445054758344,3.8123692080371905,1145.2369512640084,1146.6887310980376,1138.5830534939087,1146.3482252058773,-400.4964441095013,295.95166251844125,-344.4138496117151,-265.9229267802477,159.0442945137387
17.265,0.4709255454663356,-0.387540496967541,0.1064306915800896,-0.0291587003503697,0.01177654450401,-0.008805075133534,0.002647164904454,-0.0102024823671917,0.0358137835366152,0.9993027181518488,0.1141456834631457,0.035625150376683,9.92682397310596,-0.0473333662176221,-0.0225195826552173,0.2597885420426161,8.485343500960447,1.042774891075213,3.813018338966771,1144.4788558560556,1147.4012585104883,1137.7405649746795,1145.9483979756824,-213.2602808227421,289.4161110973411,-352.43542562611924,-86.14957588511201,159.0417953746861
17.2675,0.3928539743151147,-0.6087144901831788,0.4054892316834784,-0.0287125803891091,0.0088116252336084,-0.006719931843587,0.002598233209178,-0.0101945946903352,0.0358056119104746,0.9993032392750936,0.1135571335489403,0.0350768432248908,9.927588072493908,-0.0476171474637144,-0.0224215386488543,0.2601252302035205,8.485224543156223,1.0427061677338345,3.813669020053253,1144.170649859894,1148.135811653525,1136.8208763657772,1145.9174773264515,-9.494390080137304,310.4633819457994,-410.5614910506936,53.46805540503892,159.03925965780127
17.27,0.2713403866902189,-0.795445184435112,0.6992317392532545,-0.0283526244389746,0.0051783154728325,-0.0039336863690271,0.0025614926049347,-0.0101942867502827,0.0357978263652225,0.999303633004852,0.112949796116687,0.0347805708526111,9.9280388818474,-0.04791174555532,-0.0223161697323959,0.2604585177827541,8.485104404844021,1.0426382179376383,3.81432091254466,1144.431383905655,1148.9535754202172,1135.6877575194264,1146.2157382527075,201.53245035020888,277.4003181142332,-408.3571751176708,148.0155020160804,159.03618296535095
17.2725,0.1477961003134939,-0.8906387582722401,0.876767428162827,-0.0279665212020438,0.0027563087654395,-0.0018019769549757,0.0025381475491463,-0.0101974569331127,0.035792543637328,0.9993038643403888,0.1122836235577535,0.0347753908204684,9.928186045602144,-0.0482183396714937,-0.0222026339082739,0.2607868469311059,8.484981319899186,1.042570706196214,3.8149739297947463,1145.178312111645,1149.522813244096,1134.7790904901892,1146.6575548365315,387.5520196844554,196.84902336697567,-338.94103546900567,195.89956665448864,159.03359667736592
17.275000000000002,-0.0031856051125791,-0.9440601215744548,0.9796322873197728,-0.0274395934320418,0.0010354444808783,0.0001861660699819,0.0025225959005923,-0.0102022168038676,0.03578903244779,0.9993039930359467,0.1115549077528802,0.0349637585604225,9.928045052517447,-0.0485358936428135,-0.0220839942669046,0.2611091454554005,8.484854378706984,1.042503394642762,3.8156267522135936,1146.369144004078,1149.9378205370526,1133.9930523420803,1147.1952360859805,518.4149080801157,140.855800254695,-281.05217777634743,216.02971127653953,159.03099350594158
17.2775,-0.1790684088519014,-0.9787415422542934,1.0174209389483904,-0.0269627767431129,-0.0003634596847557,0.0022995082304692,0.0025072813025431,-0.0102075156668373,0.0357902574424344,0.999303941783758,0.1107716647808754,0.0352089929722333,9.927635522615608,-0.0488624490726442,-0.0219639850945977,0.2614248856123861,8.484724057045385,1.0424357355410214,3.816278647236513,1147.770386652045,1150.2270922453692,1133.3738296013075,1147.7377033929142,560.8616963485681,90.0524975829464,-193.51403478416827,201.86266053819432,159.02838062901967
17.28,-0.3796908903937338,-0.9995764440861928,0.9690608522946832,-0.0269328957483216,-0.0018230034112791,0.0048325221943815,0.0024871738897009,-0.0102116533520996,0.035797101389723,0.999303708042664,0.1099251753131811,0.035425046008233,9.92697964979596,-0.0491959697220177,-0.0218452572888392,0.2617339757924037,8.484591158749842,1.042367756490315,3.816930093390817,1149.1734524858205,1150.3880830249673,1133.02548216816,1148.2045493886712,551.2257955101819,44.41346544891505,-76.93278439057106,172.92379818480896,159.02576071917497
17.2825,-0.6284902723218949,-1.0019902613819545,0.8007936438271883,-0.0278598168672098,-0.0041451764874231,0.0083274250384813,0.002458289043406,-0.0102129623235999,0.0358101589444788,0.9993032977067432,0.1090018946160854,0.0355465876244692,9.926101521815971,-0.0495344410509171,-0.0217300350837544,0.2620365495648234,8.484455896715275,1.042299669565918,3.8175817434017048,1150.5265156295955,1150.4491595726136,1132.9891656793548,1148.602322383838,401.1409726052423,-3.3750233481903145,55.42241930339708,114.88206897327028,159.0226140757096
17.285,-0.8193636200495322,-0.9705565378101432,0.5675589870421976,-0.0295683930339222,-0.0066894560210537,0.0112903546937728,0.0024186846858258,-0.0102134316580822,0.0358287630052418,0.9993027199549211,0.1080555603614703,0.0355460161610124,9.925025658917535,-0.0498741743980666,-0.0216198116956044,0.2623332289995597,8.484318341752125,1.04223187779542,3.818233653390217,1151.1791573488463,1150.3712079082263,1133.3025942646768,1148.7789597335375,134.77549276369626,-69.6953331923949,194.238789547481,42.41878132027172,159.0199930419431
17.2875,-0.961913610579392,-0.8845456460289332,0.2538436409030331,-0.0322357642166955,-0.0095848615886879,0.013500703277993,0.0023718395824027,-0.010217308404558,0.0358496304660687,0.9993020405952454,0.1071816883782994,0.03550113292204,9.923776084891124,-0.0502106290648904,-0.0215136993186746,0.2626250652839575,8.484179207960505,1.0421651068793159,3.8188854649922366,1151.2003930934143,1150.1006829066516,1133.9603596270929,1148.8144162904396,-137.48847943359584,-179.6807442677976,353.6885622661224,-7.4473719518679244,159.0173768103113
17.29,-1.0464130524751047,-0.7043083785205062,-0.170202714454355,-0.0361830024574408,-0.0129420851526137,0.0141833032088734,0.002322605402036,-0.010226469328013,0.0358703910232747,0.9993013135050062,0.1064238363004564,0.0355178592466944,9.922377464975085,-0.0505412283547038,-0.021410012194363,0.2629127961960791,8.484039077909049,1.0420996236415843,3.819537323911404,1150.4917149516784,1149.4728041868875,1135.071037076007,1148.741722873778,-362.344102192473,-287.6376788966017,442.7561440187645,-41.015307268943594,159.0142462416482
17.2925,-1.032228385211028,-0.4908938607702109,-0.5179352166402033,-0.0395199464608644,-0.0152458500492625,0.0128729365289761,0.0022759751642559,-0.0102428136332391,0.0358869104550133,0.9993006557708756,0.1058205224963155,0.035703507219984,9.920854706347507,-0.0508640599943073,-0.0213070986958101,0.2631969150305567,8.483899455962723,1.042035789896807,3.8201897967484735,1149.3886725824523,1148.662494512169,1136.1741403471863,1148.609339754095,-505.3623713503528,-379.0541437484415,452.9707692159674,-68.70210520802299,159.01164659970655
17.295,-0.9299091289301106,-0.2276400558150304,-0.80643312185081,-0.0422631289877809,-0.0165081707460337,0.0100412407924405,0.0022353248782879,-0.0102647477682995,0.0358977242508818,0.9993001283476972,0.1053357983094938,0.036134015133887,9.91923364722442,-0.0511798394632824,-0.021203550189217,0.2634771786655566,8.483761435651047,1.0419734920598396,3.8208433536964654,1147.9649030949251,1147.5775334681443,1137.335890922088,1148.3982123477379,-583.9087651464322,-464.3304038620968,457.11650782236575,-102.53053845187644,159.00905763132718
17.2975,-0.7623984796535231,0.0567991963353471,-1.0164175881570683,-0.0444787360590781,-0.0167713659357789,0.0065568678979512,0.0021999406071976,-0.0102878865440514,0.0359041027565054,0.9992997325181368,0.1048723864866962,0.0368037876135597,9.917541272322351,-0.0514913077655144,-0.0210993269205132,0.2637525725382381,8.483624799819426,1.041912083200124,3.8214985198156226,1146.4691287567207,1146.3408424928589,1138.4597228862976,1148.0966870618356,-569.7797407360437,-501.8289910227938,425.82828738767887,-149.5838775958716,159.00647770126076
17.3,-0.5302678676268155,0.3388960966314496,-1.1154140181275802,-0.0461228605649703,-0.0160752229863638,0.0030470482270337,0.0021665225629667,-0.0103071739412767,0.0359103385326358,0.999299374851729,0.1043158064454842,0.0376533588579203,9.915804949767777,-0.0518017485370261,-0.0209948625331387,0.2640216929071838,8.483488698689541,1.0418504822582004,3.8221562016466857,1145.1160043912455,1145.0683885130309,1139.465032359026,1147.6502929597586,-515.1504176934488,-526.4936685847296,405.8769656417296,-233.8672595685861,159.00390808351597
17.3025,-0.1977069371209511,0.6406846445626916,-1.1066566336632446,-0.047340303178147,-0.0143735557074473,-0.0008209589137196,0.0021315106825504,-0.0103175718915395,0.0359195382590639,0.9992990059972476,0.1035499211036356,0.0386141309015308,9.914051668130627,-0.0521141343345464,-0.0208903165512672,0.2642831309557335,8.483351166177318,1.0417876776671948,3.8228166069991714,1143.893376668252,1143.708374149934,1140.489107714507,1146.927350763992,-360.6352435722591,-445.18588059331466,343.61597969493704,-292.068871312962,159.0008346851783
17.305,0.1076147276400771,0.8397582413460309,-1.0041356634864502,-0.0476799391718326,-0.012032568628475,-0.003806938983283,0.0020903423847286,-0.0103197817857078,0.0359300782872086,0.9992986881617604,0.1025700178003072,0.0395888012989552,9.912307031749073,-0.0524279150213328,-0.0207866043278561,0.2645363110886018,8.48321096122439,1.0417236689183285,3.823478728369296,1143.3128281733848,1142.8424591100647,1141.1831122575004,1146.189948603194,-135.7864847342441,-271.5869538255533,244.076677908109,-308.4229080416821,158.99827994875943
17.3075,0.4193710675645208,0.9654325319631756,-0.8242368773202828,-0.0472816581554513,-0.0087852608381349,-0.0065250579770394,0.0020444417304981,-0.0103170329507604,0.0359390111474507,0.9992984911158994,0.1014253910082418,0.0405918173263495,9.910593970996876,-0.052740891890585,-0.0206814784883015,0.2647817240078699,8.483068033170657,1.0416589666558669,3.8241412388304687,1143.214444244581,1142.3504393808064,1141.7094911040476,1145.385236223784,51.09109314999949,-122.64396607654528,187.64011102865973,-343.66248223220754,158.99572862625377
17.31,0.7696213745685909,1.0270006666494265,-0.5541890705700392,-0.045776650710999,-0.0047935981977005,-0.0088469169905647,0.0019982251513551,-0.0103161102373132,0.0359431940887318,0.9992984482935788,0.1002385889763069,0.0416890650950707,9.908932768908848,-0.0530490486708741,-0.0205711568177519,0.2650209747400188,8.482923472982865,1.041594024774744,3.824803026383968,1143.5682836391347,1142.229239279682,1142.1213128126435,1144.4716361920334,184.5098247198988,31.662506246227096,104.74130506729388,-305.01098729688846,158.9926664406127
17.3125,1.0156145413712059,1.0149877244919068,-0.3156354976241405,-0.043454821469761,-0.0019785995162186,-0.0092923941947662,0.0019535496665208,-0.0103184860612706,0.0359396421783805,0.99929864663962,0.0990268116200502,0.0428942496279048,9.907343100282231,-0.0533515851150256,-0.020453148038631,0.265255498900066,8.482777751969769,1.0415292214518297,3.8254631553059046,1144.1369933681804,1142.5087519120375,1142.233197629384,1143.8601812872998,250.3832613770184,182.27791292442583,-20.284179526550897,-190.70736834714145,158.9901109986646
17.315,1.1832868732418071,0.9613956113270404,-0.0978192930770669,-0.0401477209846812,0.0002034050887917,-0.0082218111595142,0.0019112044047185,-0.010324390069835,0.0359298688987092,0.9992990267387846,0.0977853903062656,0.0441961298399876,9.905842874179731,-0.0536490370665193,-0.0203251035774068,0.2654867852121999,8.482631012901422,1.0414645939852247,3.826121633070587,1144.8201999460205,1143.1406288443047,1142.0198919150107,1143.5180993502972,291.9699321179577,342.906725177113,-187.0094437779616,-72.38428440197441,158.98754890876864
17.3175,1.267555344465296,0.8790721345229529,0.1222381237354054,-0.0355021800890083,0.0023384962228221,-0.0065887443547373,0.0018707885983129,-0.010335875059428,0.0359198460751636,0.9992993525769486,0.0965494618724003,0.0455545388168442,9.904447771959338,-0.0539417007517725,-0.020184965420041,0.2657163718779519,8.482483778480162,1.0413995688425655,3.826779520258088,1145.5968430287699,1144.2232855379227,1141.2981504104944,1143.49825986529,260.78137240170423,434.17751897445214,-345.9672450026807,58.538850897469096,158.98446450659083
17.32,1.2322695631370233,0.813080226992365,0.2790022240671508,-0.0315037020751243,0.0038649330745561,-0.0058938399258553,0.0018298061601534,-0.0103505062332347,0.0359140766252598,0.9992994912200956,0.0952682654201783,0.0468874286860609,9.903172424926176,-0.0542327508618132,-0.0200320702135906,0.2659448912562783,8.48233661322637,1.0413335704670807,3.8274381855807778,1146.1241068080287,1145.3115164391763,1140.2900556899976,1143.8107936047843,179.4443648796451,448.84660810334714,-473.16171299724726,180.63988689886932,158.98188508151955
17.3225,1.0940473585498232,0.7628087892390826,0.4306073699052493,-0.0279534193376638,0.0050562984831246,-0.0061912378289319,0.0017856993530559,-0.0103655429660089,0.0359123013311246,0.9992994844077444,0.0938894748720548,0.0481089412025837,9.90202964360145,-0.0545257763139678,-0.0198666927017146,0.2661725126297247,8.482190153820131,1.041266828782092,3.828097869041633,1146.4940648531683,1146.4675185784406,1138.9323418455067,1144.4014592997848,125.74089344014055,453.1545310237553,-575.2691726768497,265.9368234405594,158.97929613424964
17.325,0.8867344915853859,0.7278584485941538,0.5898556238525062,-0.025124795719674,0.0059909415119306,-0.0069089155749281,0.001739992842518,-0.0103817577911999,0.0359125935328895,0.9992993901666372,0.0924386592818082,0.0492100687538544,9.901029321704918,-0.054822632985266,-0.0196877652414018,0.2663995655256276,8.48204456334172,1.0411998578522719,3.828758405656048,1146.7528112752293,1147.5772890942949,1137.413709826614,1145.140477721987,87.26881912368216,410.1258464398049,-602.7697290339182,309.66923579700756,158.97669992183958
17.3275,0.624950174712829,0.7023721334552678,0.7493490689043385,-0.0233072477957673,0.0070783423271731,-0.0069172424910432,0.0016954652628918,-0.0104003272638093,0.035911275293433,0.999299323542318,0.0909558104047914,0.0502061685781464,9.900179767725849,-0.0551249142652001,-0.0194944789424717,0.2666261350161234,8.481900108183789,1.0411334779396788,3.829419752360423,1146.9304089487869,1148.5181478106392,1135.918493200338,1145.9498054787696,74.71201692647625,355.09874634394714,-593.4342308400721,348.7146308047194,158.97409656490996
17.33,0.2889850809984433,0.6569982171126402,0.8950154582223174,-0.0223693231772606,0.0090646373840285,-0.00448524607451,0.0016529574522637,-0.0104175626889919,0.0359060744760164,0.9992994025795976,0.0893892140585452,0.0510791704065369,9.899489305555536,-0.0554366797377704,-0.0192875759954758,0.2668513904972364,8.481756264038454,1.0410684334296076,3.830082058421515,1147.1263713598619,1149.3527828260155,1134.446538672412,1146.8840508760115,78.92851448511216,252.64605173352288,-449.3784795455652,324.208506197302,158.97096730964736
17.3325,0.01879741743322,0.5838822927338633,0.9335407393207432,-0.0224860520167508,0.0113987534758415,-0.0003511147050537,0.0016118648486149,-0.0104299733554429,0.0358978783078531,0.999299632749534,0.0876958715309368,0.0517852587516787,9.898965671608135,-0.0557615630243724,-0.0190689267233285,0.2670742037760498,8.48161219475902,1.0410050935906183,3.8307457166763927,1147.3250515212123,1149.7813780693064,1133.6716008026103,1147.5708480097555,95.36961377859448,122.45272961383924,-188.91233172961736,247.31829875704904,158.96835780104675
17.335,-0.2149903757381308,0.4541253917907962,0.8495755384965038,-0.0232594014868469,0.0140280017064411,0.0044461850742688,0.0015717796148556,-0.0104331883935793,0.0358911245000974,0.9992999014811342,0.0858206445284666,0.052289436337888,9.898615780529065,-0.0561031507240582,-0.0188404440605854,0.2672932010640178,8.481467101687583,1.0409435117504993,3.8314115964816966,1147.6032194287548,1149.9650464740846,1133.501977013764,1148.1206423697963,144.63323639144497,38.4408077382235,70.00754190072314,207.8708583867256,158.965749622182
17.337500000000002,-0.4340018583994134,0.2334721543627469,0.6134534818412356,-0.0248574087500505,0.0164359016584418,0.008723121111719,0.0015315928409991,-0.0104247900327609,0.0358888071900225,0.99930012952122,0.083749701603111,0.0525463412509943,9.898445428542189,-0.0564632332277633,-0.0186050171978847,0.267507229273575,8.481320038479382,1.0408836378452833,3.8320801388894847,1148.04821770317,1149.9735821079976,1134.0216385121144,1148.61020230169,179.6066906189383,-23.9843069139672,296.370057548679,154.25334790364445,158.962625208077
17.34,-0.5585782268724955,0.0141826688711115,0.3401176576149998,-0.0265130857720705,0.0172961166952005,0.0103205207489147,0.0014881349514355,-0.0104061481253465,0.0358896554902897,0.9993003538839424,0.0815441413912986,0.0524724353763935,9.89845907974096,-0.0568408093957246,-0.0183674244671413,0.2677157886241446,8.481170656716039,1.0408255794769916,3.8327503812619192,1148.5012528818493,1149.8451249395148,1134.9838273015073,1148.8919091093146,189.93027813602708,-77.52018707907787,460.51502028199207,95.34778563285805,158.96002896301843
17.3425,-0.6236955920306546,-0.2050699437959722,0.0491844021538049,-0.0280801479462699,0.0168569045770169,0.0100691164253694,0.0014412900633873,-0.0103765112133226,0.035890733999841,0.999300687913136,0.0792260713363705,0.0520518981503356,9.8986588388896,-0.0572354084558668,-0.0181309950880415,0.2679188307680144,8.4810187202997,1.0407694989688476,3.833421106747621,1148.9978690938499,1149.5859811726025,1136.3242136135239,1149.086941229854,195.99602470283833,-129.80705515485934,566.6233059312835,72.54548624529514,158.95744408036052
17.345,-0.6441205940248204,-0.3940058227531977,-0.2109075101420382,-0.0294699855268738,0.0155514637125683,0.0085552970155641,0.0013931198482668,-0.0103392484562313,0.0358891984673401,0.999301194929436,0.0769007787134784,0.0513150034102929,9.899043380454096,-0.0576440354638295,-0.0178977645550104,0.268117512865827,8.480864740886723,1.0407154604118745,3.834091228611487,1149.4812330053633,1149.1960896637406,1137.8169438311631,1149.254636540541,175.9411918580904,-195.93404412334428,594.8268872751488,71.03041418251044,158.9548714620889
17.3475,-0.6163227965714104,-0.5157914681709911,-0.394460761101904,-0.0307606106446606,0.0135484647397562,0.0061402566464817,0.0013475364648199,-0.0102984955468263,0.0358858723740974,0.9993017962321594,0.074689897723373,0.0503341054900953,9.899607793666062,-0.0580632776043643,-0.017667918593157,0.2683137415000733,8.480709060946298,1.0406629889663168,3.8347604907117065,1149.87757505314,1148.606310951986,1139.298348049899,1149.4420933007666,136.97539385804967,-311.05576085458324,606.8184423278204,97.01049925628962,158.95231722402187
17.35,-0.5309530134535964,-0.5600304655123282,-0.5055193093787098,-0.0324134328215439,0.0107350069037246,0.0033191341349205,0.0013065242492326,-0.0102585367151139,0.0358859243871893,0.9993022582703583,0.0727157764278349,0.0491488835447502,9.900343944111423,-0.0584898527756415,-0.0174415159371208,0.2685097759541457,8.48055176489431,1.0406110595241225,3.8354286194748552,1150.1661099746539,1147.640810859467,1140.8510360428036,1149.7396890368227,65.19225799244329,-390.5054730423539,510.1043478210718,124.23536644416996,158.94927815182044
17.3525,-0.4175676533008048,-0.508095894484123,-0.5127546065802961,-0.0339376958824134,0.0083672947792565,0.0015230120177578,0.0012707845009726,-0.0102212446913943,0.0358916067269565,0.9993024792530298,0.0710490672930511,0.0477793697519279,9.901240134272815,-0.0589218090419478,-0.0172188942311856,0.2687077373818757,8.480392732207028,1.040558985590043,3.83609600841132,1150.2035363431023,1146.6537835867744,1141.8488697890039,1150.063270132987,-33.10769668260695,-408.71789265519453,324.933185298115,142.3355012225612,158.94677067147427
17.355,-0.2647234212497172,-0.3772349337446897,-0.4536512118741427,-0.0353756119345354,0.0064548963817649,0.0004118504753684,0.001241935929111,-0.0101878139363232,0.0359020396073403,0.9993024765114374,0.0697438757951309,0.0462672997118504,9.90228022654906,-0.0593576516196624,-0.0169996024464882,0.2689096871733311,8.480232497600955,1.0405064471522363,3.836763784672404,1150.0005714912409,1145.5972213961911,1142.475701969294,1150.4513665429351,-145.4578126961389,-436.07929150539775,190.84392303074551,173.13765214085163,158.94429307021815
17.3575,-0.0514027063607193,-0.1649223394733409,-0.337450173371582,-0.03643803995953,0.0051062320106549,-0.0002935663532256,0.0012167711773822,-0.0101591588205341,0.0359133238354699,0.9993023848715912,0.0688409874874945,0.0445612633619068,9.903444827917966,-0.0597963008564357,-0.0167856068001833,0.2691173471808509,8.480072850088993,1.0404533546116357,3.837432175372948,1149.4762472796212,1144.4733871292465,1142.803089404158,1150.928958393692,-235.2819048473989,-350.5003645909043,56.566201854286525,161.35655866708956,158.9413586867873
17.36,0.1317603177792074,0.0224775758541232,-0.2228277093241266,-0.0365510385129372,0.0047190499038118,-0.0005280065523203,0.0011916963527477,-0.0101365101828092,0.0359215096870295,0.999302339541758,0.0683827800130918,0.0426036823253451,9.904710474275975,-0.0602366736874463,-0.0165787240673886,0.2693323323553072,8.479914750277622,1.0404001443881536,3.838101372116725,1148.824161967004,1143.8447195732372,1142.7585329785654,1151.2581493362707,-293.65358393944393,-147.6164179948976,-73.39413532178338,92.65895526070403,158.93894854176173
17.3625,0.2915124680817565,0.1729405338571637,-0.1064941327073492,-0.0356419206617523,0.0053886005507887,-0.000568157148183,0.001166029131386,-0.0101208156491213,0.0359261538094059,0.9993023492929266,0.0684036670339795,0.0403963636505883,9.906049435807056,-0.0606777633769949,-0.0163785332111953,0.2695562236946068,8.479757298351103,1.0403470460345987,3.838771177960224,1148.0079793599243,1143.735305039272,1142.4361187275492,1151.3922531699955,-337.1916944423086,60.77106605363571,-169.59538340488925,2.18394034213704,158.93657817061083
17.365,0.410975886834989,0.2580072800775123,0.0039025145829959,-0.0339677163645013,0.0071559845865936,-0.0005263039730806,0.0011367673760033,-0.0101083150448603,0.0359288137408549,0.9993024005926296,0.0688376898108461,0.0378995440527775,9.907431794416915,-0.0611207655797757,-0.0161853800033585,0.2697898471700683,8.479598881827842,1.040293840957515,3.8394411300354983,1147.1382034947917,1144.1485749035055,1141.9105560615403,1151.2690690379811,-331.8607787392672,291.05844088627566,-256.1843371045198,-127.48290573693149,158.93424308724525
17.3675,0.4659477920683673,0.23525048935874,0.1022445283308686,-0.0320053062550955,0.0098622162510717,-0.0004116945535847,0.0011025617562374,-0.0100984838708507,0.0359331953216567,0.9993023671839694,0.0696778145875874,0.0351047291959838,9.908824867001892,-0.0615645821078038,-0.0159984582175205,0.2700343340365018,8.479438485023204,1.040240041245189,3.8401105451973296,1146.3486754662283,1145.1905972437032,1141.1551970420269,1150.7548386413107,-287.56275251104205,569.3042806946546,-381.91601012357165,-319.15537901101726,158.9319531934512
17.37,0.4540450383851498,0.0800174559476402,0.2012397681943908,-0.0300268558735385,0.0127374425982933,-0.0001428759208237,0.0010589179464942,-0.0100905000752565,0.0359406189311388,0.9993022151893632,0.0709010499928022,0.0319417479409995,9.910195451200995,-0.0620077166406458,-0.0158190237438009,0.2702904119828774,8.479275632452493,1.0401853546178828,3.8407794249453913,1145.7003897322368,1146.9950963069782,1140.000976010923,1149.6732921429264,-163.50525635397003,706.8709948897364,-457.34571008601966,-459.9484941355064,158.92926071756136
17.3725,0.3870036787411768,-0.1290093104587078,0.2629849253363881,-0.02884683028095,0.0136828394141603,0.0002692067553061,0.0010013019269753,-0.0100830654056379,0.0359531474008965,0.9993018899666793,0.0724670924423406,0.0283410270022038,9.911510385344451,-0.062448590545844,-0.0156484952187488,0.2705583316578283,8.479109985970466,1.0401295308357918,3.841447587692468,1145.5311491844586,1148.7249522181512,1138.8684684915972,1148.4550961706339,20.839321444513697,669.7464309595457,-468.876259500396,-521.1006513696375,158.92706499730457
17.375,0.2757802385070231,-0.3634964749897288,0.2949482389219398,-0.0280600500342429,0.0125769830083592,0.0009882641615857,0.0009342104588243,-0.010077409293215,0.0359686158870866,0.999301451295828,0.0743831383780311,0.0244111583156306,9.912736067529517,-0.0628838084458237,-0.0154844599715426,0.2708383794611234,8.478942910596217,1.0400732967824364,3.842115912685345,1145.804586339459,1150.3438284617753,1137.6565947134216,1147.0677888860787,207.40856483160616,614.2984027724692,-513.4292971755815,-603.6618571736749,158.92492039996787
17.3775,0.110521478848735,-0.6029593285143244,0.2883981142041982,-0.0275821878822913,0.0094021143109049,0.002277021093368,0.0008648489544224,-0.01007444485252,0.035983123627856,0.9993010224509292,0.0766434754900707,0.0203167601408995,9.913841424096484,-0.0633100475740531,-0.0153238627333729,0.2711301718774536,8.478775682200462,1.0400175566426395,3.842785616252148,1146.5681920086172,1151.7964442320151,1136.301322005718,1145.436786884764,324.57972041545054,417.47380746605023,-445.9531391637007,-560.1477362483115,158.92240625399003
17.38,-0.0401063356794803,-0.729727141931026,0.2408108604601183,-0.0276675759479051,0.006208130308379,0.0036306145362646,0.0007958653932908,-0.0100712435324465,0.0359941196198912,0.9993007218088784,0.0791551125758128,0.0161380842803451,9.914800867520835,-0.0637261843025071,-0.0151665163431115,0.2714319670682982,8.478608135174845,1.0399630911727755,3.843457762803711,1147.4274849415362,1152.431197499105,1135.4268290176035,1144.267050204838,345.82672014728416,125.23756594375972,-256.65110749765165,-396.78968745746425,158.92035999747657
17.3825,-0.1901277564223938,-0.762215209611295,0.1530109256766975,-0.0281440287157668,0.0033720101037713,0.0048914687126092,0.000732667846274,-0.0100665500133093,0.0359999715127339,0.999300616751296,0.0818526133936958,0.0120126538794659,9.91559382049046,-0.0641300421817653,-0.0150112447028652,0.271741788200129,8.478438796504184,1.0399104430998365,3.844133121110659,1148.2973256093533,1152.4226320617336,1135.01806646823,1143.452838447477,316.7663872850624,-95.02041538480312,-64.14475964298974,-249.5996117898445,158.91836278736383
17.385,-0.3315881845922745,-0.7197473312581706,0.0439786098824381,-0.028853334603378,0.0009535532920409,0.0056242814920121,0.0006803536603551,-0.0100632730194023,0.036001207806494,0.999300655595289,0.0847461940478239,0.0080732114122611,9.91620594746987,-0.0645171232337344,-0.0148572462270308,0.2720579485061462,8.478266245725926,1.0398597099678069,3.8448113986151857,1149.0113168779624,1151.9560954221809,1135.1061052193884,1143.019052145888,218.18461373918373,-260.853238141187,164.02575131213405,-69.54900151933109,158.91640429885723
17.3875,-0.4551903276721236,-0.6038602631176133,-0.0664358033104989,-0.0298536000674925,-0.0010671370683661,0.0053548852741752,0.0006342334494845,-0.0100631536296655,0.0359983949970206,0.9993008009636712,0.0878100928330681,0.0042637102899584,9.916631632136943,-0.064883815444345,-0.0147091807212979,0.2723783862601338,8.47808967291486,1.0398106565982208,3.845490560150083,1149.3882486780487,1151.118365871028,1135.8381952247903,1143.1050934398804,70.93423792618115,-401.4612681601992,455.05898829260286,163.29733546225336,158.91448930333485
17.39,-0.5745015293807975,-0.4120069249180882,-0.1677188937551802,-0.0313702439878285,-0.0026419243230879,0.0040531038002282,0.00058837893712,-0.0100665645418594,0.035993904059741,0.9993009653762938,0.0909863526762381,0.0005089053038638,9.916873125264702,-0.0652277595966206,-0.0145720678113922,0.27270109878685,8.477908952674417,1.0397627617592906,3.8461687118933185,1149.3659880675932,1149.9487890813803,1137.3814001608507,1143.8355388231992,-82.1037108734834,-423.6469892057464,646.5315244704345,368.5252727731428,158.912236517055
17.3925,-0.6441226854655536,-0.2353703678447464,-0.2095665232139662,-0.0329633380026561,-0.002900898614083,0.0026348084441376,0.0005356665489318,-0.0100719912710664,0.0359905057545199,0.999301067951532,0.094176194140533,-0.0032849325734257,9.916940886394313,-0.0655485323058201,-0.0144512501876252,0.2730239733017417,8.477726212694582,1.0397155370065945,3.846845778147816,1148.977730123681,1149.0001309249983,1139.0708528471444,1144.947719803747,-208.64531751244215,-349.9214212887878,709.7889247857031,534.7299647656355,158.9103929318945
17.395,-0.6773911808362454,-0.0700313201964195,-0.202557785947637,-0.034595342761982,-0.0024099859671364,0.0014282318398788,0.000475434799484,-0.0100760831708907,0.0359896563921735,0.9993010895288414,0.097248416381106,-0.0070790770364549,9.916852842219184,-0.0658477312699143,-0.0143483423314477,0.2733448001709242,8.477543533525571,1.03966894780151,3.847522833200823,1148.3227614800312,1148.1991819749367,1140.9303447847788,1146.5091886470268,-312.34806987510484,-308.05988595226825,797.5506138229542,760.3837875668127,158.90857995761093
17.3975,-0.670711952075923,0.0966115452086254,-0.1500660518566453,-0.0360384894059771,-0.0016099524519256,0.0005124103890196,0.0004104807423505,-0.010077501329945,0.0359918128919261,0.9993010261259077,0.1001158636624474,-0.0107655711854717,9.916634274579339,-0.066126982445876,-0.0142628256685951,0.2736614693741731,8.477361891143184,1.039622820948661,3.848200736986504,1147.415989774306,1147.4598314952373,1143.0586059162583,1148.7496387415804,-327.58879466220213,-233.44132100270932,727.5144477056444,852.7256960984417,158.9064351641535
17.400000000000002,-0.6202114254844356,0.2058032876015159,-0.086075398280575,-0.0369043533165845,-0.0010036481769197,0.0002368497924344,0.0003456279264748,-0.0100757643254441,0.0359954080795642,0.9993009390194192,0.1027137097834322,-0.0141960835590735,9.916317797792116,-0.0663883848549551,-0.0141929119527664,0.2739717119877752,8.477181116103122,1.039577259586262,3.84888043705426,1146.6848175067191,1147.0319753699223,1144.5679170233088,1150.7728171275212,-268.69967184389566,-132.54963686684187,522.5611468031404,801.4684728270598,158.90467045531298
17.4025,-0.5064264355475598,0.2878478804232019,-0.0233520733973309,-0.0381152293085871,-0.0005129679684949,0.000434880428664,0.0002889159523524,-0.010069904577451,0.0359991148895481,0.9993008846662836,0.1049759915229579,-0.017158726013131,9.915942804649914,-0.0666350425349976,-0.0141345203364778,0.2742730563225999,8.477000278378407,1.0395325926936885,3.8495636724157367,1146.0724914150867,1146.7970833109032,1145.6714116502735,1152.7569811057149,-221.72893679867087,-61.20842017104532,367.22814874686287,758.0689742804369,158.902926021994
17.405,-0.3221096157623232,0.3513081433409468,0.0235963065174595,-0.0400880144582422,-4.784604483714199e-05,0.000967391437365,0.0002412116950678,-0.0100626682930456,0.0360007571127882,0.9993009128061447,0.1069131276327217,-0.019588659444051,9.915554677070999,-0.0668687539646408,-0.0140871222443615,0.2745633218124008,8.4768194639698,1.039488814174775,3.850250425110607,1145.5761728227262,1146.7259332690671,1146.4040577670428,1154.5631619989226,-176.75448992121224,12.572843489445177,207.26587880935344,650.5706071749885,158.9011963225453
