t,ang_acc_x,ang_acc_y,ang_acc_z,a_vel_x,a_vel_y,a_vel_z,quat_x,quat_y,quat_z,quat_w,acc_x,acc_y,acc_z,l_vel_x,l_vel_y,l_vel_z,pos_x,pos_y,pos_z,mot_1,mot_2,mot_3,mot_4,dmot_1,dmot_2,dmot_3,dmot_4,vbat
0.005,-3.590398204259711,-10.181951078899983,0.0477445745868124,-0.184633219338655,-0.3435527463269565,0.0297869646112522,0.0050565770542583,0.00600645453134,-0.3285187912981429,0.944465142976409,-0.1093764452478771,-0.0612563876811656,11.524355593957337,0.0871998646319834,-0.0651066148596674,0.8332476449145765,10.551248321689616,-2.504677309687473,0.2572227160326955,1166.3688200714407,1221.5485178306928,1181.6473090816132,1183.5950815218903,261.7983255473519,-1716.1078051345614,1282.8566029432295,-1181.6435764547352,155.83938874542005
0.0074999999999999,-2.969584751284424,-9.481538281923386,0.0857411953644143,-0.1939452194349722,-0.369654162612574,0.029936648684982,0.0046383272054473,0.0055543058770587,-0.3284733863340823,0.9444852280728806,-0.0975796000574803,-0.0587033787125986,11.537275828332524,0.0882999746577257,-0.0656532792202944,0.8372348030717985,10.551336581460845,-2.504966174917627,0.2593126173299382,1167.023315885309,1217.2582483178564,1184.8544505889713,1180.6409725807534,273.24857568446527,-1862.424233638876,1308.6785457443966,-1259.555194188806,155.84044416970335
0.01,-2.0187904996105366,-8.5234666465341,0.1021065613944006,-0.2030042104061806,-0.3927034869482071,0.0301272960525214,0.0042269638788186,0.0050929246586643,-0.3284299630625305,0.9445044774656168,-0.0856456666801087,-0.0559126249894965,11.550049949247338,0.0894212418341203,-0.0661862586512449,0.8412445801564788,10.55142542468619,-2.5052549114704403,0.2614044083927861,1167.735062949863,1212.2363966624985,1188.1907018103352,1177.2973055509462,309.1153181136178,-2314.329348736828,1418.8771410748357,-1524.9287776069193,155.84127888512785
0.0125,-0.507448403165283,-7.154001910640706,0.0977726014600911,-0.2124653474207096,-0.4158208205575768,0.0304398158277927,0.0038255648798683,0.0046236580546725,-0.3283868169586022,0.9445233975136824,-0.0736533636447985,-0.0528162200280062,11.562576037308062,0.0905600999856909,-0.0667002245746858,0.8452881771386118,10.551514924211512,-2.5055438165638506,0.2635012538170061,1168.5688924758772,1205.6866015741723,1191.9488362943455,1173.0163286927188,305.19990972566126,-2420.016995068,1288.8471950710027,-1583.533530486466,155.84204370028363
0.0149999999999999,0.99612093380051,-5.902354236164176,0.0747746035490283,-0.2176759138130739,-0.4310098638532244,0.030779191516561,0.0034372714921947,0.0041450853297173,-0.3283425960611996,0.9445423932428824,-0.0616270189348258,-0.0493283481130777,11.5747227102461,0.0917173456163485,-0.067187447957973,0.849375759073757,10.551605227101568,-2.5058324831184446,0.2656059125873116,1169.2610624984911,1200.1363116871585,1194.6349377856902,1169.379637898514,297.70706898980274,-2144.09153026213,940.5118767638213,-1438.8312857318394,155.84249718436237
0.0175,2.5887576311491305,-4.622890475305809,0.0335750984769202,-0.2174123997864607,-0.4422158389311071,0.0311552914068218,0.0030616898363172,0.0036572806862638,-0.3282942819513425,0.9445624677097428,-0.0496016603264388,-0.0454592072161121,11.586330229283703,0.0928930958011949,-0.0676462184147299,0.853515669543304,10.551696390521323,-2.50612087886282,0.2677205799509098,1170.0574278208262,1194.9661439228616,1196.6513956781644,1165.8221722640596,414.72422853530577,-2080.7181605448927,706.4346034243043,-1528.5600473607244,155.84277568628104
0.02,4.310188326107756,-3.1379838364589574,-0.0306991031343576,-0.2071572333701309,-0.4517331442445553,0.0314797471336045,0.0026947741392718,0.003160472568472,-0.3282417557277297,0.944583641509013,-0.0375921239687234,-0.0413096894379497,11.597213494778051,0.0940896703973823,-0.0680793469495576,0.857713943638566,10.551788644688076,-2.50640945454516,0.2698467014611691,1171.3346836411679,1189.732720884434,1198.1671108028115,1161.7368376617103,554.2360100587305,-1696.1807097932715,400.3341182471561,-1465.6583062613668,155.84292473691144
0.0224999999999999,5.345441568409648,-1.98517006001872,-0.0884622946940625,-0.1894585351461508,-0.4569549238734076,0.0314101643912781,0.0023296769091732,0.0026550663250992,-0.3281864529426245,0.9446054178604236,-0.0255993951305268,-0.0370551024131251,11.607166299322552,0.0953109533763818,-0.0684930670406668,0.8619744174605208,10.551881668075533,-2.506699767407473,0.2719835655542425,1172.8286078711199,1186.4852403738953,1198.6530662694004,1158.4938807327528,718.5704289917793,-1028.9779604943756,42.4442605743934,-1271.9000336281167,155.84290604572837
0.025,5.73349190578933,-0.9514745932427326,-0.138100551083002,-0.1666340451087328,-0.4595808938060859,0.0308123973882938,0.0019636495640075,0.0021436600100303,-0.3281346478095602,0.9446256121028322,-0.0137068369535862,-0.0328099568749644,11.615966733182148,0.0965557856363641,-0.0688863027726436,0.8663003148332254,10.551974102916734,-2.506992557198519,0.2741287373162716,1174.9275357861268,1184.587831081962,1198.3793321056835,1155.3773374935697,1078.5444244062087,-530.3208259649635,-269.8546740416986,-1356.4785084943649,155.8427511553948
0.0275,5.346502403834868,0.1335989434926367,-0.1765603214613838,-0.1409085074455119,-0.4596055205316197,0.0297430690904776,0.0016032317367984,0.0016329353996239,-0.3280896755431911,0.9446430306397876,-0.0021605439702458,-0.0285292992579264,11.623383944195172,0.0978106913731207,-0.0692448911573003,0.8706953578790759,10.552063907479141,-2.5072884475251844,0.2762820923945527,1178.221329993151,1183.8336362440705,1197.3037928991919,1151.7114881902808,1326.0809627136503,-60.88154424137432,-492.1025421747347,-1339.9811524256172,155.8424200190156
0.0299999999999999,4.361088395508777,0.9072976364851358,-0.1883743021001608,-0.123957343945479,-0.4576255545438477,0.0287910097296599,0.0012497762195518,0.0011276211440697,-0.3280517437834434,0.9446575875142726,0.0088747967175044,-0.0242797674674849,11.629185668544286,0.0990677928497181,-0.0695622309984485,0.8751597773385336,10.552149968435716,-2.507587224692738,0.2784448937374667,1181.557940599695,1184.2834233607553,1195.91881939481,1148.6774317314416,1414.7909141684063,333.89730930202853,-616.5445924432787,-1210.8509840169515,155.84203066830204
0.0325,2.8554952643850076,1.558585142009684,-0.1846755950889126,-0.1132393300177515,-0.4546961406041605,0.0280595762689628,0.000900385295564,0.0006288899611981,-0.3280179659303774,0.9446702957514403,0.0193460272680649,-0.020205660460021,11.63314556320298,0.100326876370329,-0.0698376364123653,0.8796898421917921,10.552231849081528,-2.507888372091932,0.2806190598432873,1185.2952845639927,1185.5031227905806,1194.2210699369755,1145.6572332701962,1509.7858920767508,557.9731715852172,-697.617563374933,-1198.0006028089051,155.8415312672257
0.035,1.0928443752379196,2.1230873199633464,-0.1774470719591587,-0.1079011870019096,-0.4511881537782107,0.0276682057557414,0.0005514460784043,0.000141448784088,-0.3279870454455868,0.9446816229990048,0.02913044130547,-0.0165020499810318,11.635052041235504,0.1015820736599251,-0.0700743713492783,0.884279357766176,10.55230972163887,-2.5081916169097886,0.2828056500943851,1189.1068700600788,1187.073289218681,1192.4307315779351,1142.687428717397,1466.6314852499916,649.1728230229004,-694.3989368640363,-1153.4759605697225,155.8409452586287
0.0374999999999999,-0.7492176109815831,2.5936677902707723,-0.1790714501692591,-0.1093260203846204,-0.4465624149363667,0.0276294472540265,0.0002006962869431,-0.0003265105007016,-0.3279586803705265,0.9446916946578738,0.038023039922808,-0.01336515780829,11.634716621487351,0.102820127566535,-0.0702770306388697,0.8889201223730363,10.552384163357171,-2.5084972938821033,0.2850047895450373,1192.628441990243,1188.7489869056951,1190.7490752526553,1139.8898534673476,1385.7176310179063,695.0030860927658,-657.0192717249032,-1147.7554554239766,155.84025956707083
0.04,-2.769657091652875,3.044764771457378,-0.203591277918439,-0.1194548461869435,-0.4391043122513417,0.0276401349553841,-0.0001540142331524,-0.0007686048584597,-0.3279345101835257,0.9446999669206436,0.0458645631024851,-0.010974162707809,11.631980784850068,0.1040296839398911,-0.0704509573160491,0.8936010292012867,10.552456759077598,-2.5088050378379734,0.2872169234846242,1196.0354582151683,1190.5483046491452,1189.1456352193109,1136.9486514402772,1055.0818992701343,587.7434568211805,-480.2095922268104,-971.9803581159331,155.83932726593676
0.0425,-4.131256195265411,3.311063792803734,-0.2458143167372752,-0.1334149929596525,-0.4311638030022066,0.0272934329125313,-0.0005108202017267,-0.0011828341885768,-0.3279147281806958,0.9447063979608916,0.0525710412753991,-0.0093810137269848,11.626721877627588,0.1052027276669398,-0.0705953381216005,0.8983085992535214,10.552530526082808,-2.509113848876506,0.2894439445559648,1197.9038514865936,1191.687704189801,1188.3480272915212,1135.029951676768,504.04571945241537,349.5877465718424,-172.2322421417176,-615.6286161883148,155.8384631771528
0.0449999999999999,-5.048131825054278,3.4445178121455378,-0.3086614433252983,-0.1494769457054234,-0.4218467669858109,0.0266683958742385,-0.0008655365180612,-0.0015711677447153,-0.3279023710400621,0.944709955705864,0.0581393000276829,-0.0085448456906756,11.618858738954263,0.1063356624766424,-0.0707054134691515,0.9030269841536684,10.552608449857017,-2.5094221597926727,0.2916874546589731,1198.5556868124304,1192.2962433820044,1188.2844740086023,1133.8705083593356,-1.1373254363206804,119.98477001516225,159.80957179917831,-301.907118248255,155.83751326375108
0.0475,-5.620205245761393,3.445834485739039,-0.4030773264364547,-0.1681115120583887,-0.410461544991135,0.0260169598591176,-0.001214815575559,-0.0019406756200509,-0.3278978874698295,0.9447104978803919,0.0626979767967987,-0.008388767711246,11.608355799907772,0.1074327055492026,-0.0707781070593961,0.9077376596305192,10.55269269201948,-2.509728947202705,0.2939485772312377,1197.898164859412,1192.2876280398768,1189.1470751505171,1133.5204160855267,-458.5861335326168,-138.3225275345011,467.1381597436717,53.627632141069576,155.83627932470964
0.05,-5.700695700000199,3.328319034387995,-0.4915460744187809,-0.1824147468694696,-0.4017039828692723,0.0254374149023757,-0.0015559526276451,-0.0023013648008055,-0.3279006196362077,0.9447082595531776,0.0664590057865861,-0.0088075216899436,11.595226281804008,0.1085029348056266,-0.0708121231013237,0.9124205089048636,10.552783998177595,-2.5100331768983755,0.2962282843650536,1196.2627561447673,1191.6046307443319,1190.6201648073206,1134.1386465200408,-827.830044673829,-417.24412050516565,715.7769187633224,424.96514845152,155.83517630679808
0.0524999999999999,-5.45125932548719,3.120203219736021,-0.57645295566808,-0.1955834186018847,-0.393824918089388,0.0244410243545814,-0.0018883093225484,-0.0026584561169619,-0.3279071752336567,0.9447044270709792,0.0695594424206514,-0.0097542095458306,11.579535174157767,0.1095481781337585,-0.0708146686477522,0.9170556627887252,10.552882311342454,-2.510334386519024,0.2985270054135378,1193.7590146360428,1190.201407437351,1192.7259597443335,1135.6452418277843,-1223.8962300927603,-765.8339507411714,1011.8302761175532,827.8930352651064,155.83399988595994
0.055,-4.871821066492245,2.8127993129859745,-0.6504980507349141,-0.2102229055156408,-0.3852135203032667,0.0223323207458333,-0.0022169591599501,-0.0030148458754871,-0.3279152158799914,0.9446998120068087,0.0721424114350397,-0.0112978360891544,11.561397858826057,0.1105703985746973,-0.0708047728615002,0.9216234177463408,10.552987237791948,-2.5106324740462904,0.3008437920031587,1190.1432749943035,1187.775460990626,1195.6793161879084,1138.2781116963663,-1368.6235782015945,-979.0402517123302,1096.7687067100533,1057.8121972600447,155.8325079360467
0.0575,-4.2273056424916655,2.5451680595681423,-0.6717562220333688,-0.2209451788268983,-0.3790949749578953,0.0199769661154576,-0.0025459550230362,-0.0033665532058056,-0.3279251939454461,0.9446942723075163,0.0742055138079828,-0.0135086120248186,11.540978179757579,0.1115603288345629,-0.0708032809830923,0.9261073776004936,10.55309665658088,-2.5109272510205822,0.3031760630227794,1186.9158967450348,1185.3062061787891,1198.209803277884,1140.9343028140845,-1275.2613477104212,-1014.6158492689668,951.229084420584,1094.409036112666,155.8312008658024
0.0599999999999999,-3.497180454275463,2.3075719685247966,-0.6393826134925533,-0.229405896617408,-0.374394193027786,0.0177906343186079,-0.0028805029537937,-0.0037109237620094,-0.3279403458493226,0.94468668778953,0.0757955783674217,-0.0164435031098212,11.518481715139472,0.1125132104280609,-0.0708309326877098,0.9304934584692884,10.553208527223129,-2.511218370263311,0.3055203180048122,1183.7669682557514,1182.7023817442812,1200.435461610011,1143.7501568769299,-1216.3297946051905,-1003.35089447558,784.7064867467454,1106.067349652722,155.8298307581184
0.0625,-2.7519488319385967,2.1182186457805567,-0.5626961113705369,-0.2357888467465411,-0.3704133151658544,0.015938727172349,-0.0032262006617751,-0.0040470501452564,-0.3279613135200052,0.9446768282166824,0.077010475043731,-0.0201291059795695,11.494149439591112,0.1134284198992056,-0.07090739145918,0.9347703022658208,10.553321628873448,-2.511506605037896,0.3078739637418406,1180.834247772009,1180.2894517064115,1202.1333357116175,1146.464639562348,-1106.9319834036369,-850.7290617723803,497.011599749157,1017.739040074456,155.8284103166569
0.065,-2.041889959929376,1.9976006410769689,-0.4407285702797275,-0.2397311150841827,-0.3664201030757948,0.0142430264583722,-0.0035919001955813,-0.0043777894962826,-0.3279879500819583,0.944664705923018,0.0780612916103345,-0.0246114396574396,11.468249961860504,0.1143150645956125,-0.0710542184350703,0.9389282462033284,10.553435447657266,-2.5117926830522825,0.3102354063536744,1178.2323083387332,1178.4487364354193,1202.920519608757,1148.838852077302,-1076.361201293911,-619.0872602140638,94.68049189213151,934.3703242274833,155.82693102069715
0.0675,-1.2708276500849316,1.9250999375341036,-0.2615575812325567,-0.2421260986209103,-0.3611041583604226,0.012610517162169,-0.0039723647387749,-0.0047030702803494,-0.3280154169443011,0.9446520059570762,0.0789940724432186,-0.0296356109082372,11.441073559889189,0.1151688078435259,-0.0712688028964896,0.9429637355889132,10.553549020170884,-2.512077048349049,0.3126058141745391,1175.452441765539,1177.1940154053411,1202.6067381710784,1151.1364911834855,-979.6056957135069,-289.97008981928013,-323.28844891039773,744.4676355472886,155.82508956724072
0.07,-0.699475770281679,1.9118239223399909,-0.1064957938879207,-0.2429900433573287,-0.356318194548664,0.0121924440225365,-0.0043630091885757,-0.0050268613004949,-0.3280368537049062,0.94464108792609,0.0799492866578798,-0.0349197273822634,11.412922543872844,0.1159934126327136,-0.0715451639670841,0.9468747631092512,10.553661633104548,-2.512360338875029,0.3149858405474014,1173.3342798601657,1176.9988859863229,1201.304077364205,1152.5611902550384,-826.8500865305683,70.04359801094337,-689.2467492824848,474.42357210807216,155.82350059852135
0.0724999999999999,-0.1772947018558701,1.9319869090963055,0.0247574162893774,-0.2437662153417696,-0.3514027167011183,0.0130393579257665,-0.0047644350844295,-0.0053548962729928,-0.3280446339843895,0.9446345504047076,0.0811428318861525,-0.040275467233062,11.384103524143832,0.116799624978829,-0.0718832206363317,0.950660076991148,10.553772554375604,-2.5126438566209934,0.3173746841924552,1171.3181913328865,1177.5442333953958,1199.160504424666,1153.508609044026,-870.7498274807236,330.2163832997855,-1027.3102128901448,321.4698881770807,155.82185562595075
0.0749999999999999,0.4391876036548395,1.9828694454880993,0.1305016213985909,-0.2449887715611327,-0.3454077429268578,0.0147415220713631,-0.0051784702783071,-0.005692044878817,-0.3280351344317349,0.9446336051952888,0.0827761495099295,-0.0455471919067103,11.354920004989427,0.117598591392245,-0.0722825156674812,0.9543202894735064,10.553881762224712,-2.512928075328664,0.3197711735346893,1168.980530722762,1178.6499679028216,1196.1675262997544,1154.168539695924,-831.1496614330274,398.95939550538026,-1065.8739549679003,174.4103547626308,155.81981686686711
0.0774999999999999,0.9704252532378828,2.043652046172985,0.1730318838556812,-0.245352988487664,-0.3401873595787076,0.016005592619609,-0.0055971257996473,-0.0060388888501557,-0.3280079169835845,0.9446384296270194,0.0848789773571899,-0.0504070388132113,11.325666192801826,0.1183884410608712,-0.0727248903295207,0.9578606227066464,10.553988925671776,-2.5132126083040975,0.3221753834792802,1167.1624430257211,1179.5390303729228,1193.8311346498265,1154.380660817839,-665.8386680778672,242.91191383585988,-784.0286711264063,28.577299373773688,155.81806357293533
0.08,1.522769513446488,2.125582353783485,0.1832007724479906,-0.2434671232891149,-0.3345595152233215,0.0165250523057191,-0.0060127659795011,-0.0063991078812258,-0.3279661066046664,0.9446479452267664,0.087542568404735,-0.0545254025686314,11.296617788944344,0.1191737885196469,-0.0731882234655541,0.9612872349549741,10.554094543095024,-2.513497331822143,0.3245879091532158,1165.6513373823727,1179.864527472001,1192.2473829441224,1154.3114261927929,-520.0919161957695,-32.66578965726691,-442.6440408496088,-64.58247651644336,155.81625334802763
0.0825,2.0745793849610314,2.233436291587737,0.1845445195760771,-0.2393983925341835,-0.3287610321539551,0.0163753026422873,-0.0064199279849359,-0.0067746846587166,-0.3279112237901437,0.9446616374949552,0.0908289927154744,-0.057651039997795,11.268026558653837,0.1199573774596097,-0.0736542578196362,0.96460748350078,10.55419928804863,-2.51378273568015,0.3270091405127697,1164.5619834447425,1179.3757014246364,1191.6179144455784,1154.0577484352568,-297.9700772319572,-442.9066084755046,15.191045268466029,-135.93116910515153,155.81439545107057
0.085,2.5939717593542846,2.3924337111739167,0.1932518067478041,-0.2330416668831716,-0.3230063932824537,0.0157934997696036,-0.0068132409257338,-0.0071640177905122,-0.3278479756619908,0.944677918524688,0.094713842320556,-0.0595840019779272,11.240115256467492,0.1207359570031152,-0.0741051829473534,0.9678306218863008,10.554303337391971,-2.514068914136307,0.3294377436184424,1164.1614869962127,1177.6499944296236,1192.3233381704647,1153.631770347267,7.828123132821921,-1052.1277475152135,605.9412519565279,-218.36274716843016,155.81247944938136
0.0875,3.1455302714858053,2.675915858846867,0.21910858904131,-0.2235228047938986,-0.3164475050497703,0.0155417915239551,-0.0071893711009162,-0.0075624049967486,-0.3277789611265389,0.9446959499171708,0.0991107487548617,-0.0602169168735648,11.213072680121911,0.1215015751775251,-0.0745284002222867,0.9709671945785878,10.554406742592288,-2.5143564124524778,0.3318735610611908,1164.6011240604066,1174.1150626870603,1194.647620705361,1152.9659346994147,310.8846616654324,-1501.8296515830143,1049.5119649084263,-266.16514104998765,155.81011221102875
0.0899999999999999,3.533330524808521,3.011742016795621,0.2462162689485944,-0.2149387036256957,-0.3111422927354308,0.0161823468142527,-0.0075473520446364,-0.0079667496558147,-0.3277069401744815,0.9447148198911686,0.1039722251903468,-0.0595090042304544,11.187048753232308,0.1222508423844497,-0.0749138971060737,0.9740279449415276,10.554509695832168,-2.51464542283212,0.3343168016042387,1165.71591030454,1170.1408461717083,1197.5708979950068,1152.3009446420172,570.353137581561,-1717.503883884868,1282.0611199336352,-285.86005151441947,155.8080821477207
0.0924999999999999,3.8469808610066343,3.4611276358591785,0.2651692388792417,-0.206277564237255,-0.3051128502018097,0.0172974922486627,-0.0078834689993936,-0.0083723939298999,-0.3276337196503608,0.9447339931047414,0.1091837104668912,-0.057402590980685,11.162153394545872,0.1229758765493813,-0.0752474007410793,0.9770253530647516,10.554611383595082,-2.514935975688229,0.3367667611835167,1167.4528897483144,1165.527543267636,1201.0579263050292,1151.5366344418424,844.7657345961934,-2052.1335298707054,1538.7991253502591,-355.95523198007834,155.80599170438566
0.095,4.1433273137571325,4.110680520173865,0.268354177669364,-0.1953734925725121,-0.2958003705504902,0.0185625390706271,-0.0081925882386577,-0.0087725362724115,-0.3275643583047519,0.9447518443026804,0.1145600466105957,-0.053856005603665,11.138455455313451,0.1236647752167381,-0.0755124421011036,0.9799732875570814,10.55471109129289,-2.5152276306096586,0.3392222634382257,1169.939738977521,1159.8801785223548,1205.264893621758,1150.5211684821168,921.6125371736773,-1998.408616259574,1458.1480262628688,-386.5659822344693,155.8034123426245
0.0975,4.323401966022253,4.707802814700902,0.2537546297126281,-0.1856440985160168,-0.2856966248906853,0.0193785730744038,-0.0084734879064313,-0.0091603109291944,-0.3274990488929596,0.9447684105067288,0.119928772633194,-0.0489405599242342,11.1159817611081,0.1243076616379804,-0.0757011808036781,0.982885158872452,10.554807957078673,-2.515520130641356,0.3416825774172337,1172.0609524341828,1155.535500186338,1208.3486664363436,1149.6038045306702,788.9854023261697,-1573.3663657445036,1060.2390045475195,-380.36571717107074,155.8012029762211
0.1,4.427180391853248,5.3068340515462795,0.2252145174562225,-0.1751429139087136,-0.273118887487834,0.0199441522699105,-0.0087283766944149,-0.009527590016776,-0.327441151518849,0.9447826189167468,0.1250997783990819,-0.0428359896226944,11.094719093528004,0.1248952890066586,-0.0758128611615976,0.9857738224387798,10.55490171784629,-2.5158132418383494,0.3441466245273199,1173.884665989152,1152.0133466936325,1210.5660886444955,1148.6193398962614,668.591221944825,-1293.4271803324452,709.2135684084944,-449.0980018526894,155.7989300368988
0.1025,4.452413209347467,5.965576997884488,0.1814971642701961,-0.1620907925163734,-0.2560979864919379,0.0204451420957592,-0.0089619992135355,-0.0098693886387514,-0.3273904546108736,0.9447945868256724,0.1299520949310599,-0.0357768829640383,11.074615742467063,0.1254255069327528,-0.0758514077774706,0.9886504299314628,10.55499223303,-2.5161069692553126,0.3466138711441003,1175.4039085439067,1149.068364284676,1211.894734278386,1147.3583145214068,419.08861238616817,-845.8340731312107,238.5047414257774,-477.1708680985748,155.7961268593615
0.1049999999999999,4.385007834472636,6.42847244745635,0.1415166337229844,-0.1514254368484476,-0.2409227931987442,0.0208013583767065,-0.009180070635641,-0.0101770869381482,-0.3273482317146583,0.94480394696956,0.1342802358050365,-0.0280648068414964,11.055588123391312,0.1258901698367408,-0.075826171326211,0.991525418637918,10.55507955005107,-2.51640066099509,0.3490844224137508,1175.9801090510828,1147.7841763279764,1211.7586123516246,1146.2334855557683,88.64936575623705,-276.20707731457566,-322.7188656796904,-468.43808569315206,155.79372592019487
0.1074999999999999,4.222351924068991,6.769421035991414,0.1021571782838712,-0.1414233687794093,-0.2248508633456862,0.0211415290878424,-0.0093869438304826,-0.0104484145563617,-0.3273129695313064,0.9448112433345423,0.1379884267022162,-0.0199430434943761,11.037522686168304,0.1262914053695456,-0.0757425122056075,0.9944065245937505,10.555163829612367,-2.5166940891635043,0.3515584340830145,1175.847155372688,1147.687328898103,1210.2811399499876,1145.016124092941,-144.6381955976447,137.46227668689232,-807.5486688836456,-505.3460983057444,155.79125487193173
0.11,3.977544823318953,6.989785882074521,0.0665914691376085,-0.1319760833069703,-0.2079801680335604,0.0214255800706613,-0.0095851483539769,-0.0106795273180829,-0.3272871302008404,0.944815676610132,0.1409220452023667,-0.0116391788483033,11.020284740527329,0.1266272355054223,-0.0756047692253612,0.9972997545797668,10.555246121357584,-2.5169854355744987,0.354037364282228,1175.2569180730943,1148.4714877114109,1207.7208690072064,1143.7067550642398,-291.6643680660852,490.6060350263483,-1262.97552693586,-548.6213027668778,155.78872338931262
0.1125,3.625317397822731,7.047421636330744,0.0405105469872443,-0.1230450680378782,-0.1904297800185819,0.021487557843078,-0.009774953647079,-0.0108712264383925,-0.327270501912961,0.9448173422847844,0.1429982713669582,-0.0033065183984322,11.003722780858716,0.1269016931507709,-0.0754130996854609,1.0002078425597014,10.555328455955552,-2.5172735586653334,0.356523530942586,1174.3888335323577,1150.1403590732348,1203.9662623153083,1142.2730175791066,-365.43429361113306,891.9568535048248,-1878.3720356255783,-657.1704384592971,155.7861159118582
0.115,3.063515982117909,6.919055967312512,0.0264894220387607,-0.112802830866835,-0.1693451873099233,0.0212190766384112,-0.009956411659409,-0.0110206280493236,-0.327265067443914,0.9448156154119308,0.14404943129996,0.0048789361713026,10.987678657740409,0.1271109196259295,-0.0751715007274226,1.0031311736579767,10.55541236647048,-2.5175575418615668,0.3590194297037547,1173.4297466050389,1152.931271978935,1198.3290088290785,1140.420902871943,-287.4486021295977,1125.244549464286,-2202.6394162684464,-691.5967669633568,155.78289463789915
0.1175,2.471520263742182,6.652630050735705,0.0312216956352927,-0.1045825482630093,-0.1523394834738603,0.0208407490119166,-0.010131430882376,-0.0111309132730363,-0.3272683847600366,0.9448113077404716,0.1440461391285456,0.0127504764534402,10.971990808145092,0.1272618596657572,-0.074886588862927,1.0060656219464836,10.55549895195875,-2.517837282316981,0.3615262928233175,1172.9515905217097,1155.7665818205562,1192.953065233966,1138.8150337442898,-92.8681113095992,1210.7315475253947,-2209.419023649802,-631.8471767443509,155.78012989446404
0.1199999999999999,1.7590638491923969,6.2409812421901965,0.0491200425712189,-0.097397442438425,-0.136430173213051,0.0205462131866361,-0.0103023390109309,-0.0111997501420616,-0.3272788321106858,0.9448050020761252,0.1428490353886111,0.0201026689292454,10.956505620500128,0.1273501413381395,-0.0745707829775549,1.009005521039348,10.55558811754842,-2.5181129127122603,0.3640450115455942,1172.9654060484909,1158.984929716562,1187.2819137108295,1137.2616669882216,106.92676637568204,1469.9610755831627,-2452.723914424364,-628.6417423991236,155.7772778650644
0.1224999999999999,0.8135996552261051,5.617141824032492,0.0725334179854016,-0.0919497991635234,-0.1189105448588559,0.0204787028400367,-0.0104703012721732,-0.0112279150111703,-0.3272920655417545,0.944798197713906,0.1403816982028017,0.0267900488499631,10.941079737323369,0.127374898842035,-0.0742339369187674,1.0119429877738204,10.555678965965766,-2.518385054820244,0.3665759109595616,1173.486224353588,1163.116387198472,1180.6894456618443,1135.6718250322942,232.5988739291913,1526.8671265477665,-2298.058124182533,-498.31166539461213,155.77375058750775
0.125,0.0118049062283595,5.024073190632838,0.0797679029442237,-0.0910811440657544,-0.1059017012499681,0.0207371369229897,-0.0106364464215549,-0.0112155669484699,-0.3273059055406966,0.9447916493079048,0.1365638880025186,0.0326805759141213,10.925586320021724,0.127333157655208,-0.0738863366134281,1.0148690811742087,10.555770503535292,-2.5186537249255974,0.3691188235050708,1174.1284004181368,1166.6192653493008,1175.7916230899168,1134.7701086612483,222.94215865617824,1361.6503633023956,-1744.1366973941042,-222.99663761323225,155.77072137881115
0.1275,-0.7204796611379409,4.402660459651205,0.0566847163683103,-0.0936173717661601,-0.0949353117091377,0.0213428889485875,-0.0108053054241001,-0.0111742383617153,-0.3273223175872702,0.9447844925838396,0.1315862385367691,0.0376727913204862,10.90991400997275,0.1272454070662632,-0.0735365300308092,1.0177714523092207,10.555863814934357,-2.518919302318304,0.3716730043018901,1174.600935146869,1169.924639014984,1171.9687621748735,1134.556841844228,73.54289061181582,1338.264965549705,-1355.5393204697782,116.48113280766655,155.76759657410136
0.13,-1.4403610278937728,3.6799252668400655,-0.0208695266649384,-0.0989708710744774,-0.0842529012368177,0.0223562871806741,-0.0109821094673033,-0.0111126834168051,-0.3273443223336033,0.9447755181592652,0.1256020097932218,0.0416514196582488,10.89397513424012,0.1271263307906159,-0.0731960780646028,1.020638353984196,10.555961019131976,-2.519182020801605,0.3742385315474751,1174.496114871196,1173.310590177049,1169.013926487568,1135.3525143252868,-203.58227803812932,1095.7988949155142,-783.2103156913028,491.20689093483594,155.76373423443627
0.1325,-1.8749850343753725,3.130934191753628,-0.1291002586736187,-0.1041005224799261,-0.0773248285720256,0.0231934248024324,-0.0111703451758107,-0.0110456292554876,-0.3273691586888808,0.944765462815608,0.1188952826359566,0.044600305699298,10.877703127352758,0.1269992523846877,-0.0728702532766896,1.0234581436356247,10.556063746833699,-2.5194423409650946,0.3768153072747513,1173.5830237566784,1175.4036334895616,1168.0527105964172,1137.0128762989023,-563.9868922520686,642.6487710495616,-80.28809062880094,875.1326576207695,155.76042078103663
0.135,-2.124443204395668,2.661506072281305,-0.2700172804314184,-0.1087143282341208,-0.0720105157596695,0.0234477824869547,-0.0113687906117323,-0.0109822530561092,-0.327397444406012,0.9447540086908824,0.1116211688952438,0.0465806062678256,10.8610566941124,0.1268735947974369,-0.0725573214822711,1.0262227526671035,10.55617129741811,-2.5197001794120095,0.3794012152339117,1171.6761804099356,1176.5238340322971,1168.612486034424,1139.7281776133907,-916.9593067740144,271.5230559941117,440.2722310240729,1241.6959860951908,155.75700824072845
0.1375,-2.21743926425458,2.2589992121732534,-0.417508601742939,-0.113219075425184,-0.0672449541301251,0.0227394784270853,-0.0115731976097418,-0.0109314279962371,-0.3274258578965738,0.944742243295,0.1039302406650679,0.0477315122334152,10.84401649971596,0.1267554658608617,-0.0722494797864248,1.0289267430528648,10.55628202045452,-2.519956527878356,0.3819936031163681,1168.9982272228083,1176.761248769532,1170.2540717515376,1143.2213562293782,-1210.857740847085,-113.3180031014034,845.3025389044334,1534.3319934687756,155.7535134695813
0.14,-2.1120671520628576,1.918504464887116,-0.5419393417847822,-0.1186536862065191,-0.0623988137863821,0.0208343343818363,-0.0117824045737706,-0.0108987174336863,-0.3274522917283068,0.9447308385290908,0.0959487876216877,0.0481214877851842,10.82658500611404,0.1266469924174326,-0.0719452220814713,1.0315666675714494,10.55639502762539,-2.5202128281911937,0.3845904483426782,1165.6218917057,1175.95724401679,1172.838998728946,1147.3998375807344,-1559.2861304673063,-562.8712440969589,1244.5495593380188,1902.6669713801753,155.749919975797
0.1425,-1.7406098885000136,1.5470675940362246,-0.6319467092919746,-0.1260302042576041,-0.0565118287770378,0.0180449422609462,-0.0119938690706794,-0.0108850563812915,-0.3274739461816837,0.9447207819237726,0.0877205743087613,0.0478283620013218,10.808783887251987,0.1265407460508432,-0.0716420060776323,1.0341421193446751,10.556509194711712,-2.5204701884347047,0.3871909084861392,1161.2017965704715,1173.946892549047,1176.4768195482277,1152.734691086279,-1610.8731300301845,-874.1038339196208,1343.791788842197,1926.4894201031077,155.74549492461256
0.1449999999999999,-1.2279944648218855,1.2484099061013103,-0.6455020219188939,-0.1316206931392062,-0.0520544776501781,0.015923715909071,-0.0122077499158079,-0.0108898168730015,-0.3274892564456367,0.9447126231321524,0.0792965932709618,0.046875032902562,10.790650703726026,0.1264290132621923,-0.0713418922801707,1.0366538565527983,10.556624687606009,-2.5207291050090146,0.3897947780493149,1157.5675260555493,1171.586724847192,1179.557957673157,1157.03228468125,-1365.9065124372837,-1030.343783216499,1164.2218095952155,1585.489672622187,155.7417147922524
0.1474999999999999,-0.5352062519357527,0.953186952918934,-0.5937710629089606,-0.1353445667101689,-0.0484774090979759,0.013951046785509,-0.0124225472260248,-0.0109080701304129,-0.3274949990857458,0.9447075619684336,0.070647378721404,0.0452969247123648,10.772236591833224,0.1262954279695026,-0.0710459223531794,1.0391048244571848,10.5567413532427,-2.5209893661602054,0.392402695705756,1154.3722640082851,1168.7951736329649,1182.2979285962035,1160.66213944939,-1237.2093223637864,-1254.552906267871,1065.8398580806067,1340.1854345438085,155.737840939377
0.1499999999999999,0.4306649348410305,0.6160151499784159,-0.4661708265268751,-0.1367550843681212,-0.0453696052836558,0.0118083956031171,-0.0126396800755024,-0.0109369160284873,-0.3274898975234799,0.9447060645405234,0.0618200381922297,0.0430908636384491,10.753602569307448,0.1261313359693456,-0.0707582813760313,1.0414975062440848,10.556858468172296,-2.5212507216920623,0.3950135455738469,1151.3814794437303,1165.3139603158527,1184.88715696356,1163.7332118539691,-926.2019492039591,-1243.094568680998,810.3646236163505,861.7865954243362,155.73308756796533
0.1524999999999999,1.274782436233951,0.3711243038608234,-0.3196872269632025,-0.1349915883458275,-0.0440176763600846,0.0105229490208224,-0.0128481076722257,-0.010972942091078,-0.3274769292924086,0.944707286912001,0.052773326168353,0.040507000326048,10.734816559396428,0.1259209815723658,-0.0704575416125633,1.0438372985079507,10.556975487133316,-2.5215119784849214,0.3976279647793973,1149.7412542622656,1162.5797007895599,1186.3497517142855,1164.9710724265117,-466.9351675565391,-997.0449775919852,437.1214990505901,200.31141280187492,155.72904232985513
0.1549999999999999,2.062837038174493,0.1971687266913325,-0.1557773061316226,-0.1301857559214514,-0.0441119541057457,0.0099647545970269,-0.0130384272758021,-0.0110131565048194,-0.327460570162026,0.9447098428837042,0.0434936147615284,0.0377658864307303,10.715953580235055,0.1256527429716335,-0.0701246148987416,1.0461288226818697,10.557091678728792,-2.5217715043402498,0.4002463123837896,1149.0468036059476,1160.3287354278928,1187.072764458813,1164.7347689179785,-99.70838654735408,-820.1467666482579,165.22563925168456,-418.0434608048922,155.72491430486363
0.1575,2.837572819635075,0.1029677973685365,0.0294772652843962,-0.121485749225514,-0.0454061965704461,0.0101564303361254,-0.0131999468658731,-0.0110545766860391,-0.3274432882137167,0.9447130672723554,0.0339633516165819,0.035114147372017,10.697094535218705,0.1253159037847353,-0.0697383165273949,1.0483762812443824,10.557205425033494,-2.52202799891598,0.4028692989778457,1149.2427123295288,1158.4789669563183,1187.175879910544,1162.8808551224872,219.0282307628875,-508.45460618211246,-67.36796977461375,-894.2169576234838,155.71987114930266
0.16,3.2782810440816754,0.1284277529640884,0.1534594687094712,-0.1123382260780207,-0.0466745581193628,0.0107542979327246,-0.0133303572059354,-0.0110975260749196,-0.3274243634205748,0.9447172495062642,0.0242920160312348,0.0326516848262582,10.678326193393595,0.1249134939370992,-0.0692927062819774,1.0505805203276513,10.557315866407688,-2.52228094282282,0.4054976398110087,1150.141944759762,1157.786462396982,1186.73592460994,1160.263684129861,470.77117404460256,-90.92944410858753,-254.934620085123,-1191.7950264553372,155.71559924580504
0.1625,3.459283597318268,0.2471848363415688,0.2269209722133851,-0.1021258177592021,-0.0471994684693087,0.0114847536550773,-0.0134254782478465,-0.011139935352938,-0.3274007776750503,0.9447235366278716,0.0145249194387734,0.0304994295613844,10.659740631399576,0.1244437089002102,-0.0687807045713146,1.0527422413150822,10.557422525718613,-2.522529198021759,0.408132850043864,1151.5965681997518,1158.0243197357756,1185.9012068101183,1156.9218799902103,637.9210894430338,237.18004094503135,-378.5264412651028,-1392.0955604954986,155.71126293992415
0.165,3.4148857548694598,0.4163108325057495,0.2484984175600344,-0.0916733268065718,-0.046721697800208,0.0123966013123222,-0.0134867762579979,-0.0111745937105425,-0.3273740092750841,0.944731503248336,0.0046355733666875,0.0286273441056361,10.6414359251683,0.1238998339978457,-0.0682095198610129,1.0548610231076387,10.557525223173112,-2.5227719399184365,0.4107754458228158,1153.3315502069772,1158.9723626017071,1184.8432924036144,1153.3032063273836,718.9154765580035,512.8375487558965,-458.74756000234765,-1439.2980531582891,155.70687970931752
0.1675,3.119884020374947,0.6040527923429281,0.2002486373812139,-0.0815310526213993,-0.0449343712873793,0.0137404525322369,-0.013513667081054,-0.0111890201418286,-0.3273476860934262,0.9447400708087704,-0.0055306279629407,0.0270094707343843,10.623513843297737,0.1232636004123512,-0.0675860950660183,1.0569372586363,10.557623957225012,-2.5230084247710423,0.4134268593432059,1155.1911455825418,1160.5885074795551,1183.6074690101063,1149.725389724419,800.6861992565056,794.123781166217,-573.9204065891495,-1485.2705573639455,155.70244881877696
0.17,2.548305367533435,0.8002735767838153,0.0639513541363119,-0.0710751682621528,-0.0416836596391149,0.0153566272487667,-0.0135192742248325,-0.0111748786941887,-0.3273219155584645,0.944749123327311,-0.0159557938836772,0.0253747822368386,10.606079413293152,0.1225334040569253,-0.0669433441565854,1.0589675443754856,10.557719215793828,-2.523238594828544,0.4160872034287229,1157.3349812032595,1162.9429815075384,1181.9736903706687,1145.8768535405638,746.5675241921865,871.0716389447491,-624.7591865275803,-1296.9918365962246,155.69708955432455
0.1725,1.9736258091291896,0.9139667860929072,-0.1003064056893002,-0.0654195230961421,-0.0386270721981079,0.0159010707722205,-0.013510429632067,-0.0111295536858189,-0.3272984368496844,0.944757991194288,-0.0265602842065309,0.0236191560913635,10.589236881852488,0.1217136646975238,-0.0662978449447351,1.060949218790162,10.557811937648532,-2.523462441380174,0.4187570894291494,1158.9239832035028,1164.9438656742789,1180.4836730774687,1143.240430541438,574.4885007549324,736.4085214790059,-627.521547464857,-910.6004727736938,155.69259866226307
0.175,1.4133152486668754,0.9628269953990756,-0.2863823550528765,-0.0639119350682866,-0.0356558046624817,0.0151732711107399,-0.0135026440301311,-0.0110699441376787,-0.3272752389029867,0.9447669256991876,-0.0368211210960238,0.0216016282425688,10.573089529854059,0.1208517669473066,-0.0656711363498231,1.0628753946461564,10.557904499370283,-2.52368179049366,0.4214340978799125,1160.2074237070344,1166.6250241149335,1178.8360826333444,1141.3238511766951,478.1375337645863,600.8338993566241,-759.9227893179467,-668.2606217943916,155.68809539658625
0.1774999999999999,0.8682558484698223,0.949735153415002,-0.4958373001345512,-0.065012688987106,-0.0325825541577916,0.0134853932592932,-0.0135083070119472,-0.0110133719270994,-0.3272502481817797,0.9447762402123708,-0.0462379951047562,0.019246945648238,10.557738549730788,0.1199918942577399,-0.0650782799270393,1.064741576533664,10.55799903432912,-2.5238984829956403,0.4241155864483845,1161.3146708723257,1167.948035171062,1176.6840591308787,1139.899127432466,324.8144008715841,343.9468853247506,-805.589692434527,-377.23081420076767,155.68269383141393
0.1799999999999999,0.5578069154029189,0.8884448612252096,-0.6354771970192815,-0.0665590910978786,-0.0305700358587829,0.0116439225379877,-0.0135358365908311,-0.0109764575863137,-0.3272197391576024,0.9447868954464036,-0.0543591675284789,0.016554191205924,10.54328009721638,0.11917202092736,-0.0645269669971529,1.0665461999347519,10.558097304603065,-2.5241144295015383,0.4267998129004129,1161.8314957113923,1168.3447585415572,1174.8081341711716,1139.4376971056915,115.36087350395964,13.771907454884044,-737.021203721951,-36.417397025479616,155.6782065197738
0.1824999999999999,0.3835753658980601,0.7866591473367079,-0.71937012513774,-0.0672260568558192,-0.0289654419571409,0.0091193088214261,-0.0135865203120919,-0.0109691309004617,-0.3271833215234162,0.9447988825978094,-0.0609225544417592,0.0136153551677872,10.529801869813483,0.1184106097821854,-0.0640139630496929,1.068292175706376,10.558200799390708,-2.524331166751905,0.4294865915965673,1161.8914752398455,1168.0168947083364,1172.9989531122692,1139.7170404473386,-79.63251977803331,-272.76521561698223,-733.8236538403629,291.80042922971523,155.67374732038724
0.1849999999999999,0.2641156920204326,0.6253681254380966,-0.7479549024655004,-0.0658704930356673,-0.0272055088712067,0.005858144638293,-0.0136562880592863,-0.0109900656221655,-0.3271445616909817,0.9448110302411205,-0.0659323609565277,0.0105467074776901,10.517380275469032,0.1176993232135275,-0.0635315533147775,1.0699869753680242,10.558308953912238,-2.524549152049778,0.4321748868568257,1161.433333112502,1166.9809324634723,1171.13901590197,1140.89669925184,-249.89477596818665,-442.0812887473854,-597.4675280460355,570.3716401681953,155.66844356454965
0.1875,0.1799900918409546,0.4595881508177021,-0.7193209328626174,-0.0627911703844482,-0.0257578491256863,0.0036556528558907,-0.0137456271631612,-0.0110385567624157,-0.3271061497312118,0.9448224022860297,-0.0693518420986174,0.0073741354935866,10.506079355202797,0.1170342540816749,-0.0630802135225902,1.071638065053728,10.558420474376188,-2.524768281804425,0.434863729212667,1160.6420013600043,1165.8064882645995,1170.011615472039,1142.5688986481796,-385.1789056798676,-475.3670312287337,-336.09586405495946,803.3031936281524,155.66407338032857
0.19,0.0657711524390344,0.2619056831407927,-0.6571032388460532,-0.0594121020266533,-0.0245171726088975,0.0023303240628404,-0.0138567482741311,-0.0111113143643809,-0.3270680445805788,0.9448330215921024,-0.0711871057927394,0.0040677214589569,10.49594913489906,0.1164081758246135,-0.0626655889148016,1.0732535552979716,10.55853345141768,-2.5249887728526925,0.4375527946074455,1159.5074385841028,1164.6040973073286,1169.4585365816952,1144.9132152199809,-491.63429936320387,-446.15133510910664,-118.88801263817176,1036.1322169272617,155.65976619302958
0.1925,-0.0726582821901986,0.0413645426451697,-0.5839988081422267,-0.0574982612066678,-0.0238165702916664,0.0016003611634028,-0.0139926536053229,-0.0112044977467813,-0.3270316991206412,0.9448423966334292,-0.0714564880991562,0.0005719694993178,10.4870249577314,0.1158152022334694,-0.0622944471661402,1.0748414171370249,10.558645615745952,-2.5252095369346432,0.4402413750093644,1158.1838298631883,1163.575731589054,1169.417175408848,1147.749559732816,-543.9322459317732,-333.87489654232894,98.00381198888307,1226.0305608556323,155.65551929715892
0.195,-0.2016257057075054,-0.1971611144692183,-0.5102201048074547,-0.0576329180731629,-0.0239962669245707,0.0011325376080424,-0.0141463570715454,-0.0113116066858875,-0.326997851154319,0.9448504630120363,-0.0703079846098859,-0.0029949405652291,10.479326356375791,0.1152390954007694,-0.0619549886843871,1.0764112801034265,10.558755299642003,-2.525428523694415,0.4429306090277039,1156.787777354444,1162.9347228246168,1169.9485556416396,1151.043368024259,-584.7127801181153,-165.04561133497177,336.3833922468527,1502.8732366139125,155.65135419891095
0.1975,-0.2769341399516315,-0.4888213970963383,-0.4213740137084872,-0.0594418870193757,-0.0250778219180713,0.0002583176064836,-0.0143120370180486,-0.0114264583570242,-0.3269674713755393,0.9448570584255538,-0.0678867254804784,-0.0065429393531752,10.472859904846391,0.1146672934487558,-0.0616374302355738,1.0779711043032743,10.558861107321144,-2.5256446277959217,0.445620842917598,1155.260265962598,1162.750503532379,1171.0990923700824,1155.2639259158855,-502.52912220871576,36.16316810666827,477.3383905550869,1542.6049440540723,155.64646154432697
0.2,-0.2283163920263349,-0.7255810499636236,-0.3388681996699728,-0.0618350087700152,-0.0265631305456612,-0.0008276892428112,-0.0144705512870568,-0.0115394985927235,-0.3269416627711514,0.9448622098318396,-0.0645101643435819,-0.009748647769236,10.467619179635944,0.114072917882565,-0.0613073331669439,1.079530128264374,10.558962716826036,-2.5258565355870033,0.4483146787546504,1154.2751317434004,1163.1155386651503,1172.335247594415,1158.7563927445294,-303.8457149223629,244.90298193186368,513.459532304068,1324.4318636404375,155.64247941656564
0.2025,-0.0329797874448666,-0.9441678807519828,-0.2360709513318019,-0.0644005985054567,-0.0285283642414388,-0.0021663541031011,-0.014607092055276,-0.0116412497129697,-0.3269232554746127,0.944865284231748,-0.0604818812667196,-0.0123818251763862,10.463589152169332,0.1134339051405954,-0.0609389244231886,1.081094625585098,10.559060855168607,-2.5260631896771923,0.4510152158014225,1153.741037387986,1163.9750184420384,1173.6663900316028,1161.8860852340877,-113.6074274539168,463.5456667663216,566.6333043365735,1216.7615673613443,155.6386035340749
0.205,0.3643290566453862,-1.172139624243318,-0.0847497109444823,-0.0669130039802651,-0.0315308205748877,-0.003780693390503,-0.0147084332573147,-0.0117202575548502,-0.3269151471627589,0.9448656323260796,-0.056152698471094,-0.0142635300636601,10.460747559217271,0.1127261555990251,-0.0605113633791571,1.0826689981792628,10.55915576066624,-2.5262633679293818,0.4537253169814615,1153.7070946061308,1165.433266998982,1175.168414116098,1164.840200581336,87.50302273588197,574.4655033956856,511.06442979744264,905.5267943876509,155.6340828302155
0.2075,0.7928449840051857,-1.323228519031634,0.0564420286588881,-0.0673248959744637,-0.0347424712840807,-0.004708403310327,-0.0147758199210096,-0.0117687394788018,-0.3269180323172851,0.944863092079019,-0.0517214040702604,-0.0154807862519207,10.459067378785388,0.1119434125332731,-0.0600315077573079,1.08425302115721,10.559247266148509,-2.5264565823419645,0.4564457060161279,1154.1785525016655,1166.8473459590168,1176.22171218059,1166.413719206026,275.93650914018457,561.6132338985179,361.2811008424632,419.4949713517436,155.6304289462913
0.2099999999999999,1.2417737505963171,-1.4236053665095485,0.1880719455143485,-0.06435498646906,-0.0386915028060294,-0.0046290028858588,-0.0148084522628336,-0.0117821435532033,-0.3269340430223597,0.9448569923628598,-0.0473580583382484,-0.0160637385372646,10.458515627879075,0.1110845056985498,-0.0594995325231476,1.085846017006158,10.559334553002447,-2.52664258768687,0.4591764069725736,1155.0867771518317,1168.2413331684745,1176.97481962031,1166.9376754380949,414.5775459366197,518.9292922672417,244.3258663762674,43.196384676366705,155.62689743003563
0.2124999999999999,1.6380702002226173,-1.4796308362459527,0.2855046628895371,-0.0586659529961118,-0.0428430100932532,-0.0036732875708793,-0.0148181307228134,-0.0117692457684445,-0.3269613436268725,0.9448476571510236,-0.0429014953986575,-0.0162037461105081,10.459054360275989,0.1101832966204742,-0.0589326442635962,1.0874434325822695,10.559417506095384,-2.5268232759904046,0.4619140687967755,1156.2514402313486,1169.441992420353,1177.4433415124713,1166.6297011294075,496.0046718434564,397.1569135232127,117.19547554785083,-281.8367626809502,155.62347015600537
0.2149999999999999,1.907906916342436,-1.489448523770437,0.3112657045229255,-0.0513341881296023,-0.0465761398246262,-0.001821102854855,-0.0148166944862579,-0.0117418631099119,-0.326999261793464,0.9448349722593168,-0.0381480858560375,-0.0160767351135088,10.460638895931115,0.1092786556928351,-0.0583455549829399,1.0890417882004695,10.559497447251642,-2.5270005668499795,0.4646557490423215,1157.5668005110488,1170.2271177360903,1177.5607969980495,1165.52849162469,572.7709940502332,221.6966899802626,-24.34815004558002,-584.9951117252652,155.62017105129647
0.2174999999999999,2.0576119540058793,-1.4651802695209983,0.235960476708612,-0.0428354928216671,-0.0504153607943845,0.000967591785964,-0.0148120734523151,-0.0117121139201765,-0.327044666402797,0.9448197390315553,-0.0329285302516549,-0.0157820160716974,10.463216669360799,0.1084051927739929,-0.0577450419345229,1.0906401576440223,10.559576001108848,-2.527175966117604,0.4673991850624992,1159.1152952015996,1170.5504758702543,1177.3216007622434,1163.7047255707814,538.5569060598295,14.081841411234551,-143.27155235446287,-685.1152018431543,155.61636245426067
0.22,2.0549952897136783,-1.4265583592525193,0.0873403588574467,-0.0368578549695407,-0.0533312593418138,0.0030475629608757,-0.0148063765753865,-0.0116896622139687,-0.3270957633710955,0.9448024229239224,-0.0271729668456302,-0.0153237809374837,10.466726282910464,0.1075863854756204,-0.057127290425914,1.0922408128781236,10.559654731274115,-2.527350721382926,0.4701437417548518,1160.259585041348,1170.2975269431467,1176.8444392362771,1162.1029156154743,410.0888521380508,-189.38588722430703,-235.53808399274183,-588.1298028393297,155.61331490348854
0.2225,1.9697148514088367,-1.3753916394329666,-0.1194338261141847,-0.0323194036667869,-0.0562438665935593,0.0036649179337604,-0.0148018383579462,-0.0116799343587979,-0.3271489560751815,0.9447841684851948,-0.0209006383672664,-0.014738792769919,10.47109743842097,0.1068348830570893,-0.0564921554416506,1.093848035363319,10.559734788094628,-2.5275258635950175,0.4728896022277499,1161.16573946229,1169.6035464341328,1176.1439103422797,1160.7640765565848,339.03500839633097,-364.00248289301055,-340.14988214180414,-480.24309689872047,155.6103991401025
0.225,1.8378962774250525,-1.296960829597695,-0.374492730843297,-0.0281273063942191,-0.0597627243599291,0.0022102613274599,-0.0148033992451768,-0.0116900737723317,-0.3272002361090893,0.9447662025072918,-0.0140809899263284,-0.0141060032420969,10.476250403798888,0.1061671560357475,-0.0558441215994654,1.095466241214608,10.559817196356523,-2.527701839154292,0.4756375630287892,1161.9547600833298,1168.4775145286817,1175.143689825568,1159.7017001309807,243.5294805835381,-423.7033536198847,-375.57659321246285,-292.80398632663463,155.60705283988887
0.2275,1.742413302455396,-1.210755918714632,-0.5486774554903335,-0.025149223421758,-0.0626255737312637,1.883870645168022e-05,-0.0148142467573955,-0.0117211437475193,-0.3272468713110359,0.9447494126478544,-0.0068154510321505,-0.0135108178583367,10.482096566625202,0.1055848662371239,-0.0551885479615026,1.0971016560340254,10.55990082327638,-2.527878473133537,0.4783858423533272,1162.3833868652075,1167.4850296660331,1174.2660273762172,1159.3000566249516,132.45532582413932,-362.3819990310036,-335.95843278349065,-86.47832122228458,155.60439123797002
0.23,1.688371039149486,-1.0917601376537247,-0.6452080814546066,-0.0222338866034569,-0.065467748231343,-0.0022705456650383,-0.0148421396496966,-0.0117775637880342,-0.327285182535454,0.9447349002038804,0.0008966475718105,-0.0131034784452325,10.488539101136796,0.1050992582022344,-0.054538595051372,1.0987591664275747,10.559985090918776,-2.528055093446343,0.4811329258479104,1162.6170367124505,1166.6656045335267,1173.4638976616507,1159.2693085248693,68.23417928771954,-275.5193302092264,-308.0383356912532,14.525413454703072,155.6018607522521
0.2325,1.6760967957570327,-0.8978577927987994,-0.648128685021151,-0.0184979901603627,-0.0688284952903884,-0.0052764939365549,-0.0148854814331137,-0.0118621336109614,-0.327310393032762,0.9447243120773582,0.008966755815012,-0.0128554843979212,10.495474202638544,0.104711255112181,-0.0538901094043022,1.1004448611753843,10.560069869936136,-2.5282306435042057,0.4838797085910991,1162.7245577616463,1166.1074330149872,1172.725835697761,1159.372683692225,18.15662649623844,-112.60244366389988,-218.6937177392336,17.193242632765745,155.59897440063028
0.235,1.6985729403303242,-0.6878683397286354,-0.552287093592975,-0.0150906203034353,-0.0712957123646331,-0.0080569306059684,-0.0149421799413334,-0.0119731178919289,-0.3273196959469772,0.9447186816862058,0.0172210846972843,-0.0127539134358567,10.502794896120022,0.1044122424797043,-0.053241646559943,1.1021641822829256,10.560154552387203,-2.5284052364325964,0.4866262332905579,1162.7078198449317,1166.1025923152072,1172.3704290729545,1159.3552747380331,-17.816355836566785,98.71447194923343,-83.28709535098815,-63.91286293242041,155.59669295690915
0.2375,1.7292577606362052,-0.4288792116801182,-0.3684685772120915,-0.0113282651569681,-0.0731247987975706,-0.0105324123745963,-0.0150016030420215,-0.0121044349524476,-0.3273105614494705,0.9447191387876104,0.0253509670109153,-0.0126381473245503,10.510394162079514,0.104178575911122,-0.0525780026547055,1.103922547618676,10.560238705253855,-2.528578253407454,0.4893746338375978,1162.6354759824635,1166.6010053747334,1172.309400221006,1159.053119377563,-26.355433655726426,269.450899321829,17.281464307689102,-173.56684690457848,155.59453805776832
0.2399999999999999,1.7414318545190963,-0.1369193343461638,-0.1392136951351127,-0.0071513173947602,-0.0741371811465625,-0.0118380768795931,-0.0150534986685622,-0.0122493273619305,-0.3272867290065954,0.9447246479707349,0.033046113774352,-0.0123510420868762,10.518168815236203,0.1039861668611372,-0.0518851160514992,1.105722703395506,10.560322533241775,-2.528748653055545,0.4921271723401762,1162.576042676653,1167.4498468118163,1172.4568363944927,1158.4874405035102,-0.5797113455173557,389.2967763290034,89.83503677282029,-270.86106096630954,155.5924863296606
0.2424999999999999,1.6987513678631851,0.1794128335026758,0.0964291379243881,-0.0022305754863991,-0.073905532183806,-0.0109699128154027,-0.0150777350071558,-0.0123984171540302,-0.3272574097664922,0.9447324638367126,0.039886519168756,-0.0115465656250454,10.526023047770671,0.1037988222597439,-0.0511301971186722,1.1075665582709076,10.560407304863636,-2.5289142879483846,0.4948886462412393,1162.632577425736,1168.5474892563784,1172.7585754048703,1157.6988140727315,81.78134977615619,481.48441267708176,136.72106060053,-352.66521094299566,155.5905565593088
0.2449999999999999,1.5517596400736235,0.5663625010353239,0.3283887643556976,0.004600844099565,-0.0725446989271344,-0.0079334538857002,-0.0150685880745053,-0.0125419961698881,-0.3272312363591055,0.944739810647763,0.0455581212330829,-0.0101550591077847,10.533872292279677,0.1035899442460248,-0.0503117571912668,1.109451100321472,10.560494027180932,-2.529073670905765,0.4976615974845827,1162.9849494255338,1169.8572688752015,1173.1404416974956,1156.7241144487953,196.14731303545324,434.3694788250555,120.24388134082062,-323.7994286147565,155.588378224052
0.2474999999999999,1.344601109969109,0.8825787402165531,0.4576479467525393,0.0100526828481211,-0.0707367879824272,-0.0051218417058053,-0.0150280033879703,-0.0126686270033696,-0.3272144905182539,0.9447446342750692,0.0497800988200761,-0.0082598536869227,10.541645404170836,0.1033345034903407,-0.049446555816923,1.1113706496990219,10.560582268140868,-2.5292260875611863,0.5004460659188343,1163.6133139909132,1170.7193366505037,1173.3597948115744,1156.0798169296577,332.4642283209411,253.37695928637888,44.72753545805968,-184.9785695235367,155.58667449297954
0.25,1.0755609081243651,1.1806580609461335,0.527515795994496,0.0137771798637922,-0.0682989862544731,-0.0033281398797858,-0.0149723356757219,-0.0127713579215385,-0.3272098479636726,0.9447458349133016,0.0524765317647281,-0.0061905042753772,10.549285039180324,0.1030267967374921,-0.0485789775441088,1.1133158598920159,10.56067171474385,-2.529372332130839,0.5032398347090411,1164.6472705671383,1171.1241536716336,1173.364079374786,1155.7992216011776,538.7134534435057,46.479941857251056,-62.646132660120145,-18.26033231031941,155.585082673535
0.2525,0.7409126010037659,1.504419601337172,0.576959325317561,0.0157137683544106,-0.0649627240739568,-0.0026006275665042,-0.0149108448204186,-0.0128410290807178,-0.327221757560298,0.944741836490228,0.0534936919581117,-0.0041439083635183,10.556748608535075,0.1026510619925058,-0.0477392289538557,1.1152792253306856,10.560763065014363,-2.5295128847652006,0.5060425217674605,1166.3068812581307,1170.95173635979,1173.0465641482735,1155.988515268106,654.0539738434285,-169.52734449200747,-171.43637746721635,153.9241817822129,155.5832969342276
0.255,0.4979586437974694,1.7330676901856317,0.6137227212737202,0.0155161981972758,-0.0617131110965923,-0.0027048486018387,-0.0148473272827566,-0.0128816186949317,-0.3272489497655152,0.9447329466082324,0.0529204689826513,-0.0021118406626594,10.564004136467736,0.1022143088940324,-0.0469361510664437,1.117252952886597,10.560856495983648,-2.5296495910699766,0.508852581044079,1167.9175404363557,1170.2765169491736,1172.5068974874498,1156.5688425100886,647.9181486865393,-350.3873417518659,-263.67714903035426,297.8320682868795,155.5819086527881
0.2575,0.3279124127928709,1.8952607158929793,0.6559952499867743,0.014594380690444,-0.0571597195778683,-0.0021856597335341,-0.0147818002981329,-0.0128990595103048,-0.327290852668771,0.9447192705979964,0.0508755458742826,4.248442174475953e-06,10.57103120533042,0.1017246229682926,-0.0461672023484701,1.1192309942890188,10.560951510879148,-2.5297839109826645,0.5116686617066324,1169.5464720015634,1169.1997996510306,1171.728178403122,1157.4776756095405,665.5020842164043,-510.5427505180155,-377.91302953510205,439.0835515995146,155.58061921279042
0.26,0.2122348787690861,1.9819268184284875,0.6986826721015628,0.0147061074671268,-0.0499907469199133,0.0001462692370764,-0.0147130332278437,-0.0129039182213959,-0.3273447289462852,0.9447016288205916,0.0475796094121688,0.002358203950814,10.577818269702709,0.1011986406536377,-0.045421978231373,1.1212084928802495,10.56104758301139,-2.529917480307804,0.5144894374595558,1171.2450508574375,1167.7238031965835,1170.6173323397743,1158.7642602680862,546.6336323723676,-528.9192823104709,-419.6901104454351,479.2200941452843,155.5791811013655
0.2625,0.1754959752679116,1.9524818193349585,0.7124536623150289,0.0160287328902749,-0.0436227319795373,0.0028299323065876,-0.0146448445617884,-0.0129057489496406,-0.3274063437352731,0.944681303919721,0.0432859485610497,0.0049902921511359,10.584361692580599,0.1006545450441729,-0.0446995074978548,1.123181827006116,10.561143893770176,-2.5300514705127903,0.5173137068746116,1172.2796401634253,1166.5552032394783,1169.6297278508948,1159.873776080267,312.5738420392278,-413.77190084153847,-388.70882742708056,431.92342939655606,155.5780707369643
0.265,0.1867369176991568,1.8287882546472047,0.6968348069617571,0.0171604254608318,-0.0383870009621936,0.0050289042213516,-0.0145890727144723,-0.0129103348511291,-0.3274666946444941,0.94466116370445,0.0382466938797721,0.0077452892335306,10.590663754443513,0.1001084378216657,-0.0440174209284645,1.1251485355324455,10.561238853594924,-2.5301865384533473,0.5201409907242137,1172.8079200676339,1165.6549436923758,1168.673788202639,1160.923877415069,127.1737054917138,-296.9227013405086,-365.58857168020006,406.3871769176327,155.57704919705387
0.2675,0.2372182513885768,1.6510269090547418,0.6615782242205717,0.0174595832040494,-0.0344269304649456,0.0065831803049531,-0.014559222472882,-0.0129210674522595,-0.3275165113250596,0.9446441802178404,0.0326939778225326,0.0104048339428206,10.59672905049419,0.0995731207818191,-0.0433971408909173,1.1271078323836043,10.561330675897612,-2.5303234247164386,0.522970563760333,1172.9155086908838,1165.0705897327755,1167.8017849924938,1161.905711964855,-39.29609625206464,-148.97672518959538,-319.047368800602,384.9890866644724,155.5761000952593
0.27,0.3380460963279331,1.4412407635102569,0.6118110640482659,0.0169364179639812,-0.0315704040290918,0.0075961445145171,-0.0145563680866465,-0.0129411442072899,-0.3275486189501451,0.9446327887212844,0.0267839477003517,0.0129820446152683,10.60255985452226,0.0990525713780602,-0.0428323878968249,1.12906195027667,10.561419019465063,-2.5304616167113294,0.525801453360424,1172.6114395863735,1164.9100600664278,1167.0785513586359,1162.8488228483911,-185.5406594781014,25.113965370883285,-277.4479733330279,429.05516833602593,155.5752377261349
0.2725,0.506291740716395,1.1844591027650635,0.5411749254085189,0.0165269903698217,-0.028860399366519,0.0089815173220443,-0.0145860552902401,-0.0129706098483881,-0.3275577973291851,0.9446287190766766,0.0206534363443739,0.0153611118663928,10.608155396559894,0.0985479959322927,-0.0423280402318521,1.1310135907731576,10.561504277962984,-2.5306004990741178,0.5286329633977009,1171.987805393493,1165.19615955963,1166.4145451258287,1164.0509878065352,-233.18273339386883,176.8114268185398,-209.43678181833985,471.0197322759992,155.5743033819088
0.275,0.659768608673807,0.977712890334447,0.472363938915723,0.0175293909046635,-0.0268552000186091,0.0106719553144405,-0.0146435191049203,-0.0130039584737978,-0.3275392631971589,0.944633782540202,0.0142679756285112,0.017576507395782,10.613508612765674,0.0980415129749124,-0.041871264424558,1.1329678696872858,10.561586992783209,-2.530739503920116,0.5314671419169595,1171.445525919404,1165.7941172005203,1166.031367449544,1165.2039215097711,-178.5991982933863,300.26941240025707,-123.87078193582954,504.9867332824756,155.5736093658873
0.2775,0.781392620278532,0.7797710186737595,0.3942207708647538,0.0200849986765139,-0.0248474964375321,0.0124069901774376,-0.0147203052625406,-0.013034803054522,-0.327494203708098,0.9446477934527548,0.0075572611785453,0.0197119540995401,10.618604112399424,0.0975112162158568,-0.0414417162088595,1.1349300805572735,10.561667083594324,-2.5308782338781826,0.5343047433568889,1171.0948094020264,1166.6975066216314,1165.7951912161495,1166.5759214729476,-79.77463259812785,448.897231285218,-83.65453671126481,644.2189133791993,155.57300506650427
0.28,0.8422629440890381,0.546941573791826,0.3030073664145886,0.023805368775493,-0.0226029260380714,0.0135926623097667,-0.0147987194337134,-0.0130603143528266,-0.3274283664341084,0.9446690743484862,0.0004640985484118,0.0220442883995647,10.623415752399888,0.0969363718951918,-0.0409969474950972,1.1369054783977812,10.561745842922065,-2.5310159635592258,0.5371480970518461,1171.0466527564136,1168.0386033569466,1165.6130947659879,1168.4250160766671,45.35746395163183,517.3794875548078,-62.30973655869997,685.9069089336111,155.57238680028803
0.2825,0.8007359647358459,0.3544849671756148,0.2449270607574264,0.0268449452387095,-0.0211814752507007,0.0137715001360266,-0.0148728832690956,-0.01308359041022,-0.3273459273190941,0.9446962150930862,-0.006860908185029,0.0246411921010974,10.627908717582397,0.0963178178380003,-0.0405171478222582,1.138895874471806,10.561824776299332,-2.531151895186348,0.5399982420153696,1171.3215967217843,1169.2844040594055,1165.483642533356,1170.0054560176156,149.7923139893372,498.0840159022132,-60.52702219067208,594.3088459817312,155.5719634488455
0.285,0.6566502537339476,0.1661278832126942,0.2216142616158583,0.0294135898228394,-0.02040959085448,0.0135773086307768,-0.0149354566498709,-0.0131076321783653,-0.3272526112479053,0.9447272914037044,-0.0142759244813908,0.0275875633848733,10.63203924272986,0.0956555057044521,-0.0399808340547858,1.1409026814226797,10.56190376476106,-2.531284554529425,0.5428553081991031,1171.7956143263602,1170.5290234364577,1165.3104596550345,1171.396560306576,202.19964182710993,508.0037020643881,-95.1249392184308,510.7240477421778,155.57163931587888
0.2875,0.3774855596644728,-0.0469884148430198,0.239708965934615,0.0316476351212438,-0.0202289066836382,0.0131890348781515,-0.0149883394712457,-0.0131414829681814,-0.327154545207875,0.9447600073597636,-0.0214519473815922,0.0308167043054294,10.635756043531869,0.0949697591388853,-0.0393835002239125,1.1429247589522196,10.561983189272077,-2.5314134533887622,0.5457179535136419,1172.33259493092,1171.8244225697274,1165.0080178372639,1172.5590762563263,150.93567107205823,412.0047257334178,-127.9428787002884,306.25232011271095,155.5713702042655
0.2899999999999999,0.0754641694250942,-0.2065268820177289,0.2860971763005632,0.0326242247888794,-0.0206428326756396,0.0131451368306814,-0.0150300888490496,-0.0131945350051918,-0.3270599846194826,0.9447913809180948,-0.0280780324553348,0.0343262833716288,10.639000223963428,0.0942798289988919,-0.0387143589118629,1.144961276433183,10.562064520295424,-2.531538383224164,0.5485856556034105,1172.5502926817203,1172.5890470651248,1164.670745261533,1172.9278219071396,3.954495267998977,212.6457300948936,-151.1152019650141,-4.800568390282982,155.57124998325287
0.2924999999999999,-0.2674473640783777,-0.3395892067173513,0.343818675875695,0.032314994769901,-0.0215369155379978,0.0141395069030045,-0.0150594080045054,-0.0132712151531966,-0.3269736780799335,0.9448197164753264,-0.0339442876799239,0.0380768034509208,10.641707082540025,0.0935947420134828,-0.0379684525467414,1.1470120929829792,10.562148154214775,-2.531659287465918,0.5514581062366644,1172.35236740726,1172.8876512202019,1164.2524418274388,1172.5350734143751,-156.45273813720436,33.62518601456937,-180.45129893685024,-289.6717758052088,155.57124317538413
0.2949999999999999,-0.6185551966959328,-0.4470452871406075,0.391854242945594,0.0306572076683989,-0.0226874684949809,0.0158922635622282,-0.0150780973820317,-0.0133730686696356,-0.3268987255205321,0.9448438868133644,-0.0388831686698747,0.0419496852971646,10.64380742449756,0.0929202784722483,-0.037150842447639,1.1490770100992505,10.562233406417365,-2.5317765170126454,0.5543343506893734,1171.7680289910345,1172.7571729951976,1163.7684887668488,1171.4794630281135,-310.49468673145356,-146.37825112031337,-212.0188528637753,-566.9423482012912,155.5713348391654
0.2974999999999999,-0.9538290174868964,-0.5225403877700944,0.4134664151628868,0.0277766619388413,-0.0239390606823701,0.0177039140730088,-0.0150894640706533,-0.0134983781413806,-0.3268330724913247,0.944864575096449,-0.0427896104426622,0.0457811582259286,10.645228716219409,0.09225695367416,-0.0362736986075564,1.151155928961883,10.56231916127576,-2.531890547880219,0.5572141413127099,1170.7998939736028,1172.1557599646003,1163.19234756312,1169.7003616733687,-464.2627317851289,-337.2506436929595,-280.4632274118373,-897.0227223281646,155.5715509819889
0.2999999999999999,-1.32084014168477,-0.5775539931560443,0.4066981801552131,0.0238369653433204,-0.0254206064719835,0.0192768609310635,-0.0150943943687757,-0.0136452549088488,-0.3267753746948977,0.9448822653131568,-0.0455917021153029,0.0494634143979242,10.64589572870331,0.0916042618254939,-0.0353443061407406,1.1532486826111528,10.562404883420712,-2.5320012354979085,0.5600973728329814,1169.4467153321089,1171.0709197767328,1162.3661726297896,1166.9943494164727,-479.23542355902066,-419.07224741171336,-328.62502110492613,-1027.7161419668107,155.57196148400303
0.3024999999999999,-1.5956890376814192,-0.5947099586041653,0.3804915296786464,0.0204239029058337,-0.0267527881257107,0.020088507187892,-0.0150957668236381,-0.0138066729611877,-0.3267201100394741,0.944898932491212,-0.0473204334908016,0.0528254944888306,10.645733715545145,0.0909529851027727,-0.0343790585817384,1.1553549567884251,10.562489318634352,-2.5321082294948516,0.5629846840700691,1168.4037168558075,1170.0603987275415,1161.5492224575953,1164.5617809635346,-343.61369243611045,-374.7980340880073,-352.3098529880823,-928.051779895758,155.5724342291987
0.3049999999999999,-1.84100676510464,-0.581890609358172,0.3425172069302834,0.0166936828384483,-0.0282312719801329,0.0205954997926146,-0.0150980620743549,-0.0139746229914666,-0.3266654173785604,0.9449152773336228,-0.0480349788652467,0.0556687007355907,10.644670295704817,0.0902942771813306,-0.0333983041739984,1.1574735091332469,10.562571044437128,-2.5322106268534403,0.5658755023683493,1167.7286468699283,1169.1969296062928,1160.6046233648492,1162.354090516994,-170.48552909932354,-296.32471942891215,-433.1959366593306,-836.7191923348846,155.573047485166
0.3074999999999999,-2.0999465029836846,-0.5316996948916322,0.289427557818172,0.0114584060369768,-0.0300123778765657,0.0211018798290723,-0.0150929474078619,-0.01413833104183,-0.3266121816322762,0.9449312898785984,-0.0479606028717076,0.0580458809936977,10.642634608306839,0.0896045237318451,-0.0323963056536172,1.1596039751487943,10.56264957457962,-2.5323078901038607,0.5687712129434462,1167.551289210311,1168.5787751303972,1159.3832427742987,1160.37818500186,46.5598727958422,-136.876079581907,-445.8492464853403,-575.8603304293042,155.57395060352613
0.3099999999999999,-2.2800537760309223,-0.4622966918934001,0.2385029817154209,0.0061634933974927,-0.0314804201143565,0.0215557470211617,-0.0150784429907379,-0.0142847003458076,-0.3265631003910934,0.944946264748386,-0.047347300309179,0.0598800158226164,10.63956388302384,0.0888602561776255,-0.0313829763434547,1.1617442614996611,10.56272482253205,-2.532399635797721,0.5716727034060044,1167.9614462339075,1168.5125492083832,1158.3753771324225,1159.4747888648471,258.1690685572537,66.74373154628478,-374.9842825655829,-202.55639373453943,155.57484544041503
0.3125,-2.413711330853209,-0.3695470782270575,0.1757833855575737,-0.0001077587860742,-0.0329123970826932,0.0220515129489445,-0.0150512254681839,-0.0144044538717483,-0.326522200822581,0.9449590046835206,-0.0464003340299678,0.0611623395695832,10.635403467672836,0.0880453246121443,-0.0303624884405437,1.1638906329560643,10.562797967988892,-2.5324859275247724,0.5745824410099521,1168.8421345530971,1168.9124937881284,1157.5083213614707,1159.3654030331875,444.0717742801549,256.8719537914601,-318.70665393962526,92.92988036095258,155.57589064050464
0.315,-2.5174442701664503,-0.2450257268447722,0.0793960362517298,-0.0081739353691309,-0.0343188411626091,0.0226696399284728,-0.0150210068779473,-0.0144931814037653,-0.3264964379820285,0.944967016846208,-0.0451601486140711,0.0616697506279038,10.630111871811303,0.0871638804242335,-0.029363875291644,1.1660362237663549,10.562870413925022,-2.532566577013532,0.5775012426072647,1170.1818051053083,1169.7969089773403,1156.7818438627244,1159.939438266652,492.2978070972927,360.3158228831031,-197.07794808837187,275.0305329425371,155.57732093287086
0.3175,-2.5651717777573086,-0.1465993182414658,-0.0225135142404815,-0.0145186996958354,-0.0348293357732661,0.0231681818215025,-0.015000059207457,-0.0145556482028927,-0.3264898375327218,0.9449686405510827,-0.043485682588065,0.0612075060128244,10.623659005853153,0.0862416169331571,-0.028415466855758,1.1681722581521925,10.562944025004843,-2.532641980481103,0.5804292604954142,1171.3036235885838,1170.714072902544,1156.5229316210289,1160.7405556979,398.16505477047,362.61715293967393,-20.62971732798358,317.19896475256036,155.57866062278285
0.32,-2.5922994295686363,-0.0771938903416668,-0.1463399657362601,-0.0197518303593554,-0.0344510654570263,0.0234285024277972,-0.0149949438714581,-0.0145904042311172,-0.3265062105707635,0.9449624757251835,-0.041421416709263,0.0596664082934171,10.616025923915426,0.085285673279333,-0.0275376563629373,1.170291823159653,10.563019083044733,-2.5327117517496327,0.5833655724045412,1172.1726303791606,1171.609994742039,1156.6786952760845,1161.5254330904147,276.6298488043956,327.6595576566703,132.19434516145145,268.24690556027207,155.5801548750073
0.3225,-2.6138804278141645,-0.0460937356945992,-0.2824295686425177,-0.0241866072019513,-0.0336502166151752,0.0233081334858664,-0.015013454984525,-0.0146002949743796,-0.3265404769948094,0.9449501092413696,-0.0389323270030579,0.056957982652801,10.607205462118468,0.0843128869706856,-0.0267508695586974,1.1723880633723829,10.56309501389574,-2.5327763178577745,0.5863084331301766,1172.6867728326058,1172.3523706908275,1157.183903346836,1162.0817902257015,101.99899569188337,238.6611842367527,280.11138011192975,141.8241375019987,155.5817784733403
0.325,-2.6224578713337854,-0.0665253476673916,-0.419719957907374,-0.0286817227089396,-0.0329220261769756,0.0226774209563704,-0.0150641134673533,-0.0145838186867992,-0.3265835136598631,0.9449345863582272,-0.0360813454655144,0.0529604443957618,10.597202324372603,0.0833305894163258,-0.0260799475243131,1.1744558306381752,10.563170235130565,-2.5328360727651487,0.5892561999753755,1172.68262535762,1172.8033006632227,1158.079252176644,1162.2345537779247,-121.17175791117904,120.5083199319232,467.7106681263463,-20.750316622115843,155.58355987630236
0.3275,-2.575487607369737,-0.1399550383697787,-0.5627014987929015,-0.035897256282208,-0.0325146117904396,0.0213486452117358,-0.0151512125599259,-0.0145469873960448,-0.3266277976530086,0.9449183550377585,-0.0328263230969521,0.0476950288264333,10.5860300948067,0.0823592594957253,-0.0255329659927962,1.1764905917597543,10.563243655684754,-2.532892057780891,0.5922058227095167,1172.08091404305,1172.954912290487,1159.5224566874679,1161.9780386425907,-303.653574436066,-7.92511755175837,572.9840512836286,-141.7530701625309,155.5858828617924
0.33,-2.444095570490763,-0.2240045990782434,-0.6447415515875778,-0.0438588575848528,-0.0325825953606029,0.0197646940197573,-0.015269257036319,-0.0144923379132475,-0.3266681287913908,0.9449032704725486,-0.0292762564737925,0.0413574795485078,10.573710464916623,0.0814037041717122,-0.025097026985819,1.1784902757780729,10.5633144855003,-2.532944691373544,0.5951572237616962,1171.1643574854395,1172.7636750754639,1160.9441724330622,1161.5257884271123,-419.6062273851108,-138.27865209177605,586.671423949519,-187.12471665462527,155.58797558519427
0.3325,-2.1784829085615893,-0.302736418515192,-0.666383325194418,-0.0520713044308827,-0.0332343544717469,0.0176789485681934,-0.0154174983821715,-0.0144278000768741,-0.3266978942398978,0.9448915152612772,-0.0254082496859553,0.0340865055267149,10.56027475920866,0.0804835865701522,-0.0247642563794122,1.1804520675814612,10.563382401589612,-2.5329953729304884,0.5981092466132574,1169.9828829061244,1172.263519030028,1162.4558138072155,1161.0424150593178,-538.9808176773381,-294.9966214684079,648.2035765305221,-168.66032159573464,155.5902346041329
0.335,-1.7086484003660596,-0.353957926033085,-0.6043278722802227,-0.0594480012588668,-0.0349245385759418,0.0146666298544663,-0.0155809059641724,-0.014358034417989,-0.3267123131593797,0.944884913914366,-0.0213701780019629,0.0262797635193363,10.545760854877543,0.0795993556841117,-0.0244958359767469,1.1823749792068363,10.563447592797743,-2.533044540387227,0.6010636624647605,1168.469453397053,1171.2886919681218,1164.1851903157149,1160.6824868191336,-548.8982417273742,-432.03756542015935,592.9286728797246,-64.62982648831705,155.59314224905683
0.3375,-1.2237023870789112,-0.3380460887573492,-0.476555038886834,-0.0626026718742823,-0.0369169991938097,0.012071277002248,-0.0157433090455991,-0.0142917217679119,-0.3267089721702196,0.9448844361758252,-0.0172402632150399,0.0183779543051835,10.530215005140544,0.0787584322840464,-0.0242458344496149,1.1842570323391048,10.56351049079348,-2.5330924492768645,0.604021901628956,1167.2383916974875,1170.1033312029272,1165.420457171614,1160.7192659268762,-479.8133385034813,-573.8514011746241,427.81784340913833,106.93632839365809,155.59573296766686
0.34,-0.6895860430966259,-0.2494405643052843,-0.2855398769063892,-0.0630181367785141,-0.0389795315774126,0.0102932252942456,-0.0158800941235779,-0.0142328353663856,-0.326690725827591,0.9448894392101767,-0.0132481403416783,0.010946676417745,10.513691567145024,0.0779500133857633,-0.0239515990496514,1.1860969140981472,10.56357196287452,-2.533138852315808,0.6069870951236112,1166.0703867045356,1168.4194349622487,1166.3242795327603,1161.217168461102,-467.1860651942093,-770.7612355867235,300.3102475504872,278.594180357504,155.5985019181443
0.3425,-0.1374779111448523,-0.107389264344008,-0.0677173459992364,-0.0627989038687301,-0.0405338400136962,0.009755183150155,-0.0159818887172987,-0.0141835451984731,-0.3266617453196367,0.9448985911095557,-0.0095475678650199,0.0042254022889199,10.496255232546188,0.0771697269624971,-0.0235853971973341,1.187891368186812,10.56363242593492,-2.533183889020116,0.6099600066997491,1164.9024613715164,1166.2495250249935,1166.9220084093663,1162.1122368286635,-490.4932242460741,-987.7300805588211,171.95817266124308,438.2212886724115,155.60142112281576
0.345,0.431319215602005,0.0723350203436919,0.144142359186632,-0.0631258817969538,-0.0406356842637541,0.0105330759189029,-0.0160422256007573,-0.0141445583380111,-0.3266268280082237,0.9449103208115076,-0.0062906040193421,-0.0016237219509085,10.477977782911143,0.0764109076926087,-0.0231269917823498,1.1896367748209784,10.563692368422174,-2.533227917832929,0.6129415063921566,1163.6179205833052,1163.4807845594546,1167.1840703960668,1163.408274904464,-621.0814854979611,-1331.0346366175495,56.84292265837025,616.7852772787222,155.60452347755304
0.3475,1.1298285752586423,0.2868188688836873,0.3486594111487866,-0.0625643723823444,-0.0389440828849598,0.0123186339741691,-0.0160746009838256,-0.0141169991187663,-0.3265882226394251,0.9449235853417832,-0.0034690960102828,-0.0068386156148104,10.45893792194554,0.0756821647280648,-0.0226012513819115,1.191327881366844,10.56375191726164,-2.5332718353311225,0.6159301569496117,1161.7970539440266,1159.594351841906,1167.2062230226584,1165.1961632150571,-725.6571862294544,-1479.6410890478896,-25.896829072735247,643.1179009975943,155.60845913102543
0.35,1.7076690315313219,0.4384837131403573,0.4573674791455217,-0.0598305570399972,-0.0366799042268798,0.0142297665661802,-0.0160965850755099,-0.0141060945576359,-0.326547688635783,0.9449373892020224,-0.0009496867940997,-0.0117148974939593,10.439217370810635,0.0750036872782547,-0.0220397312781648,1.192959440360184,10.563811323404211,-2.5333162271506167,0.6189242244317384,1159.989634652158,1156.0825791142152,1167.054586250703,1166.623864409452,-777.9229193513025,-1398.2188067312707,-83.7917983257293,483.8681348416735,155.61191591216416
0.3524999999999999,2.2433785507802644,0.5512351469882526,0.4933689982209497,-0.054748630248235,-0.0344076717837141,0.016254008194529,-0.0161220469037668,-0.0141168414786931,-0.3265060443124535,0.944951142748136,0.0013893161234125,-0.0164800186635465,10.41889942662623,0.0743917430111228,-0.0214668715594395,1.1945278332247316,10.563871053167544,-2.533360935458823,0.6219227402249075,1157.90743934727,1152.6032578082495,1166.7872640310295,1167.6155038892657,-946.2142793197568,-1445.2388205532009,-139.87185650357927,251.30867497596483,155.6155548485409
0.3549999999999999,2.7906767398398005,0.6552149707924699,0.4619065793513023,-0.0467667389774452,-0.0322866482194523,0.018263662486685,-0.0161598062400418,-0.0141519134468068,-0.3264658846814871,0.944963774927088,0.0036086895500365,-0.0212804975993583,10.398067953108995,0.0738532369813968,-0.0208985044194851,1.1960315440162548,10.56393107427143,-2.533405399147327,0.6249232911371827,1155.2585632555592,1148.8563850114492,1166.3552269681852,1167.8804077843315,-956.0595564683344,-1252.2680332420339,-180.04660444275925,-101.02820203619548,155.62012860235336
0.3574999999999999,3.1395212656343987,0.7356448629990331,0.3902023196933445,-0.0389690984088803,-0.0310519423689728,0.0193958469982854,-0.0162082538381444,-0.0142116322843632,-0.3264256800438706,0.9449758554074452,0.0056750511756585,-0.0260733069801744,10.37680602047075,0.0733815748890744,-0.020330489406637,1.1974714757840637,10.563991382652159,-2.5334486612666343,0.627925798200428,1153.1271415649285,1146.3419176420396,1165.887031008816,1167.1103628790847,-779.787812407266,-837.0987050130218,-219.1716101302061,-527.7537531375397,155.62410889556136
0.3599999999999999,3.355800838045001,0.8325170354664179,0.2964342253615856,-0.0305809435910858,-0.0300712413266631,0.0199890473912845,-0.0162721060849266,-0.0142933056984787,-0.3263825811751385,0.9449883457157572,0.0075618006653876,-0.0309588526581182,10.355195755969875,0.0729685017170664,-0.0197769006424319,1.1988492809782803,10.564052353645204,-2.5334902434423694,0.6309297529577571,1151.359624193523,1144.670891486384,1165.259368917534,1165.241639018644,-634.5856515536974,-519.435179914853,-326.21321392884937,-1034.7540208834735,155.62825901610836
0.3624999999999999,3.451821956901921,0.980535085119554,0.1863621667581195,-0.0203616339553383,-0.0286527831419479,0.0202290032905229,-0.0163413143683393,-0.0143889046844473,-0.3263366983172633,0.9450015083049296,0.0090599313168521,-0.0357820942608408,10.333317025211336,0.0725825384615589,-0.0192236329503213,1.200169162164384,10.564114142336592,-2.533528913620332,0.633934754218366,1149.95421330716,1143.7447417424653,1164.2559649391717,1161.9365927746671,-369.9344940075658,-164.13226972485958,-416.66886297330126,-1325.8823212695447,155.63342874462384
0.3649999999999999,3.3949695215309954,1.1264389566941162,0.112862043720823,-0.0118325198684068,-0.0268825793906408,0.020151198118601,-0.0164066562610428,-0.01448816787494,-0.3262912647265187,0.945014549340444,0.0099449768853211,-0.04041627878729,10.311247354775588,0.0721882572445169,-0.0186611210958281,1.201435753484258,10.564177299887692,-2.533563610548649,0.6369395640944215,1149.509951723485,1143.8502301377598,1163.1760246026677,1158.6122274122963,-24.632826382639884,198.7059551210676,-484.768034247872,-1352.1199927571604,155.63788981560856
0.3674999999999999,3.2013705445723986,1.2768314018515174,0.0706689740245064,-0.0033174741128438,-0.0242228911646634,0.0198975038499764,-0.0164523600016716,-0.0145767453515982,-0.3262509364433398,0.945026360542048,0.0098909300322784,-0.0446296218468703,10.289061917020696,0.0717362845443392,-0.0180689539444615,1.2026545286157815,10.564242482990451,-2.5335926349811375,0.6399450162537512,1149.8310491752468,1144.7382715180706,1161.8321247679323,1155.1759928108816,234.8741794316536,453.97171509384816,-577.8283412313607,-1321.3729361340472,155.64250354588373
0.3699999999999999,2.904422374501953,1.4105021831897513,0.0579927719870531,0.0049537951196619,-0.0208708647594156,0.019568511282347,-0.016475162690134,-0.0146416818272556,-0.3262183455715324,0.9450362886524366,0.0087048008573064,-0.048417836385897,10.266833103509196,0.0711906641946293,-0.0174547622391812,1.2038291033337796,10.564309706194924,-2.5336150670409134,0.6429504607204604,1150.6843226206431,1146.120088713229,1160.2868828965109,1152.005362731626,424.3544787726474,625.2062037932312,-657.09798258631,-1136.635384277678,155.6472392018599
0.3724999999999999,2.507110201447425,1.4988399635303145,0.0779684085479319,0.012135529913337,-0.0168581732103559,0.0192478987040276,-0.0164686169911277,-0.0146712181745324,-0.3261977550976211,0.945043151716555,0.0062131035812989,-0.0517001115598351,10.244630822805105,0.0705161157223,-0.0168176870592801,1.2049621589862425,10.564379032184348,-2.533630762452483,0.6459567982979078,1151.95282156911,1147.8643025370368,1158.5466348550008,1149.4928158894932,582.7568715155388,788.0549534065261,-793.6495185580945,-907.65910960149,155.65211609142847
0.375,1.9620440321398511,1.527282234238264,0.1265084111387125,0.0187105627352483,-0.0115139727193687,0.0190672586717376,-0.0164394749102605,-0.0146688450370197,-0.326188364862371,0.9450470328022748,0.0026417370878952,-0.0545416816916301,10.222521756950227,0.0697228545972968,-0.0161745680837424,1.2060521042164196,10.564450023276503,-2.533641718256179,0.648965567235141,1153.598106978221,1150.0603634802617,1156.3186353037204,1147.4670671836186,571.9532748863453,780.2741937135116,-825.7217164197749,-578.8395214825408,155.65812395261057
0.3775,1.4920551312477888,1.4776807206035467,0.1716509404655487,0.0224327705831583,-0.0070726103422169,0.0193005916223682,-0.0163953076965527,-0.0146407405153984,-0.3261884571117942,0.9450482811977295,-0.0017171748403758,-0.0569997458013926,10.200572151219893,0.0688284124111391,-0.0155406214242641,1.2070955484695458,10.564522189611832,-2.533649858021213,0.6519784979069194,1154.8125879435415,1151.7656735056044,1154.418026272902,1146.5986182820805,402.1835989160078,617.1010387730797,-752.1315747961572,-214.66026371867864,155.66325442130633
0.38,1.0521135134781907,1.3557597121472167,0.1986751722409426,0.0246070526051378,-0.0033579367260053,0.0201783673877695,-0.0163388308014315,-0.0146007178318455,-0.3261919609856527,0.945048721868073,-0.0064509287515796,-0.0589824294120589,10.178848720854418,0.0678646060718492,-0.014912508963234,1.2080872681922292,10.564594526066127,-2.5336571535996137,0.6549968567556401,1155.609024972801,1153.145868674127,1152.5579774297396,1146.3937658650252,215.49942133156017,504.4842610848714,-792.7646667387755,-9.714692254010506,155.6685065940628
0.3825,0.599571050208139,1.142677883899527,0.1869373480848359,0.0259848480994007,8.837236697045427e-05,0.0216995621142508,-0.0162734515136286,-0.0145601385719368,-0.3261921392057361,0.9450504464661632,-0.01118884576183,-0.0604272638670879,10.157420218288165,0.0668591686663816,-0.0142884894962299,1.209021373586718,10.564665732667926,-2.53366487249996,0.6580218690020572,1155.8900850501996,1154.2880948110287,1150.454202939208,1146.5500448208104,-22.08506301099076,323.96957736214034,-742.7409105725922,66.16039872228606,155.67494201003518
0.385,0.3035676336732606,0.9232790331683952,0.1321794033028083,0.026440239250551,0.0023543851945964,0.0229260019546875,-0.0162047243894902,-0.0145255614222679,-0.3261816170234911,0.9450558144072077,-0.0156408544755235,-0.0613469349621021,10.13635721387167,0.0658317481652103,-0.0136738492180892,1.2098920472063748,10.56473396799546,-2.533673385914319,0.661054941261379,1155.498599657746,1154.7657165609376,1148.8442728768766,1146.7245678586366,-284.85459685812174,90.99924106299105,-612.3944160653076,21.574759070290366,155.68040989872375
0.3875,0.101417617237373,0.6740049497191101,0.0348511502459604,0.0264011038304726,0.0042958058213944,0.0238665674456547,-0.0161406439464438,-0.014504336619279,-0.326158043504986,0.9450653994849304,-0.0194926873262705,-0.0618017538089194,10.115730531756324,0.0648070799323681,-0.0130771418420475,1.2106936455817288,10.564797701087189,-2.533682545156965,0.6640953839451065,1154.4658120659087,1154.7430910163437,1147.3922308588815,1146.6579186161619,-583.0128032057921,-119.8494381432737,-608.1435551812768,-121.00141365417572,155.685980227146
0.39,-0.0334012755044256,0.354413208445489,-0.1096109586898828,0.0260528375249534,0.0062245419976314,0.0243716403263044,-0.016076087693051,-0.0145000759634161,-0.3261240870090342,0.945078314085844,-0.0225986683777215,-0.0616345236497711,10.095609739435803,0.0637922894143003,-0.0124788246660345,1.2114230809260589,10.56485693335998,-2.5336911327547327,0.6671411522664484,1152.5835356417172,1154.1664693702214,1145.8035551009702,1146.1195607903655,-773.6822061942797,-294.81531544897706,-564.4835884839716,-276.3684299968643,155.6927755348198
0.3925,-0.0623831484913968,0.0844333504623933,-0.2283995478286834,0.0256653683266224,0.0070509239793583,0.0238651602916144,-0.016013973602443,-0.0145151027326013,-0.3260857120304097,0.9450924087087008,-0.0247972605416572,-0.0608609615402105,10.076059895713502,0.0627990162262457,-0.0118785585758623,1.2120787030233406,10.564912332142319,-2.5336980640940627,0.6701879588160595,1150.5974010349375,1153.2690144390988,1144.5698129164616,1145.2760764661775,-845.0409269880756,-430.6095857804845,-485.0157113578912,-399.51841750953434,155.69852529789588
0.395,-0.0176500854583809,-0.1679492854636997,-0.312909206259106,0.0250968203282619,0.0064653444791337,0.0222695046757221,-0.0159511359987828,-0.0145490559169577,-0.3260514080427702,0.9451048059470571,-0.0260335485476143,-0.0594095674740364,10.057138537193268,0.061828811716365,-0.011264505523583,1.2126616203976068,10.564965577156155,-2.5337017968343463,0.6732342586107635,1148.3583310067768,1152.0134214413188,1143.3784765441808,1144.121968702818,-907.493678306536,-545.9596996490286,-475.88571340506815,-488.8859896585013,155.70435895371872
0.3975,0.0742113168206565,-0.3904424633149883,-0.3506784252644676,0.0245235348949605,0.0049930695893045,0.0202121185603654,-0.0158861288967275,-0.0145964397978242,-0.3260227609673268,0.9451150621225152,-0.0263542972148338,-0.0572838549441945,10.038892202731592,0.060873481073229,-0.0106340990882824,1.2131752726174887,10.5650177685252,-2.5337017132643265,0.6762796036277205,1146.0599326434049,1150.5392159408536,1142.1903843494363,1142.831646517885,-898.3527714249694,-617.4579427160545,-477.5818720402636,-519.9825273408801,155.71025740707526
0.4,0.1978573452726117,-0.5679318601542775,-0.3264807339688016,0.0245510048893916,0.0032223424242896,0.0184538974463127,-0.0158184553549712,-0.0146497027181093,-0.3260016875652175,0.9451226425507848,-0.0258576817243241,-0.0545298214833955,10.02135301837568,0.0599213707441616,-0.0099891295853182,1.2136248377207095,10.565069197975587,-2.5336974177281744,0.6793241385324181,1143.866567149652,1148.9261317277387,1140.9905671839795,1141.5220560661137,-903.3242430468354,-703.4987880524561,-525.1601370628118,-554.8813520326798,155.71622822729995
0.4025,0.3421507643326935,-0.7310239263951039,-0.2397495695091331,0.0258934194215747,0.0011916428679864,0.0173719182383144,-0.0157501856556712,-0.0146960120905907,-0.3259880714498806,0.945127759282462,-0.0247444262080121,-0.0512864593075796,10.004535946944843,0.0589511335372593,-0.0093419917920195,1.2140171700384814,10.56511880117348,-2.533688663314187,0.6823679951386826,1141.5433114281707,1147.0217220005911,1139.5645836641222,1140.0572397577216,-782.5953690986347,-664.2494639920636,-508.3594432938749,-511.1705565710959,155.72346938979916
0.405,0.4305026508189595,-0.832095862811894,-0.1377106781380295,0.0280687556333449,-0.0004550067896732,0.0171626724840801,-0.0156875451613204,-0.0147245315421916,-0.3259825189643151,0.9451302773265272,-0.0231708422110955,-0.0477685329490372,9.988436184865485,0.0579494900431175,-0.0087131221815841,1.2143596723489596,10.565165435828304,-2.53367540514866,0.6854104653493,1139.9535903041588,1145.6048844077784,1138.44876996751,1138.9662032832582,-556.5899702828568,-504.2233809802378,-408.4994246605216,-409.5288631318905,155.7295616712541
0.4075,0.4664686207594491,-0.9043828009233028,-0.026196097779681,0.0307205642565228,-0.0022716581774166,0.0172393770339442,-0.0156287974145384,-0.0147338682193033,-0.3259822132155618,0.9451312214627712,-0.0211868900056882,-0.0439874278623346,9.973026757476113,0.0569184735512235,-0.0080974137263119,1.2146599428908107,10.565209085553377,-2.5336585634894866,0.6884524682836424,1138.7603615767564,1144.50060509569,1137.5220865408196,1138.009595442062,-442.4287370668931,-402.3072366070661,-335.34739919023167,-396.246142722384,155.73570749418522
0.41,0.456453650384511,-0.96148453866738,0.09909284459374,0.0331062576014738,-0.0048253879640363,0.0175207073515938,-0.0155802153869019,-0.0147307289950101,-0.3259865048171045,0.9451306024925146,-0.0186593392299709,-0.0400637101643703,9.958257461559949,0.0558846445048954,-0.0075014987249848,1.214924855153504,10.565249868967904,-2.533639106479478,0.6914930226774348,1137.7414466188243,1143.593348224743,1136.7720329715587,1136.9849725696463,-321.6038008851225,-272.5431181524525,-200.4741402055968,-361.4832906887383,155.74313655798773
0.4125,0.4266130503218639,-0.984429041954416,0.1850484545524085,0.0336805010185389,-0.0071354306574864,0.0180337027892845,-0.0155402314991508,-0.0147308382101343,-0.3259948696787384,0.9451283726295664,-0.0153569052931586,-0.0359208791996004,9.944053960638142,0.0548884063717284,-0.0069068306345681,1.21516112059925,10.565289087114072,-2.5336177257919643,0.6945317589614886,1137.1523425723308,1143.137889504928,1136.5197158397916,1136.2021789886185,-209.59914415620892,-150.87706536683055,-23.880781036450546,-307.187634190677,155.74936669524018
0.415,0.4051310054327572,-0.9808652827047152,0.2410369850677929,0.0333900446435298,-0.0092554381590141,0.0188068798642426,-0.0155049024883189,-0.014746759688507,-0.3260053373715958,0.9451250769884516,-0.0111416921152326,-0.0314666440067176,9.930319049357843,0.0539602551525001,-0.006292110659841,1.2153758876041487,10.565327079186641,-2.533594671054319,0.6975684287074526,1136.6934508980432,1142.8389628979087,1136.6526290663767,1135.449034398693,-205.1532803037865,-146.71454007834805,119.667474231211,-336.66085415975766,155.75563048048247
0.4174999999999999,0.4063425091470095,-0.9422226755687184,0.2656952012825981,0.033466540539629,-0.0115632829589022,0.0198443840720244,-0.0154719532611617,-0.0147832845199061,-0.3260162034975223,0.9451212696427695,-0.006026671399764,-0.0266979742782112,9.916935014250928,0.0531133568120538,-0.0056462344369773,1.21557657045879,10.565363656684177,-2.5335698303315977,0.7006027794684254,1136.1265761708119,1142.404316804536,1137.1180532109477,1134.5188747178197,-228.3557690981548,-210.2776777905568,185.2893824703661,-355.03603864522483,155.76317748109716
0.4199999999999999,0.4271890436408639,-0.8743356250916378,0.2486115905653956,0.0342571461748421,-0.0135852623068268,0.0207611905950252,-0.0154438364791757,-0.0148365660370509,-0.3260213126115933,0.9451191013622772,-0.000166714053975,-0.0217604453799887,9.903767180980436,0.0523440517415226,-0.0049764343529363,1.2157703371598372,10.56539817973605,-2.533543031787476,0.7036345581017976,1135.5516720525525,1141.787574508956,1137.5790759787285,1133.6738542054668,-257.78930543883666,-334.52902557569325,146.92799210788493,-362.8181857875912,155.7694858849897
0.4224999999999999,0.4561682016997734,-0.7566139086901515,0.1944830629446589,0.0354462285201766,-0.0160755160304912,0.0217139749208834,-0.0154250188234243,-0.0149000062997411,-0.3260169531640177,0.9451198948885076,0.0062363509935589,-0.0168591459291554,9.890667674895695,0.0516430791380171,-0.0042970693182184,1.2159632197301495,10.56542950202737,-2.533513605995187,0.7066633636914865,1134.8376296436177,1140.7316716766577,1137.852693171487,1132.7047837888815,-300.8370370516329,-507.8392295637964,41.07139794441533,-413.3525837893554,155.77580735232706
0.4249999999999999,0.4818605763172971,-0.5899840380339272,0.1156008316382446,0.0364362694283894,-0.018770032983738,0.0226208057136455,-0.0154118214226262,-0.0149620291463777,-0.3260033264308794,0.9451238314800748,0.0128299667488684,-0.0120812354339643,9.87748024300628,0.0509821343621669,-0.0036081381671225,1.2161602846188575,10.565457657541447,-2.533480703968304,0.7096911500912639,1134.0474868672943,1139.2483783611372,1137.7844329684503,1131.60709128652,-312.6449938735274,-693.6621138439926,-141.52556271897072,-471.85403052990256,155.78213489946188
0.4274999999999999,0.4913230230283383,-0.3673029690738461,0.0213051469971061,0.0372201107786687,-0.0207170916137442,0.0232131537557601,-0.0154100157064881,-0.0150153424048743,-0.3259828179746326,0.945130107429777,0.0194019837507279,-0.0076625549114799,9.864045587228643,0.0503487803873759,-0.0029286641108393,1.2163636566007687,10.565483674393843,-2.533444082968559,0.712718084549947,1133.27440467425,1137.2633611074375,1137.1450653578922,1130.3455136362322,-303.16810147205587,-967.23102151709,-428.504947866622,-589.6219985852433,155.7884644575026
0.4299999999999999,0.4631362421552691,-0.057162753941324,-0.0817807403403315,0.0390585988476279,-0.0213932983273529,0.023203919055085,-0.0154176920516652,-0.0150682504968753,-0.3259559230518127,0.9451384358289446,0.0259853211722195,-0.003591537672595,9.85020396175757,0.0497586276699353,-0.0022485915293725,1.216571983156421,10.565510287896764,-2.5334051705402065,0.7157446107552905,1132.531646359934,1134.4122232535517,1135.6419082291175,1128.6589812935936,-222.458897516344,-1098.6080208146623,-664.1512885675633,-641.6991765286633,155.79605593936927
0.4324999999999999,0.3916386507287927,0.2150461183849959,-0.1354175430673754,0.0415373860979062,-0.0207329342628451,0.022633990156426,-0.0154300159956203,-0.0151266201452675,-0.3259198333263307,0.9451497591380525,0.0325556211772889,0.0001873602504314,9.83580363480716,0.04921761589701,-0.0015540626403797,1.2167817711529043,10.565539640979871,-2.533365133255647,0.7187722420348972,1132.1621101866683,1131.7703210033644,1133.8243089150544,1127.137017753589,-87.85722731295203,-1077.4078095766063,-810.8954931876262,-624.9760981269897,155.80237465202913
0.4349999999999999,0.2675975082400429,0.4792253634091063,-0.1292696278508133,0.043636250116002,-0.019254611667581,0.0215687657993282,-0.0154435890860959,-0.0151917822046343,-0.3258724183533986,0.94516484396658,0.0390225865893964,0.0036797707352976,9.820707727586974,0.0487208747154828,-0.0008387736325035,1.21698739460529,10.56557303618327,-2.5333243821818647,0.7218026583911035,1132.0923602233693,1129.0251842056687,1131.587430763179,1125.5341008029588,25.931246630307193,-1192.1688886303389,-1024.8203627267676,-715.0901763813629,155.8086810023401
0.4375,0.0835804140563552,0.7728698753084547,-0.0335505566067941,0.0443706141180546,-0.0170088288090257,0.0199659106224037,-0.0154563168067104,-0.0152597106611127,-0.3258109152391447,0.9451847469587676,0.0452174114606243,0.0068410325077268,9.804800203448979,0.0482513209655915,-0.0001042369908263,1.2171813826732762,10.565610206161052,-2.533282870045596,0.724836940536784,1132.2917664198199,1125.8094765602127,1128.7002071014203,1123.561566871682,98.47412901763155,-1142.470597918872,-1049.3147433971887,-725.4291744585308,155.8162295939744
0.44,-0.069923969932333,0.9949180898434548,0.120600297350632,0.0436118875250222,-0.0150534385651055,0.0187634029344339,-0.0154638604404339,-0.0153232150525418,-0.3257411186488031,0.9452076635633468,0.0509099467276859,0.0096558537303315,9.787990185182863,0.0477822901412244,0.0006507730349772,1.2173547344415032,10.56564950216588,-2.5332399710684865,0.727874142669747,1132.5847308684574,1123.3128312160743,1126.3408570461932,1121.906954930666,109.36797889103208,-944.6284131661279,-891.6810899587736,-655.969006059558,155.82250122730886
0.4425,-0.1939078743710309,1.191855612991943,0.3326859350624231,0.0423855117760471,-0.0128013006366932,0.0183500278874762,-0.0154506276693333,-0.0153746791012956,-0.3256709567793478,0.945231237379343,0.0558056260083824,0.0123247679300692,9.770214305207134,0.0472773180801888,0.0014529158214391,1.217497347414066,10.565690212471967,-2.5331950184958347,0.7309155928961154,1132.838606314275,1121.086334494382,1124.2418016516267,1120.2817218413843,63.79080797291857,-916.1385791328477,-835.4912540361956,-695.3532360594176,155.82875062467943
0.445,-0.2915539510922404,1.3921378606247816,0.6083703534918828,0.0414189755087116,-0.0092464797285328,0.0198477748337969,-0.0154143975543697,-0.0154114572611578,-0.3256084316476676,0.945252778215104,0.0598032947216871,0.0148433482082202,9.751439437376192,0.0467224903265024,0.0023018447761798,1.2175972732671956,10.565731921777427,-2.533147561220205,0.7339607499175869,1132.903684908322,1118.73213832041,1122.1634007760124,1118.430188750369,-37.059506247260245,-817.6354795129549,-684.3217286416342,-650.2006681872439,155.83622241148552
0.4475,-0.3256593758456167,1.520428842737724,0.8164382540041784,0.0408559822504407,-0.0056899248693911,0.0228935760778755,-0.0153589686533766,-0.0154323167106167,-0.3255565884089051,0.9452711863740948,0.062882670059467,0.0171178634625765,9.731663674851218,0.0461127790973086,0.0031841433421346,1.2176418906019868,10.565774198295948,-2.5330975701247653,0.7370093202392435,1132.6533087830387,1116.9981570968173,1120.8201930084183,1117.030718500448,-173.52970583779083,-655.9322591050653,-467.8752888414688,-513.6475938140388,155.84242555212165
0.45,-0.3055589942920907,1.5982550472504555,0.9677152098298836,0.0397398540458211,-0.0017126328007572,0.0265911971216224,-0.0152859830659936,-0.0154349646895809,-0.325513791109666,0.9452870313076708,0.065005180527063,0.0191003911308491,9.710915635604623,0.045440016851483,0.0040903063724578,1.2176189178241987,10.565816248350073,-2.5330451207708333,0.7400623942506273,1132.036036379133,1115.4524770248847,1119.824024331805,1115.861950781299,-302.1663528091719,-588.8309632795875,-358.249743910255,-418.4098609464396,155.8486050296873
0.4525,-0.2375297229936689,1.6284634778461384,1.0644704819350095,0.038096334769722,0.0025236175753005,0.029906121223063,-0.0151954721646354,-0.0154297377566008,-0.3254775363032793,0.9453009972794324,0.0663652892479292,0.0208635629181605,9.689248685629202,0.0447248203049594,0.0050245817987117,1.2175157954894107,10.565858749372929,-2.5329901661182426,0.7431199009245414,1131.1424770189928,1114.0540022804191,1119.0289442888673,1114.9386691957159,-403.2555477998809,-515.6199275578724,-295.7944315514848,-303.7174146282265,155.8547661248605
0.455,-0.1183156879224133,1.5991438819278727,1.1049261113512676,0.0364040168956747,0.0068915079494679,0.032495068666058,-0.0150829977569079,-0.0154239514498395,-0.3254455696321392,0.9453138058616208,0.0670811449183126,0.0225520157791203,9.66674109460498,0.0439783088868958,0.0059992123870144,1.2173218478925318,10.565902712836516,-2.5329319036044047,0.7461824410576318,1130.0197586401337,1112.8743773870951,1118.3450521740476,1114.3433637081575,-511.06380904548087,-447.3641632533141,-308.2535921914311,-191.27889216765635,155.86090751477008
0.4575,0.0530589180940547,1.5014992842815391,1.108048997815163,0.035354076704871,0.0120932390457892,0.0348252293654627,-0.0149527495140162,-0.0154218687345495,-0.3254176951551991,0.945325385492246,0.0672738733861879,0.0241409737295378,9.64349244321373,0.0432124474245751,0.0070044642334381,1.217028806108213,10.565948181966982,-2.532869871788915,0.7492482388142976,1128.5871579737654,1111.8171814641528,1117.48767632791,1113.9822747348776,-514.17104730026,-310.96539791501493,-339.3074702480132,-87.04137547288147,155.8682587664894
0.46,0.1823204394332768,1.380842419704656,1.082121424492354,0.0358724290267365,0.0160581845711904,0.0364741239969347,-0.0148113502823412,-0.0154263565668969,-0.325392015417792,0.9453362449595312,0.0670575361411094,0.02556041496222,9.619616808536339,0.0424391773165464,0.0080243259258486,1.2166315394243317,10.56599476041446,-2.5328039122460804,0.7523151965269808,1127.4489034036324,1111.3195503975203,1116.6485148228076,1113.9081568307931,-421.9200159211137,-107.20677846652497,-373.7408558878084,-6.245731523995341,155.87437332491376
0.4625,0.2487524421392663,1.2442260686560507,1.0236249526211367,0.0378869292116813,0.0191726739828571,0.0385957564852943,-0.0146669278442998,-0.0154335569202188,-0.3253638471939533,0.9453479504086107,0.0664345589487785,0.0266775773614195,9.59523755513771,0.0416575263880873,0.0090347164912359,1.2161290096318191,10.566040960023896,-2.5327338618357302,0.7553805950789386,1126.4775578941599,1111.28114757182,1115.618972048471,1113.9510460772576,-378.3195252910897,82.8232644036688,-497.08839179015695,16.545608618162063,155.8804804328989
0.465,0.2177336047345228,1.0958847652621788,0.8982488179517127,0.0410998952023605,0.0218478339920989,0.0419043453781944,-0.0145288782169857,-0.0154325013389758,-0.3253312541335219,0.9453612267069518,0.0652843565489012,0.027296786961625,9.570480593949421,0.0408522405136557,0.0100042302780374,1.2155244151984692,10.566084125657865,-2.5326597045260906,0.7584396757812681,1125.557305777177,1111.7336667195386,1114.1630728638568,1113.990884873884,-299.23373780106857,227.12349824350875,-562.9083360951422,-5.806791880513623,155.8878042805399
0.4675,0.0972749639460915,1.0061881511484472,0.7355538199084428,0.0432376322414407,0.0234032819807494,0.0448263813767199,-0.0143940842269618,-0.0154125293204498,-0.3252965626818088,0.9453755106791788,0.0634107826716771,0.0274528010218635,9.545464300860093,0.0399995128869793,0.0109318556806939,1.2148242501262427,10.566122883219398,-2.532581181308424,0.7614905188553028,1124.9813892051543,1112.4167650630377,1112.804430367995,1113.922012117855,-205.53087238044992,291.83709011276704,-559.3865223513599,-65.00401053654053,155.8939054533922
0.47,-0.091813108600591,0.963965483973002,0.5097232143821608,0.0437969221523566,0.0248422597523663,0.0472339153214977,-0.0142729001260833,-0.0153803514506628,-0.3252565864880453,0.9453916248856548,0.0610138198606112,0.0270449087320944,9.520291627318052,0.0391265695929227,0.0118002903839936,1.2140358474486175,10.56615727369229,-2.53249976339882,0.7645321126727167,1124.5296514152747,1113.1928521701025,1111.3661402521,1113.6658648212015,-178.75058563163276,283.2279553455917,-577.1167447511738,-141.3330524700085,155.90000552672848
0.4725,-0.3003802779145799,0.9586020045523396,0.2413727849739011,0.04295269459238,0.026535125797687,0.0488224315641469,-0.0141769116496724,-0.0153433915734872,-0.3252090018830764,0.94541006897637,0.0583066184281382,0.0259525712732278,9.495048903390998,0.0382627232309129,0.0125909703926297,1.213167942120308,10.566188049922,-2.5324171521236463,0.7675641997591429,1124.0876362769964,1113.8329048397657,1109.9188466442395,1113.215346855505,-203.70393546309043,171.5376200445915,-569.4035647199594,-232.64906278345717,155.90610451441168
0.475,-0.4858654700462107,0.9833678145393638,-0.0542475090158346,0.0408542399740332,0.0286897991193922,0.0492361498808272,-0.0141020604289837,-0.0153028484003872,-0.3251550300824063,0.9454304560471732,0.055286055709738,0.0242930489106143,9.469802628491603,0.0374095194923205,0.0133170574987011,1.2122301301250975,10.566216467238116,-2.5323339834002088,0.770589064957918,1123.5111317379592,1114.0505402703254,1108.5191224285,1112.502619507284,-326.1637258151037,-52.798494058015365,-594.9003396007805,-379.521487538204,155.912200830875
0.4775,-0.6377393327235066,1.0227246742223295,-0.4015479628572888,0.0376765986431047,0.0318246372789247,0.0483423064950082,-0.0140500588627191,-0.0152642552596185,-0.3250965274042455,0.9454520240222084,0.0520575380576039,0.0220996714236253,9.444597133742414,0.0365818126970325,0.0139820932008797,1.2112309769655663,10.56624458034398,-2.5322508944744544,0.77360826272191,1122.4568176479208,1113.5689123694756,1106.9443449462356,1111.317739417814,-475.6529340698356,-317.638492114887,-557.6003787740376,-493.7715783151866,155.9195100667424
0.4799999999999999,-0.690543066187327,1.0456539023905929,-0.6561886573819681,0.0350755457748349,0.0349167312628854,0.0465237792570193,-0.0140134876683043,-0.0152303426634542,-0.325039319597688,0.9454728298548732,0.0486149000858488,0.0195432777212139,9.41945461117348,0.0357795117312894,0.014608320485345,1.2101779676876698,10.566274926909484,-2.532167689665718,0.7766251982217476,1121.13286706761,1112.462347809751,1105.73112053463,1110.0337616157083,-648.2500044812762,-581.4339450056254,-469.4465953613919,-581.022738097096,155.92559240799332
0.4824999999999999,-0.6686586671441614,1.0442641173819749,-0.8472834716064616,0.0328279057010077,0.0383040735342641,0.0439003868095379,-0.0139874261913848,-0.0151914347422052,-0.3249853505658166,0.9454924337497284,0.0447463329297555,0.016666072746733,9.394379248190791,0.0349755613669831,0.0152020704288152,1.209077961520038,10.566306443204942,-2.532084292261858,0.7796402525999439,1119.2155676255145,1110.6617426444475,1104.5971119694286,1108.4126257273283,-993.4974976667025,-912.1240420425684,-496.29729815437673,-794.4900228153067,155.93166096423718
0.4849999999999999,-0.5756182911463189,1.0142590984171047,-0.9859634954768284,0.0307185879485884,0.0419907295917866,0.0403246536141795,-0.0139722825401708,-0.0151395667147218,-0.3249341793828269,0.9455111147971678,0.0403051701710427,0.0134191281991045,9.369355804022865,0.034150879764704,0.015758458272824,1.207936135368384,10.566336778573103,-2.532000054596528,0.7826519581815984,1116.1653795792763,1107.901727599538,1103.249634043858,1106.0613115016315,-1236.9199372393712,-1068.7845839423962,-507.9587598712346,-925.6109705991084,155.9389215154227
0.4874999999999999,-0.4629968366402128,0.9762003874175617,-1.0246544569634717,0.029578263404632,0.0444276276486164,0.037262679595156,-0.0139558436641947,-0.0150800887913369,-0.3248859352073781,0.9455289173400881,0.0353052714250241,0.0100513549702978,9.34434838064887,0.0333067780636074,0.0163114707546742,1.20675504287456,10.566365941591272,-2.5319142724092365,0.7856605016169955,1113.0309679393176,1105.3178197247355,1102.0573181700724,1103.7845708743328,-1349.620948145547,-1038.0001437099045,-509.50210842342995,-960.4045795859283,155.94494956046552
0.4899999999999999,-0.3396194983027235,0.9428473821199844,-0.9940174163607416,0.0290843229657969,0.0462589116243958,0.0343908208822782,-0.013934291896868,-0.0150204243586707,-0.3248443900289472,0.9455444755794052,0.0298485293627883,0.0066671676832545,9.319308579946025,0.0324555670286009,0.0168769164482278,1.2055355998181447,10.566394547231932,-2.5318262110905088,0.7886652659350766,1109.4172748385488,1102.7117268809886,1100.7021235017407,1101.259288603702,-1650.3911488554409,-1100.9643620451689,-642.7622854053874,-1136.7883482327206,155.9509490429906
0.4924999999999999,-0.202882203139563,0.9254065804460768,-0.9010355241677604,0.0289742149591222,0.0481597500890552,0.0316077411881761,-0.0139042542373075,-0.0149621952839295,-0.3248124725660668,0.9455568093067988,0.0239398937094998,0.0033226137972708,9.29417993565063,0.0315965403313721,0.0174642914036938,1.2042775690660323,10.566423494876794,-2.5317348618197,0.7916674968569966,1104.7790121950404,1099.8129979145097,1098.8435067430455,1098.1006291331692,-1709.1383839250268,-1003.462837234064,-713.9192644721327,-1151.3879268454264,155.95810903725248
0.4949999999999999,-0.1085499989531377,0.9345363327990862,-0.7977184071670055,0.0290357440161103,0.0497186566965097,0.0298936105786769,-0.01386861423875,-0.0149015880452106,-0.324784960134788,0.9455677410275062,0.0175334067792233,-7.058315800484438e-05,9.26890171422205,0.0307218302500485,0.0180638470499947,1.2029796141326656,10.566452524179464,-2.531640358397114,0.7946695178822122,1100.8715829189237,1097.6944126948183,1097.1325271793803,1095.5023489694747,-1525.935393027156,-781.3271644681201,-697.3828681796925,-999.0148326388398,155.96403806855756
0.4974999999999999,-0.03833860242444,0.963183500439494,-0.6902674315685621,0.0290836213246477,0.0515293200977889,0.0286248463594364,-0.0138354688060373,-0.0148340265734915,-0.3247574760546231,0.9455787408952288,0.0106065054114551,-0.0036969560437837,9.243411420588798,0.0298257375375363,0.0186530989560661,1.2016392829137132,10.56648114867144,-2.5315430636241447,0.7976722130525963,1097.1493352299046,1095.906362092169,1095.356592402147,1093.1055549699752,-1432.1555981337935,-669.9745694186726,-701.5382501451307,-905.8797306797705,155.96992207935145
0.5,0.0133609113498935,0.9971409842438804,-0.5912923488095309,0.0290899139282814,0.0537821261093865,0.0275775021383926,-0.0137975809095758,-0.0147637469689152,-0.3247265666408546,0.9455910321133024,0.0032045026750651,-0.0074188226221904,9.217645290076833,0.0289103908636595,0.01925115602701,1.2002525753900573,10.566509692624335,-2.531443714949261,0.8006757835965383,1093.7108049282547,1094.3445398477247,1093.6248359286546,1090.972950316076,-1287.1684630185273,-590.0038078324017,-662.4063918713011,-779.0402545127016,155.97576424263326
0.5025,0.0464986723227182,1.02045489611823,-0.5094477527314167,0.0291213846990439,0.0566521936546029,0.0266616849388687,-0.0137592018394864,-0.0146979169403584,-0.3246908388140338,0.945604911100308,-0.004501738508594,-0.0112810316353263,9.191544804200852,0.0279932302145103,0.0198531121301132,1.1988153885482995,10.566537904153346,-2.5313431418157464,0.8036772728468259,1090.713492914812,1092.956343053007,1092.0445604427905,1089.2103536974116,-1203.0687060867865,-596.1937074939209,-648.4872362897926,-697.2227794234635,155.98155126226067
0.505,0.0694732233288831,1.0185685307827803,-0.4315415255763751,0.0293027952679453,0.0604016272050313,0.0255463456649917,-0.0137292107535235,-0.0146398460411908,-0.3246482599526094,0.94562089440738,-0.0123747809475461,-0.0154277089964032,9.16505957607843,0.0270864382241688,0.0204403614875742,1.1973243433749443,10.56656559986268,-2.531241491961823,0.8066736424513649,1087.6954613978207,1091.363571310255,1090.3823997472057,1087.4868364189588,-1006.3681461299884,-584.9541267756189,-572.9939214276777,-584.0746435932937,155.9884278552218
0.5075,0.0777851789861917,0.9875178846491796,-0.3798670380369259,0.0295162907353273,0.0633969965129514,0.0245688564179564,-0.0137059575081998,-0.014586806120214,-0.3245977549158992,0.94563941913879,-0.0204378827738449,-0.019850622692728,9.138148279999527,0.0261802637106915,0.021013217606796,1.195776650636596,10.566593718503928,-2.5311386444475312,0.8096657056175552,1085.681652184162,1090.031572419129,1089.179590835652,1086.2899804794451,-703.2944802233027,-539.651748722235,-456.2737662967716,-455.90787708551903,155.99410033693633
0.51,0.0790041267321001,0.9312554302009748,-0.336059331638644,0.0296982779312586,0.0659583159344342,0.0236162456319168,-0.0136919504034197,-0.0145348412780816,-0.3245445919446334,0.9456587061875338,-0.0287038260670625,-0.0246164363537886,9.110780717471062,0.0252652152779791,0.0215613097451796,1.1941699363846328,10.56662239613866,-2.5310341535738443,0.8126529218699224,1084.1789889967042,1088.665312566644,1088.1010309157218,1085.2072970335312,-553.742101048204,-604.0068225553697,-466.3645787185132,-478.13688618340274,155.99971256986714
0.5124999999999998,0.0773584771690922,0.8500644050166799,-0.2869019276261,0.0298453617279262,0.0682347325312621,0.0226762401475527,-0.0136829120201886,-0.0144846417272385,-0.3244922877496778,0.9456776099420112,-0.0371364836703692,-0.0296395352112755,9.08293823389016,0.0243375251928507,0.022092810222645,1.192501494614064,10.566651978321202,-2.530927551109995,0.815634476760858,1082.912941678921,1087.011538306352,1086.8477679420596,1083.899296048528,-388.5393104746069,-599.4302258310194,-467.1478521036984,-494.68613876697367,156.00637972275308
0.515,0.076601272534349,0.7826329628821045,-0.2456957922896983,0.0299173097274208,0.0695371010024049,0.0220879554528052,-0.0136722541153557,-0.0144344855099383,-0.3244407632540015,0.9456962992938616,-0.0457458949627748,-0.0348006881831537,9.054615949511852,0.0233869993069458,0.0226188560266812,1.190768615477452,10.566681367336669,-2.5308182973008955,0.8186095386430812,1082.2362924443312,1085.668161437489,1085.765291655203,1082.7338663396963,-214.62158320323377,-517.1069035009164,-453.98370056041085,-486.95309313979993,156.0118823742638
0.5174999999999998,0.078808340453473,0.7218709210266915,-0.2005324183797375,0.0299699212946799,0.0705675071062467,0.021538631761696,-0.0136575541156506,-0.0143825164364181,-0.3243899681000981,0.9457148822562942,-0.0545118883125604,-0.0400451398168695,9.025823967836104,0.0224070443674637,0.0231408620757786,1.1889683276680902,10.56670915939062,-2.5307058523848127,0.821577158856564,1081.8398337629048,1084.4260037888475,1084.5778494392575,1081.4645305828292,-140.1989578911524,-512.7795996918388,-553.4883804863962,-574.7968609081449,156.01733487247597
0.52,0.0849900289359738,0.6493592429426263,-0.1372677124666018,0.0300639545394812,0.0719779749543308,0.02085268194817,-0.0136290535841108,-0.0143279438407671,-0.3243400135680392,0.9457334999558908,-0.0634316794010165,-0.0451785012437508,8.996587550056637,0.0213883728015178,0.0236774336448706,1.1870966625750916,10.566735264973696,-2.5305897748228974,0.8245399919295108,1081.5352976548754,1083.1042634390299,1082.9978497527711,1079.8598820351556,-106.19417765451534,-455.49424896294073,-603.6856006748161,-590.9332172075204,156.02382764423388
0.5224999999999999,0.0913978997555061,0.5753366079318168,-0.0750857095022005,0.0302093686080394,0.0735791322985232,0.020351949921616,-0.0135901228986449,-0.0142703000871718,-0.3242909336908816,0.9457521197389211,-0.0724133380225595,-0.0502203730784445,8.9669486410093,0.0203329285843477,0.0242178359234533,1.1851491186114316,10.566759694491516,-2.530469812223764,0.8275000842182341,1081.3088628746323,1082.1485325440328,1081.5594214358835,1078.5098644967916,-111.95559828929608,-358.78651409793713,-592.7879024793123,-530.5281213827125,156.02920240615046
0.525,0.0955895967675309,0.4679028116418983,-0.0042689572452284,0.0304643599917314,0.075691972303428,0.0200356298762201,-0.0135469464844898,-0.0142100356184625,-0.3242443565672218,0.945770103742746,-0.0813277140082033,-0.0552239875736628,8.936965246846617,0.019246842682521,0.0247458774676539,1.183120543979702,10.566782663765764,-2.530346173346256,0.8304587687545634,1080.9755196634287,1081.31033086854,1080.0339102403748,1077.207241428242,-170.35368037913926,-324.56292778838326,-616.7086232844207,-509.25288531730024,156.03454660553817
0.5274999999999999,0.0950377305981455,0.3241455315179195,0.0698663606643237,0.0308181813266785,0.0779227123102755,0.0199170838171078,-0.0134939258196441,-0.0141406680737531,-0.3242005502264181,0.945787531828453,-0.0902255119754852,-0.0600744709951165,8.906709682706447,0.0181116719213264,0.0252667001154344,1.181005482453146,10.566804869129188,-2.5302190556233186,0.8334167272724108,1080.4570944727363,1080.5257179050907,1078.4758783194611,1075.963600070205,-272.3739470034613,-312.755824478472,-622.81007115921,-486.40214627098385,156.0398700282288
0.53,0.0864655446913036,0.1422682627332897,0.1401780952758547,0.0312415655218392,0.0793602890762217,0.0200826919192982,-0.0134387652836205,-0.0140555416380562,-0.3241587649918319,0.9458046120220356,-0.0990767135196614,-0.0648750927922824,8.876268264171097,0.0169187451654731,0.0257559661556636,1.178799232804011,10.56682610093379,-2.530088775461803,0.8363720538386116,1079.6136499284116,1079.7465517461478,1076.9198598845787,1074.775230696887,-464.41236761024766,-355.24349516431323,-679.1152953433078,-520.4715389668759,156.0451733879202
0.5324999999999999,0.0672740282954634,-0.0921380000162551,0.207417263160353,0.0316349084555995,0.0792102632809593,0.0206728819543461,-0.0133849862255338,-0.0139622232850174,-0.3241183749087131,0.945821314180684,-0.1076319919679495,-0.069570292378393,8.84574027768529,0.0156876094761975,0.0262101910939985,1.1764971358614367,10.566846600683087,-2.529956397556932,0.839322174952173,1078.135032634685,1078.7495004292691,1075.0803018427448,1073.3612423753707,-624.2006620390379,-382.8806674425774,-671.0612134658726,-524.2957227505937,156.05151996454268
0.535,0.0466292289844319,-0.2756620984143754,0.2397525398065152,0.0317090477640281,0.0777919962326646,0.0215192698848083,-0.0133169053475208,-0.0138658964152276,-0.3240822269484254,0.9458366659569843,-0.1157903130113485,-0.0737960441641509,8.815234005319132,0.0144171747028837,0.0266673301343039,1.1740951107814377,10.566866675408601,-2.529821827672429,0.842267762337414,1076.4926466182164,1077.8321484089347,1073.5645538172491,1072.153752083134,-734.5495590141575,-388.4410908944116,-607.8503451317823,-494.53537833583096,156.05679789175892
0.5374999999999999,0.0251880022519882,-0.4268135439264238,0.2395585576684581,0.0316723236655102,0.0759974395442215,0.0226750232600407,-0.0132268123096112,-0.013768750997357,-0.3240535201787586,0.9458494500541574,-0.1234519628868232,-0.0773410773371915,8.784863998017004,0.0131055221765415,0.0271457091240375,1.1715908450704926,10.566886064740174,-2.5296849970347584,0.8452088072770721,1074.4622848396143,1076.8072949747973,1072.041050117086,1070.8885654836915,-959.5001594478608,-476.08823594237,-677.531493019705,-569.9339611029241,156.06206823425907
0.54,0.0013721201495117,-0.5677183593132246,0.2020198692804059,0.0317599031543176,0.0739448174593555,0.024095186220209,-0.0131132412032029,-0.0136772868636625,-0.3240290070845606,0.945860540471592,-0.1304078225235451,-0.080073032902256,8.75474817907021,0.0117653632438086,0.027653754146096,1.1689836783943575,10.566904645184888,-2.5295471878590736,0.8481447933160102,1071.6951458209771,1075.451707229223,1070.1768963521508,1069.3040822776195,-1045.6660953946075,-518.5627805825329,-690.3304579315312,-588.3705810101213,156.06838735716303
0.5424999999999999,-0.0153319658080735,-0.6594628036520725,0.1486100083840909,0.0319534301400856,0.0724623726108394,0.0249072366433076,-0.0129784795156214,-0.0135959724996871,-0.3240079297479793,0.9458702448876166,-0.1364628402039723,-0.0819381548805007,8.725002902632122,0.0104074580758656,0.0281907123025101,1.166275064783418,10.566923057259292,-2.5294088489533326,0.8510745447637869,1069.2339543626415,1074.2144810718846,1068.5893978274282,1067.9467125786407,-984.6914200486016,-520.4836034590239,-638.877449029905,-543.6380552896021,156.0736509767469
0.545,-0.0248418662201771,-0.7387118092580902,0.0915954993765399,0.032062679523818,0.0712764973250773,0.024967979268337,-0.0128365137262183,-0.0135296496762971,-0.3239899913601502,0.9458785823269668,-0.1413530541367796,-0.0830786787373372,8.695739513549585,0.0090523087182904,0.0287310425247473,1.163468986113137,10.566941487451398,-2.5292703213469334,0.8539945356371192,1066.771688720734,1072.849289211928,1066.9825091070013,1066.5858920011715,-1048.6682968833056,-635.8149401877193,-704.6280018825194,-590.4560478169509,156.0789143546327
0.5474999999999999,-0.0196477523487774,-0.830857053191176,0.0431241921185885,0.0317407598801736,0.0699241233350113,0.024340554726397,-0.0126989451003214,-0.0134814180402343,-0.3239730016077675,0.9458862294421176,-0.1448627427222166,-0.0836116697977132,8.667059943994056,0.0077152929643347,0.0292540636193483,1.1605712205746783,10.5669598303211,-2.529132015821524,0.8569022708276475,1063.9906128782247,1071.035406370946,1065.0662578180156,1064.994432339556,-970.5212651760567,-695.8782124749172,-694.8435465710185,-571.0016564541996,156.0852322520894
0.55,0.0041601178744935,-0.9048022415137296,0.0305339517448605,0.0310994063335809,0.0685218259217961,0.0236892032722972,-0.0125606927311535,-0.0134503790044232,-0.323957857093555,0.945893035442082,-0.1469439208151752,-0.0834132381425286,8.639052568016073,0.0063910080423042,0.0297733642537082,1.157588062174613,10.566978251889703,-2.528993044219708,0.8597985981162497,1061.9190823948538,1069.3698981495531,1063.5082913741462,1063.7308837189005,-762.4430891383319,-691.73473807682,-607.7732969915809,-489.00361253859,156.09049996808267
