t,ang_acc_x,ang_acc_y,ang_acc_z,a_vel_x,a_vel_y,a_vel_z,quat_x,quat_y,quat_z,quat_w,acc_x,acc_y,acc_z,l_vel_x,l_vel_y,l_vel_z,pos_x,pos_y,pos_z,mot_1,mot_2,mot_3,mot_4,dmot_1,dmot_2,dmot_3,dmot_4,vbat
0.0025,4.751945374942342,-4.164774231115064,1.6831626925965624,-0.0186555250775558,-0.0236163473768006,-0.0015847018362905,-0.0003653162303541,0.0050380246958793,0.079939657891554,0.9967812524632652,-0.6818459075722081,0.1178274610754147,11.405349471241632,0.0736436982157702,-0.0179005954458046,0.8584872217451412,-5.211509850138929,0.0168618119789781,0.2708584872898517,1249.357513753993,1201.799519271275,1203.8924530171066,1253.650471609436,507.1302177497273,-105.69431099565917,-1820.678338300422,-1884.075452587149,164.30134157261602
0.005,3.816207142397644,-4.016116539901233,1.6412136458439197,-0.0065877271069097,-0.0332858006740932,0.0033199211675196,-0.0003093361430759,0.0048271570133119,0.0799341443121078,0.9967924172612636,-0.6543480089699358,0.1112183131965211,11.424624213621156,0.0729011613599599,-0.0175669455515937,0.8623224524657234,-5.211283654436659,0.0168492224136983,0.2730304822395295,1250.6253392983676,1201.5352834937855,1199.3407571713556,1248.940282977968,431.4572775956549,-177.66263864414216,-1840.1146544497356,-1939.943155267429,164.3250891523236
0.0074999999999999,2.695196717993868,-3.777353958687885,1.5074163142451147,0.0014091578199036,-0.0420864491694998,0.0062826351392941,-0.0002401178790173,0.0046454343784367,0.0799198648274876,0.9968027863969559,-0.6274373183080869,0.1049447669252813,11.443796488781066,0.0721206305894418,-0.0172059163602383,0.8661797222903134,-5.2110605098150975,0.0168353568244772,0.2752022808658374,1251.5148001419716,1200.911206078054,1194.691879744858,1243.9507558330988,236.15437681319236,-336.9109803286392,-1832.2885676593612,-1995.455651586008,164.3480229259898
0.01,1.491029932990947,-3.4665400109451783,1.3136604874759004,0.0044549429680687,-0.0498305807929481,0.0073824609929379,-0.0001594071206275,0.004495898890907,0.0798958982126573,0.9968110078087034,-0.6011687249550868,0.0989654874558329,11.46280930164973,0.0713029486190166,-0.0168213190694716,0.8700721474862528,-5.210842758651489,0.0168205393533182,0.2773740732960941,1251.8061111824336,1199.8507285921423,1190.1793143330588,1238.963004720038,-31.648185689982704,-562.2509512234045,-1899.402399994096,-2129.0646239245684,164.369988472358
0.0125,0.111099106457364,-3.0433243183407583,1.0454482369616038,0.0035671065626183,-0.0585208055201281,0.0085400598736726,-7.793764532192319e-05,0.0043775209754389,0.0798627688539121,0.9968167837999756,-0.5755284081582633,0.0930289521595838,11.481581820358372,0.0704569361960633,-0.0164342825917812,0.8740133323508599,-5.210632307999408,0.0168066517462549,0.2795461780450163,1251.3565592135217,1198.0999513219372,1185.1948677448875,1233.305432713476,-308.11570001346814,-716.012662315825,-1732.4172522469328,-1994.9679761147313,164.395246391507
0.0149999999999999,-0.8988634619426144,-2.6628801547067775,0.7874705395833747,0.0002285100439543,-0.065670675848319,0.0105511087834998,-5.213364163434643e-06,0.0042834050838395,0.0798238004340665,0.996820009639566,-0.5503791296990901,0.0869057260938094,11.500006916043011,0.0696035020056516,-0.0160661217710362,0.8780158952387588,-5.21043046061908,0.0167951850627999,0.2817197503622546,1250.2655326823663,1196.2706652805634,1181.517228071824,1228.9881648394644,-593.9644025776487,-802.4946344444741,-1366.1768821764324,-1639.838145323847,164.41539209369162
0.0175,-1.704876207034916,-2.268430108885097,0.4706581011411921,-0.0049208332064661,-0.0724719485758154,0.013916027354785,5.274738078769415e-05,0.0042128287184454,0.0797834548412538,0.996821330188611,-0.5257362066774613,0.0804625159978399,11.517940245021855,0.0687543223550068,-0.0157320474927468,0.8820918532212328,-5.210238599220782,0.0167866067300276,0.2838970133443892,1248.3867372006334,1194.0874781497148,1178.3639833340053,1225.1062419868567,-1016.4367699074317,-1038.2214213336736,-1280.4738114711197,-1622.1149901872648,164.43461975418973
0.02,-2.4154565510415527,-1.8093562247266817,0.0135112786125607,-0.0124899247028479,-0.0794062496349577,0.0179922477671936,9.406089907384233e-05,0.0041545274880482,0.0797478202731278,0.996821276663942,-0.5013857203861521,0.0736485195988654,11.53521762745076,0.0679402413816233,-0.0154418034220079,0.8862491027555501,-5.210056591755984,0.016779489250974,0.2860800420287195,1245.183348832829,1191.079558173895,1175.1148590144685,1220.877589888528,-1337.2472299458884,-1166.6532600017042,-1120.5107945853347,-1494.028508089287,164.45665474519984
0.0224999999999999,-2.801828762884502,-1.4743351420432724,-0.4046469741046754,-0.0191818846359921,-0.0835069793627408,0.0192251073962347,0.000123787273746,0.0040899564724916,0.079723248768969,0.9968200980447915,-0.4769537557903775,0.066566347266094,11.551654724808031,0.0672053224993131,-0.0151934310091793,0.8904911268170933,-5.209881784747844,0.016772387788113,0.2882711951622008,1241.700501050904,1188.2542118497063,1172.7614293610786,1217.6360994464103,-1566.2112391111348,-1196.2351533155013,-892.5590925949562,-1254.0407176571532,164.47416943923793
0.025,-2.9994694596872344,-1.24033919072552,-0.7915864552274887,-0.025624306825509,-0.0856559884651003,0.0166942394755446,0.000137314425961,0.0040114505275547,0.0797129263417923,0.9968180005816256,-0.4523542474308076,0.0591215507720644,11.56704046308704,0.06657160523544,-0.0149993222429271,0.8948186124991061,-5.209713103897869,0.0167644807325662,0.290473491569839,1237.3522926372734,1185.0983824073176,1170.6520635514937,1214.6073863002423,-2112.694662726471,-1461.8809834658803,-897.156584640106,-1295.844992109505,164.49082501741339
0.0275,-3.046705983393513,-1.1267773029180688,-1.1327212238273328,-0.0333053724268673,-0.0867991806747389,0.0108513708814119,0.0001334494740239,0.0039173480852726,0.0797161358593711,0.9968152870318246,-0.4276516280067892,0.0513147633790884,11.581148687205063,0.0660485264762516,-0.0148637288891818,0.8992288199669322,-5.209548759778326,0.0167553713315417,0.2926906158605565,1231.1370277372716,1180.9448069323769,1168.275646437878,1211.1568744858628,-2435.340665781952,-1576.2439254905082,-858.0944097943305,-1238.3048197788871,164.5098427618913
0.0299999999999999,-2.9384655758618234,-1.187886163540658,-1.2764457214504064,-0.0402226006892932,-0.0875779445583601,0.0054757920459156,0.0001098119758879,0.0038076446213234,0.0797288439155035,0.9968123863872336,-0.402965804469081,0.0431285585155767,11.593749935759439,0.0656392859338066,-0.0147917096758792,0.9037151744517904,-5.2093865492964895,0.0167453179941391,0.2949239323165343,1225.1755893083637,1177.217162779865,1166.361591502522,1208.4158622013479,-2515.4131448801304,-1527.6965491372264,-757.5192420648817,-1065.1726027445416,164.52490110644774
0.0325,-2.6802337714908777,-1.398238263614965,-1.2719224654989143,-0.0477732699427696,-0.0892530835353233,0.0008705773031549,7.563509772487405e-05,0.0036750880816556,0.0797446332532453,0.9968098454254563,-0.3782379204754202,0.0348076111709511,11.604623393751904,0.0653584628803876,-0.014767575041739,0.9082669743200312,-5.209222680895721,0.0167344836923964,0.2971741700208556,1218.5599620128708,1173.3063241866907,1164.4880502275537,1205.83101147214,-2711.984147857763,-1574.2388889288563,-740.7178425395152,-998.8892623315214,164.53916067677284
0.035,-2.302907221174084,-1.7015225857029208,-1.168981726470284,-0.0550435879490898,-0.0920739201968051,-0.0027189403600567,3.95308344268014e-05,0.0035119280772387,0.0797611730614822,0.9968078280954308,-0.3534032882900866,0.0265912141821727,11.61355932227797,0.0652183153891452,-0.0147767251922094,0.9128708722140804,-5.20905287094276,0.0167229476369809,0.299440787253992,1211.6156685690748,1169.3459683352207,1162.6580022898245,1203.4214158896903,-2781.8964465444888,-1566.6661507031683,-714.633356734976,-903.4654106743351,164.55277340248048
0.0374999999999999,-1.8041138929014071,-2.0625575535818568,-0.9937968740720454,-0.0608393668545814,-0.0964948887809258,-0.0047714506329151,5.848329218007533e-06,0.0033165474090984,0.0797749312534319,0.996806546890202,-0.3285478752491048,0.0186371139823199,11.62036163010664,0.0652170275375325,-0.0148108442615249,0.9175124734866658,-5.2088754218030635,0.0167117748776345,0.301722773685712,1204.6504797801483,1165.472993433175,1160.9148834438788,1201.3136844187684,-2951.9812063155327,-1645.7722253399431,-737.105780441016,-831.7056382407378,164.56562472127467
0.04,-1.1148178264248003,-2.4846619937046084,-0.7594856401315353,-0.0653774985049039,-0.1040834295582699,-0.0051744386166401,-3.0050396721536155e-05,0.003097999776782,0.0797828615007481,0.9968061293021924,-0.3040187163917842,0.0109196752457925,11.624851643262463,0.0653304544659512,-0.0148765072878593,0.9221775445264754,-5.208690629497551,0.016702450838096,0.3040212418144652,1196.8557625374972,1161.117107208521,1158.9724733876194,1199.2628876984863,-2674.5728695600496,-1523.4508674366211,-682.5457797574921,-659.0606228570772,164.58018999816568
0.0425,-0.5095830300133898,-2.776074854324,-0.5712018202843256,-0.0670609258892775,-0.1121699084953965,-0.0044630657963206,-7.320960708227129e-05,0.0028780508856454,0.0797831157822197,0.996806562993814,-0.2804523927865537,0.0034311518144,11.626872546619529,0.0655102988906459,-0.014979542972642,0.9268531697368952,-5.208501413165664,0.0166943967860431,0.3063370711516085,1191.2776154323483,1157.8557390959916,1157.5021545450911,1198.018381304483,-1947.4632233742348,-1202.7655029976363,-556.6293531903286,-402.7740193193952,164.59163201228412
0.0449999999999999,0.0747372676959243,-2.967091666946815,-0.3879267900489243,-0.0666283494976135,-0.120761632461839,-0.0042954945789179,-0.0001230288028134,0.0026690109331364,0.079775781056304,0.996807717273378,-0.258247095656268,-0.0037203682805913,11.6262998042234,0.0657265438164445,-0.0151170944473826,0.9315257721487707,-5.208311773487051,0.016687432435664,0.308670963516716,1187.118446420626,1155.1032796935328,1156.1893266216675,1197.2490176018896,-1432.6876044700844,-1072.2430631661612,-546.2122963861024,-258.1081969623939,164.602374040232
0.0475,0.7033096687458733,-3.073701966118634,-0.1333347350072448,-0.0641748902993191,-0.129975809041276,-0.005656134294141,-0.0001803937001838,0.0024754696507092,0.0797640743056248,0.9968092510150424,-0.2376136611655655,-0.0104745433672908,11.623037967221336,0.0659640667005429,-0.0152904827073351,0.936182118450753,-5.2081232361865375,0.0166813348057535,0.3110223625220231,1184.1141774099979,1152.4945237801608,1154.7710930631608,1196.727840319671,-755.060429672266,-834.7020091917776,-499.25299973319807,-161.74432322018205,164.6144819457847
0.05,1.145431657126295,-3.070829604103924,0.1427906338163996,-0.0612446925068542,-0.1366160773921546,-0.0080026047636113,-0.0002419811775499,0.0023020699794804,0.0797485950350986,0.9968110522528256,-0.2187436568893253,-0.0166753180670731,11.617016012015212,0.0662095029322098,-0.0154925112312153,0.940811362083014,-5.207937206232545,0.016676046485459,0.3133887653187815,1183.3431442722647,1150.929769647574,1153.6930616230015,1196.4402959857887,26.169436663713,-509.120441680034,-415.0882007302701,-139.6690769768157,164.62393989673964
0.0524999999999999,1.4932673437804835,-2.983060796591737,0.5031775696590967,-0.058066436121929,-0.142912167543979,-0.0105767632784781,-0.0002996804814149,0.0021455874770837,0.0797332711148804,0.996812779029884,-0.2016241198290169,-0.0220729977641225,11.608186282519826,0.0664658864416893,-0.0157080101634692,0.945404662952902,-5.207754328911316,0.0166708890436749,0.3157666476519598,1184.2450245933164,1149.9489215717608,1152.6956520595095,1196.0294949347867,706.9618087768507,-332.9927817800128,-421.850569395747,-271.50160202586454,164.63276661375306
0.055,1.7985526742845817,-2.7747731563804074,0.9938260966301982,-0.0536635913986206,-0.1510126580446373,-0.0111487838161597,-0.0003463670310305,0.0019921349910987,0.0797201507123664,0.9968142776856292,-0.1859835427003192,-0.0264662553185474,11.596520277073155,0.0667572191239306,-0.0159241417970209,0.9499549117214932,-5.207574867459803,0.0166648621872032,0.3181525766218322,1186.8779533161487,1149.2648057386739,1151.583808776023,1195.0827879756591,1145.3840089745415,-209.86675153999363,-390.3616819428404,-457.70921848361434,164.64265840027022
0.0575,1.9550814911907133,-2.5043082271540578,1.3825283387354599,-0.0492096789054048,-0.1585365427172764,-0.0077551979937734,-0.0003831254688362,0.0018252095211233,0.0797107566174013,0.9968154508679103,-0.1714920886647746,-0.0298556110797592,11.58200284536119,0.0671120019918786,-0.0161431354353601,0.9544573592311802,-5.20739835302253,0.0166576667574541,0.3205435505483135,1189.9719446381891,1148.8995878140609,1150.7438436497953,1193.7409488423689,1318.8884065594273,-161.6856229014048,-309.43965875844714,-672.1312395397039,164.65033995734913
0.0599999999999999,2.002134580796746,-2.1288308410021743,1.6544169403415356,-0.0439481292678355,-0.1661232763352557,-0.0007604831606324,-0.0004095782172909,0.0016360825508608,0.0797100618577605,0.9968159180855598,-0.15798393298213,-0.0322017237216518,11.564629557535095,0.0675443015983879,-0.0163631757782598,0.958910464401516,-5.20722326155607,0.016649291078217,0.322937353865517,1193.472395348946,1148.4563776241669,1150.0366104822308,1191.7221317779608,1391.3954154186292,-232.27639807983007,-252.72384879326648,-916.1744371380797,164.65746516015724
0.0625,1.955216494534386,-1.682913283903381,1.7805560583665652,-0.0382492861654913,-0.1726487218680465,0.0069990328444238,-0.0004311039521098,0.0014290074379231,0.0797226143373882,0.996815306115675,-0.1455886663571931,-0.0335843575182895,11.5444057608242,0.0680420349925616,-0.016590930881388,0.9633153595077611,-5.207048342761684,0.0166390639456089,0.3253338443554474,1196.9289217152823,1147.7382058236617,1149.4802244058287,1189.1600766566785,1296.3173440420167,-391.75277245012654,-178.81485539432998,-1129.909884532116,164.66414856337911
0.065,1.8022991280221317,-1.2022862601152415,1.7241941156061098,-0.0327796338297602,-0.1766261732264535,0.0133188554571156,-0.0004470235574433,0.0012133493532253,0.0797441027352673,0.9968139389893096,-0.1345246283470096,-0.0339457938502619,11.521348950967097,0.0685834515659418,-0.0168191602004687,0.9676738186912204,-5.206873548575008,0.0166269015511142,0.3277356164505867,1199.953982069156,1146.4976137619162,1149.1425362052591,1186.0725823553003,1164.3973577819895,-689.6086356205609,-98.11790366406959,-1430.1971412494809,164.67032189045327
0.0675,1.5247734000428093,-0.6729464211907719,1.491727742959013,-0.0273900139456411,-0.1776564033292972,0.0185378745282155,-0.0004582988345655,0.0009910086023341,0.0797729903448771,0.9968119273257646,-0.12482311772536,-0.0332924068685711,11.495489457693912,0.0691596305476647,-0.0170451241982902,0.9719852988840124,-5.20669781064688,0.0166126326042054,0.3301461541267499,1202.7509085041922,1144.290162645559,1148.9896348875086,1182.009090950431,861.4678569361323,-925.4402410679623,-23.57946248648657,-1512.502431532674,164.6771680930896
0.07,1.2464875685474033,-0.3295622239063313,1.212738748564261,-0.0241181409946842,-0.1760496474677377,0.0213474612632715,-0.0004623083740952,0.0007592746937596,0.0798013227189623,0.9968099041472646,-0.1163843600563545,-0.0315706507536826,11.466871793235129,0.0697703440153853,-0.0172590219761515,0.9762468040884176,-5.20651964459708,0.0165975044238078,0.3325675740403593,1204.2613213538368,1141.8704125565764,1149.0246388928267,1178.5100701976369,427.6048596308564,-1063.688715810806,25.296946974913272,-1390.2870614073915,164.68242443921955
0.0724999999999999,0.9603500878871452,-0.1215819513784891,0.9072533843950557,-0.0220695530313698,-0.1737399420930138,0.0229091377437181,-0.0004592445136915,0.0005205151819047,0.0798190855730167,0.9968086643307842,-0.1092114692215308,-0.0287969364205844,11.435556646678016,0.0704043455170523,-0.01745561712698,0.9804538940879136,-5.206338330384124,0.0165833235967588,0.334999883161287,1204.8889328023463,1138.9717190665049,1149.1161196223832,1175.057655643394,84.56115696203612,-1339.354716630717,17.97137397634291,-1491.9887713407231,164.68723679268544
0.0749999999999999,0.6487580813534674,-0.008633170333729,0.5670558781767516,-0.0207551269133855,-0.1721477886550147,0.0235633768831156,-0.0004547281955379,0.0002759597519071,0.0798201063310402,0.99680869796888,-0.103272774452186,-0.0251286740405632,11.40162408177167,0.0710510890745524,-0.0176412937570017,0.9845997482105696,-5.206152680070801,0.0165703827725189,0.3374428835849604,1204.6841271386468,1135.1736389734228,1149.1144957627084,1171.0501263409333,-219.59142272125956,-1403.5743403102504,-46.915293227857504,-1446.135864155302,164.69252228698593
0.0774999999999999,0.4356186865769042,0.0163791593776045,0.3318282466014375,-0.0202638927981159,-0.1724697999882015,0.0234111863530906,-0.000456511290045,2.8405850941446792e-05,0.0798032516890032,0.99681009564135,-0.0985578654942083,-0.0207834271637825,11.36517722629276,0.0716964076685955,-0.0178274140681963,0.9886756548110968,-5.205963471066084,0.0165596931906315,0.3398963710480214,1203.7909756887402,1131.9538473649536,1148.8815431562439,1167.8269763226176,-487.0053422099768,-1243.156730779309,-171.90685874006687,-1267.0884172612648,164.6965355746471
0.08,0.2807898645144619,0.0323673270384993,0.1573358633864936,-0.0200848592578181,-0.1739941842929114,0.0231526067390282,-0.0004679425174374,-0.0002189359713217,0.0797731373398157,0.9968124932061926,-0.0950399539709286,-0.015892845188051,11.326345695790952,0.0723262762279461,-0.0180175378971068,0.992671050321766,-5.205772371183531,0.0165511258990622,0.3423615860459145,1202.249100427597,1128.9578553195263,1148.254961469008,1164.7146842546267,-708.2316160373459,-1119.3468984934032,-334.08464530616556,-1223.8033284677829,164.70016108769246
0.0825,0.1723911511122473,0.0765194664128883,0.0278007459238135,-0.0200779874922597,-0.175659948910562,0.023179903610797,-0.0004833929778132,-0.0004646437939214,0.0797404830853201,0.99681504099247,-0.0926193975964811,-0.0104052183059722,11.285287834993824,0.072932283617012,-0.0181982634746147,0.996573478469295,-5.20558134277415,0.0165442841164748,0.3448410630428926,1200.2498176085535,1126.3571128724864,1147.211119929713,1161.7079596802787,-887.5787262466922,-902.8512188334835,-531.3482437514717,-1166.1854839743671,164.70347777195516
0.085,0.108493165144305,0.1721109562507504,-0.061720624717177,-0.0201909039992405,-0.1768967615050409,0.0236384401305301,-0.000499865776977,-0.0007015939274833,0.0797145100454309,0.996817008368503,-0.0913152476344573,-0.0043352102642604,11.242191991687198,0.0734953305290592,-0.0183594435122317,1.0003698653430628,-5.2053921440434126,0.0165378294635311,0.3473352530821451,1197.8112067963636,1124.4435992253589,1145.5982202502507,1158.883756834755,-1138.6771898944962,-652.3100120789417,-844.8083398259306,-1180.8430763003787,164.70643625108175
0.0875,0.0590466937130677,0.3365608055173174,-0.1371720590636987,-0.0203360306958195,-0.1771432561606719,0.0242971410395642,-0.0005159557761567,-0.0009266784960248,0.0796990470728529,0.9968180938643126,-0.0910466309151538,0.0022436548935963,11.1972764205107,0.0740050386636045,-0.0184929677657912,1.0040457954172568,-5.205204289238504,0.0165294283348315,0.3498438679313183,1194.5564316590808,1123.0955628120919,1142.9870782305832,1155.8037442987768,-1216.9489013939733,-337.03581609302154,-1062.815355751538,-1065.0231997260128,164.7095891348808
0.0899999999999999,0.0175446047292392,0.4911867868425567,-0.1744585439651091,-0.0203514983504101,-0.1757794470375412,0.0244071571505246,-0.0005323025315666,-0.0011441696398304,0.0796998598667596,0.9968178362639488,-0.0915636483072703,0.0091846272805589,11.150788021893268,0.0744660842850173,-0.0185954171715162,1.0075857392107312,-5.205015797311203,0.0165163909707614,0.3523672806454366,1191.7264622893936,1122.7584201448935,1140.284143471493,1153.558640836125,-1119.0001666594546,-1.2594009879194368,-1171.9549532501355,-823.3925733778067,164.71189672734806
0.0924999999999999,-0.0552078235125694,0.6321282195228926,-0.1755949730552475,-0.0201098578365315,-0.1731687301902219,0.0237265911271109,-0.0005514930889266,-0.0013552314156822,0.0797205374622835,0.9968159531752444,-0.0926862447313841,0.0162916930275663,11.103000405492047,0.0748773327071859,-0.0186661171016572,1.010975457596638,-5.204825968494436,0.0164982555174186,0.3549058001030441,1188.9614308257835,1123.0892658071523,1137.1273034643327,1151.6867814318875,-1171.6992927117633,237.9011365663244,-1462.91257633752,-739.6220152371818,164.71388459827588
0.095,-0.2124888744089388,0.7657457624080372,-0.1216509516770167,-0.0195769771600827,-0.1696718642797762,0.0224176329902554,-0.0005759926531349,-0.0015575719135646,0.0797634159706444,0.9968122659071312,-0.0943106264227963,0.023369262010768,11.054209642545986,0.0752313411196343,-0.0187038148990153,1.0142030512532751,-5.204634140395672,0.0164742040473694,0.3574589639886799,1185.8679658258347,1123.9479258277252,1132.9695805898054,1149.8605307599391,-1092.3293274346624,337.8194349296333,-1558.815694946314,-607.3532077835802,164.7159129209179
0.0975,-0.4191660700713078,0.8508137193057526,-0.0277137976095612,-0.0191583026280717,-0.1670401453640273,0.0214362584573565,-0.0006029486194799,-0.0017586634897282,0.0798229748864337,0.996807203939818,-0.09611298347773,0.0303163686467349,11.004727529174994,0.075542284211731,-0.0186981398041747,1.0172580193453296,-5.204440029224656,0.0164466660499076,0.3600239376253416,1183.4997841886104,1124.7783629818005,1129.3332249896011,1148.6500153929699,-922.4943099256952,294.56241229704546,-1452.7183733694967,-431.8265313442676,164.71731356802857
0.1,-0.7089575060786782,0.9290127149726024,0.1077292023712608,-0.0191186811048991,-0.1651352913062644,0.0209675245180614,-0.0006298294414892,-0.0019635977842235,0.0798932326945694,0.9968012348439592,-0.0978337225494518,0.0370265369650646,10.954875199903379,0.0758206111896729,-0.018640807102797,1.0201337193796067,-5.204243847992701,0.0164182339472723,0.3625978894288187,1181.2554942762065,1125.4207378892106,1125.705988722958,1147.7013981032176,-1005.631880945747,185.59847045380573,-1544.3090147592543,-368.7297649485114,164.7184218553761
0.1025,-1.1310734606943975,1.043659394001475,0.2930112834010428,-0.0200478646051008,-0.1635138030227603,0.0211962777108095,-0.0006576627772115,-0.0021718453382541,0.0799705157438882,0.996794646837168,-0.0993563577751215,0.0433281344749266,10.904975462184872,0.0760660261214326,-0.0185325796226344,1.0228282171007237,-5.204046168258043,0.0163892797359401,0.3651783927088006,1178.4716247838817,1125.7063553340695,1121.6116799158049,1146.8063665682273,-1077.8223297525094,2.1478199063039978,-1419.4519968511058,-291.3520763211187,164.71942250073053
0.1049999999999999,-1.5089845151361008,1.1688146693696044,0.4418797151753326,-0.0221127773314476,-0.1622478841453582,0.0220741344560406,-0.0006882208774892,-0.002387401843815,0.0800530887236789,0.996787559498626,-0.1004841376030255,0.0490347863868071,10.855343853477317,0.07628884449462,-0.0183794439196316,1.0253428979998283,-5.203847594286101,0.016361171424675,0.3677644769806277,1175.866382627444,1125.431476988742,1118.6087287387024,1146.2446377216122,-1146.2904706155791,-220.0069200640887,-1072.7881242140047,-183.4251071061775,164.7199881497963
0.1074999999999999,-1.8507971335032576,1.3195259393542584,0.5536398804640132,-0.0260754635564819,-0.1602310276522622,0.023678977002315,-0.0007243328609688,-0.0026091771059329,0.0801454596477496,0.9967795948261892,-0.1011530856177914,0.0539614777277833,10.80628054156632,0.0764904741437977,-0.0181924121340068,1.027683829273219,-5.203648827185244,0.0163353421460823,0.3703541408993392,1172.7401724308036,1124.606320733749,1116.2477392947349,1145.8892410326964,-1356.0119987062524,-408.4849208904412,-813.7163228082948,-100.9617719180368,164.72028268203843
0.11,-2.107629678509024,1.4726287115179677,0.6135450047301024,-0.031822581995818,-0.1569633522205243,0.0259237456912695,-0.0007635107570918,-0.0028305755825025,0.0802459573171621,0.9967708773596052,-0.1014322890903908,0.0580673730117154,10.758061619620156,0.0766641096978488,-0.0179723982615522,1.0298616802880223,-5.203452387519102,0.0163133257027894,0.3729446534700925,1169.0863226339127,1123.38905238429,1114.5401471246607,1145.739828862022,-1582.9203376596056,-551.1165445111596,-513.970691459735,1.064505213071242,164.72035775885945
0.1125,-2.202946748212541,1.5983985882919804,0.5951169686171685,-0.0392543529241691,-0.1522618510149738,0.0286235359883561,-0.0008036554465363,-0.0030485453175913,0.0803515236090597,0.9967616274007084,-0.101340527660717,0.0613202092945062,10.710932400548227,0.076812109557473,-0.0177236622401331,1.0318895895662747,-5.203261724728538,0.0162966477369263,0.3755342946955073,1164.8255707425055,1121.8507380111932,1113.677885837436,1145.8945635587615,-1965.36991651087,-700.8247301223486,-196.08430628177285,151.47624310829983,164.7201746033013
0.115,-2.088294646474252,1.6895700134517615,0.4830749331504141,-0.0485204428057334,-0.1461860557459707,0.0313953684642629,-0.000841472921943,-0.0032614542174217,0.0804538007860973,0.9967524848441572,-0.1008929191441468,0.0637373594001723,10.665101824564845,0.0769416938563875,-0.0174489792068608,1.033782682991505,-5.203078796542137,0.0162866798047592,0.3781223496300876,1159.2594730513583,1119.884928733678,1113.559725593252,1146.4972100775635,-2054.783219204408,-702.2484674527273,82.81811210194967,295.5915514201476,164.71966442339755
0.1175,-1.8052316258147705,1.7105039733501517,0.33125734268295,-0.0553363286730965,-0.1414941423262065,0.0326938906875977,-0.0008783054823233,-0.0034653100361512,0.0805443266363385,0.9967440990238688,-0.100191592845175,0.0652708508340281,10.620739484141183,0.0770552721891984,-0.0171608982108216,1.035557562898461,-5.202904055890488,0.0162828600624911,0.3807091424488862,1154.5516546464837,1118.3394956739296,1114.091976397946,1147.3725213158623,-1809.804908776872,-558.4192731819721,298.1676414639884,423.768997424714,164.71900313335067
0.1199999999999999,-1.3709106592582192,1.6830266422978393,0.1495298122279009,-0.060159148495895,-0.1373277219010152,0.0329945092489675,-0.0009196559978211,-0.0036526053050504,0.0806203488369976,0.9967366650460656,-0.0994463682154246,0.0658225643989543,10.577973732273266,0.0771469729632545,-0.0168805201574111,1.0372315783180428,-5.202737269436464,0.0162829063156584,0.3832963844044582,1150.210448507474,1117.0928323677683,1115.050563800572,1148.616055064687,-1731.2377051061987,-446.61122379598146,462.6194594343824,610.4828122938682,164.71810356452627
0.1224999999999999,-0.7587591210651635,1.612302667201952,-0.0668244628743726,-0.063032798444332,-0.1328190553585388,0.0326721815135553,-0.0009703319760882,-0.0038212246526312,0.0806855680732083,0.9967298421164772,-0.0987754873461307,0.0653322364800358,10.536890741097496,0.0772208704889043,-0.0166282990269721,1.0388207809026486,-5.202576410438641,0.0162848190555097,0.3858840873912122,1145.8954661209527,1116.1064395549497,1116.4050736951178,1150.4249353773318,-1384.009073555443,-264.63021151357657,493.2686600682696,687.7378530124582,164.7167560801813
0.125,-0.2403534122085421,1.5348021256618931,-0.223592720126421,-0.0632229523484487,-0.1295948138703443,0.0319306095400745,-0.0010366117880981,-0.0039715691992024,0.0807428939307242,0.996723357720464,-0.0982693446360866,0.0637345599017675,10.497536519933067,0.077284133350651,-0.0164265085134276,1.0403397132054213,-5.202418992245372,0.0162870959347903,0.3884717753521986,1143.2904031396968,1115.7696813102004,1117.5169071009132,1152.0547443297492,-810.8381167996861,-33.03846117673854,407.15722925842744,631.4820824576593,164.71541488748375
0.1275,0.2166612808651305,1.4473278445840931,-0.3362384692761477,-0.0617850678074703,-0.1268626506723484,0.0306498622504966,-0.0011159121597314,-0.0041054341568699,0.0807902330885779,0.9967173722254196,-0.0979932757729652,0.0611737623253658,10.459919047216413,0.0773460069895834,-0.0162768241093489,1.0418012103921477,-5.202262587681592,0.016290037684734,0.3910600850826916,1141.8412755369543,1115.941247249066,1118.44085984141,1153.58234578962,-394.707089805706,145.89607711750415,321.1743805554758,554.4360887051421,164.7138526559394
0.13,0.5858071354785735,1.3501193561850868,-0.4038420962708475,-0.0593523193295828,-0.1238422528068244,0.0291218692102396,-0.00120324572968,-0.0042231282968992,0.0808254873833761,0.9967121038085708,-0.098052473212153,0.0578671679358127,10.424014238290848,0.0774103612982621,-0.0161738687131861,1.043216175255706,-5.202105231649883,0.0162934497418094,0.3936497255099599,1141.3168676906682,1116.499161695788,1119.1227790036908,1154.826924773275,-21.461474604029696,302.3923882588858,201.80520996186695,382.47122359730344,164.7121108879833
0.1325,0.8264953544910814,1.231157554208544,-0.416323178205625,-0.0565597780130203,-0.1198604104265371,0.0276995406200112,-0.0012922695156251,-0.0043238271412622,0.080848051905385,0.9967077294391488,-0.0985793808674023,0.0540775896894948,10.38977232818572,0.0774762378747382,-0.0161076920207662,1.0445930831282553,-5.2019469896399055,0.0162967700862194,0.3962414752374865,1141.733968163934,1117.4532091903604,1119.4498858912193,1155.4947019076067,334.21302432525374,489.82432590696544,53.58375723271815,113.10499577102736,164.71015672052772
0.135,0.9622973389723364,1.057547641616242,-0.37682839693613,-0.0537512120826988,-0.1149011141895227,0.0264310635218203,-0.0013770868854629,-0.0044081938541916,0.0808597459991918,0.9967043234515138,-0.0996756639114003,0.0500664500526433,10.357125012902964,0.0775431582364766,-0.0160682084506553,1.045937254334098,-5.201787466101358,0.0162992065699116,0.3988363976688857,1142.9879328122945,1118.9482833253228,1119.3906977898544,1155.3924497521302,529.9072518412681,588.8875075096615,-99.26163550903757,-205.28499182632896,164.7075708943843
0.1375,0.9533198980375366,0.8995208366941053,-0.3090252389258915,-0.0519508862482691,-0.111783223651061,0.0257806828557914,-0.0014502643548954,-0.0044851534209717,0.0808637540240328,0.9967019449097032,-0.1012638055299913,0.0461183715191289,10.32599243705958,0.0776258669545235,-0.0160422514417309,1.047249717424454,-5.2016262051072975,0.0163013241771238,0.4014366847405931,1144.3835044231405,1120.3976467279088,1118.953577713674,1154.468276948475,568.6994348199273,597.7603678698864,-255.94585669668936,-537.8965655449514,164.70521839986102
0.14,0.8210991645568967,0.7607407319032164,-0.2167735870313027,-0.0502796617249614,-0.1103164235796692,0.0255127901095987,-0.0015025018251764,-0.0045640340971528,0.0808614051599864,0.9967009631234132,-0.1032448955887638,0.0425554643779448,10.296290852532076,0.0777384291176699,-0.0160112646652336,1.0485286020427704,-5.20146209627335,0.0163047345798749,0.4040448027352326,1145.831429986394,1121.9370851646722,1118.110968506371,1152.7029669244055,592.2519499204094,665.2203051682585,-462.89188872910887,-929.5189125972676,164.7026639026768
0.1425,0.5143305033033376,0.6575842406026393,-0.0858196821496296,-0.0476275218799717,-0.1100950051004856,0.025356436434756,-0.0015322711902003,-0.0046529926959088,0.0808577925157992,0.9967013776137892,-0.1055409665496257,0.0395374168288618,10.267940318001152,0.0778895535347191,-0.0159720756460462,1.0497696899309503,-5.201293443597409,0.0163107165778491,0.4066615772471686,1147.3447641727423,1123.72374825375,1116.6391182700283,1149.8206823854887,489.0376933171433,618.8366002719732,-611.6294017370848,-1132.8450491792917,164.69936785278338
0.1449999999999999,0.1320389033470638,0.6403167922028903,0.0385540437402847,-0.0446879230985476,-0.1102369463917332,0.0251599691482197,-0.0015501100203911,-0.0047587527118494,0.0808578616383638,0.9967023396143296,-0.108103056748578,0.0369713712224153,10.240870756161977,0.07808202574207,-0.0159452708442227,1.0509671188682728,-5.201120440768257,0.0163190815487754,0.4092867616810433,1148.2766184529798,1125.031268166032,1115.0528214976855,1147.038741678509,284.6000868207752,455.7895739913896,-695.2700208243219,-1112.3030879877258,164.69643041332705
0.1474999999999999,-0.3631156624013489,0.6864282298478853,0.177771422771339,-0.0424771966796717,-0.1095285209359654,0.0249468150679979,-0.0015678436154135,-0.0048750380507535,0.0808628602469055,0.996703252385336,-0.1111256094262834,0.0347487248477093,10.215025997830896,0.07829105718284,-0.0159500359493634,1.0521162357415415,-5.200945093068046,0.016328097379594,0.4119187764061532,1148.7677646068464,1126.0026961237068,1113.1627681659068,1144.25916694555,104.52668593857187,323.94425533316246,-872.7821171054065,-1122.5108576725224,164.6932959353335
0.1499999999999999,-1.01773697682036,0.779033631826536,0.3545477556524093,-0.0430616512921138,-0.1072864987550715,0.0252840297843735,-0.0015932144442617,-0.0049968232525745,0.0808799917157651,0.996703194910401,-0.1147420520637744,0.0328271968709654,10.190366764615032,0.0784952584880309,-0.0159966203613297,1.0532121557012615,-5.20076825945807,0.0163355109355708,0.4145564220902259,1148.7992518826727,1126.650989442698,1110.6889109121585,1141.4261873901464,-82.78583506385068,140.93748504683379,-912.8103913681109,-890.1987289100354,164.68930679635875
0.1524999999999999,-1.5366281140191307,0.8557608621911174,0.4985893657180938,-0.0468887322562623,-0.1045884488103667,0.0264406896599066,-0.0016305945112669,-0.0051235711260549,0.0809138757008945,0.9967015723900472,-0.1189613217434384,0.0312059370270599,10.166873221114859,0.0786839176570489,-0.0160872171955067,1.05424974875331,-5.200589681430377,0.0163404184685212,0.4171985913972163,1148.3538354315272,1126.7073835489412,1108.5987162090664,1139.808173301,-272.50903018771146,-80.64148451908288,-804.7141849128813,-440.927996234404,164.6857920452924
0.1549999999999999,-1.933613432923336,0.9020614363118888,0.6239847015324175,-0.0536375293828621,-0.1017147054151248,0.0283618989852732,-0.0016845728501977,-0.0052489152299458,0.0809616132557552,0.996698528431783,-0.1238846421595031,0.0298659487979277,10.144546335567435,0.0788351057929294,-0.0162213515580494,1.055225560971209,-5.200409579562702,0.0163408746799499,0.4198438662047147,1147.436706731734,1126.2477820201025,1106.665339987594,1139.2215474089744,-438.1301434484608,-265.12572556389364,-722.5367144524165,-50.9952560958936,164.6820780018357
0.1575,-2.179134498707485,0.9103445139724212,0.7267703028367603,-0.0616065704033507,-0.0989108766142441,0.0305366890280899,-0.001749400460794,-0.0053693628005854,0.08101584099865,0.9966946386256939,-0.1295126888418074,0.0289671751834766,10.12340714697939,0.0789358749515116,-0.0163761574740827,1.056136839081918,-5.200227710242117,0.0163360643348572,0.4224929752956771,1146.1631847142849,1125.3817549211217,1104.9860326368043,1139.5531970205204,-581.0530856661438,-432.3207385907149,-590.4935847671362,334.8950350293305,164.67819692348715
0.16,-2.223620606327463,0.8681851242500429,0.8021701563656488,-0.0692377506098802,-0.0962434448429985,0.0326054658965795,-0.0018219293949667,-0.0054860997667885,0.08107089054336,0.9966903597709696,-0.1357332718722062,0.0285830009419505,10.103496507539983,0.0789838889952578,-0.0165355320601127,1.0569811466918988,-5.200045547218568,0.0163274248120166,0.4251453145575564,1144.5314413034034,1124.086178327149,1103.7128720637584,1140.896022584121,-776.1969683361251,-644.0385082677489,-456.789122315558,763.1662857515032,164.6741117512434
0.1625,-2.0731780121234924,0.7648263999894233,0.8682093683234487,-0.0768915605875568,-0.0934324664012155,0.0345683746748019,-0.0019027477314526,-0.005594151045473,0.0811255104103949,0.9966858460189434,-0.1425451203686272,0.0286971285660763,10.08487268932368,0.0789644189372867,-0.0166918213650911,1.0577582209497831,-5.199864538070369,0.0163156839635854,0.4277990745894378,1142.2821998726042,1122.1615623797827,1102.7020870252263,1143.369028449278,-852.8944350512112,-740.8166307297954,-288.66908667609977,988.7875710899597,164.66897020358684
0.165,-1.8240638229676969,0.6454229232645176,0.907196927215292,-0.0818239629612498,-0.0916978423074952,0.0359906614144259,-0.0019926492654883,-0.0056908568304994,0.0811778788656386,0.9966813014034503,-0.149885243254204,0.029262515136729,10.067608482656539,0.0788688653699728,-0.0168396669002685,1.0584686992781411,-5.19968466051095,0.016301186678195,0.4304531828047581,1140.2669691281471,1120.3820951735,1102.2695266303779,1145.8399604395709,-810.6188598364946,-707.3563164110503,-103.51386191955488,994.9497971555492,164.66448406267844
0.1675,-1.513558923899624,0.5077674190560959,0.9257088534826272,-0.0852233715556517,-0.0906921820913404,0.0377127310060035,-0.0020906855304618,-0.0057813607904216,0.0812279722210458,0.9966767487968268,-0.1575203171194884,0.0302345629422564,10.051788292842048,0.078706497250894,-0.0169736242630456,1.0591131239843672,-5.1995058681540325,0.0162852260722711,0.4331072629724612,1138.2291055734215,1118.6247807977277,1102.1845177156288,1148.3437774350557,-874.9269640704362,-713.884955300545,15.159295688636107,1029.3865765184808,164.6597868457557
0.17,-1.144290002976286,0.3369044017322485,0.907699319072048,-0.0876153024960446,-0.0901390479885428,0.040471927104402,-0.0021890054206678,-0.0058742546220639,0.0812740912203951,0.9966723400055272,-0.1651315028137571,0.0316839554682458,10.037504245581877,0.0784961825165575,-0.0170762737714438,1.0596925143394502,-5.1993282456211585,0.0162718754183199,0.4357612561021929,1135.8923343077952,1116.8126703969972,1102.345323108821,1150.9868933221633,-821.0545904164512,-577.6024839408814,78.13511317281147,867.7350705049766,164.65390468393238
0.1725,-0.8812188380388966,0.1945920340942159,0.8444787734143538,-0.088423617474394,-0.0900017782123211,0.0434338328820696,-0.0022798773548332,-0.0059789964059256,0.081316198708515,0.9966680816781642,-0.172382089430877,0.0336638819908435,10.024852349687883,0.0782596076565151,-0.0171329909314041,1.0602084001502508,-5.199152206877959,0.0162632193687957,0.4384164725481082,1134.1238326213395,1115.7367683780233,1102.5751932814928,1152.6824527875804,-651.8855274451647,-309.2989908764136,80.91608861586785,551.5669261340004,164.64879772293295
0.175,-0.6906218242016342,0.0491190801204511,0.7218779665189446,-0.0885857006335735,-0.0899232374194426,0.0467597980435709,-0.0023599064509082,-0.0061002995656735,0.0813617542309768,0.996663378746274,-0.1790400300277795,0.036140354572049,10.013927661678368,0.078008531921971,-0.0171402454517421,1.060663517584678,-5.198978231306572,0.0162595995568787,0.441075841066189,1132.6329066705691,1115.2661754426151,1102.7499035519004,1153.7447279528333,-538.7662668061264,-82.10262442307832,40.420360099551736,325.3181063449135,164.64347772030223
0.1774999999999999,-0.5587139500565736,-0.1061368868863747,0.5572720115993594,-0.0889249253121954,-0.089810638880739,0.0497449241539438,-0.0024285989108073,-0.0062339756414143,0.081416245502634,0.9966578337413914,-0.1850632159052449,0.0390296565829311,10.004818785169935,0.0777365008078671,-0.0170997825365321,1.0610626959999707,-5.198806517852992,0.016260653973252,0.4437405110948933,1131.4300012873089,1115.3262552559079,1102.7772950819904,1154.3090433193051,-401.88948223895034,133.92927334025507,-39.07510134854438,131.70129578866243,164.63798139719438
0.1799999999999999,-0.4745596072823743,-0.2821219533509684,0.3724958875622527,-0.0903768680918669,-0.0898209383285117,0.0511572760403989,-0.0024852859586359,-0.0063776391477647,0.0814778638916994,0.9966516270970036,-0.1903854039802037,0.0422436967864457,9.99760421805179,0.0774421332936277,-0.0170125149717668,1.0614117083227679,-5.198637115186705,0.0162646641162427,0.4464083387539429,1130.6234592593746,1115.9358218093164,1102.5545280451577,1154.4032344317764,-260.0935479824782,345.4248931348499,-152.94110714903567,-23.925743219251647,164.63227344764903
0.1824999999999999,-0.391761477673247,-0.5222119371417426,0.1825696785197863,-0.0930172909906985,-0.0902801569630883,0.0505912064044175,-0.0025304690186566,-0.0065318499018197,0.0815395138387174,0.9966453448023506,-0.1948999108177283,0.0456637297564947,9.992348285630301,0.0771312310274614,-0.0168813266524641,1.061717543391876,-5.198469159305139,0.0162715723821697,0.4490786204169397,1130.1295335473965,1117.053379721582,1102.0125895462454,1154.189414603209,-109.58438502993876,427.38859289793214,-222.72232728246289,-104.02779155497218,164.62518155289754
0.1849999999999999,-0.3210782852029801,-0.7426083421321106,0.085122580392693,-0.0949165652728893,-0.0912704115080091,0.0490238389713145,-0.002568209961485,-0.0066992144016788,0.0816014344327404,0.9966389453985672,-0.1984834495675406,0.0490995225602723,9.989097141764196,0.0768141411973641,-0.0167173714123055,1.0619888110014988,-5.198302775501662,0.0162805580559658,0.4517500940419579,1130.0755373342247,1118.072764773806,1101.4409164087451,1153.8830954740015,30.18150392936147,371.16881646720645,-204.8324270469946,-124.73088532155985,164.61907227166014
0.1875,-0.2473801066583409,-0.9706599198907436,0.0661402513017649,-0.0957018140440347,-0.0931258116550769,0.0474588728215019,-0.0026124981739605,-0.0068759883717943,0.0816669120655458,0.9966321487340114,-0.2011771824203882,0.0521769279676044,9.987874308957181,0.0764870474722103,-0.0165511908266444,1.0622370469706923,-5.19813942069954,0.0162893334156054,0.4544189814640752,1130.2804410670433,1118.909223803918,1100.9884274110104,1153.565760176601,107.9671798362141,276.8968101978314,-96.77440643940818,-124.9470368144556,164.61276029512183
0.19,-0.1661093583055952,-1.2301741840512583,0.1135492997683375,-0.0953006469795255,-0.0963890053312301,0.0464379481975701,-0.0026791629471262,-0.0070577137870341,0.081736734765824,0.9966248799725316,-0.2030645195153973,0.0544891540329854,9.988678098972905,0.0761453647080005,-0.0164157091416976,1.0624757478143587,-5.197979799144065,0.0162959149896045,0.4570816174275859,1130.615373233406,1119.4572488247952,1100.9570443765483,1153.2583602899294,99.99782451823184,104.30928736045632,127.6382754305813,-89.98451594115969,164.60495799768717
0.1925,-0.1070798594523841,-1.4170511064007068,0.1767807131106224,-0.0942904458404358,-0.0998146179486717,0.046783446547103,-0.0027734993677554,-0.0072402405759048,0.0818108801348628,0.9966171562557667,-0.2042321514803844,0.0558425713351294,9.991478762431363,0.0757877516667359,-0.0163206427790133,1.0627196968788128,-5.1978230181761,0.0162986858468798,0.4597369138337475,1130.7804301896344,1119.4307702407204,1101.6266187881631,1153.1158375968953,-2.7198314816359903,-116.76323407773442,456.9998142780146,-18.237278781271,164.59827180393052
0.195,-0.0419712354629831,-1.5557338320818883,0.2144293089191477,-0.0933778787991469,-0.1038575916363936,0.0484408905349348,-0.0028841143228468,-0.0074190119669504,0.0818814926228287,0.9966096775821596,-0.2047762046205368,0.0563795515799969,9.996217040805684,0.0754155551586248,-0.0162388329698118,1.0629840886707895,-5.197668804210856,0.0162977298088998,0.4623863146816787,1130.6017740759978,1118.8734326544063,1103.2420434479384,1153.167173896023,-197.42661874665808,-354.345430994044,937.0381396947315,86.35828717169709,164.5914022221207
0.1975,0.0862877819319276,-1.6541023005451816,0.1846343133838571,-0.0929649975959276,-0.1092392612411679,0.0513535249816869,-0.0029924849461522,-0.0075940629458391,0.0819420316238002,0.9966030240994084,-0.2047162263892619,0.0563851703864793,10.002806874609806,0.0750412494734265,-0.0161292256127114,1.0632824782692232,-5.197517680053468,0.0162938043595781,0.4650327100872975,1129.7932970959012,1117.6590430857502,1106.311809486637,1153.5476290327535,-407.5662125240793,-516.8474156713269,1284.6021373225528,201.10710177145833,164.5829573988034
0.2,0.2762765446661982,-1.678372382348231,0.086362986595082,-0.093225078751401,-0.1136667585384135,0.0538002873852757,-0.0030861153679278,-0.0077653819167588,0.081991399635412,0.9965973156326284,-0.2041065732339731,0.0560368095986591,10.011138277371687,0.0746759611831226,-0.0159650546667814,1.0636264539707527,-5.1973704826124925,0.0162880123968032,0.4676796165803421,1128.5639430133774,1116.28919557605,1109.6650541345512,1154.1727094048804,-596.081878860968,-593.7819951915566,1435.3443558366039,308.65891859139055,164.57576107502547
0.2025,0.5987739179320709,-1.6507543795627935,-0.0671951684652696,-0.0937405360300457,-0.1174247063110904,0.0548359105948056,-0.0031702514141164,-0.0079301343173304,0.0820332962700501,0.9965922413381239,-0.2031084840001228,0.055177043950868,10.021081504324576,0.0743212139887824,-0.0157585338143296,1.0640254855240336,-5.197228649313632,0.0162809701185288,0.470328003180332,1126.8128877015963,1114.6901331097924,1113.48853126582,1155.0909236257107,-758.8289144506227,-655.5929699353777,1539.5943810200135,396.6243958444917,164.56841080349125
0.205,1.0523473728115695,-1.5879879597980302,-0.2304096513861321,-0.093907337982995,-0.1206286628594931,0.053912095997743,-0.0032553604572058,-0.0080877639309375,0.0820716670279638,0.9965874416973536,-0.2018649902982843,0.0535550282428693,10.032491159657663,0.0739815546340116,-0.0155348871080228,1.0644863903156545,-5.197092879637499,0.016273220761042,0.472978048598747,1124.7697984411243,1113.011230726373,1117.3630260396512,1156.1558313841028,-832.3365382441344,-665.019181172965,1484.6663037465971,421.25295433947906,164.56094100564272
0.2075,1.6618387209030987,-1.4856540799268312,-0.358389192570802,-0.0928798969748618,-0.1234943796324914,0.0511409714130199,-0.0033466627359895,-0.0082426337649232,0.0821025273462263,0.9965831924986692,-0.2004272574151351,0.0510306712603471,10.045210587593003,0.0736715694224733,-0.0153096889697014,1.0650132319098184,-5.196962762742604,0.016266989921767,0.4756292572495263,1122.6512050103756,1111.3650372039276,1120.911862784553,1157.197188397408,-860.6041545297143,-684.0200589385889,1418.514810880658,391.30895726848576,164.5533366252857
0.2099999999999999,2.528150840565252,-1.3061794896640488,-0.4383946220607912,-0.0892568459849344,-0.126984761151177,0.0475788068688322,-0.0034451242703625,-0.0084019994572204,0.0821263331866671,0.996579402657794,-0.1987880362479002,0.0475647112963876,10.059076862913546,0.0734105324051364,-0.0150921987292961,1.0656076373865304,-5.1968373504915,0.0162637956109538,0.4782806155395945,1120.4667776684755,1109.59113043168,1124.4556000940545,1158.1123761704453,-674.0136094174918,-592.4526820304463,1163.3631384887449,238.63168970970148,164.5440678014044
0.2124999999999999,3.2995892782765415,-1.0926506853103404,-0.4485581192402272,-0.0833887393810752,-0.1303005890501924,0.0455503524634398,-0.0035508135080253,-0.0085710137738787,0.0821540827762123,0.9965751411739896,-0.1969794849801761,0.0431638271102544,10.073925636187456,0.0732106207574824,-0.0148920852351323,1.066269381235288,-5.196715642252093,0.0162643125313345,0.4809320975403391,1119.281136963288,1108.4027737937752,1126.7286784769967,1158.3903468459566,-275.3036860936843,-385.5386832557538,783.8940209902822,-22.456669711755215,164.53623272348068
0.2149999999999999,4.022816545596417,-0.7926677306025836,-0.4308937007935262,-0.0738183630149206,-0.1339839205737575,0.0449217440406769,-0.0036548917540329,-0.0087482745973949,0.0821937339746698,0.9965698204483056,-0.1951453367531498,0.0380459112221533,10.089595257673116,0.0730688306347383,-0.0146993670343874,1.0669970205627286,-5.196595731450695,0.0162699459003599,0.4835866085720814,1119.090259238007,1107.663437015401,1128.375070199006,1158.0000928218865,189.98090032555396,-190.21808069164743,625.9364941308371,-335.82746724355246,164.52829239865315
0.2174999999999999,4.717303423818598,-0.3293104440636608,-0.4191868529981107,-0.0586639896006465,-0.1374884598015092,0.0450007712222436,-0.0037541749013994,-0.0089244833657696,0.0822437205163669,0.9965636949947932,-0.1935870830755802,0.032348699225284,10.105932660798963,0.0729615408223778,-0.0145137420740902,1.06778785350046,-5.196476456979188,0.016280190150477,0.4862471883312779,1120.231041464916,1107.4516833903172,1129.858360947651,1156.7112095097389,650.0441409347326,50.89493655113979,500.2457781078188,-596.2652126885581,164.5186537345575
0.22,5.086650229426092,0.124015308308727,-0.437127349394045,-0.0444266016017821,-0.1386794297611801,0.0452216492373891,-0.0038504237900395,-0.0090893753066546,0.0823004990065098,0.9965571905374304,-0.1926164866121987,0.0261335493495915,10.12279825293071,0.0728592809935199,-0.0143447399601769,1.0686373304611279,-5.196356374045606,0.0162938305723909,0.4889160453507197,1122.3404799426808,1107.917911698157,1130.876299089545,1155.0187667584437,1056.4878039485384,324.61490487476084,399.33108911350206,-769.3774999264853,164.5105378406388
0.2225,5.201365387443476,0.6038098925891942,-0.4878021856923167,-0.0302109741732609,-0.1377518227515543,0.0451736253653393,-0.0039414231835652,-0.0092383245726622,0.0823653505151374,0.9965502926782503,-0.1924008613960289,0.0195543360423256,10.1400692470312,0.0727425639134357,-0.0141943248116215,1.0695390201278803,-5.196232785546234,0.016310140594582,0.4915944156108819,1125.5134804846587,1109.0747579146907,1131.8550163932184,1152.8643220101064,1580.8037326521103,652.335423292015,444.33106549845394,-996.2824437740882,164.50234501288503
0.225,5.048720515803636,1.150714545592618,-0.5666147130483865,-0.0140248500575369,-0.1342921166725549,0.0445417430108646,-0.0040245015864981,-0.0093653049028017,0.0824376681182511,0.9965430723581474,-0.1931070303626408,0.0127936298102743,10.157640412276388,0.0725870342072807,-0.0140620099605164,1.0704865846482592,-5.196104256751297,0.0163300197882,0.4942803003191484,1130.2444986059415,1111.179588814617,1133.0979544170373,1150.0373545395732,1834.3242259401889,866.4672876162051,468.4103289951505,-1030.4826979049255,164.49243657957302
0.2275,4.704596426612277,1.5447131017735476,-0.6201670444579128,-0.0015435114839272,-0.1298103655015587,0.0435050599469937,-0.0041001702194124,-0.0094625590908666,0.082509794736842,0.9965361745487992,-0.1949118675144005,0.005984170114417,10.175424340742172,0.0723630717929856,-0.0139516928004913,1.0714746638953083,-5.195970819417081,0.0163533905212362,0.4969699827381311,1134.6851016143596,1113.407094352772,1134.197068038194,1147.7119085205818,1813.5967004699048,951.3064929206384,439.2082099002888,-872.7427106258793,164.48412433983398
0.23,4.1817293013776045,1.8472895528960411,-0.6196800231446382,0.0094174094969185,-0.1245245624643963,0.0415048030215587,-0.0041661884836763,-0.0095260634264191,0.0825756980038005,0.9965300987753416,-0.1978792035179123,-0.000681953318056,10.193351270838146,0.0720493341599088,-0.0138607921032772,1.072498655992356,-5.195833575429601,0.0163802919744006,0.4996617790239895,1139.312482108291,1115.9361212792203,1135.2939954665387,1145.6736409864438,1836.6590377067932,1033.373941601484,421.41425778381694,-737.3298397252249,164.47576590677755
0.2325,3.5529791793525214,2.069517474730128,-0.5436282614909688,0.0186706335978294,-0.1190731390836588,0.0386192278292986,-0.0042141584083019,-0.0095559545266008,0.0826310155822523,0.9965252010378962,-0.2019453633549491,-0.006889335789342,10.211367662811503,0.0716352545196146,-0.0137726963645541,1.0735548298782043,-5.195693079510136,0.0164116154358018,0.5023569870984405,1143.8683968028936,1118.5739640607794,1136.3041393271133,1144.0252593219557,1759.35709074606,1055.55656224601,361.5882343321114,-542.7169226244127,164.4673778030235
0.235,2.8501029058121508,2.204578282264085,-0.354607877649683,0.0255347509992102,-0.1135819770729421,0.0353732412773767,-0.0042384487429868,-0.0095571321411412,0.0826724738694845,0.9965216938648356,-0.2069236380683855,-0.0123867831557712,10.229433883902187,0.0711216397223372,-0.0136754557808451,1.0746401694032528,-5.19555052968086,0.0164468300685299,0.5050571915175557,1148.1092675620212,1121.2139040904503,1137.1019366381993,1142.9600563733215,1748.8090050524972,1145.0968312407883,281.4697720598813,-325.50520406625736,164.45896481282008
0.2375,1.9816978340913929,2.2891607339654128,-0.0057622261107874,0.0313541480229991,-0.1072629636374247,0.0324132052589317,-0.0042425571142804,-0.0095461820146126,0.0827036156737297,0.9965190668618484,-0.2123765877875851,-0.0171328937397467,10.247522174557169,0.0705350301988465,-0.0135769595659871,1.075751515761733,-5.195407535995655,0.0164826452976375,0.5077611481386238,1152.612441828156,1124.2994482169831,1137.7114881874127,1142.3977333016244,1533.2241504046194,1116.7397017996843,159.6189446816432,-94.9495662653594,164.4488551363082
0.2399999999999999,1.269958394389605,2.3139490915608945,0.3505995633409247,0.0346657340554547,-0.102482819958122,0.0315363455337625,-0.0042269756467475,-0.0095503268153782,0.0827350280298915,0.9965161281585287,-0.2176205794633665,-0.0210527008093414,10.265614214779257,0.069928200963888,-0.0134786004451887,1.0768861806947685,-5.195264686154587,0.0165143597739833,0.5104654271958841,1155.7753883140444,1126.7976025994487,1137.9000313616075,1142.4853085419948,1132.572884809411,992.1753777864116,14.590455743882623,128.74659725171173,164.4404297661198
0.2424999999999999,0.5964211094293682,2.3068785900101534,0.7048025493546689,0.0367727872686812,-0.0979197092047953,0.0329314914642455,-0.0041898341878018,-0.0095889134055233,0.0827739877933211,0.9965120438105736,-0.2221113336326685,-0.0240274375444659,10.283694820325405,0.0693407799266755,-0.0133723696566429,1.0780444967393428,-5.1951232850766225,0.016539340370906,0.5131682821541435,1158.275306252203,1129.2603251059152,1137.784440466132,1143.0414662878827,948.8895396401849,1088.3169139213796,-99.08266309239472,321.43736945831705,164.43201679484244
0.2449999999999999,-0.144993631987432,2.262123562276377,1.0340264983196115,0.0377096563708943,-0.0919477654129627,0.0375098699919566,-0.0041351367838272,-0.0096697989666731,0.0828242599908314,0.9965063599966656,-0.2255401267242518,-0.0260610721094717,10.30174715848911,0.0687898983247136,-0.013258686457057,1.0792296596741913,-5.19498490235394,0.0165567091181539,0.5158696821845106,1160.5198360122452,1132.2391871690556,1137.4046180461455,1144.0924953892863,704.587544384048,1102.4182985379855,-153.84483149155116,428.0461561502757,164.42194964383202
0.2474999999999999,-0.688997443423629,2.184843970964438,1.173404996995847,0.0367236723942209,-0.0862817518956454,0.0431726573540121,-0.0040651902527307,-0.0097955961748406,0.0828836984441703,0.9964991883743008,-0.2277014202813388,-0.0271400695561979,10.319751514245633,0.0682846431229517,-0.0131320024092326,1.0804462669541313,-5.194850676860201,0.0165681271218624,0.5185709518767043,1161.7982439741231,1134.772416598605,1137.0152163086743,1145.1816970686343,400.9769237417,1022.0919609973398,-132.04475639922737,461.77351449355194,164.41359350015543
0.25,-1.1327571296139305,2.053278062472282,1.1470550349698387,0.0338862256394785,-0.0803332729598155,0.0488889027762179,-0.0039879257584763,-0.0099617118050153,0.0829469073419115,0.9964909897405458,-0.2285532027738858,-0.0273809704843503,10.33768243677942,0.0678199876756188,-0.0129974880648815,1.0816998624639307,-5.1947213780272685,0.0165755657431806,0.5212728970843724,1162.5247206309539,1137.3496469740423,1136.7443942641492,1146.4013629617543,209.7504019517144,1027.8362753945648,-57.57740606181864,502.3153447875752,164.40528209657936
0.2525,-1.4793873751602125,1.8745957274971088,1.0018159293472573,0.0300679361524148,-0.0748373331519496,0.053192621062477,-0.0039164291839287,-0.0101561090638746,0.0830127009119888,0.996481976561936,-0.2282283272948548,-0.0270180504994108,10.355507847064967,0.0673756317181729,-0.0128715741454554,1.0829965038222011,-5.194597722513199,0.0165797392352791,0.5239766306471539,1162.846995983882,1139.911597975578,1136.7273292783652,1147.693273792572,45.204954531118304,997.8310149046584,86.73801603927123,531.0682004430414,164.39701480748147
0.255,-1.7018387514988484,1.6492242841888967,0.7706867429160693,0.0256707543967589,-0.0703209667486153,0.0551402053232513,-0.0038550388571404,-0.0103600957145514,0.0830770316236767,0.996472773632264,-0.227001250883886,-0.0261196928272965,10.373190510061024,0.066919638331584,-0.0127517012704649,1.0843425358796155,-5.194480028289325,0.0165821141619101,0.5266831395519943,1162.7507454036095,1142.3388020485656,1137.1780843443455,1149.0567039639695,-120.65234297479024,998.2680966200851,331.50283392819773,613.6348324556815,164.38880838042314
0.2575,-1.8284393299259027,1.3483468354295405,0.4809731387655637,0.0201715551721239,-0.0659392956642565,0.0550509467123783,-0.0038072479150641,-0.0105515318599531,0.0831367861032852,0.9964640703239582,-0.2252402624651249,-0.0247519420602119,10.390689150042688,0.0664131984273884,-0.0126345979398171,1.085743836258383,-5.194367859142011,0.0165821540828472,0.5293917067678672,1162.243734269008,1144.9029384586784,1138.3848434480062,1150.7614479548506,-237.0270746895128,853.9843818643469,554.6278584004081,631.7573155919939,164.37903993503076
0.26,-1.825694593617268,1.0923349536571327,0.280359743443947,0.0155342195882457,-0.0630612430930894,0.0538362374292773,-0.003775548041318,-0.0107216176816438,0.0831953939245446,0.9964560051919528,-0.2230622441609325,-0.0229985375014503,10.407963487426535,0.0658463195188487,-0.012519776112491,1.0872033869677562,-5.194260223192296,0.0165798899162714,0.5321018958520441,1161.565610030162,1146.6087239578872,1139.9512236363475,1152.2154905419295,-305.4946306506733,568.5417917914033,721.6998688640608,578.3199213663913,164.37097144141956
0.2625,-1.7260052695498012,0.8547476793797768,0.1515221081969088,0.0110068082753011,-0.0612001420735148,0.052528918736465,-0.0037601028831587,-0.0108692217506387,0.0832571964385651,0.9964487332248292,-0.2204478361614761,-0.0209222502955078,10.424974743566008,0.0652255523036918,-0.0124052124443436,1.088721889992858,-5.194157108449216,0.0165761947438816,0.5348157599686246,1160.7162611157546,1147.7456474176356,1141.9933427923263,1153.6530475616823,-387.16032809047607,360.7494522937482,958.1480201711192,614.379918871918,164.36298388973609
0.265,-1.5179175207523288,0.6132011736263216,0.0722094696448128,0.0062295869803377,-0.0602496687082953,0.0515781834386256,-0.0037521307578544,-0.0109930592200251,0.0833194618079204,0.996442957867994,-0.2173923522634393,-0.0184126986461111,10.44168625115896,0.0645580360595206,-0.0122708463412345,1.0902988141352967,-5.194059648457912,0.0165730251447822,0.5375355509336486,1159.6298083897095,1148.412471219356,1144.7419637372032,1155.287390136289,-387.5214767390386,137.0397404066806,1009.0530492299868,575.3731519579101,164.3534992804316
0.2675,-1.2906987693203007,0.4545678930282341,0.043013720093677,0.0031312861455322,-0.0599147335347406,0.0515393583340432,-0.003739812808373,-0.0111019238438909,0.0833783086528976,0.9964384929159646,-0.2137019156203572,-0.0153192672058942,10.458066819687849,0.0638722388680433,-0.0120938323003457,1.0919311414251205,-5.193966180366382,0.0165723267855642,0.5402626693118168,1158.7786537320594,1148.430846119669,1147.0386080384765,1156.529913321472,-301.5156022484459,-80.29008788375897,857.7175413457545,465.886217252682,164.34568392783663
0.27,-1.0297431528696612,0.3318012576259578,0.0111213899891294,0.0008411699866002,-0.0590776821690387,0.0523321667342745,-0.0037153298913203,-0.0112084588205677,0.0834321282842576,0.9964348084555558,-0.2091329299864768,-0.0115815422542142,10.474090638690477,0.0632029294970949,-0.0118627778897501,1.093614529733049,-5.193874055388257,0.0165760062041732,0.5429963655200362,1158.1222303784673,1148.011020779937,1149.030551443932,1157.6168212225523,-215.2772186675518,-249.10414502442083,741.7849195381216,439.2469453468944,164.3379658782012
0.2725,-0.6955730576297149,0.2054630679530087,-0.0717744266658451,-0.0015736918939023,-0.0576213011352075,0.0540068217195187,-0.0036784769427981,-0.0113187337756112,0.0834788082802661,0.9964316176847456,-0.2036142271480504,-0.0072852911867258,10.489736818101212,0.0625679194808072,-0.0115829796152258,1.0953450235553814,-5.193781653905977,0.0165856630066653,0.5457342770572104,1157.7022676387217,1147.185325394547,1150.747532636167,1158.7261480482064,-78.87126484852153,-327.8727474532385,484.5218471592938,373.09264564451007,164.32882277108723
0.275,-0.4091151137763664,0.1063668724531036,-0.1927202614634697,-0.0034876275329671,-0.05674851221321,0.0555471048164078,-0.003634314714078,-0.0114335732757005,0.0835239850820634,0.996428150777356,-0.1972133481026773,-0.0026110442186555,10.504991535289326,0.0619715485801257,-0.0112717595852167,1.0971190627887435,-5.193689886741852,0.0166014405957811,0.5484750987075273,1157.7278740542247,1146.3716570426711,1151.4531606797286,1159.482284450775,91.07387543044744,-318.83663236621913,117.69621080702552,265.6488490930767,164.3213065835471
0.2775,-0.130046868399136,0.0093914310380626,-0.3571649538397052,-0.0048409993557326,-0.0565971077812817,0.0563114036329654,-0.003590783254318,-0.0115592281667649,0.083570565399787,0.9964238949810424,-0.1899075147523239,0.0021935298151449,10.51985114928569,0.0614289947612716,-0.010953376246877,1.0989320772437243,-5.19359961565889,0.0166220585961848,0.5512183881347249,1158.157637015874,1145.5911422327158,1151.3360136902022,1160.054392293672,229.05687523725624,-284.3124133319177,-172.06084004469616,196.97182938189127,164.31390234108127
0.28,0.1231141519418191,-0.0854250090393325,-0.5289968795948126,-0.0050711136127067,-0.0567453594574123,0.0557088175084057,-0.0035556095522992,-0.0117001475631957,0.0836248325298888,0.9964181563404761,-0.1817258411526851,0.0068936719662852,10.534321673494748,0.0609513257495826,-0.0106508433937678,1.1007792027111116,-5.193511391250821,0.0166457414282048,0.5539647499859424,1158.8731584304107,1144.9500949760115,1150.5928564795051,1160.4671435976843,330.65779914809326,-198.97711697649336,-409.7577456338964,127.82595960652532,164.3065945610715
0.2825,0.3143571028646597,-0.1772357591562867,-0.6611280938034814,-0.0035058856292702,-0.0569728797257893,0.0530883274924269,-0.0035242277293963,-0.0118533588769618,0.0836882493790214,0.996410833734029,-0.1728442259353786,0.0115280232614373,10.548418242587273,0.0605356175030925,-0.0103569695733208,1.1026558610473771,-5.193425482711389,0.0166715758334982,0.5567176522814208,1159.8109260116144,1144.5962566478331,1149.2872249620327,1160.6935220917046,424.0929674548166,-64.64456773765045,-631.4295721081629,66.13189747477003,164.29940742930015
0.285,0.4420688052836698,-0.2830279481590695,-0.7203767610779043,-0.0005021828704476,-0.0576932809983468,0.0486232418516919,-0.0034935074269724,-0.0120066763738354,0.0837570842794102,0.9964024219337562,-0.1636452238371254,0.0161239632746463,10.562164742085024,0.0601583899017138,-0.0100636680125421,1.1045578330898786,-5.193343512476318,0.0166975736738416,0.559479720433238,1160.993623267685,1144.6268721373233,1147.4357086189643,1160.7978030850584,414.1921302379611,98.57047209761721,-663.7747800379651,25.14465677454607,164.29092789334524
0.2875,0.4601042667566855,-0.3665866179005349,-0.671069549315553,0.0020644001254585,-0.0585669495795685,0.0449261147529306,-0.0034689548192342,-0.0121464314307893,0.0838297126028599,0.9963932916834252,-0.1545649342186047,0.0205335538592882,10.57559442060203,0.0597909119737292,-0.0097798648104336,1.1064806844020787,-5.1932662956030065,0.0167212376345474,0.5622511583008977,1161.881886662804,1145.0891090083214,1145.968351061843,1160.819245375577,307.7047653425811,278.4572707535545,-495.5765121336349,20.311719407209445,164.28398649873432
0.2899999999999999,0.4080424665080849,-0.4454297892098865,-0.5348183336875333,0.0041850046417101,-0.0590561663330587,0.0422175136997979,-0.0034566368998606,-0.0122621408324444,0.0839068818554377,0.996383656207091,-0.1459765997323728,0.0245931099116505,10.58874848984537,0.0594106106574259,-0.0095148635759754,1.1084199785157711,-5.193193385435494,0.0167402700258477,0.565031925184309,1162.532147094398,1146.019158491091,1144.957826058296,1160.8993616820944,215.2693862256023,504.33085797486063,-262.5540651642522,78.6677133327438,164.27717956556384
0.2924999999999999,0.3167977607049884,-0.5303251356863015,-0.3236259469518551,0.0055986792464646,-0.0592934985365941,0.0407667326731382,-0.0034557239527024,-0.0123456721443453,0.0839871009346477,0.9963740117199252,-0.1381911565334941,0.0282794962490496,10.601672643505472,0.0590002518216742,-0.009261780458259,1.1103721636295167,-5.193124194487782,0.0167534137254229,0.567821451748125,1162.958233593932,1147.6107632981957,1144.6555807360216,1161.212583942241,98.82313231810248,642.7797882837234,79.75893603843353,164.1116861747831,164.2691723690276
0.2949999999999999,0.2648271385174398,-0.5793455423181704,-0.1566749044974647,0.0056236349168431,-0.0600281204736103,0.040924321154054,-0.0034622547071698,-0.0124024598296979,0.0840710130315961,0.9963646402362522,-0.131221503277284,0.0316120692743383,10.614413554698704,0.0585716633260571,-0.0090090458338135,1.1123338381387375,-5.193057934066519,0.0167619945088569,0.5706173336072196,1163.0262627559885,1149.2330574325097,1145.3566207384883,1161.7199201129683,-14.562931918089804,678.5085067530412,493.3431507875862,249.74809016021004,164.2626381753113
0.2974999999999999,0.2917234974824829,-0.5763558667580557,-0.0522453400686343,0.0042599083922857,-0.0618630086629661,0.0421519147054399,-0.0034613568074276,-0.0124466503236187,0.0841547990427401,0.9963562804351372,-0.124866478637232,0.0348243075702204,10.62701336472659,0.0581563807603456,-0.008722354770996,1.114302838864505,-5.1929927590238805,0.0167695181612374,0.5734174436685695,1162.8854189343415,1151.0033058319607,1147.1222964899596,1162.461324393042,-67.3938438428649,708.1364296230724,865.6164871197227,314.50083064237305,164.2562528183748
0.2999999999999999,0.4083065657633926,-0.5066053510365902,-0.0259897562334174,0.0017830200834968,-0.0641639908131773,0.0439145448351038,-0.0034397933584242,-0.0124896389803606,0.0842335434495622,0.9963497252223737,-0.1189706348814895,0.038121288143374,10.63950568434245,0.0577778266490549,-0.0083710677708086,1.1162795717963991,-5.192926398888599,0.0167778884437736,0.5762204980011821,1162.689293536774,1152.773739580625,1149.6847031740867,1163.2924242661802,-55.2717185858,683.8677985725093,1161.5621164846275,311.3889838029988,164.24999479596983
0.3024999999999999,0.621919709709034,-0.3384781629268602,-0.1006577878539155,-0.0001263431362959,-0.0661423432074512,0.0453666741036905,-0.0033978016327616,-0.0125386063827959,0.0843041477531337,0.996344749418726,-0.1134726025666874,0.0414327826839735,10.651913044532618,0.0574459473474807,-0.0079548019253192,1.1182668886351392,-5.192858636523296,0.0167876701767563,0.5790257556739403,1162.6090603414127,1154.4226448248235,1152.9301070723827,1164.018269312057,39.79665904339523,676.1151427529961,1480.9799599259336,233.193373966378,164.2438950111764
0.3049999999999999,0.9133397955318172,-0.0192220651047537,-0.2820502051660672,0.0009600954156283,-0.0676367341577507,0.0458217907080034,-0.003341892838218,-0.0126028997203501,0.0843704426914364,0.9963403893630426,-0.1082534766941507,0.0445561021033953,10.664243619746124,0.057173062716643,-0.0074892322779627,1.1202690573449503,-5.192789157085016,0.0167988625988816,0.581833569505463,1162.888276831991,1156.15431529439,1157.0896029737166,1164.458391136012,194.00262368276327,585.3956031834963,1482.860204352981,53.74096233917948,164.23676371261186
0.3074999999999999,1.1004360333582437,0.3350122943673528,-0.4744507982020324,0.0052838142777196,-0.0680116881881924,0.044964017321449,-0.0032843243952952,-0.0126891463849875,0.0844351987620469,0.9963359451273616,-0.1032388223331158,0.0471752881383416,10.676488817810268,0.056963586166757,-0.0070033637052428,1.1222919674532212,-5.192717646111881,0.0168111031656548,0.5846446695168985,1163.5790734598263,1157.3496228407407,1160.3444080941476,1164.2869741237528,390.4287126870255,424.4143262909343,1166.5114076260568,-196.2687255083436,164.23098150174428
0.3099999999999999,1.1370269190823548,0.7567041884784611,-0.6606770101241394,0.0119412317886454,-0.0670974589402802,0.0430280398478386,-0.003232636358453,-0.0128009285742314,0.0844982939524031,0.9963311455434132,-0.0983862998919886,0.0490859082937762,10.688620872768432,0.0568157267207667,-0.0065159685445636,1.124342885797565,-5.192643760758191,0.016824862854242,0.5874591253610006,1164.8404203954262,1158.2763869258447,1162.9221600118467,1163.4770475084704,682.4857155066178,352.86642105656904,914.5104179940963,-481.424609062196,164.22536951252243
0.3125,0.9617989739607792,1.3010070283023023,-0.826012860412853,0.0197094724282776,-0.0641830404926583,0.0397133310456841,-0.0031937894171887,-0.0129303918456707,0.0845589815607959,0.9963260179944476,-0.0938718387910967,0.0501256691798582,10.700592976136688,0.0567023348895713,-0.0060434034966173,1.1264310576972782,-5.192568036746648,0.0168395072972405,0.5902749766243258,1166.9915020373596,1159.1139549460236,1164.916960184118,1161.879851078442,873.4251378150013,272.79398321143134,542.202054747258,-650.4342865689064,164.21883539422748
0.315,0.6563524318958978,1.7544584324606567,-0.8890897280696503,0.0238290043151896,-0.0602930322302046,0.0363868458853215,-0.0031685961848731,-0.0130671537109498,0.0846173037327496,0.9963206488121636,-0.0898913113908249,0.0502800900243256,10.712339364166445,0.0565922779769354,-0.0055889019667285,1.1285662177371016,-5.192490929649033,0.0168548786151069,0.5930904211972146,1169.2075460845012,1159.6403568419018,1165.6331702855832,1160.2248760756258,931.2335735908609,192.8312663435916,129.66655766781503,-668.0652539799206,164.21355929858285
0.3175,0.2643927132608043,2.172070332132788,-0.8623765327595798,0.0246264222178668,-0.0551050112392697,0.0331059021425379,-0.0031599927427573,-0.0132017154697579,0.0846759140367465,0.9963149347382456,-0.0866043053300946,0.049502846937218,10.723777951095112,0.056456931296212,-0.005161966050479,1.130757424178954,-5.1924133631577165,0.0168712532019309,0.5959040630781374,1171.647669905314,1160.0781112777415,1165.5652929724572,1158.5395248085424,1064.700152104432,190.03232494173955,-123.07529720360424,-678.8100233556628,164.20846063838775
0.32,-0.1944191270021579,2.59842107254165,-0.738376250203886,0.0228228990043507,-0.0476253351861319,0.0299696852235302,-0.0031680953701802,-0.0133210532615452,0.0847302529117311,0.9963094648526956,-0.0842239127038741,0.0478290075917718,10.734813391334455,0.0562614927164473,-0.0047656206410099,1.1330125853186532,-5.192337317026028,0.0168893946628718,0.5987168598104256,1174.5310468450234,1160.5905184666103,1165.0177937995652,1156.8308259588475,1007.1161164536524,190.92798875026327,-204.20930240934447,-534.3558859564832,164.20254911655883
0.3225,-0.4988583926385101,2.8740972787856927,-0.580316626995867,0.0198838930737924,-0.0405298420039361,0.0281920431058436,-0.0031938585964494,-0.0134172696268641,0.0847784027781404,0.9963045452398824,-0.0828398992369537,0.0452847307419621,10.745341460190359,0.0559838622255843,-0.0044070634881968,1.1353364364919485,-5.192264201207723,0.0169102805872542,0.6015311843236482,1176.683250487582,1161.032751221493,1164.5442464604105,1155.86774537876,768.2728736311212,173.92235804877586,-116.30166609093057,-261.3501820379949,164.1977962908998
0.325,-0.6726859860022271,3.0559351464086326,-0.3988073534849675,0.016147593760048,-0.0329038353647281,0.0271867084856492,-0.003234898027557,-0.0134833637911813,0.084821366417767,0.9963002367040524,-0.0825049780097836,0.0419849478551287,10.75525432664858,0.0556058905347251,-0.0040871837697051,1.1377302279957768,-5.192194401521949,0.0169354192387541,0.6043515021892673,1178.372411213179,1161.4601302568544,1164.4362854691103,1155.5240750486576,578.9785132659284,157.3171590043783,52.07165823671853,-28.796310127017907,164.19322495699495
0.3275,-0.7290517764433461,3.158689211078405,-0.2232553272468424,0.0122597842691977,-0.0250682857535575,0.0267759690207987,-0.0032873624165507,-0.0135169637831876,0.0848616787840382,0.9962964081646308,-0.083162417582617,0.0380861237044208,10.764446629626809,0.0551213571359471,-0.0038049023924731,1.1401909930827585,-5.1921279632757775,0.0169651995281766,0.6071809215590988,1179.5781430539118,1161.8193370165147,1164.804604751594,1155.723763828125,353.8120088239335,113.89144786458009,266.70924136697045,201.65295644501367,164.18880552457367
0.33,-0.6671400669815208,3.171840830230799,-0.0817915330323024,0.0091852974796262,-0.0170707535953657,0.026952481048408,-0.0033454810003715,-0.0135206811330387,0.0849006495562315,0.9962929614901848,-0.0846419013938047,0.0337935393542803,10.772821702871315,0.0545368132552171,-0.0035553761488365,1.1427117456491016,-5.19206472700018,0.0169995437542194,0.6100214633484251,1180.1414712572987,1162.029587496177,1165.7698316759452,1156.5323398308826,95.7545288194523,52.03356181605154,524.2623562955482,467.0956645406928,164.1845713158404
0.3325,-0.5202704959858496,3.0997830605904633,0.0226453426793806,0.0079548418926314,-0.0078239020310906,0.0276475410058393,-0.0033985346277574,-0.0134947331544099,0.0849397410215806,0.9962898193858316,-0.0868161105609816,0.0294379228290449,10.78029779151263,0.0538553419182949,-0.0033211022882404,1.1452828983226568,-5.192004329126422,0.0170383043367781,0.6128736771222849,1180.056915698009,1162.0795048255952,1167.4259165330718,1158.0592421508284,-154.48779279786308,-7.1311122600491155,641.4111110285825,621.1299834146752,164.17970753066007
0.335,-0.3911853445015342,2.9826465129659927,0.0445235035269009,0.0089768540733642,-0.0008143148346666,0.0285611111544155,-0.0034369791737083,-0.0134410388595515,0.0849775937729202,0.9962871015649684,-0.0895286499142519,0.0253326282180482,10.786813223638749,0.0530846136446168,-0.003085755728674,1.1478926272895886,-5.191946198446527,0.0170814734033704,0.6157385306991688,1179.3690322933091,1161.993931934877,1168.9768872310883,1159.637989747956,-394.2522812066724,-34.66259898723362,592.4763964715106,650.0887472137032,164.17583810987898
0.3375,-0.2978830137864452,2.8250504477639726,-0.0016952632812601,0.0104755722193402,0.0056324011957549,0.0295096530818118,-0.0034536022812604,-0.0133692837457695,0.0850131160905724,0.9962847723561296,-0.0924690716828945,0.021733861435056,10.792329702086876,0.0522506419040222,-0.0028377279072013,1.1505271849989862,-5.191889413391456,0.0171281322709446,0.6186174246759053,1178.0856542919755,1161.906191830659,1170.3882985154291,1161.309685886897,-684.1772590385513,5.4094268069547935,530.7199277103787,704.2700558215522,164.17216309364332
0.34,-0.2303126107814978,2.603322316899406,-0.1181614729699378,0.0110923468305746,0.0130546539097774,0.030232267741819,-0.0034503431054215,-0.0132861379181738,0.0850435889528009,0.996282923848311,-0.0954209810775617,0.0187082248371625,10.796835144261829,0.0513719820229055,-0.0025831597473836,1.1531731625951516,-5.191833922121568,0.0171751835085695,0.6215089231999364,1175.9481459981166,1162.0209790689119,1171.6304868696402,1163.1593400270635,-862.1878242895483,112.97135470017555,357.7406421852626,621.4997089194634,164.16798275688808
0.3425,-0.1888381927017175,2.3963642491814365,-0.2415964081337951,0.0102581059117863,0.0188770542709405,0.0302003157893609,-0.003432985134825,-0.0131978034961239,0.085069632318113,0.9962813432595748,-0.0982003215332504,0.0162379132400841,10.800343492963304,0.0504667175084676,-0.0023346357739941,1.1558182178637344,-5.191779646996378,0.0172195051906982,0.6244101811108249,1173.774715170528,1162.47104860416,1172.1770017263557,1164.4171844314942,-912.8934746145197,285.41551788157426,116.54798831950745,427.4607781783284,164.1646945344777
0.345,-0.129687030996797,2.168528955704605,-0.353977234136573,0.0082679892270804,0.0242685446824484,0.0291627425465841,-0.0034098806391454,-0.0131099234580137,0.0850889977328289,0.9962800556740704,-0.1006585379139287,0.0142418239094364,10.802893578951732,0.0495525296130228,-0.0021080897167712,1.1584518077365116,-5.191727681976047,0.0172598794678931,0.6273195290569199,1171.383678625044,1163.4480566583195,1172.2132268112375,1165.2966439179554,-1043.814103172689,566.6523054198019,-78.20882475707542,312.3990490590583,164.16161414653965
0.3475,-0.0204849258627163,1.8714704891981584,-0.4310214780215869,0.005599164184404,0.0303750060398942,0.0266899643910511,-0.0033895689500909,-0.0130263692708737,0.0851020310523818,0.9962788913595276,-0.1027054634040257,0.0126257526181056,10.804546769206208,0.0486442945013332,-0.0019180249452461,1.1610656836906375,-5.19168069234083,0.0172961547727266,0.6302357326870398,1168.5556446546643,1165.3043101312587,1171.7859576025703,1165.9791796767895,-983.5718848158184,787.9706536835323,-211.81096959012373,217.44396085364292,164.15816396011448
0.35,0.0893206121646144,1.6062804923236411,-0.4244188721678279,0.0041479599010413,0.0351644986943752,0.0241273678457842,-0.0033754369799096,-0.0129463617227985,0.0851132481332079,0.9962774192181328,-0.1043622399043661,0.0113991870190723,10.805383634853136,0.0477480735285791,-0.0017652059595467,1.16365427565441,-5.191639977617036,0.0173290634461346,0.6331571443545366,1166.4658192009647,1167.3879099267372,1171.1541719632871,1166.3838637222236,-731.23706528573,917.1825077558062,-286.663821803407,176.32681871810016,164.1554985340954
0.3524999999999999,0.1730010894869263,1.3326469305916455,-0.3397338854625441,0.0043208938368007,0.0392478585825201,0.0219249409496424,-0.0033714535371284,-0.0128681950747381,0.0851276570377978,0.996275212941248,-0.1056918000986576,0.01054103062252,10.805499991985428,0.0468678648580158,-0.0016507942688856,1.1662142627120144,-5.191606113267797,0.0173587922328673,0.6360822807227015,1164.899459328236,1169.890222670038,1170.3526384935533,1166.86081377038,-514.8971628889792,1037.2896139465515,-338.5938491614559,239.2681723824377,164.1530563256238
0.3549999999999999,0.1892864304559812,1.0671139761584312,-0.2048625601035078,0.0060188892197909,0.0421312886972712,0.0205968186195941,-0.0033774753640968,-0.0127883172735564,0.0851491353798688,0.9962720426911064,-0.1068086049540937,0.0100997429908998,10.805002447944695,0.0460035824301398,-0.0015655364557644,1.1687443599591876,-5.191577911044499,0.0173844897652709,0.6390110034366366,1163.89133338652,1172.57435799647,1169.4612027174799,1167.5802045841356,-260.7987217590105,1067.4449271829408,-373.8548617699959,378.02485652991857,164.15080347689715
0.3574999999999999,0.0776466438426094,0.8338665543169114,-0.0417637823655563,0.009205038148066,0.0432667693801568,0.0206718672575435,-0.0033931959760779,-0.0127057062751592,0.0851813237118884,0.9962677574628575,-0.1077887483119252,0.010099298938037,10.80400386064767,0.045159703164991,-0.0015002564148297,1.1712445430088143,-5.191554010171365,0.0174057623852901,0.6419434212808603,1163.5954657194409,1175.2274473059526,1168.4833641847033,1168.7509380530296,12.13651100511014,1092.2047396141795,-449.18166433912984,634.2231912431993,164.14878428265007
0.3599999999999999,-0.2218918816353053,0.6081539875211738,0.143273865130288,0.013281999110886,0.0433948534064304,0.0220360187470169,-0.003413681399671,-0.0126143302078336,0.0852193138826534,0.996263137402031,-0.1088211940645619,0.0106470169133197,10.802618965000011,0.0443279099370831,-0.001433941707347,1.1737163276903293,-5.191534490759683,0.0174234723438791,0.6448798027198555,1163.9520159415456,1178.035381694541,1167.2152943957842,1170.7513205403516,212.58820356242703,922.6847998172152,-479.5082409585116,822.8212088595221,164.14663845350034
0.3624999999999999,-0.5768203502325769,0.4582591970541682,0.2667410764638573,0.0149838026919052,0.043615516460106,0.0236695808397931,-0.0034354962544681,-0.0125154795574516,0.0852586534461948,0.9962589862494616,-0.1099479344338354,0.0117821062581972,10.80095998457016,0.0435142073456693,-0.0013515541339675,1.1761613286192867,-5.191519063408729,0.0174395365302953,0.6478207400991093,1164.658406737253,1179.8408713050387,1166.0858229799107,1172.8650440973272,311.0154471947223,574.4565528234484,-462.674509139924,905.7307383251546,164.1450865013538
0.3649999999999999,-0.9505087625198472,0.317164061475221,0.3506579344265434,0.0127147536041309,0.0447534278782852,0.0251796809489804,-0.0034512204195669,-0.0124159070005957,0.0852999490944777,0.9962558214198076,-0.1110884544336718,0.0136000945267846,10.799132726004748,0.0427354410105882,-0.0012314025611499,1.1785811713478802,-5.191505017150014,0.0174566350602975,0.6507669592652889,1165.5070931775192,1180.9076644586582,1164.9019218500844,1175.2799742319776,344.27394598746986,285.2500800336654,-527.4386094622055,1078.1002644137052,164.143785527373
0.3674999999999999,-1.2930747422125592,0.1135586582355233,0.4170474600370888,0.0054956368860865,0.0467475482172358,0.0265418956603754,-0.00346003902833,-0.0123190806456334,0.0853426857537437,0.9962541865368064,-0.1122429413243366,0.0160420969887839,10.797233484449457,0.0419965259417162,-0.0010679017236873,1.1809781438501337,-5.191489383188994,0.0174756415144717,0.653719373490038,1166.3797764671904,1181.267121705207,1163.4486299325995,1178.2555454193955,264.0475690177025,-8.992572382339851,-535.8623381798675,1061.7590924669448,164.14251997634983
0.3699999999999999,-1.4240783622609203,-0.1074016569306843,0.4589930551604053,-0.0019641625126663,0.0482898029428554,0.0273398378936319,-0.0034667510603115,-0.0122310267370831,0.0853849243435169,0.9962536195961222,-0.1133595820529267,0.018908543928521,10.7953460673409,0.0413046286478573,-0.0008704458069088,1.1833546371749146,-5.191469785698647,0.0174961870244363,0.6566788365752164,1166.8273310226075,1180.8627015967463,1162.2226101591853,1180.5887696943123,106.59560108178984,-268.09836247384715,-493.5378319202296,859.5324837387117,164.14171480501813
0.3724999999999999,-1.379581214091268,-0.3862411148208827,0.5048007094885428,-0.0079867625161013,0.0489815035780024,0.027766402778517,-0.0034757115838787,-0.0121540349294176,0.0854220008773521,0.9962538351661872,-0.1144550973373464,0.0220045024362926,10.793539292595856,0.0406561861567489,-0.0006477718542895,1.1857137146807928,-5.191445326716376,0.0175176934212128,0.6596445246840769,1166.912754472599,1179.9266298928378,1160.9809407729983,1182.5532078380893,-19.35587899738492,-420.2679449010244,-498.6333567487232,703.4244456366645,164.14117122991985
0.375,-1.2227199838998073,-0.698657532196098,0.5612820188317121,-0.0117579200725935,0.0485898099332329,0.0279845697192215,-0.0034906350298497,-0.0120907494209154,0.0854519508519366,0.9962545237924444,-0.1155224939679681,0.0251414955721474,10.791864900194444,0.0400474737243391,-0.000408594812053,1.1880588311702875,-5.191416291622256,0.0175402692369762,0.6626156815541393,1166.7305516276208,1178.7613618722414,1159.7294433754416,1184.1058919224956,-115.15377205546417,-468.2631318619765,-495.436146903648,513.776191805618,164.14084580846983
0.3775,-0.9957026139336465,-1.017641003765382,0.6260986785303543,-0.0131835500794834,0.0465833652438301,0.0283442476123177,-0.0035130599849394,-0.0120481469242361,0.0854754404764102,0.9962552710510943,-0.1164406394248869,0.028166972715407,10.790355924482599,0.0394853086195186,-0.000158790845917,1.1903934997809542,-5.191383392590704,0.0175643136326898,0.6655922677379154,1166.336985612322,1177.585314233528,1158.5037600384803,1185.1220887971172,-188.05289534379864,-468.27109356099714,-510.74113299036935,334.1787504762121,164.1407839978066
0.38,-0.7184828564277675,-1.3561576406344815,0.6869865080953823,-0.0134219352300328,0.0421804306217556,0.029634597642322,-0.0035472098821075,-0.0120314100313068,0.0854947761104807,0.9962556588259236,-0.1171144396135026,0.0308746018545351,10.789025917169644,0.0389724663101711,8.836956061771938e-05,1.1927217497626974,-5.1913481189873965,0.0175895890198101,0.668573993347205,1165.7902871509018,1176.4200064044364,1157.1757377104896,1185.7767856748767,-192.43380495799997,-370.3012043508348,-439.02828981094854,165.5251642920119,164.14101414965108
0.3825,-0.5175540340754546,-1.568918928313164,0.693205291199594,-0.0127839232289795,0.03716853888467,0.0317872817479677,-0.0035929493652928,-0.0120417385567842,0.0855117220944645,0.9962554694120416,-0.1175098767520548,0.0331627413232381,10.787868081155164,0.0385045444248009,0.0003295109009305,1.195048125443667,-5.191312098999651,0.0176167460874308,0.6715595512562161,1165.374816587532,1175.7338082117735,1156.3086185894256,1185.9497146185774,-144.8171514037766,-224.94829846150404,-266.4000296674201,21.22429840064795,164.14145854808612
0.385,-0.3548041238625827,-1.6909810915983563,0.6170096158669754,-0.0118174361980349,0.0318550962120006,0.0349162249080959,-0.0036492819351778,-0.0120716122955564,0.0855262432753491,0.9962548084328856,-0.1177643607868574,0.034970790826541,10.786855487033227,0.0380583254437298,0.0005640123994846,1.1973778084644566,-5.191277034985644,0.0176461817553209,0.674546949158297,1165.0662013938827,1175.2952649121287,1155.8437375621527,1185.88290716688,-109.92574770352792,-172.0965980308391,-84.67216265535164,-53.46099502066858,164.14216352787065
0.3875,-0.1680784848768132,-1.7417557645538964,0.4102643058070033,-0.0117186413023855,0.0263606961625482,0.0387888059962886,-0.0037090688898863,-0.0121120794837988,0.0855371156014256,0.996253959329001,-0.1180230507311497,0.0363820061366957,10.785941507834432,0.0376103425438981,0.0008053238169524,1.1997155568930706,-5.191243569861247,0.0176788882634441,0.6775372949069426,1164.8251878490144,1174.8733252216196,1155.8852577761488,1185.682409643474,-70.09711270916335,-167.19644581530687,123.55125041990492,-78.21495031698753,164.1433086379932
0.39,0.025521997920156,-1.724182464793852,0.1524706393088906,-0.0132603305971215,0.0227106697457673,0.0410941806222751,-0.0037628482832186,-0.0121557022215154,0.0855442675324306,0.9962531161520288,-0.1183857156043022,0.0375384971569889,10.785061464302736,0.0371432474292879,0.0010715543093282,1.2020650326516928,-5.1912131718614205,0.0177155853953901,0.6805333582539504,1164.715715830337,1174.4592826830524,1156.4614938142522,1185.4918324152948,-24.81506973517751,-202.16982816755245,337.88166283543404,-75.12628496779136,164.14451048082012
0.3925,0.306915085369785,-1.6678253826545695,-0.1512984703752177,-0.0159278605972141,0.0196151688258211,0.0415193147533039,-0.0038050851896324,-0.0121935363116973,0.0855464400246651,0.9962525844541292,-0.11898741395303,0.0385130898206027,10.784135026069142,0.0366372327450829,0.0013717023510307,1.2044288539603212,-5.191187243013819,0.0177562129854789,0.6835365326434232,1164.7011125003385,1173.8624760807816,1157.574666090326,1185.3067782186351,27.623509088471085,-305.14870616270827,591.228819641355,-87.95039670294493,164.1459671119432
0.395,0.7553302700550947,-1.567348482331888,-0.4978591424869914,-0.0182294779161993,0.0158844177748943,0.0396527490717077,-0.0038322723536092,-0.0122213863220011,0.0855469667617864,0.9962522072803864,-0.1198633950498455,0.039340490754389,10.783068510376069,0.0360852766845596,0.0017091145298801,1.2068081867271019,-5.191166667614024,0.0178003938832545,0.6865469547718963,1164.8538333757795,1172.9335391522388,1159.4176379124588,1185.0520804317803,100.39696200547031,-357.1095867122946,735.3771927088922,-111.29539138942152,164.1480068530728
0.3975,1.1836451692365015,-1.4528455486427052,-0.7221920144190149,-0.0177395676079764,0.0123574824901052,0.0367509550205902,-0.0038436591079048,-0.0122373255047594,0.0855527818740697,0.9962514735448358,-0.1210074731492467,0.0400056167218224,10.781757563574867,0.0354867400480308,0.0020807844243643,1.20920314924371,-5.19115150760316,0.0178476126088576,0.6895642687533127,1165.2030973103658,1172.0769281472203,1161.2515520538705,1184.750301261688,205.4593735814704,-319.6518451447898,759.1006959632061,-156.88998421792334,164.14994762372692
0.4,1.5821805661223736,-1.295158866072593,-0.8395913072134792,-0.0137505721436842,0.0084051148140021,0.0335507769156073,-0.0038458876306298,-0.0122371061496458,0.0855685558206157,0.9962500531331556,-0.1224833091898933,0.040349946635874,10.780090226237911,0.0348348118943922,0.0024677762011664,1.211613404581704,-5.191142637573215,0.0178967396565778,0.692588915606039,1165.8811302436868,1171.3352799265149,1163.213141392275,1184.2676305106907,333.36535849175533,-241.56949631387735,775.8854461371349,-233.94535460538444,164.1521357769107
0.4025,1.882461139080328,-1.0964073468390139,-0.8560013661509225,-0.0073002420397404,0.0046492949316468,0.0305495989634887,-0.0038421715907028,-0.0122235524547953,0.0855990762391159,0.9962475170730952,-0.1242046527616117,0.0402857817380537,10.777949038955947,0.0341408907537039,0.0028595357712194,1.2140376158484696,-5.191139132370036,0.0179463492889187,0.6956210821339958,1166.8699241028244,1170.8690806656507,1165.130979284556,1183.5805744886611,463.069775629128,-81.91305740442651,721.0511711072278,-328.9939937652886,164.15452690365237
0.405,1.9977721216119608,-0.8534546071857194,-0.7532367600094804,0.000442238100747,0.0017721400469503,0.0278938231482532,-0.0038369337723732,-0.0121979276668293,0.0856441142385259,0.9962438713775996,-0.1261319536088778,0.0397093905487411,10.775214081968366,0.0334122128603447,0.0032448651396551,1.216474343588197,-5.191139994964538,0.0179943905151705,0.6986600860039408,1168.1964791218325,1170.9257146394928,1166.8183972478112,1182.6226605418642,627.3180625185427,170.97569300808559,651.2483021446764,-475.440294722966,164.1571601973525
0.4075,1.8905842824642447,-0.5315289221953665,-0.5118716126551476,0.0091545066176728,-0.0004367188352601,0.0251590367300588,-0.0038323095219439,-0.0121625041738319,0.0857023149084571,0.996239209277357,-0.1282107983418038,0.0385705955881934,10.771765516159228,0.0326583742141063,0.0036195593679014,1.2189220052777092,-5.191143168836357,0.0180395301093268,0.7017048791204457,1170.006514415417,1171.7239591306911,1168.3872207952795,1181.2033730150463,659.6245736896884,407.2894312712375,482.2180983625908,-548.4868391451978,164.16059697964633
0.41,1.6135711159944204,-0.2584243485248757,-0.2372568007873771,0.0149092715243406,-0.001277615188953,0.0233996253322807,-0.00383070797092,-0.0121221245652718,0.0857754267593885,0.9962333199422396,-0.1303424586484069,0.0368145742517546,10.76748662007308,0.0318944308585343,0.0039793377333079,1.2213788429672099,-5.191146616759372,0.0180806137028504,0.7047536657823604,1171.494601990281,1172.9621617958487,1169.229487739624,1179.8802263461382,534.5493337903913,573.6226672690004,237.33556137576647,-530.196419797448,164.16368952512997
0.4125,1.1964614258684771,-0.0050833209336308,0.0708196129115539,0.0186139170349455,-0.001102112595696,0.0226909871128549,-0.0038324516639791,-0.0120803351383853,0.0858608405595368,0.9962263870824276,-0.1324633310902578,0.034436654926327,10.76226639984449,0.0311318496628109,0.0043260379011542,1.2238429609600805,-5.1911502622512575,0.0181171144965482,0.7078051782902027,1172.6792610843693,1174.5920724670364,1169.5738986021584,1178.552390916059,392.7919246359121,730.972948453836,55.329322799661846,-551.0908960700358,164.167016941589
0.415,0.617727586522902,0.253712938610196,0.4155196515172203,0.0208859846121242,0.0001915267960361,0.0240817387837584,-0.0038359836341977,-0.0120425409247431,0.085955593479941,0.996218606813352,-0.1344758095550148,0.031472736671189,10.756002652180943,0.0303863128978145,0.0046655595785055,1.226311706628696,-5.191154603140262,0.018149301820392,0.7108591399399709,1173.4585616134605,1176.617026538118,1169.5061343536224,1177.124771865788,151.62074993959476,691.9780960242476,-80.48617227036712,-475.7820654565469,164.17127882030852
0.4174999999999999,0.1320342178990793,0.424184960437828,0.6357902196346575,0.0212626627815357,0.0017260005724539,0.0271142493098309,-0.003834819094344,-0.0120097245591955,0.0860502954218935,0.996210796702344,-0.1363767831667972,0.0280747172011464,10.748604632948496,0.0296629752256563,0.0050161015280973,1.228781473735702,-5.191160450231348,0.0181789699564486,0.7139167229356584,1173.4373648340672,1178.0519629471576,1169.1714677408063,1176.1734805887763,-155.284484426649,459.7065618555509,-159.39943951057265,-318.6923413976306,164.1750527867069
0.4199999999999999,-0.2909758383608981,0.5514711114270647,0.7514436928670108,0.0203338217047643,0.0029481464002169,0.0307002440215307,-0.0038242162036689,-0.011981912760183,0.086139899541759,0.996203403259216,-0.1381918431712341,0.0243649422693247,10.739996517455904,0.0289636989140371,0.0053902219348542,1.2312470928867316,-5.191168056471394,0.0182085220213569,0.7169795035494821,1172.6821391913272,1178.9155593473959,1168.7091371560696,1175.5313101588,-411.7395600183041,224.98736867637473,-187.47303059808456,-207.0578226399901,164.17905564108318
0.4224999999999999,-0.6204345497932389,0.6511269740380529,0.7773465739304409,0.0184174323032066,0.0035478291630807,0.0337011733192269,-0.0038060332392071,-0.0119597620792805,0.086225619918644,0.9961962996822624,-0.1399481797540782,0.0203315110079452,10.730120268164875,0.0282899388662033,0.0057821965925387,1.2337015556004587,-5.191177630149398,0.0182397871147846,0.7200491836157312,1171.3786670339755,1179.1768997905394,1168.234102587816,1175.1381914755764,-623.4908664234803,-39.79987181223802,-183.66268562044732,-110.904405587189,164.1832469032855
0.4249999999999999,-0.798777383306728,0.7213308008111298,0.7145905940944417,0.0154037602187841,0.0040576760912831,0.0355155441697658,-0.0037848102055513,-0.0119472321446422,0.0863100866495908,0.9961891893314648,-0.141609155228035,0.0159078752607495,10.7189376220111,0.0276500606591714,0.0061771245333991,1.2361358236300544,-5.191189560133745,0.018273875556303,0.7231275301127555,1169.5646848592098,1178.7165599883347,1167.790823727967,1174.976788130864,-868.6345696336949,-332.67800055377813,-191.3896112996552,-45.11010807736962,164.18766355117623
0.4274999999999999,-0.8101584657565462,0.7569148492119168,0.5722681265345381,0.0109467776321523,0.0058588143268462,0.036453637455599,-0.0037636754914003,-0.0119512137292324,0.086393521172074,0.9961819570965768,-0.1430735835808126,0.0110615838041143,10.70643136988682,0.0270592792098473,0.0065614004825465,1.2385390958968368,-5.191203825751732,0.0183124096961473,0.7262177320856857,1167.0354941858072,1177.5135097877703,1167.2771545313178,1174.9126409351895,-952.6487543319481,-507.91645834165087,-193.7926989091464,-24.704786088204838,164.19322138138583
0.4299999999999999,-0.6519635378592059,0.7253602516114078,0.4183835148563948,0.0073390391268554,0.0087151743017273,0.0369270128179796,-0.0037479164539276,-0.0119756252824656,0.086475767941321,0.9961745511597848,-0.1443063231576975,0.0057307456659633,10.692605573062044,0.0265244294613961,0.006915580875171,1.2408998552537844,-5.19122018052644,0.0183561574743592,0.7293217893026424,1164.80144108755,1176.1769776966264,1166.8218602334216,1174.8532642004227,-888.6621831916264,-554.5540061057177,-195.79753235575464,-49.2373567180493,164.19806551665854
0.4324999999999999,-0.3510851980801955,0.612349363805112,0.2396476885979993,0.0053417162692019,0.0121893609734461,0.0378365347647665,-0.0037427689547096,-0.0120207298600242,0.0865536506062225,0.9961672286281066,-0.1453468993758309,-0.0001276043358251,10.67748464030366,0.026042665112394,0.0072206615444198,1.2432068959756757,-5.19123843373309,0.0184050683721567,0.7324404643596745,1162.592183269849,1174.740739757242,1166.298166869539,1174.6664541515993,-944.5367512727437,-617.5764264036383,-245.35929604953685,-129.40779696668855,164.2031272986247
0.4349999999999999,0.111117550262871,0.3928230762277538,0.0038694829561346,0.0057482481732415,0.0154544116510099,0.0389563587014615,-0.0037512766208865,-0.0120872545882528,0.0866263912410421,0.9961600429325967,-0.1462153665822137,-0.006498192946456,10.661111584093192,0.0256123147657999,0.007463073098836,1.245450304327064,-5.1912577239641005,0.0184585518856019,0.7355711794459434,1160.0787573311864,1173.0890955646082,1165.595063753174,1174.2062252155895,-890.4866733979353,-586.0633391085224,-262.35654016268177,-210.9510762529224,164.2094490469617
0.4375,0.5330966077586968,0.1714104331497626,-0.1993475938360147,0.007661393499131,0.0166928662686119,0.0390674918861365,-0.0037748600637051,-0.0121674188092313,0.0866922102699884,0.9961532416506388,-0.1471029290961638,-0.0133053602158083,10.64354454733886,0.025210557900522,0.0076359832359485,1.247623025062434,-5.191278600680904,0.0185152807463817,0.7387094674159909,1158.1397499028594,1171.810423061699,1164.9863841687256,1173.6116987703347,-737.1575705798016,-503.5340740573242,-235.1354015407649,-272.52214541590524,164.21492022784705
0.44,0.9524227420228338,-0.0352631962798874,-0.3882232046011112,0.0099007140337971,0.0161782335240956,0.038035735104481,-0.0038103424344804,-0.0122551670409607,0.08675169927228,0.99614686319095,-0.1481472036304463,-0.0203700687796497,10.624853666464427,0.0248196466043399,0.0077449723814402,1.2497209146127288,-5.191299602843159,0.0185734839198715,0.7418512833557203,1156.3929694782871,1170.5714251943216,1164.41938674547,1172.84361448851,-714.7573577905853,-566.0750738195017,-229.18119622163408,-357.41582342443473,164.22059781186766
0.4425,1.4220338480056451,-0.2041404979241611,-0.5734290496633366,0.012683152213673,0.013919386916731,0.0359629973149728,-0.0038502453947087,-0.0123375599948985,0.0868052491227391,0.9961410656267252,-0.1496148212724009,-0.0274043751772814,10.605116507101155,0.0244055696009651,0.0078095855165289,1.2517432051986817,-5.191319549996336,0.0186313545089305,0.7449936935860066,1154.5659631139065,1168.9800476926018,1163.8404781876175,1171.8246196532125,-614.9655961604816,-624.1022758898447,-195.355142471635,-375.44132632538066,164.2276440307744
0.445,1.762464730217334,-0.2495116399458706,-0.681327888402626,0.0156003928643654,0.0113593122120231,0.0340077252873225,-0.0038816519770874,-0.0123992567570021,0.0868465025970542,0.9961366426839776,-0.1518035977198394,-0.0340016920111726,10.584414198620433,0.0239295133964585,0.0078653988088148,1.2536917900408628,-5.191338362137234,0.0186875228079959,0.7481355880661213,1153.3181414974847,1167.4509138148724,1163.442611033112,1170.966407856883,-428.27385304276464,-671.9977834415653,-152.84973079947108,-338.5840748931511,164.23370616470763
0.4475,2.011365622599546,-0.1912314485520555,-0.7356634294010737,0.0204056392731105,0.0091137215112538,0.0320255072588993,-0.0038929882815808,-0.0124357309609152,0.0868738538490146,0.9961338308706956,-0.1547760097379218,-0.0398045878520378,10.562827776802909,0.0233801130212524,0.0079437878763603,1.2555699806355411,-5.191356830972481,0.0187413891197968,0.7512765924934605,1152.4245938486927,1165.620058775394,1163.07622953362,1170.1316992787467,-290.5352718168612,-782.1230327747338,-156.85720932065107,-336.75657207195366,164.23996133949797
0.45,2.151028204765035,-0.0672459185418251,-0.7464008890003827,0.0268555819044698,0.0078326671263361,0.0299269666136933,-0.0038748584573038,-0.0124483379738954,0.0868889797029998,0.9961325007787148,-0.1584676435343686,-0.0445164301366218,10.540434331555623,0.0227613705099111,0.0080705336019206,1.2573819361836045,-5.191376292578878,0.0187933102343916,0.7544175386209139,1151.8654651384006,1163.5402986509987,1162.6583249865087,1169.2826249965233,-141.97264675963183,-869.1083804269047,-202.61858900530552,-363.3457959499989,164.24637345212545
0.4525,2.1318818941413618,0.0913763916273421,-0.7102555351106336,0.033880821966206,0.0082162016199764,0.0278527883261078,-0.0038266347853633,-0.0124410940124559,0.0868967854620746,0.996132173733884,-0.162769167639009,-0.0480358577239634,10.51730352428546,0.0220833715985039,0.0082495987172632,1.2591321704601923,-5.1913979594360296,0.0188434194507178,0.757559341454328,1151.7147306148945,1161.2745168732595,1162.0631365885936,1168.3149702989967,11.615877648773663,-983.2080823073728,-330.7457921577222,-484.06372041185887,164.2529712388198
0.455,1.9239591310147368,0.2599367574841339,-0.6264464551934511,0.0413075137829092,0.0102390439326032,0.0257919554741125,-0.003755318642697,-0.0124225244708005,0.0869006963685494,0.9961324121386598,-0.1674871204759929,-0.0504383825643471,10.493496207281964,0.0213670370695765,0.0084652328805346,1.260824840181452,-5.191422759778846,0.0188924617990725,0.7607029345222452,1151.9235445266445,1158.6242582394618,1161.00459602572,1166.862306394464,115.62101598628932,-906.5975715685445,-459.8667921853117,-598.2843372560177,164.261098897834
0.4575,1.618222122604995,0.3486191047402285,-0.536092339855527,0.0463125764076445,0.0125746395058582,0.024467453920756,-0.0036722920883633,-0.0123939088232286,0.0868997907599606,0.99613322768499,-0.1725848133791811,-0.0518886035795889,10.46906341802504,0.0206150409094846,0.0086924487535787,1.2624637323410692,-5.191452829614527,0.0189406220140961,0.7638496575293151,1152.292835694826,1156.7415290154167,1159.763802627667,1165.3235486127166,145.707821185715,-622.6054157850734,-576.0727816504635,-688.1692557717537,164.26804421695468
0.46,1.2179803161983775,0.3678001211746351,-0.44050889630192,0.0501206591704114,0.0147505822841374,0.0233307192118573,-0.0035882029880103,-0.0123515849191379,0.0868931607419739,0.9961346903014686,-0.1781236141639856,-0.052537461714215,10.444047597181884,0.0198183219024121,0.0089092170529387,1.264051774372249,-5.191490025993301,0.0189878608845924,0.7670013324315482,1152.652083632573,1155.5112311605365,1158.1242321174675,1163.4214601156052,103.60689542612808,-342.50520475743514,-801.0832177959848,-901.8299359629957,164.27516495475075
0.4625,0.6909937716066656,0.3231447537315689,-0.3375145148533068,0.0530787661220359,0.0163776880770012,0.022076076532426,-0.0035107823566198,-0.0123002639076144,0.0868889910155973,0.9961359676731008,-0.1839814522708181,-0.0524994151967959,10.418485709830978,0.018989682808412,0.0090990030389719,1.2655904488772796,-5.191533510369841,0.0190336525939419,0.7701575347256328,1152.8108701719564,1155.0290029916296,1155.758386538687,1160.8143989329017,-18.95250691909494,-5.053332965962904,-912.5631690739727,-982.9460734139038,164.28390884545385
0.465,0.263082766415419,0.2517370205788723,-0.2751704051527305,0.0538413124377857,0.0168082567361927,0.0214403330431193,-0.0034412214882155,-0.0122422296149386,0.0868926029133874,0.9961365181236393,-0.1900714986052872,-0.0517639056346234,10.392410739748165,0.0181363748761092,0.0092624703397787,1.267080263943914,-5.191581594723706,0.0190782110212385,0.7733172205857308,1152.5573210979776,1155.4859644957066,1153.5614162720979,1158.5067297485357,-205.8051404052547,330.4617618573954,-891.3699587978035,-912.7076240746638,164.291358418855
0.4675,-0.0955988407770373,0.173360258756922,-0.2536555433832797,0.0524906478814928,0.0165770908122479,0.0217684745182976,-0.0033816803077973,-0.012181331849452,0.0869112077026787,0.99613560487699,-0.1962718936703525,-0.0503585269830479,10.365853578149537,0.0172680887711331,0.0093976294609703,1.268520802279194,-5.19163190351415,0.0191217242875869,0.7764800659342065,1151.7818444699303,1156.6813118009163,1151.301536744698,1156.2508608125283,-403.3629171729896,556.0269171390696,-889.1924736527918,-868.2873722438662,164.29897352494504
0.47,-0.3652815764780479,0.1045598982367265,-0.2722549400932816,0.0500087754798151,0.0160725755943455,0.022795650245416,-0.0033281422728723,-0.0121264141133025,0.0869448664128611,0.996133064891068,-0.2023414944727696,-0.0482120176693225,10.338847006524023,0.0164066966115417,0.0095171282314311,1.2699104380000963,-5.191682273722508,0.0191659354635059,0.7796459183517775,1150.5405065121126,1158.266099081402,1149.115453903834,1154.1652928873164,-604.2645530498697,662.8822342515825,-835.9524710472208,-774.4407566661714,164.30672291107564
0.4725,-0.5153618953357461,0.0538760152470037,-0.3271314629375833,0.047798964987071,0.0154978918795634,0.0234786005195307,-0.0032820155333139,-0.0120825771316639,0.0869880256031348,0.9961292475485676,-0.2081208498340309,-0.0453785041488322,10.31142566728006,0.0155617763731071,0.0096208295445303,1.2712468134481099,-5.191731630381847,0.01921134900566,0.7828146633706731,1148.7605217046807,1159.9957229721745,1147.121774389462,1152.3786570291975,-888.3702688562144,714.8537409199428,-825.4668312313689,-713.0707818188505,164.31463023569216
0.475,-0.5704876020774234,0.007019673051645,-0.3898627467194769,0.0461649769542686,0.0154227417307271,0.0225916662293162,-0.0032465759932285,-0.012051133262775,0.0870412878473497,0.9961240088302212,-0.2135252847377873,-0.0419582921960452,10.283628745720687,0.0147319490808678,0.0097048448425593,1.272526655145106,-5.191779136579071,0.0192573475566223,0.7859869546823691,1146.0986551678316,1161.8403677860017,1144.988119747677,1150.599938978222,-1041.0572401385243,590.9727792739881,-747.9353514680035,-602.4407906674236,164.3242959540356
0.4775,-0.5300938926390713,-0.0318473488561468,-0.3959760863528812,0.0451340187097873,0.0160728456103742,0.0202021706075984,-0.0032203092459328,-0.0120266986353539,0.0871022756802618,0.9961175770801232,-0.2185912644747503,-0.0379594754961098,10.255502039443586,0.0138991723930327,0.0097791862052292,1.2737456678351526,-5.191824982146445,0.0193032117616575,0.789163914463511,1143.5552355039883,1162.9505868685444,1143.382097632122,1149.3664530758604,-1049.9763608912524,317.4685426068696,-627.9885665915181,-466.89927916454985,164.3324936316483
0.4799999999999999,-0.4190371931715549,-0.079660036234675,-0.3135424499804487,0.0438060830862425,0.0167956893671907,0.0168344391019551,-0.0031998453561226,-0.012005540543583,0.087173195923352,0.9961098015618322,-0.2233104470978151,-0.03336991606902,10.22710056442608,0.0130500355869946,0.0098585081588251,1.274898474226709,-5.191868711296909,0.0193475035625194,0.7923462314750584,1140.8487733633751,1163.427710499036,1141.8481769147195,1148.2654425823991,-1183.4633156632328,42.05772491864124,-685.2608502256842,-488.6186545076321,164.34083374076187
0.4824999999999999,-0.2252380425175615,-0.1419366585165174,-0.1069501017605348,0.0418782426952712,0.0170252282053246,0.0136711139574666,-0.0031787541837303,-0.0119849451493632,0.0872563457928914,0.9961005835656904,-0.2276423135267569,-0.028132632133063,10.198489546960344,0.0121749100422288,0.0099651481208748,1.2759789149841438,-5.191909912659788,0.0193893181257558,0.795534788771378,1137.6379189256722,1163.1608754931376,1139.9557933809936,1146.9233598033222,-1140.2688240421855,-240.53466485888725,-717.1516420219625,-517.6413655140545,164.3509990688572
0.4849999999999999,-0.03601685507193,-0.1846369243437666,0.1258584596727116,0.0405765269161888,0.0164937677470774,0.0131127129748228,-0.00315471748738,-0.011960574916838,0.087349339495753,0.996090331282184,-0.2315832637498051,-0.0222875629552034,10.16974345260438,0.0112601226666979,0.0101110819224615,1.2769807098284267,-5.191949630651461,0.0194280026769673,0.7987298528237281,1135.1474292431644,1162.2250371747416,1138.2624187046097,1145.677235754829,-929.7741862829744,-513.669211331034,-709.2615134444252,-540.5014448737343,164.35959545900482
0.4874999999999999,0.139844539506014,-0.1993397574711069,0.364443292899451,0.0405107225451768,0.0153930095741033,0.014881076239149,-0.0031302123092911,-0.0119292652889125,0.0874481115236106,0.9960796993251856,-0.2351139454276632,-0.0159854359548623,10.140946109124368,0.0102955539322083,0.0102950052413578,1.2778979455820108,-5.191989165297016,0.0194637724009645,0.8019306486275802,1132.9890479942571,1160.5925294364824,1136.4094858137714,1144.2208525789536,-858.276364887478,-857.3387596972218,-848.2812531526625,-690.4161127991296,164.3683148664012
0.4899999999999999,0.2745071847272443,-0.1713460634336732,0.5974005826307747,0.0422417572045313,0.0141470930078232,0.0182955153627596,-0.0031094983748343,-0.0118922020818677,0.0875470975716203,0.9960695766646744,-0.2381338576363042,-0.0094282340442275,10.112190456964864,0.0092838106261728,0.0105087273682366,1.2787255123513732,-5.192030385347161,0.0194973307956235,0.8051362092487615,1130.856047418727,1157.9383433762555,1134.0210124388464,1142.2251551908334,-708.9852885987959,-1066.1123704272532,-892.8409312465184,-763.78731815148,164.37891193576
0.4924999999999999,0.2837960095597589,-0.1090235478964729,0.7234889467372139,0.0448136621116509,0.0135395522095809,0.0211810144468338,-0.0030886576447087,-0.0118500463003284,0.0876360288734473,0.9960614909903346,-0.2405471117917121,-0.0026580509588478,10.083575642074011,0.0082301175743941,0.010763176447535,1.2794594638701675,-5.192076150570236,0.0195306075833989,0.8083460478413573,1129.4441215512632,1155.261967584346,1131.9452811575388,1140.401915988196,-507.5198108969739,-1130.9985769791172,-828.8161173456039,-743.604971710419,164.38784792792043
0.4949999999999999,0.1632562269322391,-0.0123814371268418,0.7763140220905757,0.0474296134486612,0.0130365433277403,0.0235570638026128,-0.0030630306904211,-0.0118076070363054,0.0877104785595002,0.996056323912968,-0.2421850308240359,0.0042920577008303,10.055204443083994,0.0071527853591619,0.011068395065453,1.280097506094231,-5.192127995348344,0.0195659747676192,0.8115590808811532,1128.318448364242,1152.28335049136,1129.8769318521183,1138.5071303322811,-424.9980454053908,-1208.8570301390507,-809.0530816848506,-752.8117065392499,164.39688508985876
0.4974999999999999,-0.0572257171789555,0.1041910271892927,0.7789404054626146,0.0493096447937343,0.0125202172668912,0.0254053964398271,-0.0030335181990923,-0.0117636412047194,0.0877678552264877,0.9960537942953775,-0.2430253859998445,0.0112918499260347,10.027177117988119,0.0060553123587927,0.0114199181675075,1.280639583309084,-5.1921867179471874,0.0196047234044817,0.814772602438079,1127.3191313242364,1149.217682433651,1127.9000157491143,1136.6378574555,-400.0612474641909,-1205.6134399296286,-748.9918557654157,-721.143562647466,164.4059999766989
0.5,-0.3600498356404154,0.2269888319329612,0.738123482748449,0.0496667338574895,0.0122953945248715,0.0266674145648838,-0.0030031238626377,-0.0117136080267543,0.0878067767743342,0.996053439784539,-0.2431325448186754,0.0181825000605942,9.999588499526672,0.0049335700441171,0.0118074376648272,1.281087775914301,-5.192252918376791,0.0196464516993818,0.8179849397063786,1126.3181421269212,1146.2552832917115,1126.1319725732913,1134.901412519044,-476.1296311018157,-1233.7678053094203,-711.8793815827672,-711.2402108406883,164.41520081252847
0.5025,-0.745184161981771,0.3464756048413943,0.654746276575992,0.0477565279850486,0.0130091139358041,0.0279332488378694,-0.0029742015176412,-0.0116533657315469,0.0878317587535789,0.9960544769008304,-0.2425795500715624,0.0248304421177836,9.972525215412617,0.0037853824350217,0.0122216645733949,1.2814459575926933,-5.192326447228226,0.019690230600483,0.8211945923718551,1124.938483168727,1143.0488434071035,1124.3406188412007,1133.0816564012964,-552.2657704907938,-1096.3598583801277,-598.3477492030937,-612.8607661222753,164.42633097369873
0.505,-1.026449723079626,0.3919993612700729,0.5598563571441391,0.0442877105662624,0.0147419992863273,0.0290662249333065,-0.0029436358762283,-0.0115792261479194,0.0878483308092889,0.9960562085450196,-0.2414399880059433,0.0312224606775581,9.946061994977322,0.0026109417299727,0.0126670406871489,1.2817192465420355,-5.192406446254566,0.0197349753183747,0.8244013435714918,1123.5568132744672,1140.773483999811,1123.1402338272756,1131.8371086884326,-605.2333989021457,-820.8680664491105,-429.0073144964477,-438.288594309915,164.43567343819367
0.5075,-1.2117674871622748,0.350949357514785,0.4344663630041917,0.0396411741425311,0.0170174485488603,0.03038962971586,-0.0029119213704751,-0.0114908146818286,0.0878569636114792,0.9960584583290077,-0.2397483181496461,0.0372786954383991,9.920259453380348,0.0014172332244495,0.0131380642081059,1.2819137006642263,-5.192492298830173,0.0197791444347206,0.8276051317561243,1121.9123161742164,1138.944503074858,1122.1955822687185,1130.8902134297468,-769.9943740565678,-714.8035927631092,-381.7110939928167,-355.77348193091854,164.44507859547636
0.51,-1.2949279357937735,0.1897942742389246,0.2420041507493733,0.0340236549752619,0.0193845742250426,0.0320420727177515,-0.0028792841458702,-0.0113910254791328,0.0878549367556211,0.9960613881547824,-0.2374937636088311,0.0429323207498036,9.895161649260825,0.0002182981993644,0.013629261862974,1.282035738010323,-5.192582225235622,0.0198220588738425,0.8308069366454566,1119.7068414041844,1137.1994660359956,1121.2316783573117,1130.058241278778,-827.532222987765,-583.9704123417174,-346.81176587610764,-265.1334485631707,164.45643036115885
0.5124999999999998,-1.2532143409448224,-0.0273573545734273,0.0467165908272119,0.0301593995442231,0.0206055074116259,0.0332339719462194,-0.0028465522804161,-0.0112893921845994,0.0878430466619967,0.9960648337763706,-0.2345534738686265,0.0481104172344019,9.870795156017492,-0.0009564973079819,0.0141322601315761,1.2820917815469275,-5.192674022452032,0.0198647115697489,0.8340076903900139,1117.7746550592778,1136.0246510131497,1120.461523439338,1129.564546186931,-764.7065614607974,-438.7528004935571,-320.7730177105074,-170.32776814125995,164.46594069767107
0.515,-1.12304716072684,-0.298780302404757,-0.1730519621642236,0.0275819595943796,0.0206881271953533,0.0337155509740308,-0.0028158101908367,-0.0111981377478559,0.0878309786419835,0.99606784857605,-0.2307690224840125,0.0527306959169579,9.847166990766782,-0.0020725883411337,0.0146350508062689,1.2820880510694803,-5.192766059696962,0.019907673265309,0.8372080366884691,1115.8833085968804,1135.0057020335275,1119.6278132687592,1129.2066024380715,-794.461316480237,-440.7934557333188,-385.32701618992144,-140.05078608624888,164.4754996149923
0.5174999999999998,-0.9015673922534096,-0.6346696738471957,-0.4359398277459233,0.0255155513305081,0.0193362779995863,0.0330255375256645,-0.0027861661508867,-0.0111263020912666,0.0878269994920202,0.9960696751060296,-0.2260531547782081,0.0567895848313827,9.8242624269898,-0.0031044593907039,0.0151337441191955,1.2820302840957252,-5.192857191955873,0.0199520915811783,0.8404090752266283,1113.8023484768767,1133.820683734483,1118.5348883583883,1128.8642922564995,-717.8235094962013,-443.4848796307502,-403.99862173053367,-118.39957002011931,164.4870231920563
0.52,-0.6826946290475298,-0.8813328751644625,-0.6274342906892595,0.0241451123887916,0.0169948652213722,0.0316119039571409,-0.0027577305463316,-0.0110729398282603,0.0878327989831774,0.9960702482151031,-0.2205267004299106,0.0602925734442112,9.802044110913975,-0.0040537469428521,0.0156237072687789,1.2819237400003547,-5.19294832262999,0.0199986009515522,0.8436110588869953,1112.2941910493992,1132.788277635374,1117.6078201601065,1128.6146045879711,-549.1729798904084,-431.95108305335407,-347.7114936482846,-99.6977979114944,164.49666859592574
0.5224999999999999,-0.4414155764896214,-1.048686979729295,-0.7584339851029751,0.0230035239448407,0.013495105305567,0.0295799624437305,-0.0027355257533881,-0.0110376281950801,0.0878466203161553,0.9960697843625966,-0.2143148193612143,0.063160383892555,9.780456024722621,-0.0049227520773518,0.0160873617663892,1.2817734817163382,-5.193040641423573,0.0200474760354158,0.8468136067442144,1111.0564835774246,1131.6609283192163,1116.7963308901467,1128.3658032669423,-449.4551477297133,-468.42894635096815,-284.8826822646058,-105.69002755833016,164.50635692778098
0.525,-0.1865010341093994,-1.1272767074755412,-0.8185531100335229,0.0221597826625665,0.0094137880934889,0.0270719885680407,-0.0027234961551462,-0.01102087440947,0.0878671092232349,0.996068449732142,-0.2075252416883858,0.0653457249335474,9.759424496067412,-0.0057116150263276,0.0165097096817458,1.2815843664844284,-5.193135212547167,0.020098842829231,0.8500163539926195,1110.0469153107508,1130.4461329036192,1116.1834067487835,1128.0861544501795,-348.6287625056317,-505.8865106774188,-183.4777800082973,-130.49308248369005,164.51608049849875
0.5274999999999999,0.0797683157175214,-1.0911330555982377,-0.7757859586105098,0.0216385197019389,0.0055692175660638,0.0240946535192014,-0.002718531575724,-0.0110235383511398,0.0878892205645947,0.9960667370936376,-0.2002475059899002,0.0669461050333756,9.738859247463626,-0.0064184934707278,0.0168938246867589,1.2813609531172039,-5.193231788999921,0.0201533141219734,0.8532177078043317,1109.3133397648965,1129.1314957658292,1115.8789419901054,1127.7133378545238,-256.1318238114379,-600.161906001494,-68.46069438979606,-205.12089550320508,164.52584650590745
0.53,0.4006277212489679,-0.9309514813255824,-0.6001820335371648,0.0215195388062103,0.0020929813483842,0.020497751841284,-0.0027182674789574,-0.011047228006236,0.0879096796174489,0.9960649559754644,-0.1925551442757736,0.068050111821017,9.718656652385246,-0.0070400177934441,0.0172413817397636,1.281107716956447,-5.1933298659305995,0.0202110771176297,0.8564161597092025,1108.7662561916936,1127.4453233736117,1115.8411032768345,1127.0605499726635,-141.4052214584898,-636.8316200474959,19.35451422668846,-290.16698465420603,164.53761511138396
0.5324999999999999,0.6526889663463848,-0.723288025909011,-0.3634184417363766,0.022141106359136,0.0002343411098558,0.018155421467728,-0.002721330050605,-0.0110923874897085,0.0879320475455201,0.9960628005291312,-0.1845397233440833,0.0687344010144958,9.698702453049169,-0.0075759078847258,0.0175530825906721,1.280828801284584,-5.193429617585196,0.0202717739198197,0.85961117883806,1108.606313657604,1125.9473376655917,1115.9757145612389,1126.2625029312528,1.202729867554807,-621.1710646089153,50.04178617641624,-391.6262958007334,164.54746394630274
0.535,0.8584164175564397,-0.4687896512440165,-0.0693114553630808,0.0238081881255385,-0.0007420591217854,0.017442607657335,-0.0027248752775283,-0.0111485045627309,0.0879593174601672,0.9960601103425096,-0.1764945564808639,0.0691213364963338,9.678873844531145,-0.0080536348008606,0.0178372245272116,1.280527376753498,-5.193531860226625,0.020333824848182,0.86280290859002,1108.7722698410314,1124.3394680505671,1116.0913122077163,1125.1024184936596,146.85651237828083,-738.5272628875549,0.8365462049823683,-612.4148688576037,164.5573568576051
0.5374999999999999,1.0084242653280346,-0.1382140604982561,0.29337402402596,0.0273162161275196,-0.0011730968406588,0.0189456937897443,-0.0027265716399973,-0.0112035376778207,0.0879936306906516,0.9960567845056636,-0.168732611788741,0.0693203972431843,9.659045631776776,-0.0085048382551634,0.0181027461850553,1.280205455778738,-5.193637992428765,0.0203957292681614,0.8659918883749748,1109.3405962194954,1122.254701351154,1115.9798972922636,1123.2004285869648,260.84981551102805,-795.6293343733244,-107.43531579178116,-789.3465928463222,164.56928052033808
0.54,1.024735074533648,0.1427923767042729,0.5680624232293678,0.0313825967582965,-0.0010386290548182,0.0214739892635897,-0.0027206899941946,-0.0112518405187807,0.0880381933727972,0.9960525287608882,-0.1614251612758981,0.0694866189138961,9.639094956991086,-0.0089443653773937,0.0183675754471082,1.2798635925826989,-5.193747471476272,0.0204574671435531,0.8691788696713327,1110.0765189185863,1120.3613213787005,1115.5541356287576,1121.155685529428,324.44037641389485,-796.5288798432077,-253.6322728679804,-910.2959523752352,164.5792614092823
0.5424999999999999,0.9143224867431248,0.4156483337324026,0.7929399752538919,0.0357572499345166,-0.0003906252009068,0.0239856429430718,-0.0027042782012351,-0.0112871618413856,0.0880943374793517,0.9960471723894736,-0.154746592788038,0.0697089896496594,9.618905523687225,-0.0093899551532026,0.0186443027956414,1.27950073655524,-5.193858942353377,0.0205189090828984,0.8723638911052858,1110.9627981015649,1118.2720569519379,1114.7117359279239,1118.6489488250886,350.64282513967527,-872.0780312835805,-405.629758292616,-1066.9898424107475,164.58928982059666
0.545,0.7113563288075718,0.6722872671353204,0.9761662145619712,0.0393317401145211,0.0007828077446663,0.026059738127609,-0.0026829371263488,-0.0113051749303483,0.088158344827259,0.9960408975130552,-0.1488347802447254,0.0698923580475444,9.598373136871402,-0.0098574396714771,0.0189246623048548,1.2791143190693663,-5.193971227135789,0.0205787035000361,0.8755464155902031,1111.8297330442847,1116.0009312222824,1113.5259868372943,1115.8207363173744,299.32971101943593,-951.4405554979011,-547.5786799025623,-1182.335590886031,164.59935855676096
0.5474999999999999,0.4394142681223375,0.8969379594576923,1.1151631512565303,0.0408696947309503,0.0027475706213104,0.0278427150895909,-0.0026565247028102,-0.0113073479438863,0.0882269234250333,0.9960337509783806,-0.1436910546474559,0.0700247070280912,9.577408382459705,-0.0103474636078359,0.0192151470826647,1.278699656965572,-5.194083113842586,0.020636712792766,0.8787271111491544,1112.459446656662,1113.5148541744484,1111.973842528411,1112.7372708706584,169.32224899833258,-1128.5596667020843,-749.873187208413,-1371.0649776237904,164.60947671333872
0.55,0.1040037180085153,1.1133978861533191,1.2303635489418603,0.0402839801647102,0.0060667574942973,0.0305394792783671,-0.0026203320860547,-0.0112939474513738,0.0882992413016154,0.9960257968079044,-0.1393155533972397,0.0701644718659445,9.555940046416898,-0.0108633789882948,0.0195353477325846,1.278249684340372,-5.194193946270317,0.0206929594467614,0.8819083849506921,1112.6763442892764,1110.358132888772,1109.7766209012525,1108.9654114292555,-38.451167566608966,-1162.7074536364023,-846.7998641220212,-1358.5865853056007,164.62167617574323
