t,ang_acc_x,ang_acc_y,ang_acc_z,a_vel_x,a_vel_y,a_vel_z,quat_x,quat_y,quat_z,quat_w,acc_x,acc_y,acc_z,l_vel_x,l_vel_y,l_vel_z,pos_x,pos_y,pos_z,mot_1,mot_2,mot_3,mot_4,dmot_1,dmot_2,dmot_3,dmot_4,vbat
13.935,-0.7235433851168733,2.00656094507914,-0.5317570335867309,-0.0085020131273088,0.0025814096192623,0.0148907224536933,0.0071894837102169,-0.0041393523466707,0.0317224581056758,0.9994621352333019,-0.061164150278357,0.1306359601719476,9.825335781623693,-0.1819647625384977,-0.2009180368442061,-0.0155992910211751,1.1231181567694095,0.1384773214099045,3.6756708912840184,1100.5392685883332,1109.0919309596236,1115.1674731690075,1083.7853555794463,-197.6013973064648,762.4306286160996,464.54287188107776,-36.12303165801485,162.39598945670238
13.9375,-0.807836517215589,1.8715191232474997,-0.5957428282206761,-0.0091585112167035,0.0069602083592486,0.0139237121931541,0.0071946790683025,-0.0041078055720835,0.0317595881449231,0.9994610394793774,-0.0626487196259293,0.1260629423586796,9.827299547562253,-0.1821317790532613,-0.2010923870020756,-0.0155395059354211,1.1226991140760385,0.1379544542622237,3.675614786370061,1099.8379464385737,1110.9420593779255,1116.293601608604,1083.8608320090068,-390.7826283432637,769.9242004932497,471.49953024677694,111.25026892179844,162.3951366607155
13.94,-0.9335349699119904,1.6444411869598912,-0.6596815070446354,-0.0080926342275281,0.0118357679650248,0.0130815439271017,0.0071956132350065,-0.004068737454178,0.0317874453849019,0.999460295402809,-0.0642888641400048,0.1214160209069323,9.829141530106346,-0.1823039961297074,-0.2012960964089066,-0.0154731438070076,1.1222765793201106,0.137427917198817,3.67555994611334,1098.5853554466173,1112.941551962089,1117.5249708202407,1084.3416069240552,-517.1593998228319,687.4929050424106,433.9379056333887,242.468054899435,162.39406776812473
13.9425,-1.0713863256770744,1.4141735894072551,-0.7093323224365671,-0.0073831476613357,0.0155858598161387,0.0119965828082766,0.0071919767122348,-0.0040305630282769,0.0318063631251834,0.9994598602132488,-0.0658905214891782,0.116764176016446,9.830834408529158,-0.1824790943438022,-0.2015270192177024,-0.0154001663491656,1.1218509079287664,0.1368984328189512,3.6755076548732273,1097.2521494394591,1114.379523903138,1118.4632911367714,1085.073172283504,-581.6971890838886,520.3532544824708,363.17079619419707,363.3341330058443,162.39314265755803
13.945,-1.2076643109278664,1.1563179724594883,-0.752307888650161,-0.0091591949505078,0.0186123653260745,0.0098575590707892,0.0071840354264693,-0.0039991826540205,0.0318168510190898,0.999459693348094,-0.0673127813702691,0.1121857217984289,9.83235604992728,-0.1826549318548703,-0.201782554276736,-0.0153217591242082,1.121423718877706,0.1363666856557454,3.675458346940697,1095.6768695011974,1115.5433182345018,1119.340824801212,1086.1582775890847,-662.2838970987185,416.26826064010953,343.25074063051494,492.6520056126335,162.39218576178217
13.9475,-1.2887101302189479,0.8871254095659991,-0.785954436176309,-0.0132994146324559,0.0209477731192559,0.0070765726661012,0.0071723871584618,-0.0039758548544918,0.03182044690857,0.999459738114092,-0.0685104629882862,0.1077631315388795,9.83368996546713,-0.1828301296412535,-0.2020596175070919,-0.015240786676471,1.1209961021499113,0.1358333583556853,3.6754127340802265,1093.940729953966,1116.4608652063382,1120.1795448399237,1087.5364323115668,-722.6846607556814,306.05543105743646,321.794710665649,615.9725458369795,162.39120511039854
13.95,-1.2392350348524315,0.617073839859868,-0.8136710136960958,-0.0187476473375827,0.0225195200540576,0.0045262637507631,0.0071604851008098,-0.0039667963136186,0.031818142642244,0.9994599147736776,-0.0693439874134507,0.1036251535283934,9.834824514507828,-0.1830038713613742,-0.2023554380659177,-0.0151568861811177,1.1205687109691131,0.135299373326696,3.675369857374293,1092.0634461974184,1117.0735953897893,1120.9497983545407,1089.23814031827,-840.4368071713229,202.81161248214187,306.8894456817336,804.4219641288342,162.39019859589513
13.9525,-0.9832225041623678,0.3052537531586082,-0.8620192676096831,-0.024803754566528,0.0235674565376215,0.0026836987077106,0.0071511242063771,-0.003976286220511,0.0318081687506672,0.9994602448532064,-0.0697168668284771,0.0998808219861499,9.835753027763722,-0.1831747402204102,-0.2026683481795025,-0.015069910710801,1.1201418570841055,0.134764804440794,3.675328085487404,1089.738545918109,1117.474923268749,1121.7139920683323,1091.5585421322116,-846.2396028697505,98.55415719727857,236.58178521600507,874.795448446313,162.38896401232697
13.955,-0.6064534461976941,0.0623039400313281,-0.9321232882534874,-0.0285833235928568,0.0238786487281555,0.0021948563990178,0.0071461983726783,-0.0039983282281572,0.031790585651854,0.999460738031508,-0.0697398635771581,0.0966191437251971,9.836473173969296,-0.1833421867557515,-0.2029961193654814,-0.0149827289202159,1.1197155972681831,0.1342296921899571,3.6752859437832113,1087.8322481830703,1117.5663661757756,1122.1327072806205,1093.6121175605008,-728.8121173522171,-2.306467134213112,102.68098202825281,812.469348978018,162.38791480592093
13.9575,-0.0958853057033165,-0.1583014624400942,-1.0360267334833375,-0.0306398434546032,0.0237544352562925,0.0018675762557265,0.0071463089228381,-0.0040232859668351,0.0317661157584493,0.9994614083793852,-0.0696005136626319,0.0938965209927853,9.836985472638112,-0.1835061381767497,-0.2033363188031397,-0.0148990185630127,1.1192899776008125,0.1336945098742771,3.6752430185190232,1086.0944853313483,1117.463390933078,1122.2273969784735,1095.6208888771007,-692.3493962934399,-77.09387347234656,-45.50655121305879,831.2999918629948,162.3868460939327
13.96,0.5971757626836331,-0.3930179280727386,-1.164598736795864,-0.0305753737003743,0.0230651060758595,-2.7276311331311816e-05,0.0071505655180098,-0.0040449277368421,0.0317329594677139,0.9994623481134568,-0.0694241727559197,0.0917278222373452,9.837291724922828,-0.1836657783388023,-0.2036873799367068,-0.0148209646593639,1.1188648715693768,0.1331590707960607,3.675199262511714,1084.3705012016028,1117.1808968084135,1121.9051745245552,1097.7686175198164,-551.5741828809089,-122.87455990088245,-188.15315040575808,715.4973520785707,162.38554206305432
13.9625,1.1747379416571095,-0.5597986377730413,-1.2274471793614603,-0.0279640444002656,0.0220489569146974,-0.0037925826324863,0.0071542576631844,-0.0040556376788941,0.031692670625735,0.999463573222196,-0.0693698069892704,0.090043491627866,9.83739415092299,-0.1838216307814652,-0.2040463049718587,-0.0147520913005492,1.11843988824032,0.1326231573978112,3.6751544992950897,1083.3366144169436,1116.8490181335735,1121.2866312264448,1099.1983756374943,-315.4330046447458,-148.03804123092263,-301.67860957855373,471.7136394100664,162.38443747826022
13.965,1.672802363288985,-0.690434055597345,-1.1864001669929467,-0.023071477705003,0.0206327652308192,-0.0091230343993794,0.0071593023088998,-0.0040573781883295,0.0316498511026175,0.9994649107425309,-0.0694077103092506,0.088888043333396,9.837293318708253,-0.1839756795712689,-0.2044089861765433,-0.0146891797905439,1.1180151082462506,0.1320866058050399,3.675107659217286,1082.7933361783791,1116.4407066022593,1120.3967814766627,1100.1271857168663,-133.86830249526335,-174.82167104601095,-377.9537101467077,278.13764069678854,162.3833136534654
13.9675,2.0575347627803295,-0.7851356273957231,-1.0359652133695274,-0.0168850663680117,0.0189155234843483,-0.014191495800214,0.0071668361706781,-0.0040561417395849,0.0316071801676911,0.9994662385223811,-0.0694326573925499,0.0882777616734262,9.8369881632345,-0.1841290756290984,-0.2047717866447289,-0.0146275838964084,1.1175905115765687,0.1315485782028291,3.6750582711017454,1082.6672729044672,1115.974909778343,1119.3968626757107,1100.5890638409785,43.45617531334258,-199.52068369458692,-394.07569390185216,71.61389137776285,162.3821727911084
13.97,2.2727030052379398,-0.8283017055907796,-0.7618723009049156,-0.0098031672824004,0.0168281371814055,-0.0177463992669849,0.0071764306438257,-0.0040545356978705,0.0315671531383621,0.9994674674345128,-0.0694102110981011,0.0881902171662448,9.836476027302176,-0.1842825236360511,-0.2051309458293062,-0.0145645548597496,1.117165933006899,0.1310085882562278,3.6750070118926046,1083.010617054946,1115.4431031837862,1118.426403007153,1100.4852551737551,244.039220244534,-245.60401215008247,-383.08865857460097,-162.96924311330773,162.3810093712727
13.9725,2.328086166267343,-0.8112333056674794,-0.3368680468004577,-0.0015351734008212,0.0140859463202397,-0.0199343783411243,0.007188108307353,-0.0040550948190064,0.0315344045840065,0.999468439355899,-0.0693103822615278,0.0886024446026671,9.835752466597192,-0.1844372804020591,-0.2054819036790345,-0.0144975710262106,1.1167412955786276,0.1304663740585253,3.6749547654089385,1083.8874690056896,1114.7468897175931,1117.4814193828383,1099.774217625412,385.99365087701193,-257.9027201140038,-292.3632261320235,-340.5173767814399,162.37958370421416
13.975,2.22331884191761,-0.7361686523203879,0.0495406618239956,0.0043559672186698,0.0119363317205494,-0.020123945365346,0.0072063076369011,-0.0040585848996672,0.0315096889086273,0.9994690941347448,-0.0691377599484037,0.089570474926313,9.8348115393294,-0.1845925902479289,-0.2058218239825332,-0.0144235030638699,1.1163160661998797,0.129922708476068,3.6749019734808814,1084.9405853093308,1114.1535895832164,1116.9645868764933,1098.7826682898483,473.2005180682506,-224.93306131387848,-144.82359486094091,-452.1026640380772,162.3783679265584
13.9775,1.998656777630032,-0.5989921221513929,0.4100505758554277,0.009313443247453,0.0100789780657367,-0.0187861263494296,0.0072324536853743,-0.0040642713857372,0.0314898989156811,0.9994695218285023,-0.0689305125668465,0.0910840775176237,9.833646846443097,-0.1847457094519509,-0.2061495047324292,-0.0143417928825108,1.1158891520382996,0.1293783287941657,3.6748496131359447,1086.2534715960312,1113.6222244110236,1116.7573014085335,1097.5137043052212,621.3005164665385,-195.0491753254177,-31.412572648418607,-588.1973794873364,162.37711962717336
13.98,1.6370359517042679,-0.3696655970805607,0.7540667557707589,0.0142531821985173,0.0084185544312258,-0.0156447552225004,0.0072635320764424,-0.0040729163409921,0.0314720082237519,0.9994698369068252,-0.0687022002107293,0.0930382772293657,9.832252373250787,-0.1848937463558387,-0.2064639135641623,-0.0142540324406907,1.1154597222398992,0.1288332154256167,3.6747984515271366,1088.047087891664,1113.1783437065892,1116.8075240132512,1095.8416813924111,681.8218016511302,-111.58921324251824,50.12860043817543,-614.5793352707046,162.37558028222907
13.9825,1.290831137707957,-0.133260101075376,0.9380655112095134,0.0174118678123683,0.0076545545852754,-0.0120902154204726,0.0072938407262767,-0.004083647192825,0.0314559677793858,0.9994700868309996,-0.0685017197640959,0.0952713150628242,9.830623555224337,-0.1850350166696002,-0.2067631647799357,-0.0141642568817591,1.1150278145686892,0.1282869479836194,3.674748656823261,1089.662580604286,1113.064278344811,1117.0079444107243,1094.4408076288685,655.7173582617847,24.609145822210287,84.01563678805213,-539.6017150834887,162.37426068907135
13.985,0.9307541419653442,0.1368919947782958,1.004308047431071,0.0196724893546598,0.0073442696131932,-0.0083866037758936,0.0073201278467808,-0.0040918650701087,0.0314432125848773,0.9994702694312207,-0.0684500004258673,0.0976684889490525,9.828757992341796,-0.1851686836638422,-0.2070452432402191,-0.0140773496171199,1.114594179757658,0.1277386465648675,3.674699887220808,1091.3256746829722,1113.3013894357002,1117.2276021971911,1093.1436728169942,724.1522489258617,190.5619949785589,63.14140885932752,-531.5982716298628,162.37290066185625
13.9875,0.5126519264146622,0.4796027420928851,0.9654861856936476,0.0212379022721229,0.0075712246830898,-0.0045841958477651,0.0073442773893626,-0.0040948053346576,0.0314332670413222,0.9994703970004531,-0.0686274853339341,0.1002130431361417,9.826655663467571,-0.1852938001285393,-0.2073094243506344,-0.0139957350463113,1.1141597824520264,0.1271882713878956,3.6746526328562577,1093.283341848916,1114.017088319704,1117.323651455021,1091.7828162707187,699.0004265635706,325.23254196452774,-18.432057814513275,-463.8775990699926,162.37121997815555
13.99,0.192333948723154,0.7593290955189245,0.8628102004796925,0.0214899993449661,0.0087929890519723,-0.0022165927839302,0.0073672808233512,-0.0040901595071852,0.0314260667480803,0.9994704741440567,-0.069103673715611,0.1028704166108028,9.824319826890026,-0.1854103839512556,-0.2075554113984506,-0.0139222292430158,1.1137253151623008,0.1266368944785057,3.6746082897497767,1094.8206768157906,1114.9275521455231,1117.1354419081188,1090.824284821644,584.0267370566633,403.91929184637627,-151.2801021039496,-353.67376361894213,162.36977793069335
13.9925,-0.0879523200208519,1.001173725912862,0.7288789889073946,0.020799500922675,0.0116001465896443,-0.0007409610829394,0.0073854380067135,-0.0040760255621474,0.0314213915793266,0.9994705431556564,-0.0699388397694547,0.1055155088205368,9.821757585075774,-0.1855192204306723,-0.2077835611402289,-0.0138613759906398,1.1132909715653827,0.1260847385329499,3.6745660166326575,1096.2034755341988,1116.0366847789355,1116.5672509445014,1090.0144474526244,522.7810920128469,449.18952904542743,-291.9309534103375,-309.26701611037686,162.36829223706727
13.995,-0.3356797066041054,1.190074883680882,0.5990627609921781,0.0196405832359448,0.0155066063002441,0.0001555363375136,0.0073965662608054,-0.0040525073803028,0.031420634917033,0.9994705764443346,-0.0711473672770129,0.108055544201774,9.818979338178531,-0.185622604852985,-0.2079944529229175,-0.0138159011594193,1.1128568289078753,0.125532083566325,3.6745244553918073,1097.4345822758553,1117.1734997907506,1115.6757871410668,1089.2779497410916,454.9469369696197,424.0067105265799,-415.6719168957157,-289.9164781867059,162.36677029286284
13.9975,-0.555911452573905,1.3040946568805967,0.5020368059035147,0.0183139755683238,0.0197909869432022,0.0006461666722239,0.0074024827238712,-0.0040239277131671,0.0314254354450367,0.9994704909775712,-0.0726513471033383,0.110478978527463,9.815998181670095,-0.1857237747926319,-0.2081894599311994,-0.0137846559228931,1.112423166303019,0.1249797086553784,3.6744826927140943,1098.4782102190472,1118.1567183315688,1114.4888913600223,1088.5648650616906,417.9141921254008,353.64520161276903,-541.9244952805625,-317.98845935511014,162.36520506832994
14.0,-0.8118693589909428,1.3654726795166108,0.444441007027396,0.0168861876595645,0.0243246411794229,0.0011216445221042,0.0074066416521722,-0.0039921509248081,0.0314343001892811,0.9994702995024362,-0.0744118541225064,0.1128143809722462,9.812829952564062,-0.1858252023678572,-0.208371888678009,-0.0137659783328162,1.1119903071767268,0.1244284692077326,3.6744400062513303,1099.5241532364819,1118.941725798814,1112.9661646646643,1087.6880074443163,349.5866136663849,200.8261707077908,-529.3828451403585,-321.82165305150227,162.3632779773482
14.0025,-1.0338281465342432,1.3751088855725813,0.449881212649127,0.0158145025533554,0.0272118478598635,0.001607467134751,0.0074135630755695,-0.0039568838060458,0.0314475852427888,0.9994699575397354,-0.0764228113182386,0.1151201978261899,9.809492770605578,-0.1859305261735892,-0.2085449285753951,-0.0137579397112699,1.1115589298689943,0.1238794645473925,3.674395586361296,1100.2261432873788,1119.1608491851075,1111.8419771343213,1086.9557567964334,241.18027500245128,-9.25544357632899,-369.0096021951709,-274.40424540318674,162.3616327465959
14.005,-1.270120772585814,1.3687038074737938,0.5051117210007116,0.0147316546944668,0.0293316729304595,0.002254585951621,0.0074233308544458,-0.0039183843274607,0.031466152978621,0.9994694355707582,-0.0786607558204327,0.1173757278607528,9.806007096246685,-0.1860438503002064,-0.2087116665362367,-0.0137599518532308,1.111129367876158,0.1233330486644924,3.6743490885152994,1100.7300546114943,1118.8954485809325,1111.1211166536884,1086.3159862173004,163.3760231403102,-210.66739716226385,-188.13414516277376,-223.46848141229347,162.35994889970527
14.0075,-1.5467223444674911,1.3575404861782137,0.6109010607730884,0.0125843707649358,0.0316684954085965,0.0031094407987966,0.0074341038302812,-0.0038770944788714,0.0314889682302772,0.9994687783787064,-0.0810905331490242,0.1195306976925792,9.802395268527238,-0.1861684236248146,-0.2088756548159042,-0.013772122808077,1.1107013852546015,0.1227883771785725,3.6743008594531106,1101.0430234030805,1118.107512199296,1110.9013064085073,1085.8384143893716,53.4678907897266,-338.8635089457913,30.84258997856227,-96.84507001590752,162.35788691944933
14.01,-1.7309480836391795,1.3388320006027143,0.7110010853408631,0.0089810144339386,0.0340079822718956,0.0040317905966475,0.0074400705972099,-0.0038302662925576,0.0315133293217569,0.9994681257169192,-0.0837333280034074,0.1214669792688031,9.798681664322311,-0.1863063229636841,-0.2090404203591245,-0.0137976366176881,1.1102740928100316,0.1222437808739339,3.6742521878443934,1100.997394065443,1117.2011310362038,1111.2753296035812,1085.8317608672207,-97.97849922077437,-369.84739779330664,243.569492353534,108.01771026938826,162.35613699440293
14.0125,-1.8032021472711168,1.284153709385022,0.7880884749714895,0.0028604829236233,0.0372167919617288,0.005887325592215,0.0074347740125769,-0.0037717973048142,0.0315384036565767,0.9994675777046405,-0.0866689359441906,0.1230633767959118,9.794892207096135,-0.186459694883913,-0.2092080573256791,-0.0138415564125504,1.1098469621909028,0.1216977221573608,3.6742044882453886,1100.5531309069763,1116.2582752103292,1112.119153870275,1086.3785029407188,-303.3809621485924,-372.16445218854096,428.8904077009432,383.4263186443733,162.354358225732
14.015,-1.7033957010748684,1.138211373073257,0.8071130748598098,-0.0059208203970299,0.0419513112578664,0.0094840653957871,0.007413943207759,-0.0036985254744683,0.0315637583812504,0.9994671948787898,-0.0899121284951662,0.1242460729684235,9.791053854433306,-0.1866302134871859,-0.2093798591870307,-0.013907308525274,1.1094197425308532,0.1211497460824039,3.6741584187027856,1099.4804892546997,1115.3403087752608,1113.4197816420863,1087.7488924604431,-490.6077627985336,-274.24525246502526,478.101709476418,614.675068457504,162.35219561915187
14.0175,-1.4586976417806616,0.9293677649431674,0.735761385736699,-0.0122246377127485,0.0460527076327256,0.0129033968402724,0.0073804998845282,-0.0036181341730531,0.031589578164488,0.9994669185194996,-0.0932568632386051,0.1250803621072343,9.787194020396003,-0.1868193579104235,-0.2095565268270856,-0.0139914861607358,1.1089926279529263,0.1205997837581254,3.674113196842741,1098.1000920929844,1114.8870489480043,1114.5096624176567,1089.4518782830055,-655.8817058543295,-105.3816521203526,381.23456177780406,767.4321197555563,162.35037404130088
14.02,-1.0862927263309154,0.6280595530690928,0.5652718275650866,-0.0156653430674296,0.0492100998424868,0.015680190415196,0.0073394406769637,-0.0035385713969598,0.0316181652121999,0.9994666068016984,-0.0964889208663186,0.1256755580522938,9.783341342840679,-0.1870286689298579,-0.2097377203743585,-0.0140896500384377,1.108565963638982,0.1200482094137993,3.674067899714684,1096.2010807254287,1114.8134005146592,1115.325954450975,1091.58605305922,-842.8108189801651,25.334657165463472,248.026584457018,889.0780733660424,162.3485369181376
14.0225,-0.6576645001466699,0.2672611309142839,0.3239449533236228,-0.0165316599814472,0.0510647353326215,0.0174882543551421,0.0072930435697677,-0.0034641016772054,0.0316494997655729,0.9994662264923756,-0.0994682138972791,0.1260918710688966,9.77952608877528,-0.1872576803409495,-0.2099237900115756,-0.014199722776741,1.1081393245925408,0.119495869114251,3.6740222090715697,1093.8860379980829,1115.0137222338317,1115.749795339942,1093.8972686498366,-1016.1894932372207,120.83638789625113,55.986890665135775,915.1735351383584,162.34669016699223
14.025,-0.2149460282098847,-0.1288099088646902,0.025821741051554,-0.0150667120534523,0.0512410669794211,0.0181206311758894,0.007245191283882,-0.0033957331435583,0.0316802717894017,0.9994658497893254,-0.1021198838126396,0.1264231345396081,9.77577928908128,-0.187503432088032,-0.2101163761348509,-0.0143199745894266,1.1077116135439327,0.1189435530264858,3.6739763480424794,1091.1201332592418,1115.4175824541403,1115.6058889043006,1096.1619207349127,-1296.5662686995379,183.05937020876627,-184.5858724594476,921.2054822099631,162.3448355561579
14.0275,0.3012223584196413,-0.5910887122252013,-0.3519522575092267,-0.0129065196988866,0.049425697441611,0.017650659815262,0.0072028530933524,-0.0033315380087758,0.0317093735783416,0.9994654676624424,-0.104429227663548,0.1268244696840782,9.772132150199878,-0.1877627874863074,-0.210316373921227,-0.0144482908978791,1.1072819320470015,0.1183922855822476,3.673930169359424,1087.4032066545865,1115.929019084875,1114.8268659776447,1098.5032960608855,-1400.513511701146,162.6175938567231,-356.49913001292475,759.0864222525119,162.34260556124914
14.03,0.7255515078398063,-0.9305333425034568,-0.6484520972007085,-0.0121324119133821,0.046471989328936,0.0160616875854307,0.0071697850903618,-0.0032735133173532,0.0317363542855189,0.999465061008266,-0.1063133748144022,0.1273833253237049,9.768616598103987,-0.1880321416733708,-0.2105241288489558,-0.0145824180112111,1.1068496579568443,0.1178422213516616,3.6738838980261455,1084.1175657007348,1116.2306704234243,1113.8233932542355,1099.9573528461758,-1305.2857292865388,67.69016580841559,-423.4432536111647,454.16996541973447,162.34074673685663
14.0325,1.1631169258554663,-1.196203950012921,-0.8879271497204999,-0.0116923814386402,0.0428070645696835,0.0132204814489503,0.0071454173760266,-0.0032267305239553,0.0317592759682338,0.9994646786941728,-0.1076402204704252,0.1280967119444372,9.765265023965954,-0.1883067409711577,-0.2107399584725601,-0.0147207324759964,1.1064142763785558,0.117292076021615,3.673838393970852,1080.8767780081528,1116.2674699139175,1112.7096497095888,1100.7741458879843,-1346.6003503619454,-63.24318328471585,-456.599842638252,211.09244337512445,162.33889105434704
14.035,1.7024400000303563,-1.4231198668653584,-1.080253809974638,-0.0095660727148901,0.0383920657906336,0.0090617723049819,0.007133357816229,-0.0031939703514253,0.0317776261669581,0.9994643015164134,-0.1083290362267026,0.1290394456066578,9.762108524795032,-0.1885820612478064,-0.2109631432009003,-0.0148604257155184,1.1059759840999244,0.1167412208682658,3.6737930970222967,1077.3845639489264,1115.9144545070008,1111.5403940410447,1101.0128150630512,-1162.5719709746174,-199.7318596280308,-369.8370814404651,-21.15622319902707,162.33667181715958
14.0375,2.1382787495124878,-1.5422886264179603,-1.1547974749449679,-0.0057916691455275,0.0347737065872221,0.0054497295100266,0.0071385929341917,-0.0031717094987653,0.0317914063342699,0.9994639041874904,-0.1084309205931253,0.1303104959975041,9.75917647561194,-0.1888536478877885,-0.2111921304306728,-0.0150000720531211,1.1055351787177137,0.1161894039765393,3.673747448867672,1075.0639181532808,1115.2688106157775,1110.8604643023868,1100.6683647719894,-754.7927714747585,-324.0395838387888,-194.68655633701607,-221.23326694355637,162.33483130320784
14.04,2.509429021447876,-1.601919453285683,-1.1497478734917859,0.0001984895420876,0.0312664980753665,0.0022295832028439,0.0071642755695199,-0.0031557448323614,0.0318003251844395,0.9994634869484598,-0.1080209013098868,0.1319656335170227,9.75649654045717,-0.189117275516638,-0.2114247312065024,-0.015138949622807,1.1050925246973422,0.1156361249603699,3.6737006682524527,1073.6106000915522,1114.2942565878063,1110.5669612593597,1099.9066487283333,-415.4327452779204,-428.2075553668859,-56.32262730186114,-349.58994878228617,162.3330024291868
14.0425,2.7858980803147406,-1.6211018614529247,-1.0949439114243271,0.0074801245847875,0.0277402383577507,-0.0004797467431784,0.0072090925188258,-0.0031449264913638,0.0318033426192436,0.999463096387668,-0.107126278143162,0.1339630207000022,9.754094663856243,-0.1893691231839316,-0.2116582684004222,-0.0152768899019053,1.1046487779949048,0.115081382396351,3.673652097642407,1072.986754426891,1113.1277728389427,1110.5788511658775,1098.9204150280775,-48.371640792502674,-478.81842325396497,61.68002259465856,-423.99410743845937,162.3311846068565
14.045,2.908828913066686,-1.5980090884687412,-1.003463482540496,0.0153296970112774,0.0239177709318211,-0.0026181693466114,0.0072666143663129,-0.00313852366098,0.0317981622575932,0.9994628547428884,-0.1057775545686687,0.1361518827923436,9.751994688873104,-0.1896056230448592,-0.2118898760803799,-0.0154156729330074,1.1042040788902463,0.114524760171417,3.6736026639772654,1073.3687418875895,1111.9001644715372,1110.8753613723327,1097.7866781911412,370.7356886880744,-495.0147819169236,166.3013106231905,-513.4634451716578,162.32938128593818
14.0475,2.8478429238756684,-1.5268208526791711,-0.8774217089947711,0.0249009885415931,0.0189793152874543,-0.0045271141786969,0.0073277949378419,-0.0031340573216539,0.0317845669714444,0.9994628424003505,-0.1040478895512612,0.1383231263256767,9.750217658637235,-0.1898248903776985,-0.2121154962227874,-0.0155588633713808,1.1037583075324207,0.1139648255278022,3.673553700007405,1074.8404328703307,1110.6526989293586,1111.4103577189933,1096.35309780222,669.4721658047773,-371.0897063923642,202.91136973820824,-533.7771166817748,162.32723493245487
14.05,2.6154978220691207,-1.4377971501930773,-0.7706986948304257,0.0327207510298939,0.0148754067349549,-0.0056569376320783,0.0073888166379051,-0.0031269950135986,0.0317631997429695,0.9994630804076352,-0.1020526978036794,0.1403630267419693,9.748780400579907,-0.1900262816443624,-0.2123308938588446,-0.0157084816786261,1.103311973219839,0.1134013220949991,3.6735049477998074,1076.716102716614,1110.044715939575,1111.889918221024,1095.117792607732,828.0372992184836,-98.93509678179998,174.33309925870165,-507.25485858002946,162.32546116826222
14.0525,2.205021388173926,-1.333597961557994,-0.6637484051661726,0.0398285820674081,0.0112963702072763,-0.0069217395918233,0.0074485652906241,-0.0031157532018901,0.0317357921131055,0.9994635269817662,-0.0998522271368475,0.1422021764431302,9.747695698954601,-0.1902107263403109,-0.2125318899418383,-0.0158641596429286,1.1028658121997712,0.1128349121125285,3.673455980770908,1078.980619366424,1110.1580234454495,1112.2820232152867,1093.8168235093194,1020.03700867683,261.0832450768677,131.61622435743882,-597.3316274003815,162.32370249680835
14.055,1.5462826354880153,-1.2179089833751164,-0.5234730132273063,0.0464283571615022,0.0079223137730295,-0.0088941790468461,0.007504856405604,-0.0031033689064359,0.0317057326436123,0.9994640814467588,-0.0974199528947704,0.1437428825634926,9.746972633054392,-0.1903810061078163,-0.2127144249711905,-0.0160240854153878,1.1024210084612822,0.1122663891065122,3.673406909261753,1081.8162877599973,1111.3501321649592,1112.5479993428112,1092.1311344707308,1018.2387900679032,623.5160098734858,55.20192156722307,-642.5068833792371,162.32160850170007
14.0575,0.9046721490109352,-1.1492961332270593,-0.3867026136046489,0.0496685363645644,0.0059358528492399,-0.0105095472575542,0.0075552509342883,-0.0030958944962955,0.0316720156375698,0.9994647749722626,-0.0946722926406488,0.1448781303620029,9.746616256205652,-0.190538963121149,-0.2128772239307963,-0.0161851628775778,1.1019780977592553,0.1116961257246742,3.6733579544325226,1084.0718133167643,1113.2756034948175,1112.558032823123,1090.6042890924227,844.9031640358995,942.1388191364605,-40.43142627860384,-630.1196365417507,162.31987611881243
14.06,0.2316779777317456,-1.1243946897163883,-0.2238251181579564,0.0502837183270389,0.0044626280446119,-0.0117324320138796,0.0076004456293931,-0.0031001147901573,0.0316366595428632,0.99946551800015,-0.0915100555400821,0.1455625677965802,9.746626979039792,-0.1906882789994402,-0.2130193420954031,-0.0163423133129917,1.101537470960769,0.1111252875488407,3.673307987383601,1086.0408035801775,1116.0608262606422,1112.345842211418,1088.9805362880215,780.9139466786481,1356.2975966979564,-134.64758594662223,-713.8558112784777,162.31815542053073
14.0625,-0.5418388423653355,-1.1404939485555248,-0.0028039387037605,0.0483523384384598,0.0022586389527083,-0.0129747737442351,0.0076447311130166,-0.0031211743307142,0.0316041354648937,0.999466121725633,-0.087863981084896,0.1458259542617763,9.74700066242207,-0.1908337717865093,-0.213140540354517,-0.016489167909651,1.1010993184757922,0.1105552627092676,3.6732551081526257,1087.9763830501568,1120.057091478306,1111.88479489339,1087.035010036031,638.6166663324182,1503.5880169262136,-191.58759441810787,-687.7505882541304,162.3161023689403
14.065,-1.1203315775879787,-1.174128137250393,0.1902206228395742,0.0451779847148101,-0.0003803042016081,-0.0136111618435458,0.007688370527206,-0.0031585753128828,0.0315752424214003,0.9994665613372496,-0.0837776166087569,0.1456299785888101,9.74773043617651,-0.1909782164218826,-0.2132433504668101,-0.0166231018461475,1.1006629414748375,0.1099864427638061,3.673198906992031,1089.233886911839,1123.5787663452716,1111.3879042393276,1085.5417833467516,443.22642819054073,1354.7153745020908,-206.30879278916336,-538.2911606362154,162.31440000210384
14.0675,-1.6062645869655259,-1.1990755114906515,0.3640932538152854,0.0411301135226893,-0.003813889901029,-0.0131793305758774,0.0077320991454325,-0.0032061579621017,0.0315509931200074,0.9994668202273252,-0.0794054505621946,0.1449592731289652,9.748806952712089,-0.1911235980599891,-0.213331580931755,-0.0167436801766459,1.100227638283486,0.1094196054386794,3.673139722833167,1090.1925151911098,1126.8306683508174,1110.853250929444,1084.3435542328496,351.15244215288806,1191.1997120819208,-208.453649188563,-410.3880987781208,162.312704838571
14.07,-2.0104561835864057,-1.1971580406829456,0.4936285071200852,0.0367262728021149,-0.0077367871414839,-0.0115085325318081,0.00777999802304,-0.003258241863761,0.0315337826038367,0.9994668110297924,-0.0748924500183761,0.1438763751491968,9.75021901454685,-0.1912715348759046,-0.2134096825055756,-0.0168495580169773,1.0997927297641912,0.1088551766622622,3.6730783289331215,1090.9896491226036,1129.5347649056823,1110.3456359933848,1083.4898428528606,302.62109022720887,890.8714565490253,-182.6267870698211,-245.32159586592903,162.3110143894746
14.0725,-2.316580335767505,-1.1517120371924243,0.5386214149714809,0.0319142933413289,-0.011623227308957,-0.0085035363208198,0.007827911621984,-0.0033081130682142,0.0315234004927704,0.9994665944059856,-0.0704119229183527,0.1422989383214054,9.751956700076617,-0.1914213421541741,-0.2134835399285394,-0.0169444440160481,1.099356811122492,0.1082921035858008,3.6730165178483825,1091.7056206422455,1131.2850256335616,1109.9401169940952,1083.11694625352,319.37906065827076,509.5052959553072,-136.57495931049792,-52.284644419561126,162.30932805827248
14.075,-2.5677774641780404,-1.053521844921248,0.4799095885851296,0.025456074019427,-0.0152572833200227,-0.0042534441932458,0.007871827111619,-0.0033503448655783,0.0315206515875884,0.999466193986112,-0.0661163200685023,0.1401632072796613,9.754011094776512,-0.1915716399043723,-0.213559054098611,-0.0170327242386998,1.0989188257615123,0.1077300598501234,3.6729555147976978,1092.5865444258952,1132.0822913854593,1109.6627611968322,1083.2284196307628,334.58036062665315,73.9082206719443,-54.00265829829616,124.50132910042028,162.3073071831039
14.0775,-2.6721276513152663,-0.9506148336910928,0.3550694947235499,0.0193254354822239,-0.0172565924883092,-0.0015290123474234,0.0079166397277423,-0.0033887242177926,0.031524703767569,0.9994655805714,-0.0619783350783794,0.137590758333366,9.756373489905952,-0.1917196735837108,-0.2136431828879174,-0.0171126188532103,1.09847843609289,0.1071699994431172,3.6728952838941566,1093.378522445379,1131.6545667369214,1109.6701037026037,1083.7394528990224,324.8192451060468,-369.22206999323026,63.96269617904544,271.91892285669337,162.30562402880295
14.08,-2.6527199536006254,-0.8439373505681214,0.2065551038059813,0.0123858812026282,-0.0186189979342228,-0.0014107926492527,0.0079651500667211,-0.0034306781457584,0.0315317590889343,0.999464823815521,-0.0579068514075425,0.134677467004836,9.759037918877667,-0.1918608087838561,-0.2137437947698777,-0.0171828944327878,1.0980354452791652,0.106612453820537,3.6728364210625695,1094.2106406514251,1130.2361810354935,1109.9825746777271,1084.588014245046,354.5361764407767,-792.5035994983075,210.98685418227993,424.064812110412,162.30394052630925
14.0825,-2.473966171143428,-0.720367297997035,0.0766957196796732,0.0038334295127543,-0.0202105543024819,-0.0041049267926137,0.0080136980186142,-0.0034802652864267,0.031540475025948,0.999463980408942,-0.0538864980313556,0.1314117559197269,9.762002406452153,-0.1919908881140638,-0.2138670704121538,-0.0172471603350339,1.0975901367382908,0.1060569119771087,3.6727800077648896,1095.1512033275826,1127.6920487394307,1110.7250379735149,1085.859776959574,312.57311260351,-1019.570469871746,325.98313351886094,488.589502311348,162.3019189117814
14.085,-2.1974387965884303,-0.6183015106131041,0.0416633606900754,-0.0028159139409224,-0.021673701792908,-0.0068036794157427,0.0080536215001108,-0.0035389778624775,0.0315506816816028,0.9994631219286948,-0.0499608573800329,0.1277006375752586,9.765268355792895,-0.1921060155617394,-0.2140176323655326,-0.0173125916750384,1.0971426065839236,0.1055026307151154,3.672727689391364,1095.7735062144427,1125.138328686134,1111.612490345322,1087.0309617566031,186.6345995439296,-1046.7201959480187,390.49686086253394,471.20924521534016,162.3002326638242
14.0875,-1.8078653509914009,-0.5081155768378021,0.0759669361015965,-0.0084311634313352,-0.0232537008548382,-0.0078457480120239,0.0080769686929256,-0.0036052822356034,0.0315599896951415,0.9994623979380064,-0.046236894957512,0.1234790132938498,9.768838800378905,-0.1922013817742377,-0.2141997235019459,-0.0173870427145145,1.0966923037317042,0.1049485916571553,3.6726807321045594,1096.0843763253024,1122.4584477596895,1112.6775222778278,1088.215823185651,55.609297696139194,-1050.440863812473,434.82655385623286,465.2470061444108,162.29854473395778
14.09,-1.3510733785915672,-0.3847555944270828,0.1363287620924489,-0.0126330902824373,-0.0248789126366285,-0.0070731490193416,0.0080829708585587,-0.0036749511237904,0.0315638920056231,0.9994619771489668,-0.0428727705339086,0.1188330485626176,9.772716051170637,-0.192271654998624,-0.2144172021197508,-0.0174753296100523,1.0962386772830284,0.1043929448303676,3.672638363642328,1096.0515527029236,1119.8861243670726,1113.7866231146027,1089.3571967873247,-104.85698599607711,-966.0319149841907,429.49263111288576,438.6744732662688,162.296855685719
14.0925,-0.854446282792832,-0.2437984874063589,0.1851291547054559,-0.0145469549618561,-0.0263582877093538,-0.0046755639945164,0.0080748844750348,-0.0037368478421785,0.031560049917977,0.999461948028722,-0.040160039429158,0.1139379244761093,9.776900549852854,-0.1923130828069964,-0.2146718017418044,-0.0175814047570294,1.095781746781903,0.1038340383129573,3.672598175961779,1095.560091395322,1117.628288184768,1114.8249854333926,1090.4091955519827,-314.58594114701185,-896.0295790800918,417.52556477270286,438.74754976388846,162.29516601288285
14.095,-0.2614213489846182,-0.0649631903932059,0.201485209723509,-0.0146688868273392,-0.027410388506039,-0.0017939058338887,0.0080633702108412,-0.0037894170424661,0.0315492483489857,0.99946219777832,-0.0381966576461718,0.1091103016067182,9.781386397127124,-0.1923250224025827,-0.2149630467926568,-0.0177001771605111,1.0953226492930908,0.1032720739505147,3.672557420464993,1094.4786229971883,1115.4059764716715,1115.8742509384665,1091.5509345361445,-459.8896622860144,-731.6501375507505,344.13531329266806,398.2101526250855,162.29313910948073
14.0975,0.2081752146905503,0.0754746567753346,0.1869841088272557,-0.0140114326539356,-0.0274040906753812,-0.0007501363813183,0.0080566384025792,-0.0038325840998108,0.0315322722180818,0.9994626293302126,-0.0370476971064079,0.1046174228153374,9.786160293880734,-0.1923087169791118,-0.2152894682271825,-0.0178246594830088,1.0948630350994892,0.102707850728095,3.6725134293898822,1093.2606430838923,1113.970037497015,1116.5456619998556,1092.4002463151076,-520.083151199982,-499.87134170611114,224.75143509595833,316.8573894446302,162.291452064459
14.1,0.6427389923869244,0.182931700235072,0.1730114999046993,-0.013482406341157,-0.026480809252432,-0.0012497662830828,0.0080572551406992,-0.0038674173356695,0.0315104461549476,0.999463173078369,-0.0367503310187234,0.1006113194620211,9.79119899982988,-0.1922677415523917,-0.2156485548355296,-0.0179477393700203,1.0944046809632575,0.1021428503097132,3.6724640781213034,1091.8782072411889,1112.9066197631414,1116.998008113946,1093.135221483367,-602.7065028052641,-404.7526340372137,148.38345991995493,288.51294865266976,162.28976962109436
14.1025,1.1150724114522874,0.2523003443328518,0.1878778750301437,-0.0123160094857936,-0.0247067710373835,-0.0023808475038673,0.0080625327107883,-0.0038964455343811,0.0314870647342731,0.9994637363813156,-0.0373039315316404,0.0971327467894409,9.796466928267016,-0.1922086055256983,-0.216036333286051,-0.0180624975236146,1.0939491415232867,0.1015780750150258,3.67240857228238,1090.2471105698655,1111.9462743268286,1117.2875792994555,1093.8428110583711,-562.8360815901517,-316.8208860866303,62.206584792046954,218.18241022621123,162.28775998674655
14.105,1.4494357047514292,0.2557857653050742,0.2330348448357004,-0.0099777239011395,-0.0231111256536874,-0.0029011206952028,0.0080671251948173,-0.0039245921173023,0.0314594911511533,0.9994644256586954,-0.0386461866593488,0.0941584663122483,9.8019145247917,-0.1921371040021279,-0.2164504504765495,-0.0181615344269208,1.0934968401653529,0.1010136694074079,3.672347289209621,1089.0640268332377,1111.322515332708,1117.3090410379064,1094.2261335344983,-405.9921030067824,-229.99710843519125,-39.733096597373056,90.35357511722374,162.28609667985492
14.1075,1.6848809140591248,0.2136168578417547,0.299762152888329,-0.0059683392769962,-0.0219140183792334,-0.0023698607198276,0.0080716644280162,-0.003962382331037,0.0314224796217147,0.99946535674868,-0.0405823304330545,0.0917655548125314,9.807477355684771,-0.1920594332198904,-0.2168890645298613,-0.0182328223542454,1.0930478285075746,0.1004498466901845,3.6722808607688737,1088.217150054832,1110.7962887846527,1117.0889138164687,1094.2945789339572,-270.5851864395383,-222.82729873831957,-151.01401319837626,-65.73775841958593,162.2844504201704
14.11,1.8049373972987977,0.1398089839388505,0.3784454773757041,0.0006590291583357,-0.021193192766594,-0.0007235007182733,0.0080692682367992,-0.0040215258198084,0.0313747149872933,0.9994665770977904,-0.0428787369626067,0.0898672135149334,9.813078696462327,-0.1919843659085511,-0.2173476740380605,-0.0182681560080338,1.09260259833163,0.0998855706540603,3.672210618982627,1087.7111009010403,1110.2083788390166,1116.5539709719146,1093.8974447424007,-91.91878187619677,-215.02221206943707,-234.20929852410129,-235.5035950900488,162.28250180167507
14.1125,1.7454181598059808,0.0862942945829492,0.4269252205940314,0.0071541341825528,-0.0211594890902104,0.0009724079687062,0.0080483468619898,-0.0041102615760645,0.0313143989748535,0.9994682031023228,-0.0453514063979656,0.0882685296315486,9.818631952191796,-0.191920626800692,-0.2178208435507937,-0.0182642984900685,1.0921615658444164,0.0993187286531518,3.6721385283097776,1087.7575561454507,1109.7211777243056,1115.917867323848,1093.1170609585067,114.04557719577532,-199.32569902281625,-279.3197312598768,-402.9816581741495,162.28090632895896
14.115,1.521388001933544,0.0730608768481618,0.4496867142035186,0.0130026738994462,-0.021514155578789,0.0024301457830798,0.0080047493232822,-0.0042273346161668,0.0312397060777891,0.999470330066483,-0.047977431337152,0.0869071130490328,9.824043604994305,-0.1918762548300291,-0.2183026334638207,-0.0182202139379898,1.0917251424474694,0.0987483476693999,3.672064819457927,1088.2813287870192,1109.2117503439024,1115.157372315615,1091.8825364515296,278.1570176147951,-208.43648882600567,-312.28104795406426,-554.7229667384465,162.2793482275168
14.1175,1.188306628998385,0.1124489498125115,0.4526536652755279,0.0174103488922245,-0.0219242636302365,0.0033702564837096,0.0079402174690272,-0.0043658246638196,0.0311525524290641,0.9994729156871844,-0.050823226171678,0.0858201255236374,9.829216600165557,-0.1918597723710481,-0.2187854085918244,-0.018136572235366,1.0912933335101735,0.0981741761966907,3.6719909688461736,1089.1483412335247,1108.6789952801755,1114.356462084078,1090.3434461248153,406.8134533638659,-214.1695323132928,-317.74003402269534,-658.262755649036,162.2778273141745
14.12,0.780190204042054,0.2297523121372932,0.435682538981439,0.019809476720142,-0.0220940538522649,0.0039980764393616,0.0078624655804929,-0.0045177028759524,0.0310570810718339,0.9994758080095248,-0.0539576261735265,0.0851436140763543,9.834053988558136,-0.1918790650677726,-0.2192608217955089,-0.0180141254883547,1.0908655943528975,0.0975967154366875,3.671917952181551,1090.3153960538389,1108.1409026823355,1113.5686721455013,1088.591222673284,544.9423237717441,-222.50760089628943,-334.4111245539284,-771.3368464804873,162.27635807121217
14.1225,0.2870035399370985,0.4674827947582259,0.3914078314262383,0.0204501725305458,-0.021976814641475,0.0050305793603895,0.0077721278262575,-0.0046649682000822,0.0309616309176296,0.9994788245749564,-0.0576378249291381,0.0848625699210569,9.838464247371485,-0.1919413119203129,-0.2197190185898137,-0.0178628129521032,1.0904396008898696,0.0970148644691414,3.6718477460383054,1091.8730528523838,1107.566457275694,1112.684406461308,1086.4867618924122,567.9941262172854,-181.45214863219704,-312.2970837633314,-736.9606693160323,162.2746621566847
14.125,-0.0707217685403432,0.7422621326729555,0.3300270542223708,0.0192975024643683,-0.0215503461959806,0.0062264352699256,0.0076691262200959,-0.004786697231909,0.0308783544693983,0.999481686254603,-0.0621709413841198,0.084933517179324,9.842363987577944,-0.192052729885829,-0.2201494472125878,-0.01769604301208,1.0900120736012675,0.0964277788284564,3.671783319067536,1093.1553666849247,1107.2336419391747,1112.0071867266847,1084.9064193267045,479.3518262297356,-79.32122395933888,-260.9658433637897,-563.7312935054737,162.27330930498914
14.1275,-0.3248008562714675,1.0774756600836564,0.2395033592554365,0.0168589972262054,-0.0204554007354521,0.0076772640424203,0.0075593683468845,-0.0048753333671287,0.0308138205808059,0.9994841755946494,-0.0675924139218057,0.0854087527304228,9.845679900655602,-0.1922150559388277,-0.2205451741348847,-0.0175210387977885,1.0895808767614616,0.0958369305708904,3.6717247863371014,1094.269811983532,1107.1698511558975,1111.3795772444892,1083.6681054248854,428.7154851577509,57.64237296783912,-270.9019269238556,-445.9438357617031,162.27202326686108
14.13,-0.489718829871654,1.5054001883588186,0.1045159867479756,0.0133009802730484,-0.0177528960698621,0.0091463863704514,0.0074560410663354,-0.0049315259870255,0.0307658549097123,0.9994862513834863,-0.0737701079204654,0.0864677895548428,9.848352072903545,-0.192424256280719,-0.2209046220976974,-0.0173393284980171,1.089144532110292,0.095244693156737,3.671671448631853,1095.2989441107138,1107.521853804014,1110.6526770920655,1082.6767001478956,318.83231527144306,210.10686205842276,-267.2157010870288,-278.5699465078343,162.27056060290673
14.1325,-0.5234901733274484,1.837473675735622,-0.0132285436112227,0.0106887254276946,-0.013881035830302,0.0093389634942617,0.0073720579967689,-0.0049583075964206,0.0307314374992371,0.9994878934040607,-0.0805279887396933,0.0882756926090255,9.850336652455997,-0.1926743640200926,-0.2212284674796467,-0.0171515245312958,1.0887023563698872,0.0946535850387384,3.67162226501284,1095.8639735598895,1108.2203854661896,1110.043498739054,1082.275255692346,166.053130927445,361.5828688826506,-248.76288263767887,-79.53466751143186,162.26941039529035
14.135,-0.493383680591427,2.081824775814565,-0.1090432517079568,0.0094623860596378,-0.0080892114378813,0.0081697884433275,0.007309095183032,-0.0049591766690345,0.030709850032016,0.999489092229538,-0.0876939476311555,0.0907718295750714,9.851607438081007,-0.1929595389773386,-0.2215178845996008,-0.0169623928609343,1.0882549307057807,0.0940649108518088,3.6715745839904246,1096.1292097653509,1109.329768148427,1109.4088626788773,1082.2790268103383,54.66962066642791,562.1312992072975,-285.0093724699954,81.6302606122335,162.26833218147027
14.1375,-0.4486408181059531,2.2122821193342634,-0.176830068415562,0.009794576545521,0.0004947966901346,0.0062908419349653,0.0072626702646378,-0.0049388327426767,0.0306999033776191,0.9994898942416048,-0.0950843483323098,0.0937724538913085,9.852155911593444,-0.1932735800592472,-0.2217753917881479,-0.016777946021187,1.087803598087078,0.0934783473725279,3.67152651006173,1096.1373216632217,1111.0310419622267,1108.6184518767038,1082.6834069954073,-42.68395963712707,659.3152534419338,-289.70522688778163,204.815420701302,162.26712130177185
14.14,-0.4417304694697464,2.1625256485655036,-0.1938929665869305,0.0107992134474078,0.0080250508217078,0.0052342402642111,0.0072312110460842,-0.0049040031954667,0.0307005911180677,0.9994903095780376,-0.1024839019715512,0.0971518893170126,9.851990358464382,-0.1936107918085924,-0.2220044390238766,-0.0166009797154976,1.0873502345520154,0.0928937725409223,3.6714773282008286,1095.9157899671652,1112.6263444156373,1107.960336544438,1083.3031039138452,-129.15175294758978,636.0323533464808,-252.1025793284072,294.525095795247,162.26618104231335
14.1425,-0.4817711330327917,1.957230321942748,-0.1853721342051095,0.0112020632398142,0.0145414126163337,0.0050485073135823,0.0072116394421677,-0.0048555028195241,0.030708880881338,0.9994904501788544,-0.109805383108562,0.1007626997019839,9.85113486531975,-0.1939650394103092,-0.2222096951625975,-0.0164362020520184,1.086896083543557,0.092310703173616,3.6714277888568234,1095.4915628984838,1114.2112037289585,1107.357938980062,1084.1560324743832,-197.1051376529823,602.3495013613062,-221.86179855975615,368.77349768386074,162.26531192182338
14.145,-0.549327637915829,1.6546898641150432,-0.1699330652856689,0.0104647722703188,0.019579833435752,0.0053111450895463,0.0071982379745191,-0.0047926952495076,0.0307194733486447,0.999490524978732,-0.1170025699749958,0.1044125989649993,9.84962773051687,-0.1943299029556982,-0.2223967254904964,-0.0162892799477366,1.086441432915232,0.0917286942635441,3.6713781888838226,1094.9302642789005,1115.6380919224432,1106.8510275516396,1085.146971402264,-246.4300887549213,502.6789534910346,-170.40305791089915,411.0831858889736,162.2645016910942
14.1475,-0.6211454719722351,1.2906602706680557,-0.1563275114644918,0.0084695962647183,0.0226612621100569,0.0055579069678377,0.0071836301312705,-0.004716003018249,0.0307272521455682,0.9994907455428512,-0.1240198902294405,0.1078840902676306,9.847519754613945,-0.1946998250302781,-0.2225707963461339,-0.0161655767804406,1.0859861364147019,0.0911464882332694,3.6713284160493767,1094.259412454709,1116.724598496414,1106.5059236905074,1086.2114484038284,-301.11930338571096,375.7881172780666,-110.77382684600792,456.09009856591143,162.26376247483873
14.15,-0.6774119158875209,0.8559651538742021,-0.1423375978064117,0.0053078695083094,0.0242418982801626,0.0053564001080639,0.0071626618691409,-0.0046277790987772,0.0307284367333495,0.99949125809433,-0.1307720028697366,0.1110116580424454,9.844872140096406,-0.1950706052490633,-0.2227364155037462,-0.0160681344691172,1.0855297407068483,0.090562870043559,3.671278688078587,1093.4246677619717,1117.5170325088338,1106.2971584174095,1087.427421895094,-295.55138930274063,201.4245313669963,-46.895154603007775,415.1970436986546,162.26295768237435
14.1525,-0.685798186521722,0.5372077224113632,-0.1269402703453441,0.0027159624182376,0.0243510770645117,0.0047901840516486,0.0071342786979928,-0.0045349170124101,0.0307233149962312,0.9994920322054378,-0.1370901522011326,0.1137182514032997,9.84175457496084,-0.1954407059787042,-0.2228963366597848,-0.0159958869225671,1.085072315304584,0.0899779914592993,3.6712290456649286,1092.7816555081956,1117.7317211532488,1106.2714479174924,1088.2874336223213,-231.37095653324667,2.8507165730839095,8.442471311353573,297.0468870807044,162.2623558279224
14.155,-0.6554247512447539,0.2893710015702689,-0.1012915374730804,0.000694335711155,0.0240810380461954,0.0042602224448705,0.0071036428131265,-0.0044449386772736,0.0307125975878945,0.999492976809812,-0.142796344660813,0.1160588460001962,9.83824275365375,-0.1958095172909114,-0.2230531627746053,-0.0159441818368837,1.0846139465115647,0.0893924346398585,3.6711798194369423,1092.2678129793053,1117.5312860916993,1106.3393707739663,1088.9126563304978,-189.4667067595196,-163.30546503074575,35.38645326452198,221.65923808535072,162.26182584611965
14.1575,-0.5902521379137343,0.0741655355360964,-0.0564203492896927,-0.0011033428991839,0.0238013985920736,0.003936973418563,0.00707776868499,-0.0043644037266293,0.0306996842563584,0.9994939107958936,-0.1477359489091452,0.118135618390235,9.834416555432911,-0.1961783328084643,-0.2232083856145944,-0.015907377362794,1.0841550276413938,0.0888067958296338,3.671131023132719,1091.8343219743979,1116.9151938280947,1106.448380183815,1089.395729812748,-132.37787793953336,-273.3840824512843,35.95878215852087,145.4070826614332,162.26127368593183
14.16,-0.5268975864448296,-0.0497679198097621,-0.0079787817159207,-0.0020013791305939,0.0236384424511101,0.0037452835259606,0.0070628126154773,-0.0042982758393032,0.0306894960512327,0.9994946202399024,-0.1517903453838735,0.1200442880936654,9.830358290097411,-0.1965497780464315,-0.2233627339237487,-0.0158803171608215,1.0836963957211652,0.0882221413183151,3.671081476314648,1091.6059235896075,1116.164365679443,1106.5191646847588,1089.6396917438049,-78.17871769299664,-337.37278012451844,21.44356628587474,89.5595355684869,162.2608840646263
14.1625,-0.4682346956244402,-0.1388278056665872,0.0495346561037166,-0.0024829630026064,0.0236186468244998,0.0034489397248703,0.0070597692911771,-0.0042502292165131,0.0306822898089329,0.999495074575328,-0.154872150400054,0.1217873242692059,9.826151433729251,-0.1969249379358947,-0.223518344015458,-0.0158602551516079,1.083238126341323,0.0876380804303626,3.6710306767958594,1091.4434283859327,1115.2283299274727,1106.5555980152444,1089.8435274905903,-69.92977184157824,-401.0296519518134,13.157925961693524,95.83767176016728,162.2605685842409
14.165,-0.4169527097049268,-0.2160475428972936,0.1100245484569204,-0.0027677411937509,0.0236534149975042,0.0031640829640549,0.0070706435753303,-0.0042239233895165,0.0306807191000717,0.9994951623741882,-0.1568957607386141,0.1233949385708769,9.821878566913345,-0.1973063505398372,-0.2236760341909203,-0.0158437243035862,1.0827805947780895,0.0870542666130906,3.6709782231908967,1091.2562747303998,1114.1592174196835,1106.5849543145673,1090.1188801026055,-101.84247051782448,-457.0782942837663,21.711914908925127,149.06275145055983,162.26031541068235
14.1675,-0.3675047477530954,-0.2945381002145176,0.1623825046227766,-0.0030108351791202,0.0234868231544361,0.0031131518943161,0.0070958446976995,-0.0042224502103494,0.0306846054404444,0.9994948738925112,-0.1577891899553973,0.1248719827162687,9.817620246144365,-0.1976954163193528,-0.2238371528464734,-0.0158281626979496,1.0823238826152828,0.0864709297733207,3.670925172894592,1090.9342160333435,1112.9429384560535,1106.664157589789,1090.5888412478434,-195.38263950607208,-560.3578958706045,67.41961741905902,268.2463218054715,162.26013851020048
14.17,-0.2869634672825236,-0.401338722213944,0.1924459482521539,-0.0037094507003698,0.0228857759480368,0.0035070819601254,0.0071313742353313,-0.0042477272978037,0.0306895684892059,0.9994943648805747,-0.1575076067914107,0.1261416534665616,9.81345412290439,-0.1980914986911133,-0.2240039339423478,-0.0158135977627277,1.08186753832098,0.0858875715869366,3.67087337884192,1090.2793615328696,1111.3574279403313,1106.9220524016623,1091.4601117116329,-293.48758068910155,-587.6196645729838,139.76473489954563,371.7821428287437,162.2600160694869
14.1725,-0.1788284505781746,-0.5034348731970275,0.169635476549044,-0.0047287149892746,0.0221007690341565,0.0044640609716411,0.0071718914228175,-0.0042964891364557,0.0306935133681946,0.9994937523750111,-0.1561105424713454,0.1271084066440693,9.809453106449677,-0.1984944401848159,-0.2241769744227408,-0.0158027509789194,1.0814114293576276,0.085303440078363,3.670822975328478,1089.4667781298983,1110.0048401331892,1107.3629812642866,1092.4477519619868,-378.47119345231926,-519.2993891419162,244.9457433286242,437.8027674341636,162.25999025161607
14.175,-0.0023161827539164,-0.6170582028822407,0.0761575840095812,-0.005858476485939,0.0211388149761555,0.0060790557907332,0.0072139366285407,-0.0043577314057167,0.0306974692284573,0.9994930750853462,-0.1538106248261261,0.1277218175019561,9.805683911340628,-0.1989046488083732,-0.2243550075690453,-0.0158003833870771,1.0809553627643107,0.0847179005602066,3.6707729876178368,1088.3870055656075,1108.7609309946213,1108.1467811183059,1093.649125548804,-520.715641337038,-482.8245399801444,442.28434593089696,553.0998106324704,162.26004531398164
14.1775,0.304016625500744,-0.7571629353044785,-0.1224445895643983,-0.0066647451267241,0.0196537110980508,0.0080068562398304,0.0072544620227304,-0.0044217209009475,0.0307008382579911,0.9994924137300508,-0.1507987457739864,0.1279403624147252,9.802207878645433,-0.1993211210515722,-0.2245368029878915,-0.0158103946488849,1.0804987849864705,0.0841301335808872,3.670722383520949,1086.8631999232127,1107.590717433288,1109.5744029939415,1095.2132510151496,-579.6362357566766,-350.10671225343367,607.2035346524743,572.8683942071033,162.2602069162189
14.18,0.6356348158511407,-0.8644636438503172,-0.342290722658217,-0.006304234158297,0.0179313718502748,0.0085313681748285,0.007292954922456,-0.0044824676283094,0.0307006188160465,0.9994918890073716,-0.1471958718743738,0.1277707871101357,9.799080469823007,-0.1997410751467481,-0.224721756476343,-0.0158338690887523,1.080040918017637,0.0835394037896739,3.6706711264388967,1085.4888243868247,1107.0103974333545,1111.1827987915676,1096.5134675198387,-549.7311768030663,-132.70374726387416,715.8445914057911,495.8873157658807,162.26042214780756
14.1825,1.0290189026872019,-0.9419127538226294,-0.5747619537005939,-0.0045280052451952,0.0155009595346625,0.0070513734785992,0.0073300797346863,-0.0045382074787147,0.0306933563275499,0.999491608747551,-0.1430461465606587,0.1272413974962748,9.79635090825148,-0.2001608463988332,-0.2249093896157894,-0.0158695500664575,1.0795811369445227,0.0829455330452876,3.67061975063626,1084.1145440391972,1106.9271986969686,1113.1536259509708,1097.6926875939791,-581.1785582644462,78.56798416640822,913.1435217003792,468.42818611000394,162.2607211529118
14.185,1.5420494805485543,-0.9778892834494086,-0.8104061464467102,-0.0009701278330784,0.0119065407180534,0.0036066179825986,0.0073643705506107,-0.0045866869930754,0.0306774968568738,0.9994916407031692,-0.1384129312633718,0.1263408017048873,9.794061583155194,-0.2005768891399752,-0.2250986927052,-0.015917204539553,1.079119471328248,0.0823487742616192,3.670568109456231,1082.5829315955023,1107.4032373541863,1115.7485164000702,1098.8556084503891,-526.0900830043421,259.2468514804356,952.594248493377,371.0400456769832,162.261175621231
14.1875,1.9791360572794072,-0.9508740141950026,-0.9396952684597688,0.0031370925098745,0.0088224982911572,0.0003691533792481,0.0073943965147504,-0.0046253164717869,0.0306532800641098,0.9994919992353322,-0.1333759672404953,0.1250607792108935,9.792247512102598,-0.2009858816447821,-0.2252885971771182,-0.0159765746569278,1.0786563434915195,0.0817500991578483,3.6705155693130367,1081.484093624176,1108.2234329543703,1117.9165971934367,1099.547887822364,-383.6652241365609,394.7141480021276,820.3463442925837,206.11742893961045,162.26163227255773
14.19,2.395801761925924,-0.8658547945794905,-0.9826115010527968,0.0084951618512606,0.0060356673212313,-0.0027347872531501,0.0074198040469039,-0.0046545548748105,0.0306230416659147,0.999492612278601,-0.1279657703784334,0.123415523943116,9.790936296971312,-0.2013850988241761,-0.2254781397408827,-0.0160456391526673,1.078192170905545,0.0811510492763588,3.6704613680869222,1080.6646054748198,1109.3768080941968,1119.8502481215323,1099.8861955950872,-266.4664323407616,499.1455663272192,702.0082428832025,68.42673351283177,162.26216657686308
14.1925,2.7731574109051684,-0.742492457799638,-0.9540021668666072,0.0147642839028544,0.0036786264398547,-0.0056456827071031,0.0074403217035029,-0.004675085152316,0.0305912503401328,0.999493340136361,-0.1222205201444902,0.121424830033979,9.790147837753592,-0.2017723862840138,-0.2256665195271735,-0.0161223085937708,1.077726932530421,0.0805523047328145,3.6704058144563456,1080.151761462472,1110.719160786007,1121.4266384078535,1099.890021489928,-113.2643980560538,563.0016111346806,516.6050551096407,-86.02671869974547,162.26276203931806
14.195,3.0778020421920615,-0.5925974548180055,-0.8499514216023974,0.021840120475862,0.0021615985689616,-0.0081645049385864,0.0074598515536271,-0.0046858561884885,0.030559789431381,0.9994940978005176,-0.1162223422425315,0.119195647119143,9.789893811031106,-0.2021439841534564,-0.2258550957283735,-0.0162034676261182,1.0772597194020315,0.0799537535062539,3.6703494124195126,1080.0982834845395,1112.1918161498706,1122.4332733970807,1099.4560620015884,99.96511973874647,655.9594507770665,296.1214454611897,-294.7379194119226,162.2634263393483
14.1975,3.3284524655791587,-0.4103375852931893,-0.6608803453312128,0.0310005628401079,0.0012970208497196,-0.010547623342502,0.007488115813753,-0.0046848281476673,0.0305327485517182,0.9994946921671568,-0.1100818959559409,0.1169556253437238,9.790177830397065,-0.2024967988523519,-0.2260454017257346,-0.0162840529097099,1.0767900182909735,0.0793555515597993,3.670292525374717,1080.6515870611656,1113.9989580398917,1122.9072456351591,1098.4163318928688,309.0942116477862,655.1123245132543,55.6870011634059,-462.86949390948433,162.2642956536829
14.2,3.419200954149263,-0.2732522047675704,-0.4704227263622919,0.0391395386449545,0.0011102114896514,-0.0117301144267979,0.00753444718637,-0.0046717243880551,0.0305164476128748,0.999494855990368,-0.1038877649418092,0.1149305985431625,9.790996473844812,-0.2028287053629133,-0.2262387773512673,-0.0163589065594807,1.0763180293913923,0.0787576305478912,3.6702363838199537,1081.6437545427787,1115.4673777724374,1122.711708402898,1097.1417145320406,494.8717478328171,565.0503068137393,-181.83991855482304,-578.315647607497,162.26507449432452
14.2025,3.361244492295324,-0.1621114326102229,-0.2701673098965124,0.0479317018518371,0.0010050394033936,-0.0119909870641537,0.0076033027430148,-0.0046465044614485,0.0305158824406624,0.9994943971808414,-0.097737726271089,0.1132575545794664,9.792339666105674,-0.203137113580983,-0.2264375178414377,-0.0164253855803094,1.0758437948081188,0.0781599967001965,3.670181825937732,1083.12594580033,1116.8242095739608,1121.9980460423849,1095.5247536548309,729.2732569209961,557.926471220273,-401.2119538583991,-757.8827968718684,162.26590310951087
14.205,3.0979691013795465,-0.0600705969497476,-0.0383991590176025,0.0587765466276394,0.0007086832480709,-0.0119703993097934,0.0076947404410898,-0.0046052108654864,0.0305359608457838,0.9994931766592692,-0.0918179528114735,0.1119964101053935,9.794190499959244,-0.2034195976043539,-0.2266442501091729,-0.016484580792822,1.0753670407334444,0.0775638820916436,3.6701283911688543,1085.290120827383,1118.2570101285382,1120.7056486336064,1093.352300547682,819.4483191306782,485.55374920020415,-519.5527662133496,-804.3274708315275,162.2669474282014
14.2075,2.715398911256772,0.0007245169233926,0.1401387255551646,0.0671799914557806,0.0004476416734172,-0.0120610839501323,0.0078115417465011,-0.0045463042109405,0.0305824939620312,0.9994909968232966,-0.0862723018225778,0.1112648933658005,9.796524508261475,-0.2036748124326604,-0.226861496359295,-0.0165352935986369,1.0748875771056925,0.0769702541289509,3.6700755813139967,1087.2231873959827,1119.2519783199612,1119.4002822113187,1091.503116300674,747.6879879243111,350.7796320516624,-537.174479027142,-708.177257877813,162.26785396426922
14.21,2.18423144851614,0.0370425243293764,0.2962098510535233,0.074080629070101,0.0003177373899667,-0.0121296531608644,0.0079593156744184,-0.0044706097633133,0.0306579970642235,0.9994877309205796,-0.0811998482590356,0.1112387991108333,9.799309230857958,-0.2039008709690058,-0.2270929775563553,-0.0165738129404098,1.074405316218818,0.0763797841072468,3.6700234091072006,1089.028560767005,1120.0109082887968,1118.0197762384703,1089.8114142582924,664.0420319909352,262.46357091322795,-542.7020559120654,-624.3741013681689,162.26879188961408
14.2125,1.5613072001119697,0.0512260180343075,0.4234601561660332,0.0793293839830764,0.0003564262104667,-0.0118359703196959,0.0081404240715722,-0.0043815799149354,0.0307587380214255,0.999483459968486,-0.076649325532061,0.1120306329278633,9.802504247094486,-0.2040943265690719,-0.227344062858721,-0.0165964915252785,1.0739199880116344,0.0757928398213421,3.669972137035397,1090.5433975559379,1120.5642961745275,1116.686771931758,1088.3812457938327,503.94739328972736,173.2308453511795,-500.24825790361274,-488.6052863696085,162.26975128687127
14.215,0.8793077134967991,0.0346004968535705,0.4950450848629448,0.081982519716888,0.0006301764051453,-0.0105041711542803,0.0083508871601988,-0.0042874491877575,0.0308788571671869,0.9994783636511364,-0.0725747011215706,0.1136250775231131,9.8060608870108,-0.2042524607864356,-0.2276193411434869,-0.0166002159135186,1.073431975611947,0.0752088850593222,3.6699208185997696,1091.5482977334532,1120.8770625155523,1115.5185349489527,1087.3683878264449,308.6363597242297,89.12667290972848,-455.81768186068234,-342.959727544886,162.27073119290847
14.2175,0.0628751977821539,-0.024992181251638,0.4872628795761323,0.0819857919301912,0.0012080860238274,-0.0077700903994422,0.0085750968477297,-0.0041965336680996,0.0310044766548639,0.9994729652046546,-0.0689256844819801,0.1157741577154355,9.80992268449488,-0.2043707617769653,-0.2279242456865635,-0.0165866683550439,1.0729424065354116,0.0746259032509045,3.6698688487558977,1092.0865793545593,1121.0099295390764,1114.407683522454,1086.666447156108,95.2384720205224,17.085754143588076,-349.67120007135225,-181.82800035653483,162.27192404691183
14.22,-0.5740340386317598,-0.1061586099228319,0.3906778770935733,0.0800386725523904,0.00180292443355,-0.0053374885763625,0.0087908856860755,-0.0041184814215174,0.0311177539330044,0.999467961541596,-0.0656160703704666,0.1180919436234676,9.814025110051055,-0.204445030733424,-0.2282631454763216,-0.0165595435409212,1.0724533836706882,0.0740413748420533,3.6698153933831534,1092.0244900935559,1120.9624912862705,1113.7701789485957,1086.459247824662,-99.15097244622456,-38.00959087230541,-190.9363182064151,-29.13497246286749,162.27292761659584
14.2225,-1.137293546592099,-0.2080631059452515,0.2070167174256806,0.0773141469089258,0.0022416634481117,-0.0035262926601193,0.0089864022984331,-0.0040634104591212,0.0312051203398273,0.9994638277018616,-0.0625266518220125,0.1203823084496682,9.818294221272138,-0.2044751256522197,-0.2286364601785302,-0.0165171626510626,1.0719666175288007,0.0734536153437654,3.669759981134339,1091.5908244923282,1120.8198815847147,1113.4530019314222,1086.5207722937937,-225.29991795072357,-66.75470962269593,-69.3914442026791,53.9522872758078,162.27393610032135
14.225,-1.7160338852129484,-0.3239950133016078,-0.0803841018585824,0.07365648654675,0.0019692502767139,-0.0023602599390118,0.0091545265123813,-0.004034983276877,0.0312581253018718,0.9994608699266327,-0.0596408141772441,0.1225302015582522,9.822648228279679,-0.2044649122729322,-0.2290403656585746,-0.0164580535687154,1.0714827061497956,0.0728613754368464,3.6697028507732785,1090.8979905038025,1120.628717738157,1113.4232217275824,1086.729009261041,-245.59734245872983,-60.81438166724143,39.25479002609177,74.84767344880049,162.27514689354675
14.2275,-2.110160721857393,-0.3843957515522733,-0.337534977065663,0.0698703398803292,0.0005084469959783,-0.0025032327027566,0.0092890331180943,-0.0040319485041903,0.0312749925871855,0.9994592031297151,-0.0570139651977585,0.1244227073513431,9.826999028987633,-0.2044227079938235,-0.2294664909973468,-0.0163824052613902,1.0710024165972816,0.0722628840760384,3.669644165397944,1090.3628377800344,1120.5158096763787,1113.6492758815527,1086.8950106610375,-171.7898754852017,-23.17059673595942,128.5552558814542,43.388187140674326,162.2761531598188
14.23,-2.39476630972888,-0.3720646314787894,-0.5580000593636986,0.0644769428586898,-0.0020593858400697,-0.0040780232497484,0.0093864891805243,-0.0040514225208222,0.0312583849683228,0.999458789248329,-0.0547059870255653,0.125982585232442,9.831253349915457,-0.2043599624660882,-0.2299035917993023,-0.0162901143293747,1.0705266945502092,0.0716575014637188,3.6695836342869232,1090.0390411263763,1120.5128647544773,1114.0659980069895,1086.9459501967444,-74.64610183330144,31.839687743883555,211.8319537048104,-17.434049713805337,162.27715324805368
14.2325,-2.581024584435049,-0.2563398858378455,-0.7182280546973205,0.0559332589046952,-0.004681257527482,-0.0075358079936254,0.009442852214694,-0.0040867697129388,0.0312134978484585,0.9994595352483991,-0.0528242264405607,0.1271024840174145,9.835315279086304,-0.2042897788010998,-0.2303391113750265,-0.0161834662190005,1.070056112860022,0.0710454907022714,3.6695209799754536,1089.989607270868,1120.675008115098,1114.7084356500764,1086.8078404124687,39.57951943258072,85.67145886760838,252.53268344290996,-85.54539598287076,162.27834292128603
14.235,-2.5939785367371715,-0.0853086407309581,-0.7325571361128262,0.0478104763201994,-0.0055368117055266,-0.0111837417640145,0.0094581607090752,-0.0041306702964784,0.0311457768497703,0.9994613075407208,-0.0514609210009684,0.1277365011966043,9.83908780916256,-0.2042253371140212,-0.2307611945038219,-0.0160639822226588,1.0695905760245323,0.0704272878153563,3.6694570091112,1090.2369387235392,1120.9412220488152,1115.328661424204,1086.51822321683,149.77960523885872,121.58205175385692,266.37280621649023,-146.21695842386077,162.27932363259436
14.2375,-2.4698544098423185,0.1362116718617722,-0.6120306059358565,0.040322257900247,-0.0052371523102846,-0.0144154142496764,0.0094367865797506,-0.0041789286591668,0.0310642123283393,0.999463810276102,-0.0506203767740611,0.1279056639855067,9.842475119725568,-0.204180857979054,-0.2311582150136122,-0.0159310397485823,1.069130228847301,0.069803955021319,3.6693929046979346,1090.7385052970624,1121.2829183738675,1116.0402996811592,1086.076755620349,232.04143275866963,132.68640942390192,306.1365347828063,-193.76370635724624,162.28029126592097
14.24,-2.2615462646598243,0.3777034852564899,-0.3937926876459514,0.034257597863163,-0.0043372301388546,-0.0166021269375187,0.0093834723883785,-0.0042322318702384,0.0309782426928638,0.9994667097819732,-0.0501899490237304,0.1276229434674483,9.845385833358797,-0.2041695184170352,-0.2315206639696591,-0.0157831692846452,1.0686748317056238,0.0691769820410969,3.669330091518205,1091.3971458873327,1121.6046540959348,1116.8593440981183,1085.5494046850436,287.55729871060146,98.38995659995044,362.74794373260136,-220.9246096528644,162.28124654916897
14.2425,-2.001182044701965,0.6207815760907536,-0.0943587253430812,0.0299273089088655,-0.00285232989029,-0.0173305477401448,0.009303436979835,-0.0042894760099103,0.0308878782564772,0.9994699657243072,-0.0500753955000972,0.1269042992590298,9.847736606225876,-0.2041978994959941,-0.2318457868107099,-0.0156205803871537,1.0682228700113825,0.0685484814077264,3.6692686097529537,1092.176291790615,1121.7748681568671,1117.8540393998219,1084.9721325720852,354.64811947775985,7.9265252288211165,482.3056544277434,-252.89180074151457,162.28218483610235
14.245,-1.687540465833571,0.8909930638522818,0.3016115098988756,0.0260970004143265,-0.000574950284047,-0.0168272854366999,0.0092060057782724,-0.0043471493756034,0.0307970390931612,0.9994733901947196,-0.0502173234411689,0.1258459762698206,9.849454771028576,-0.204271496345133,-0.2321325471862965,-0.0154435763544197,1.0677726794960962,0.0679208609739204,3.66920807999884,1093.1703864847218,1121.6442867220787,1119.2708723702572,1084.284945681336,364.04564304529,-120.34060566877935,548.9947173067372,-242.68939681069995,162.283288021775
14.2475,-1.4544243180318255,1.0838158084459588,0.6204970406939444,0.0235897049131365,0.0017735568659454,-0.0157528009180352,0.0091078059787287,-0.0043995261305194,0.030715909800232,0.999476544754169,-0.0505919969451467,0.1246928975082892,9.850480818898657,-0.2043954058898288,-0.2323807089633494,-0.0152508473565316,1.0673220868766229,0.0672959492032827,3.6691488062525135,1093.9965200058418,1121.1731651285231,1120.599012986356,1083.7586855880315,317.47896603903376,-269.4692469814608,539.0411218452008,-190.37293971982004,162.28418582419735
14.25,-1.2645328750211664,1.2267091397275467,0.8799389355740883,0.0215206950029667,0.0047209368031217,-0.0142435095060025,0.0090350031811723,-0.0044341579250979,0.0306540844173907,0.9994789481227352,-0.0513050271881454,0.1238905985966494,9.850771091805882,-0.2045708452661243,-0.2325933359007441,-0.0150400739327844,1.06686793589745,0.0666748859213897,3.6690912911115934,1094.7577813149167,1120.296940487172,1121.9660779794829,1083.333080982737,301.9850247736177,-463.9762033048569,573.1978508200203,-148.5479460675219,162.285057901598
14.2525,-1.077063256580559,1.3235487837562592,1.0639165252580203,0.0191604981757692,0.0088993275920998,-0.0112144861410233,0.0090095042582396,-0.004440241880406,0.0306163250305872,0.999480300365436,-0.0524409674011853,0.1238126797728439,9.850300806777673,-0.2047937018911763,-0.232777404215646,-0.0148110860748562,1.06640760771594,0.066059121547323,3.669035527633497,1095.5064451297096,1118.8532841119993,1123.4650022404555,1083.015945857694,230.92591723981087,-569.3335489723287,498.60728434406553,-69.74521921969246,162.28607028494673
14.255,-0.9335054469762172,1.3339402681828398,1.0673224982773135,0.0169555528379512,0.0127406697359853,-0.0072476089834298,0.0090427033241862,-0.004413829363738,0.0306061018249077,0.9994804070559576,-0.0539701542005113,0.1246377045732462,9.849065657860077,-0.2050569554714534,-0.232941315053388,-0.0145666503069732,1.0659402169741008,0.0654490499348398,3.6689815237305687,1095.912410901116,1117.4502727423098,1124.4591144012036,1082.9843548866384,96.61953485427456,-560.4669750541267,320.04101505307966,54.20471239625902,162.2868820332637
14.2575,-0.7694373079327416,1.2707764707117508,0.876293956490461,0.0144441957972249,0.0164092205521012,-0.0022231028908811,0.0091330478188751,-0.0043546760204692,0.0306243242711363,0.9994792528377388,-0.0558166376704263,0.1263052736920608,9.847083063583248,-0.2053508231592304,-0.2330944237073667,-0.014314703230211,1.0654655614414328,0.0648440350822061,3.6689294227266713,1095.989542803981,1116.0509492367282,1125.0652073157212,1083.2869694196754,-61.9758832857438,-562.755386758293,165.40736775944987,226.23911440991787,162.28765621629287
14.26,-0.5130352825119613,1.1221428027767244,0.4209685556809982,0.0112074325920045,0.0201775506161912,0.0036361601043549,0.0092684164151514,-0.0042672789632226,0.0306663770366984,0.9994770675754792,-0.0578395148091273,0.1285631522117469,9.844391993378192,-0.2056623432206185,-0.2332474280227216,-0.0140665967997946,1.0649837517871097,0.0642425128187912,3.668879850126232,1095.6025314846872,1114.6364958085187,1125.2861512400007,1084.115550458688,-229.5692200883064,-444.43223553137034,1.133178802910884,382.2976138559937,162.28853670860917
14.2625,-0.2353588083184652,0.9523110719646926,-0.1052900494833239,0.0086500395288067,0.0228167861470957,0.0069267844459411,0.0094310601601172,-0.0041643920498616,0.0307237134463958,0.9994742203742116,-0.0597629058769474,0.131062225392027,9.841051644726791,-0.2059771621940087,-0.2334111146232265,-0.0138330613010376,1.0644956904319411,0.0636422983585016,3.66883350074582,1094.8416967035391,1113.828788059071,1125.0708732097355,1085.1984574889557,-392.4433474179137,-229.53567043146955,-150.23485173394343,496.5309478887909,162.2892266422771
14.265,0.1025307626380728,0.7557642316574925,-0.6828920138513809,0.0073253696793587,0.0250019083182463,0.0065733488345954,0.0096020484154371,-0.0040613398860177,0.0307832583461,0.9994712227569976,-0.0612857674559652,0.1334460373709653,9.837139807790857,-0.2062799285362586,-0.2335962850329509,-0.0136239562019425,1.0640033089645689,0.0630415878759318,3.6687901859016345,1093.6403147475971,1113.4888174563614,1124.5349769813308,1086.5982051981323,-540.8304928890341,-63.239593350239225,-247.4195107040524,583.9487196199823,162.28986751854853
14.2675,0.4675666227075548,0.5546736517064152,-1.204032270280606,0.0076912842353773,0.0266715456570955,0.0024843248875517,0.0097686242423002,-0.0039687264374964,0.030835560051865,0.9994684389497716,-0.062220198606539,0.1354976548338628,9.832749606349452,-0.2065585419808523,-0.2338104351367451,-0.0134472506456028,1.0635088142134188,0.0624391980482263,3.6687500422050143,1092.1375442390947,1113.51259009232,1123.8337756562155,1088.118201087055,-645.269899164433,73.95316916496647,-296.44176052981027,590.5256348530012,162.2904653538636
14.27,0.8265841964916543,0.3711750181872988,-1.5470531318406964,0.0096525068804722,0.0275001246548475,-0.0047916331232389,0.0099189935544526,-0.003895025978366,0.0308771222341005,0.9994660542818392,-0.0624411571807038,0.1370324746360221,9.82798635311649,-0.2068057457374729,-0.234056626038063,-0.0133100945671734,1.0630141957050019,0.0618347240983887,3.668712615932983,1090.4139652517758,1113.858583302186,1123.052768178682,1089.5508333723967,-758.7885327949786,185.6285575379098,-341.29059775859,549.6614449139138,162.29100885619755
14.2725,1.2022055067193431,0.1989992533792505,-1.6703569778951253,0.0127810244454415,0.0276379624971564,-0.0139609771083471,0.0100453910737612,-0.0038429151645844,0.0309074546171138,0.9994641483091992,-0.0619529697541503,0.1379569970254976,9.822963013926563,-0.2070177434780439,-0.2343349493602437,-0.0132184256388192,1.0625211408370823,0.0612277361448391,3.668676944719551,1088.3436015751192,1114.4407328800096,1122.1273226674225,1090.866508311625,-716.7847470029544,212.4587103074768,-332.48458586421555,380.8358231453299,162.29159565359845
14.275,1.4378032755547572,0.1099802031438851,-1.5271635921729736,0.0160225544236273,0.0273672914594313,-0.020278077148843,0.0101435232498941,-0.00380617402545,0.0309236762229579,0.9994628758313086,-0.0609459008593815,0.1382557058711678,9.81779578547706,-0.2071914304016007,-0.2346450071201472,-0.0131781640363651,1.0620297907706895,0.0606169549027238,3.6686423141765783,1086.8300415167605,1114.9208768537237,1121.3903452493607,1091.4550124881237,-511.8437762551474,168.40281231710543,-292.0304470700684,109.25689256762224,162.29202864932938
14.2775,1.558056013829174,0.0845515106427219,-1.1742594926021572,0.0203646793003841,0.0269784111527384,-0.0244678079149444,0.0102132176342765,-0.0037744094352507,0.0309240649341483,0.9994623324741588,-0.0596984405458923,0.137997148636055,9.81259899265712,-0.2073259201352577,-0.2349848045726861,-0.0131928102890599,1.061540016351462,0.0600028088318238,3.6686084576615774,1085.784382693844,1115.2827469415947,1120.6671704320725,1091.412792774463,-308.4404273898117,126.8843551060201,-324.71690149781733,-159.26830236773878,162.29240211324642
14.28,1.537922143718808,0.1224493521047232,-0.5978438025715661,0.0268010385535288,0.0265912375033256,-0.0269997437834325,0.0102576516743177,-0.0037371990600454,0.0309090506621893,0.9994625148723644,-0.058492015588601,0.1373126812122058,9.807480314501513,-0.2074228442189533,-0.2353507084194951,-0.0132620078396857,1.0610522814106116,0.0593862104249717,3.6685741924684305,1085.2878393798112,1115.555298629254,1119.7667607418712,1090.6586709762848,-41.05760897359045,81.8217038439215,-340.354777709937,-371.9553497986327,162.2927798110711
14.2825,1.3782761356152786,0.1990272889713615,-0.0620439821072744,0.0326120805362294,0.0267293866958402,-0.0270916716274852,0.0102820498772264,-0.0036887791718131,0.0308799214267529,0.9994633541049448,-0.0575157910148481,0.1363649599654323,9.802536303075971,-0.2074855813136986,-0.2357382719494242,-0.0133802526274787,1.0605667426536587,0.0587669054230178,3.668537070071532,1085.579094648976,1115.6918554608146,1118.9653965435225,1089.5530160254696,254.46253942537228,53.14200948079053,-331.39768913231137,-499.56932422906834,162.2930343922045
14.285,1.0961897240127827,0.3014772853320434,0.4524412777813678,0.0367324732194308,0.0278191135514091,-0.0253298093095171,0.0102952936309349,-0.0036242620734173,0.0308426973936125,0.9994645921897348,-0.0569366028813623,0.1353793590548963,9.797848579286264,-0.2075206326557468,-0.2361409919742182,-0.0135378522306551,1.0600833405096413,0.058145485145256,3.668494749779745,1086.5601520769378,1115.8210086766578,1118.10977229621,1088.16082435514,481.0343108422833,61.557976939696765,-348.52668844366804,-567.8075321647832,162.2932244518555
14.2875,0.7545906475651477,0.4109718161460232,0.90272953558193,0.0380926361250295,0.0295617258299281,-0.022436936087443,0.0103030480266769,-0.003541388950239,0.0308027185659185,0.99946601468138,-0.0568654588995326,0.1345064505827125,9.793481803317613,-0.2075348145930365,-0.2365526123672776,-0.0137240915248698,1.059601458032662,0.0575226701819161,3.6684463293482943,1087.9842662031867,1115.999645345513,1117.2227631013045,1086.7139783646462,626.8697497006017,88.00975629058928,-359.29399482419126,-551.1649269994043,162.29335918042247
14.29,0.3940067989482033,0.5219590439701056,1.2389380318086252,0.0371507275100777,0.0312607727298072,-0.0186170687945271,0.0103085468423172,-0.0034420322276921,0.0307635133512067,0.999467472758297,-0.0573251420258481,0.1338356166999991,9.789481634950276,-0.2075345003502354,-0.2369677778618866,-0.0139270481170313,1.0591205440535696,0.0568984275645235,3.668392085739743,1089.6945008254413,1116.2610574581108,1116.3133023220887,1085.4049997201423,744.3245466917433,127.5219058704152,-405.2217936136734,-507.02053981050346,162.29342462568897
14.2925,-0.0252668892331908,0.6620318792200299,1.487992020291232,0.0359045081597967,0.0327808025826665,-0.0132914963303683,0.0103138624821661,-0.0033280733340519,0.0307284830587904,0.999468834061131,-0.0583283893656389,0.1334220606357533,9.785874352823424,-0.2075260906609524,-0.2373814940924172,-0.0141354885430736,1.0586406475640466,0.0562732037962353,3.6683324234125423,1091.7058889366463,1116.6372548748652,1115.1966541332358,1084.1788756655933,680.220775863653,137.9548795985831,-416.2612412118879,-380.1291166652237,162.29341930461356
14.295,-0.3641650233113275,0.7912320620497362,1.5673118285567504,0.0355816818254721,0.0338451927103761,-0.0085571143498001,0.0103165543377319,-0.0032027227773587,0.0306990613766702,0.999470069150828,-0.0598526508135913,0.133220553831481,9.782668122278752,-0.2075150348112141,-0.2377898425172748,-0.0143407782698406,1.058161700531126,0.0556470641968883,3.668268432813447,1093.095604704759,1116.9508318561036,1114.23199611603,1083.5043541368168,454.4141627516632,113.2299596221626,-395.94490912917223,-199.99068500455337,162.29334192639675
14.2975,-0.7046205670392526,0.9345557309664903,1.5328587252148156,0.0356083944843786,0.0348576985743311,-0.0040957349486885,0.010315213270605,-0.0030697587174868,0.0306768550534821,0.9994711329202274,-0.0618511042319969,0.1331949075717777,9.779854418197806,-0.2075066773708749,-0.2381892807582291,-0.0145351881118981,1.0576833569223223,0.0550197951885676,3.668201058715911,1093.977959750404,1117.203404672976,1113.2169295875904,1083.1789222405707,256.02313365675946,89.59296944507022,-455.4000731110789,-77.83984423684761,162.29318488567122
14.3,-1.1145296562505052,1.1061067025795983,1.4016415205218336,0.0346096296146476,0.0366223619849383,0.000113634736942,0.0103110269783018,-0.0029346604110841,0.0306641589223509,0.9994719299634536,-0.0642295099619261,0.1333486769782947,9.77741096057352,-0.207506431683761,-0.2385765018475926,-0.0147112089030438,1.0572055992202056,0.0543911284878305,3.6681315333329567,1094.375720373043,1117.398796703329,1111.954995750474,1083.1151549156325,47.6243296664432,54.327169855506014,-460.96537517539286,18.23690084847555,162.29290026020902
14.3025,-1.4379079092453804,1.2219834916152823,1.252987228504058,0.0318727918651111,0.0392698385049927,0.0023002659690899,0.0103065480796239,-0.0028057675238877,0.0306618954681218,0.999472387862668,-0.0668246480405722,0.1337014487611728,9.775305822606239,-0.2075187497914802,-0.2389492998445486,-0.0148620350472196,1.0567285953249554,0.0537615131092024,3.6680619642183454,1094.2160813987364,1117.4750405222535,1110.912102711713,1083.2701067448131,-132.2906491367384,18.876108731687168,-397.31222302433434,93.51992834378547,162.29258103570842
14.305,-1.7055380550981112,1.2687323354981732,1.0973739133477156,0.0272162579167677,0.0432906413809706,0.0034798468178153,0.0103052001046424,-0.0026951949675036,0.0306693544637365,0.99947246506966,-0.0693876957840271,0.1342799592379348,9.773501873933425,-0.207546922763802,-0.2393066878302776,-0.0149815413447075,1.0562524957795167,0.0531317518140082,3.6679946272894512,1093.714267127359,1117.4931772469874,1109.9684346353529,1083.582754557351,-252.8092325075764,4.56152133015095,-368.47034454257187,167.06155523854366,162.29217606521576
14.3075,-1.9256314554845564,1.2070742800692524,0.9142802477307526,0.0206297300077557,0.048753201741681,0.0049992917607203,0.0103062195418173,-0.0026065274903088,0.0306817243320277,0.999472311062698,-0.0718288956714442,0.135028103862374,9.771962396792826,-0.2075913384539623,-0.2396497843758338,-0.0150714798771041,1.0557764291727443,0.052501461224681,3.6679309956718833,1092.9520352361983,1117.4978481289043,1109.0697509889999,1084.105414521006,-277.41626732700047,5.4020489863879195,-276.58624168771206,214.81070085830024,162.2915924619647
14.31,-2.012274995284784,1.0484966004604928,0.7538054737574029,0.0149866253774183,0.0530494937236455,0.0070229229652226,0.0103061564963389,-0.0025412979340427,0.0306981351937544,0.9994719894777266,-0.0740921359928084,0.1358341166332661,9.770654403497607,-0.2076534592849097,-0.2399783989859618,-0.01513771977155,1.0553003844623952,0.0518709157821318,3.6678710071708167,1092.327185790724,1117.5201874919192,1108.585503426914,1084.656808061643,-229.262378547037,18.624328933450737,-130.9875317524335,246.01170187379813,162.29102729515577
14.3125,-2.001140585144336,0.7944329408336336,0.562723413809311,0.0095781066919329,0.0562882835833457,0.0099502038700385,0.0103028432633965,-0.0025067135936866,0.0307197245448039,0.9994714715283848,-0.0760034290272301,0.1366051565074667,9.76955104708961,-0.2077351386375396,-0.2402918241151326,-0.0151846182149818,1.0548248399719664,0.0512403825536843,3.667814837525996,1091.8057233434631,1117.5909697735715,1108.4148133302378,1085.3354730303747,-191.1046929195816,39.55585856834537,-18.464282435437816,295.296050760148,162.29038504518587
14.315,-1.9209953697373583,0.4899957956644418,0.3372434666528182,0.0045216241787465,0.058031906263663,0.013010323281994,0.0102979697461094,-0.0025001037349079,0.030741938421951,0.9994708821382317,-0.077574738779906,0.1373284312145413,9.768634047193022,-0.2078343307319045,-0.2405920919378256,-0.0152193353814319,1.0543483771570958,0.0506088256801983,3.6677633443457274,1091.3716623261264,1117.717966784761,1108.4931820147367,1086.1332883154435,-165.16381477892685,67.03275153676121,80.28957938785078,352.2111205458618,162.28968369401815
14.3175,-1.7796103435600779,0.168828841316885,0.0843828600968763,0.0002081397521336,0.0578946070809923,0.0147327636333012,0.0102941476545099,-0.0025159003137588,0.0307644291282681,0.9994702159269042,-0.0788719093281476,0.1380114974674032,9.767894973915297,-0.2079501075907634,-0.2408796850593158,-0.0152498294282117,1.0538704651169575,0.0499755341161975,3.667716975481816,1090.9799042695684,1117.9261335312551,1108.8162612271772,1087.0965286331043,-186.81936379995736,110.91824707216885,178.24120147376505,467.08124068924894,162.28891828135195
14.32,-1.5695029451833296,-0.1875625629424205,-0.2021206315625876,-0.0040145945829823,0.0563470288062018,0.0139845742251199,0.0102908405775369,-0.0025487435290637,0.0307900757390792,0.9994694015038564,-0.0799582990638099,0.1386026101989684,9.767335843061415,-0.2080824450631625,-0.2411538487091552,-0.0152848661396378,1.053391701347333,0.0493407414575392,3.6676747728840087,1090.4375655071265,1118.272558020122,1109.384388022106,1088.46869451889,-227.92485627564915,139.9409901100904,222.91247035527593,540.7979137525838,162.2879357388898
14.3225,-1.3786574757386545,-0.4403521578985729,-0.3860080555387364,-0.0071136051661535,0.0545021407468818,0.0114650439838398,0.0102843148897271,-0.0025858396202354,0.0308162052900233,0.9994685874693297,-0.081045311313083,0.1389957579415314,9.766968303415672,-0.2082278683120046,-0.241416384944971,-0.0153363810867242,1.0529119672685336,0.0487042493277213,3.6676348716433727,1089.8402799881903,1118.6258384818057,1109.930823578953,1089.8005182018667,-282.03770894306354,145.36539025136787,219.00410508343367,569.2909847783104,162.2870707041669
14.325,-1.1849418012280997,-0.6434502908436079,-0.4838496159973888,-0.0099844023227123,0.0527995837331756,0.008607270304093,0.0102722804061015,-0.0026148342592072,0.0308398756664912,0.9994679164563977,-0.0823375961792594,0.13911821060464,9.766810782104823,-0.2083823860063851,-0.2416696799086723,-0.0154135338314943,1.052430972650381,0.0480663561994537,3.667595443960992,1089.0273769624107,1118.9993849713787,1110.4794085475232,1091.315149442782,-409.2686107240112,151.9993066283622,232.18624578822536,698.1660541419204,162.28616576555527
14.3275,-0.958256693978802,-0.8412342009980737,-0.5060991494245491,-0.012816580567963,0.0508352275954944,0.0060649025853479,0.0102556037797696,-0.0026254149172516,0.0308582655891292,0.9994674923401408,-0.0840018852889099,0.1389644483180365,9.766885533126425,-0.208541865323838,-0.2419166939688086,-0.015520964795869,1.0519486923608012,0.0474279479891855,3.6675546588344794,1087.79393693457,1119.3858350149476,1111.0917548078946,1093.2913484725768,-487.67027980625846,117.33511701979812,214.30114163644876,737.9088471885202,162.28504260651408
14.33,-0.7782226646561728,-0.977834868808339,-0.467671934719722,-0.0145422460388148,0.0488821242630523,0.0048346779176337,0.0102355851389596,-0.0026133314662228,0.0308676300021515,0.9994674289310764,-0.0860908423386036,0.1385417889275128,9.767215960003517,-0.208701814977529,-0.2421613283341574,-0.0156585473926633,1.051465345375744,0.0467892816508337,3.667510995802288,1086.58902556338,1119.5860605564778,1111.5509142557053,1095.004693678724,-500.8870657221992,40.85517219183106,172.76514498211125,677.5109802132176,162.2840817800177
14.3325,-0.6076040567320034,-1.0940569945247416,-0.4048451788355903,-0.0159182403537216,0.0465499343777372,0.0044053974148753,0.0102135464823306,-0.0025806264159488,0.0308640769874471,0.999467828956818,-0.0885392084492665,0.1378632685571506,9.767823665399613,-0.2088579071182115,-0.2424080592428797,-0.0158217748481719,1.0509806660258492,0.0461500734850281,3.667463023321367,1085.2895016059597,1119.5901108759067,1111.955580532805,1096.6789033736422,-517.5943649944757,-35.64762915183917,152.5109585534881,643.4052073862306,162.28310212348467
14.335,-0.4409775237208033,-1.1977328598382144,-0.3447802474472966,-0.01710060278531,0.0439422237104334,0.0043136964494665,0.0101892977906349,-0.0025288240373834,0.0308453884072147,0.9994687616347264,-0.0912977567614116,0.1369226203092495,9.768725952736183,-0.2090067639919149,-0.2426611288473801,-0.016005757562161,1.0504939934526485,0.0455103909689052,3.6674104722176466,1084.001053738407,1119.4078224107186,1112.3134690484728,1098.2217197156556,-489.2699587445949,-113.25380158908096,129.49006274968974,558.9981681317148,162.28211177754335
14.3375,-0.2719475692240434,-1.2894800233680423,-0.3051610665319527,-0.0179986771704403,0.0408868047969497,0.0041341618947259,0.0101672037306876,-0.0024632177588821,0.030816162596675,0.9994700288395582,-0.0942457897714037,0.1358108573872988,9.769932552817892,-0.2091488177205612,-0.242922533393628,-0.0162010995369564,1.05000567987777,0.0448711081071694,3.667353993563952,1082.8431518122363,1119.0238418679612,1112.6030308465536,1099.4738942143013,-452.27358599226955,-196.44156845392257,105.6778500901356,450.3615411565975,162.2811141379117
14.34,-0.0571276796592677,-1.3897947553808505,-0.2899344841486529,-0.0189028073069669,0.0367615319127423,0.0033995451810451,0.0101562110148325,-0.0023941522323896,0.030781022534032,0.9994713729209844,-0.0971650362247509,0.1347157592370367,9.771444018543818,-0.2092852936127982,-0.2431947482337093,-0.0163939163613141,1.04951618434221,0.0442336129998423,3.6672948272270687,1081.7396858084464,1118.4256145684492,1112.8418582989232,1100.473527421438,-342.40027395448226,-222.4592474956005,63.899354355625306,262.50657867758935,162.27991510359539
14.3425,0.1355547141155925,-1.470492175807002,-0.3057109707043338,-0.0194356177227613,0.0333055416595483,0.0025321995412418,0.0101610228369283,-0.0023325746804978,0.0307446272047297,0.9994725794281591,-0.0998308755809734,0.1337516041127879,9.77325195843868,-0.2094182052420829,-0.2434801767448347,-0.016572467242486,1.0490261166383064,0.0435992581575357,3.6672345181951487,1081.1311504424636,1117.911545630483,1112.9225276183315,1100.7864271076894,-168.88074729119668,-186.18046768303248,1.7380460863475502,3.3846651131165513,162.2789185169186
14.345,0.3386555436883297,-1.5570093675476528,-0.353527234977544,-0.0193997708813817,0.0300485483865403,0.001788071051381,0.0101787930353905,-0.0022893530649982,0.0307130506468647,0.9994734675209818,-0.1020266192641218,0.1328938184635665,9.775338940694573,-0.2095510455509503,-0.2437799878091379,-0.0167293491022204,1.0485366613616944,0.0429677956971223,3.667173790407352,1080.8952820719903,1117.4947122300339,1112.8505485293551,1100.4904507470037,-14.14396215309634,-145.07516629003635,-69.08723851189744,-268.05852032226414,162.27792882987052
14.3475,0.5778948914456012,-1.6744937910002426,-0.4519305894586465,-0.018364775013631,0.0261201940657369,0.0011192331390649,0.0102007215588575,-0.0022667193943333,0.0306865704458085,0.9994741125757768,-0.1037082619810571,0.1320128525160537,9.777678057090302,-0.2096848581249549,-0.2440966992781182,-0.0168642415675983,1.0480476543193773,0.0423370538958732,3.667113049161452,1081.060430631698,1117.1861697990328,1112.5770914257723,1099.4461345060784,133.3750821048208,-79.69102651442648,-127.01928216554532,-481.34622269190487,162.27675307037242
14.35,0.7559020385093496,-1.7821998901999228,-0.567929758333967,-0.0165181646457556,0.0226416673781232,0.0006056282247611,0.0102188249468854,-0.0022602932652852,0.0306672246778672,0.9994745434203446,-0.1049605150435027,0.1310033687179862,9.780232491769384,-0.2098218338496196,-0.2444308598681274,-0.0169797447961199,1.0475591602650152,0.0417056158014513,3.6670517674072975,1081.5621574825143,1117.0962570974618,1112.2154521185275,1098.0837196335447,268.48117291129154,-10.183985424099092,-158.4382064797617,-612.8620423170511,162.2757853545215
14.3525,0.8911271665936586,-1.888000031117344,-0.7098856000213787,-0.0136937128525703,0.0187949040108926,-0.0001896147854807,0.0102296227348686,-0.0022671484458648,0.0306573983106373,0.9994747293041356,-0.1058362305954259,0.1298488414240306,9.782956329776564,-0.2099647878098221,-0.2447815999126301,-0.0170762622100601,1.04707199687959,0.0410725182401789,3.6669900892440546,1082.4028364962548,1117.1352498719125,1111.7849003933732,1096.3818242944926,430.6500196377565,28.810015278663784,-180.4489163996268,-775.64952608656,162.27483204551845
14.355,0.99184254623747,-1.98637711583758,-0.8843940570253775,-0.009820960710537,0.0134346497237333,-0.0019414322454754,0.0102279902733099,-0.0022788217295654,0.0306537237469686,0.9994748431538916,-0.106495986964686,0.1285024415693513,9.78579671490935,-0.2101137122631734,-0.2451490845764391,-0.0171578998056403,1.0465859943379643,0.040436660647488,3.6669284260777113,1083.7154075807034,1117.2403071738552,1111.3132075365293,1094.2054720031113,513.0396729549032,34.16657232319947,-145.52342537352328,-779.9181474137373,162.27370594375776
14.3575,1.02857563501221,-2.020310857408356,-1.0060402896054617,-0.0069447521894076,0.0082934780256662,-0.0043681670580613,0.0102117145101368,-0.0022884735274646,0.0306563844855208,0.999474916411459,-0.1070658949055794,0.126969929281999,9.788695239873725,-0.210270377166251,-0.2455309386177104,-0.017227298508655,1.0461015389133532,0.0397981796590231,3.666866678078992,1084.9680348610289,1117.3060827335285,1111.057283266506,1092.4822335574247,506.3126472158372,7.871784397777193,-54.50500235903012,-626.029118536314,162.27278270172667
14.36,1.0334041039927149,-1.9771827109708353,-1.0684309088199035,-0.0047305233528596,0.0028231767448052,-0.0078909718772695,0.0101814672050188,-0.0022934784914579,0.0306657164606293,0.9994749384970816,-0.1075868947834683,0.1253050523791079,9.791590087070652,-0.2104365251186059,-0.2459239282316547,-0.0172845455946581,1.0456190383514032,0.0391576547922003,3.6668047743892975,1086.246970816782,1117.279666095844,1111.040682524734,1091.0753264104303,494.3320797114802,-32.78064475252392,40.319409568649526,-485.1331075462591,162.2718752265112
14.3625,1.0264114061085279,-1.8562455748631017,-1.06291572103892,-0.0028667773744124,-0.002737044227241,-0.0119555827388427,0.0101389859343643,-0.0022894953885422,0.0306759362212405,0.9994750790778743,-0.1081319075959976,0.1235750736805082,9.794418239271428,-0.210610257792823,-0.2463268058655845,-0.0173304516047519,1.0451375165733363,0.0385149452456788,3.6667425954692936,1087.4396952595866,1117.1421795097658,1111.2588803143492,1090.056568019693,434.35963488643694,-85.04915624260809,141.75822024874435,-299.47313059483207,162.27098106164556
14.365,1.0165479284402923,-1.6374202816373176,-0.9720909870259156,-0.0010868679015667,-0.0080461373300542,-0.0156680649532873,0.0100935092172066,-0.0022765866707518,0.0306839080017753,0.999475338803322,-0.1086836005969531,0.1219823437055598,9.797117133113817,-0.2107903274282428,-0.2467370171194804,-0.0173608407174583,1.0446559441128267,0.0378699420039162,3.666680100779187,1088.4187689912146,1116.8544203146307,1111.749473625978,1089.577960757456,364.95596602278954,-157.70227838737307,263.65711769877424,-91.29730786764408,162.27010371573195
14.3675,1.0038406516894087,-1.2773751081279745,-0.7871279407683311,0.0016213008705998,-0.0132453216026226,-0.0186610783665018,0.0100550095120793,-0.0022598586350925,0.0306883080033414,0.9994756443132345,-0.1091267473774625,0.120730506562818,9.799627738992829,-0.2109756438218848,-0.2471509944613331,-0.0173697102367942,1.0441733228155976,0.0372229912492104,3.666617131239304,1089.2644750897002,1116.353668117829,1112.5771659028428,1089.600081480355,254.36817331865885,-200.32942756226072,325.66522646629346,87.67162692341564,162.26907191373476
14.37,0.98854603084758,-0.9217009290433732,-0.5979857616577084,0.0044039523918725,-0.0161401575315511,-0.0196620059368812,0.0100255710844104,-0.0022424464069413,0.0306862348930416,0.9994760548361004,-0.1093915390867501,0.1198590927054287,9.801897330508256,-0.2111633641728175,-0.2475654817496245,-0.0173564870747416,1.0436884143783398,0.0365736862734512,3.6665542403454494,1089.690609857808,1115.8527731768195,1113.3777997583095,1090.016318892073,124.46802405118306,-199.32420343713213,317.80882360707926,213.9952020283665,162.2682311340641
14.3725,0.9655512258202192,-0.5477511861454178,-0.4037173162734047,0.0067416852514627,-0.0175497453918445,-0.0195577072197419,0.0100040105729186,-0.0022281235614085,0.0306739900307298,0.9994766870831924,-0.1094007394740491,0.1193326154124583,9.803880870937384,-0.2113495774057111,-0.2479775298991525,-0.0173226723609591,1.0432008896393719,0.0359211048766212,3.6664920433174393,1089.8868152099562,1115.3570471006433,1114.1662100208785,1090.670057490497,58.648441207481326,-189.45836958459168,312.95417213929653,299.34209071904246,162.26741250511577
14.375,0.929712430754054,-0.1228751645054349,-0.1803271470836791,0.0085785220477131,-0.0178616152428193,-0.0192670522060007,0.0099931066335062,-0.0022215573425063,0.0306503508678362,0.99947753959248,-0.1090613597292962,0.1191832104922646,9.805541884745088,-0.2115312534791466,-0.2483836205271983,-0.0172680286240526,1.0427109152174496,0.0352649519361279,3.6664303689122377,1089.9838520638455,1114.9054813288967,1114.942570619006,1091.513029345668,34.321249980218916,-121.38636035522408,235.16369967956183,292.18654881807555,162.2664592054284
14.3775,0.8881332810116129,0.1843771086011671,0.0020434381724758,0.0100701014220003,-0.0170390335272489,-0.0194894031415405,0.0099912145114208,-0.0022224808583823,0.0306135009619558,0.9994786834626708,-0.1083841625934919,0.1193509996319659,9.806854527977919,-0.2117048405154156,-0.2487810307236648,-0.0171971308491514,1.0422186266540088,0.0346053242503114,3.6663692846570575,1090.0584214598573,1114.7501152988673,1115.342028519276,1092.1309902345868,51.46216021870819,2.522750009984126,88.42045187464899,207.84792535306613,162.26569193769657
14.38,0.8166410359811078,0.4220353739712042,0.1935854208534262,0.0123417122931118,-0.015318005845511,-0.0203388694106456,0.0099958950477777,-0.0022305504743159,0.0305664770715847,0.9994800496679136,-0.107386886461372,0.119754656239754,9.807804331148331,-0.2118694916621493,-0.2491659888015727,-0.0171154895200789,1.04172480261087,0.0339427762335208,3.6663091792344975,1090.241162864939,1114.9180950789466,1115.3846728783792,1092.5522689724335,118.8344714907358,157.13754861478537,-74.90053569398435,128.37524689978449,162.26495639878794
14.3825,0.671201128464041,0.6208396379434746,0.4376655230361253,0.015548245333421,-0.0129597101971633,-0.0212690933054812,0.0100090909667216,-0.0022499510160405,0.0305169347063402,0.9994813733864972,-0.1060006010118741,0.1203924407504622,9.808388272313602,-0.2120273903226261,-0.2495342341116231,-0.0170249066891558,1.0412304851461207,0.033278812008836,3.6662508685832256,1090.652593817311,1115.535803041941,1114.967525840806,1092.772866469086,179.90110444337856,290.8068873921489,-227.93726511754343,33.09057707993565,162.26411385998065
14.385,0.4900662817755677,0.722073620016581,0.6368252665786028,0.0179157541501504,-0.011324556884698,-0.0208056089845077,0.0100306622855598,-0.0022843725676735,0.0304721563144021,0.999482424794558,-0.1041711859180367,0.1212206129116262,9.808615257463735,-0.212181172359176,-0.2498830940825917,-0.0169286038575829,1.0407366845527914,0.0326152460329243,3.6661953205111946,1091.1406683871555,1116.372129515907,1114.2449865527915,1092.717721857833,207.51991706585096,382.6257091936752,-348.2184623892773,-64.91538972490056,162.26344710818339
14.3875,0.250146796003028,0.7717016570688474,0.7927951328164908,0.0194927932491855,-0.0100073726280502,-0.0181120463309313,0.0100599295256909,-0.0023344483265664,0.0304358086962331,0.999483098843062,-0.1019077865768517,0.1221875421855622,9.808505288898145,-0.2123321438723339,-0.2502128838447107,-0.0168311680010708,1.0402435861881312,0.0319524441539469,3.6661418799420336,1091.6901934026405,1117.44893158791,1113.2264335288592,1092.4482895204615,210.11675831156376,449.9000052363705,-432.701143029704,-134.65708691189943,162.26281871496505
14.39,-0.0252550988428179,0.7875287683843971,0.8837699042340907,0.0202955559784969,-0.0087903597553542,-0.0140517168776046,0.0100967465084728,-0.0023972801937993,0.0304139071562576,0.9994832240462788,-0.099291280131014,0.1232578446814818,9.808088222729396,-0.2124830837873074,-0.2505242146319178,-0.0167378882363962,1.0397511703820312,0.0312908118483524,3.6660898605848,1092.1912521787135,1118.6216295420893,1112.0814808376429,1092.0444364232735,164.34827244191723,464.09790319362537,-452.5300306225736,-180.3417580732361,162.262222846766
14.3925,-0.3180839824181452,0.7648897253096217,0.8837903788040897,0.0201000397872407,-0.007561094707476,-0.0099499707751029,0.0101431443847641,-0.0024699459982593,0.0304118215990858,0.9994826288587552,-0.0964035653043803,0.1244442936971624,9.80740200850774,-0.2126367076082677,-0.2508190171963335,-0.016652203378001,1.0392591624430279,0.0306315970348827,3.666039752326448,1092.51193476485,1119.7694211038777,1110.9637833757467,1091.5465807300955,76.1557174915803,465.0278681076104,-439.81694990388513,-220.14207872943928,162.26166643475906
14.395,-0.6499853316286998,0.6837855768190125,0.8019119691055663,0.0186081415232976,-0.0056450744872178,-0.0066177191081326,0.0102036798129959,-0.0025475275757771,0.0304256152238577,0.999481400841376,-0.0933646831964781,0.1258167968352344,9.806490488122051,-0.2127910872347004,-0.2511038517026213,-0.0165760516527613,1.0387665306024936,0.0299752531541796,3.665991767356523,1092.5720307661716,1120.9467688826269,1109.8823960881239,1090.9437260296263,-39.502925959453215,377.63144133672097,-327.9490509983531,-206.2108588988072,162.26104385957035
14.3975,-0.8802669917212719,0.5587750228195464,0.7016819626641561,0.0162542460071558,-0.0035353848705809,-0.0054125337017734,0.0102724775524757,-0.0026269720804833,0.0304482104474827,0.9994798191112616,-0.09026473147561,0.1272474238611522,9.805402584503737,-0.2129427991451282,-0.2513863234045848,-0.0165147069081517,1.0382735187195635,0.0293212387339082,3.6659446462239114,1092.3144201350526,1121.6575783105616,1109.3240381207547,1090.5155264356013,-162.82648390331087,210.83488267664848,-139.28848757402744,-139.67929894950066,162.26056171107908
14.4,-1.0320678166806747,0.3631315408135671,0.6126594465888969,0.012853419848306,-0.0014400040308727,-0.0052046001981609,0.0103433536098931,-0.0027074375084724,0.0304769683414494,0.9994780248637734,-0.0871510711846693,0.1286093022569105,9.804188447314225,-0.2130907204626975,-0.2516716922436639,-0.0164712623507826,1.0377805036699193,0.0286687133707906,3.6658968732526978,1091.7578983466549,1122.0009432960103,1109.1859536502536,1090.2453295348787,-293.8216499019875,57.60966540725585,26.46241574025752,-71.19106538113154,162.26011584348436
14.4025,-1.105719820039146,0.0509049701261174,0.549963132019549,0.008256853642918,0.0004391584296507,-0.0047668118677469,0.0104128701697008,-0.0027847010902407,0.030505808119418,0.9994762461211504,-0.084134994827269,0.1298388735973082,9.802896443539563,-0.2132318238020395,-0.2519659554559145,-0.0164473200836323,1.037286996042294,0.0280163049005051,3.6658465195070873,1090.8453118855427,1121.9456266375976,1109.4563501994562,1090.1595711086957,-352.65812169913204,-95.61106127105955,150.54595289795918,9.48663733733917,162.2596199350518
14.405,-1.0804692093178812,-0.2561419871291512,0.5404798462979375,0.0050029713937416,0.0011491580875128,-0.0037377207376862,0.0104765036925071,-0.0028530406029404,0.0305301850821071,0.9994746816315688,-0.0813569749102857,0.1308588195927971,9.801571284112892,-0.213363743195019,-0.2522733454464711,-0.0164444415917838,1.0367923116854647,0.0273631614000709,3.665793171684812,1089.9946077381587,1121.5228879896547,1109.9386834147435,1090.2927627215656,-327.4272481251444,-234.9950609819276,211.07474315896408,88.46579165004623,162.2592367274892
14.4075,-0.98574643824051,-0.5741544918469511,0.5716607718108397,0.0031499134080119,0.0005495031284431,-0.0023402180274552,0.0105312379679157,-0.0029097106674799,0.0305487362994624,0.9994734107999456,-0.0788970101857549,0.1316246858676213,9.800251593574195,-0.2134858569434704,-0.2525956042172537,-0.0164613584211581,1.0362964268108958,0.0267087763926244,3.665737407562695,1089.2081756449168,1120.770651332688,1110.5117239152512,1090.601900066946,-282.1391948463876,-342.0478134876474,216.26506255279065,142.06030252474287,162.2588809961722
14.41,-0.849664048947356,-0.8642901111516795,0.6322356143270011,0.0018467574531628,-0.0014611433261165,-0.0011007509066602,0.0105759618748386,-0.0029505162274288,0.0305617722701033,0.9994724476436224,-0.0768605478259319,0.1321333942813728,9.798968427276694,-0.2135984962046444,-0.2529326798897867,-0.0164959662869999,1.0358000494328228,0.0260530219206688,3.665679270917992,1088.5839117639273,1119.812648922217,1111.0200087275073,1091.0030642341892,-193.0318395907236,-414.35625027556,159.14542495150707,166.97289993961616,162.2585447799386
14.4125,-0.6723732068494308,-1.0755411006613929,0.721948932440642,-2.1216904896223607e-05,-0.0051036274878042,-7.81691915048015e-05,0.0106089841703232,-0.0029757107364542,0.0305705891590468,0.999471770117944,-0.0752639250450969,0.1323690985700161,9.79774462442914,-0.213702922036681,-0.2532829752108028,-0.0165445356907371,1.035303940576408,0.0253955578687659,3.6656184208153024,1088.2430164469636,1118.6988700813104,1111.3074510400083,1091.436764566644,-77.37908848988509,-500.22033598676353,53.5476143241256,180.78622795698624,162.2582275405459
14.415,-0.4160939052971546,-1.1965880101737802,0.8470213975622316,-0.0029705045857283,-0.0105651542430336,0.0014294704527928,0.0106288389033693,-0.0029899951509529,0.0305751117949209,0.9994713836744932,-0.0740333829165624,0.1323171281632159,9.79659449901408,-0.2138001352066057,-0.253644505356549,-0.0166016489229594,1.034808503639565,0.0247355302285213,3.6655548346952984,1088.1970163214778,1117.3115472422828,1111.287746799128,1091.9069953739743,37.99154747452437,-496.1590798261248,-69.40530068108099,155.96629861608852,162.25786214483588
14.4175,-0.1779540875548847,-1.1791138444089888,0.9453460034871042,-0.0053113087763533,-0.0150771283418564,0.0033321207479949,0.0106352137155742,-0.0029990522591455,0.0305738643323995,0.9994713227218172,-0.0730720626645551,0.1319827440891842,9.795524346385708,-0.2138906497598185,-0.2540151772255182,-0.0166615196459055,1.0343135715174663,0.0240721977467245,3.66548894829228,1088.4329741843362,1116.2180746821796,1110.960424536603,1092.2165960597245,135.6659644440967,-398.2221015980823,-179.6031299769668,103.3105046288916,162.25756500723642
14.42,0.0487052902047363,-1.0586904157567862,1.0062292894753255,-0.0059862789867417,-0.0186236703689689,0.0062322340209001,0.0106324317090674,-0.0030103523674383,0.0305652653662276,0.9994715705169768,-0.07224196325231,0.1314577254741428,9.794533097204035,-0.213975087159798,-0.2543926742496431,-0.016716185170028,1.0338189688577892,0.0234053979421057,3.6654218128691425,1088.875346143698,1115.3204367342928,1110.3897311492433,1092.4235478971186,219.37361428631263,-326.0078956564224,-274.57265183871647,68.90800726647747,162.2572686816135
14.4225,0.242503650336104,-0.8450422932412436,1.0034898582238416,-0.0036190959852169,-0.0213270456733773,0.0106750756693544,0.0106283281941377,-0.0030307570546506,0.0305520383706263,0.9994719419003912,-0.0714116973314881,0.1308991836770555,9.793614197391488,-0.2140562532776142,-0.2547729210491219,-0.0167573082904024,1.0333252545001848,0.0227358368461438,3.665354409376989,1089.5298422557676,1114.5880352038976,1109.5875612774098,1092.5611360960568,243.64000190253876,-205.6847620803316,-289.3906580223759,34.97335338278753,162.25690638790292
14.425,0.2992545978626215,-0.6517796777346159,0.9275441805974604,3.0929834475357664e-05,-0.022301417633342,0.0144514971228459,0.0106244454761527,-0.0030648411325375,0.0305384825522071,0.9994722752343658,-0.0704949757631101,0.1303383012841165,9.792758917675608,-0.2141375942772427,-0.2551512507914508,-0.0167820664541632,1.0328326001827808,0.0220646256368023,3.665287650592526,1090.093546153211,1114.2920129238908,1108.9427778591312,1092.5984146640324,210.19247497125784,-66.30152129404324,-234.61275751029433,2.815351960634431,162.25659381340083
14.4275,0.2389933510259321,-0.4858553018112803,0.7858714530418461,0.0030919185140744,-0.0223926734736927,0.0173673973599607,0.0106205146910479,-0.0031110642799095,0.0305257897072205,0.9994725399435648,-0.0695225481553241,0.1297705788378678,9.791957882908429,-0.2142205134272296,-0.2555247997479376,-0.0167923439782185,1.0323399520492176,0.0213917316778967,3.665222249008268,1090.580804630624,1114.2565275974275,1108.414497489858,1092.57521285586,177.07976359273627,7.642579931963766,-203.50143656259615,-20.66470047407576,162.25626473723108
14.43,0.0783849242614107,-0.3463350151114209,0.5769699107029839,0.0040959085182171,-0.0221508590020978,0.0194905675750741,0.0106172329638081,-0.003167960589863,0.0305171896211792,0.9994726337067008,-0.0685198416747971,0.1292072834487626,9.791202345878508,-0.2143071434754099,-0.2558904879530437,-0.0167905745897543,1.031846441739676,0.0207177198817884,3.665158713894328,1090.9789449711743,1114.3302258235508,1107.9252706763184,1092.4950911616622,103.96819930486537,13.005039612424085,-163.38363888419,-37.00382554752072,162.25584525439544
14.4325,-0.0746087676809444,-0.2828742783364619,0.4047493189899855,0.0025015713778016,-0.0221050930347221,0.0201377345055535,0.0106147734934712,-0.0032327810014879,0.0305165901846956,0.9994724449405012,-0.0675345001336073,0.1286480386227227,9.790486050877178,-0.2143996447866084,-0.2562456109191278,-0.016780808011402,1.0313513552643592,0.0200433808968621,3.6650978998058776,1091.1006456271484,1114.3215527954897,1107.597579295437,1092.3901937281223,-0.3735298495029708,-52.62732560271702,-125.84769741481828,-51.12209569073567,162.25547169323895
14.435,-0.1926154081522573,-0.2612767940459572,0.271776099836623,-0.0003158973851844,-0.0225140150819613,0.019786614197145,0.0106109765065207,-0.0033014301688035,0.0305240036614808,0.9994720112811016,-0.0666385045419675,0.1280465798869349,9.789806663262162,-0.2144980184198715,-0.2565897125769368,-0.0167693124874845,1.0308540640155468,0.0193675832495385,3.6650399958914632,1090.977077321927,1114.0670891955372,1107.2960321892442,1092.2394806832085,-86.16032673841694,-157.26587389015947,-119.74847318677,-71.09406929854735,162.255069665546
14.4375,-0.2658259152506272,-0.2577834350951389,0.189044524205735,-0.0026622864965922,-0.0233123000425798,0.0189126481431186,0.0106027646118712,-0.0033693940965826,0.0305420146857341,0.9994713039321986,-0.0659097879643944,0.1273393568517049,9.789166207568623,-0.2146036963498712,-0.2569218398686445,-0.0167630456115085,1.030355468057392,0.0186904584125544,3.6649840320627582,1090.6698439934564,1113.535223426039,1106.998836929503,1092.0347233816296,-151.9676409016331,-279.9381159565303,-112.48184475218714,-101.28200563587792,162.25464180509775
14.44,-0.2981573613598277,-0.255606938207437,0.1687351536974185,-0.0035365090129408,-0.0243819427319427,0.0180236969806489,0.0105915576384267,-0.0034364293645302,0.030572525712601,0.9994702519254466,-0.0653370986932178,0.1265499737448146,9.788570248046653,-0.214718273705952,-0.2572421269134937,-0.0167644727070695,1.0298571388669953,0.0180132720589314,3.6649294961259287,1090.217239117419,1112.6673986157548,1106.7336229654832,1091.7330706550292,-204.30076632639145,-439.6112351818596,-93.81240437567965,-164.28661347356115,162.25418051546177
14.4425,-0.3243788813566111,-0.2346783894558132,0.1923721441733617,-0.0035664156880447,-0.0255629200720015,0.0178570140023232,0.0105804087558674,-0.0034966377516518,0.0306123903910658,0.9994689376734278,-0.0650157045523446,0.1257402304518567,9.788028381076495,-0.2148409258542431,-0.2575535903116585,-0.0167768807433388,1.029359494374689,0.0173363041694211,3.664875554329453,1089.6483401618243,1111.3371672501291,1106.5297749076249,1091.2132903142617,-192.0122763371792,-511.0980069253056,-43.879248468685965,-221.7982537996812,162.25358520123788
14.445,-0.357354878693548,-0.1936084660870628,0.2211789757783294,-0.0035145674928436,-0.026096197837554,0.0187802814362593,0.0105704060768649,-0.0035495236553222,0.0306585740442279,0.999467442356,-0.064933743641448,0.1249342424347354,9.787553283357635,-0.2149713915658205,-0.2578596072102223,-0.0168015508605857,1.0288627267967403,0.0166592102312177,3.664821771548864,1089.2571777357327,1110.1119085811279,1106.51422672314,1090.6240793860306,-122.91486249862544,-480.4399105306903,32.46052946220252,-268.36340831365186,162.25305153475315
14.4475,-0.4141954714090813,-0.1215384525613027,0.2215900505314774,-0.0038651477849127,-0.0261019758577548,0.0204081723107038,0.0105648664804631,-0.0036016392620777,0.0307104778369106,0.9994657257882256,-0.0649380643088037,0.1242003363048475,9.787158904169305,-0.2151110778012563,-0.2581629184709713,-0.0168347844111427,1.028366952256531,0.0159826072180972,3.6647680180938575,1089.0337658493313,1108.9349676974764,1106.6920775549358,1089.8714732726935,-57.34537859970273,-473.01804697132746,115.10875740580578,-359.14784541713584,162.2524749315753
14.45,-0.5089959575545259,0.0119150001343225,0.1615612225181559,-0.0047001711933933,-0.0259700741595231,0.0225588060540033,0.010565889295206,-0.0036583734729367,0.0307673244156394,0.999463772387612,-0.0648972458476158,0.1235889351483006,9.786859948236575,-0.2152612087625222,-0.2584665188367255,-0.0168730806979947,1.0278724339091327,0.0153070065083202,3.6647138520978793,1088.9704508427344,1107.7468183462709,1107.089770510169,1088.8283401589447,2.2734955311531024,-383.91864294429433,160.96488900904873,-391.50935810487925,162.25172799788592
14.4525,-0.602526620945175,0.1747937515278555,0.0580951769114252,-0.0054529007796753,-0.0260748525581128,0.0240167159091349,0.01057477429379,-0.0037154499208262,0.0308224521986275,0.9994617883430084,-0.0648678578799491,0.1231458282577808,9.78667079715819,-0.2154193264729446,-0.2587759611860775,-0.0169164431910415,1.0273783483745789,0.0146317636274414,3.6646592106708655,1089.045133326987,1107.0153744827546,1107.4969019999812,1087.913926482169,40.12788054106639,-237.4493220905624,154.3901158715778,-351.0770185657992,162.2510552912409
14.455,-0.6939870875688405,0.405767800090478,-0.0833499539776196,-0.006302791591816,-0.0265173954819795,0.0244529848426234,0.0105917680174173,-0.0037632779992005,0.0308722388651713,0.999459916816782,-0.0650110821339817,0.122904492091972,9.786603884441693,-0.2155838860917322,-0.2590952681947484,-0.0169667944344244,1.026884358585674,0.0139567520551717,3.6646036158150688,1089.1710902454397,1106.5595717358183,1107.8617210895268,1087.072955066116,48.10388987712988,-145.9686550804526,122.3280880044756,-303.5655420568368,162.250324600669
14.4575,-0.7629712136771206,0.6954958378224672,-0.2322364537836328,-0.0077627247890704,-0.0270362537424244,0.0238042173001318,0.0106145237803155,-0.0037971562405389,0.030914829111909,0.9994582568240494,-0.0653949451864843,0.1228490849274944,9.786668087922179,-0.2157539057718531,-0.2594271854705555,-0.0170246669670362,1.0263901271897653,0.0132819756866172,3.6645458447944272,1089.2856527763727,1106.2855312073525,1108.1085424400035,1086.3960987718851,37.45152003206709,-83.65977997385528,58.47802968609353,-208.06807436603253,162.2495410569979
14.46,-0.7726219007878964,1.0364196848123584,-0.3595967178333916,-0.0103491889701648,-0.0267937332020426,0.0221596894496462,0.0106386443303733,-0.0038157806868271,0.0309457861578542,0.9994569965164604,-0.0660238927829717,0.1229247666600504,9.786867807953971,-0.2159266218136792,-0.2597749278052259,-0.0170897416321397,1.0258947028973948,0.012606486247807,3.664485340085733,1089.3583478456,1106.1412728359487,1108.1541112379573,1086.0326146942857,26.37831895398946,-54.98042374005358,-25.965047242921663,-67.70264238838385,162.24868788258013
14.4625,-0.6799000391313035,1.443778979569031,-0.4609209764438862,-0.014146751407864,-0.0239181174475044,0.0197063673694335,0.0106613554205975,-0.0038175677011093,0.030966814624604,0.9994561170444856,-0.0669103423408634,0.1231106461768414,9.78720220283996,-0.2161019247813493,-0.2601384750523976,-0.0171607792122282,1.025398072832802,0.0119295649660801,3.6644217372105374,1089.4175443711426,1106.010629088652,1107.9787172037888,1086.0575855599432,26.333851674422256,-50.24829870513803,-89.67677979414438,88.48072727930172,162.24757761391476
14.465,-0.5050389881386249,1.7201664887122423,-0.4970388571483004,-0.0170821322807148,-0.0186771811488526,0.0176338449373689,0.010684696949338,-0.0038043417326129,0.0309804644701854,0.99945550881001,-0.0680011078662383,0.1234783098142094,9.78766455794675,-0.2162798915261895,-0.2605169536509481,-0.0172327666024875,1.0249004860414523,0.0112516776488245,3.66435561675273,1089.490017103972,1105.8900313424233,1107.7057273389867,1086.475018330682,48.122726430157606,-51.967284845696724,-106.37303130336632,234.59459562337517,162.24657789478553
14.4675,-0.2406811257138837,1.8654544490968967,-0.4933016663524219,-0.0190289677742281,-0.0113940535071587,0.0159718518125595,0.0107076255684532,-0.0037813974963407,0.030987567258975,0.9994551358112348,-0.0691815613375325,0.1240355011360813,9.7882436465759,-0.216459576465514,-0.2609094870162941,-0.017301465877981,1.024402364943177,0.0105733303008183,3.66428825063976,1089.6581580032935,1105.7507926644237,1107.446852047272,1087.2305585380602,110.45125508670118,-57.116576281341786,-64.9284714749127,372.8559471914068,162.2455002339085
14.47,0.1393405853994962,1.8593004906820216,-0.4694949039454121,-0.0193035291592631,-0.0024665781289986,0.0148418877072421,0.0107270181533301,-0.0037555547719085,0.0309893522190921,0.9994549673737504,-0.0703138940880118,0.1247452514396209,9.788924527319024,-0.2166400924945838,-0.2613142982009575,-0.0173639600475999,1.0239040794239032,0.0098941554702553,3.6642200925767967,1090.0422733794055,1105.6044484610163,1107.381084981612,1088.3392980666395,175.78860276843304,-41.83563627603612,51.806087218357185,404.20355097784386,162.24411898218435
14.4725,0.4704077995402009,1.7248210656237044,-0.4549250587024496,-0.0176968410248591,0.0037475388774393,0.0144249283858612,0.0107425981521462,-0.0037333753025346,0.030989409378214,0.9994548709402588,-0.0712695825920573,0.1256217535677927,9.789689105767808,-0.2168215615696314,-0.2617280062560213,-0.0174169053802576,1.023405848317411,0.0092135890244798,3.664151426501421,1090.5371010171355,1105.5416144830435,1107.7058824833637,1089.251576292949,228.34858355759016,-6.255712610392373,242.61442691622784,319.49550932196854,162.24289794982948
14.475,0.7781148480052376,1.5223243679961065,-0.4637497068663736,-0.0150745638364071,0.0078489238265117,0.0138737416793202,0.0107558138886351,-0.0037208022805848,0.0309891964883418,0.9994547651703828,-0.0719368844583991,0.1267069525214992,9.790517474334969,-0.2170027202731694,-0.2621475573750238,-0.0174573335900646,1.0229068582117626,0.0085307685617394,3.664082872620331,1091.1840162971935,1105.5731698979644,1108.5941571161927,1089.9367756132488,297.1476048169269,35.20384627494782,536.9731969419332,212.43547328500745,162.24161065406008
14.4775,1.0969837483429803,1.3001187947290815,-0.5093192521787531,-0.0119126021561016,0.0099376307125631,0.0126880028321119,0.0107700716176289,-0.0037209085294445,0.0309889032447211,0.999454599200962,-0.0722647261539088,0.1280751922129287,9.791389139231727,-0.2171812892794925,-0.2625699912012213,-0.0174834578938571,1.0224060643345172,0.007845403559154,3.664015417840256,1092.0228390412203,1105.7176337144183,1110.3907484680735,1090.3137536593742,293.2154933439048,66.38541999744902,769.6372113926534,52.80393904853638,162.23999962667628
14.48,1.3141208426160091,1.1950017280568053,-0.5772884474427791,-0.0093732274863814,0.0098248017178383,0.0114599514724321,0.0107871154417968,-0.0037353884876342,0.030989729058981,0.9994543157657676,-0.0722354512067917,0.1297605490996628,9.792284444320622,-0.21735537168084,-0.2629914908607347,-0.0174958750584528,1.021903072276542,0.0071580204694685,3.6639503203180097,1092.6500937639132,1105.905096997952,1112.4423431731568,1090.2007953084917,203.23418154229736,84.97361075248462,893.478355711473,-125.93336805628272,162.2386108874225
14.4825,1.4734965864985392,1.207914069296088,-0.6755076432269004,-0.0065810534113468,0.0094513320822105,0.0103509927764433,0.0108039858147837,-0.0037652583387721,0.0309933215589948,0.9994538965996268,-0.0718521025262214,0.1316962185731178,9.79318574277995,-0.2175234373213572,-0.2634076723870626,-0.0174986254120113,1.0213980962513578,0.0064686748890722,3.663888985659371,1093.0390099489316,1106.1425017681806,1114.8581402466302,1089.6840868190927,95.04731049134607,105.98258610873307,976.6666004888643,-253.11480534874624,162.237184743333
14.485,1.5741753112475887,1.3050151195523787,-0.795541310389869,-0.0031085731161402,0.0100170119914179,0.0094122972125797,0.0108144576363015,-0.0038055693830905,0.0309926346190311,0.9994536463787363,-0.0712392446668515,0.1337453189219067,9.79407787995974,-0.2176795657585,-0.263817785232467,-0.0175001448938498,1.0208904724286405,0.0057762015250756,3.6638314835024928,1093.1253303163699,1106.4350099284954,1117.3256761756,1088.9352212817482,-52.4131291728654,144.080348019884,927.9131297149802,-318.65170724676796,162.2357344831889
