t,ang_acc_x,ang_acc_y,ang_acc_z,a_vel_x,a_vel_y,a_vel_z,quat_x,quat_y,quat_z,quat_w,acc_x,acc_y,acc_z,l_vel_x,l_vel_y,l_vel_z,pos_x,pos_y,pos_z,mot_1,mot_2,mot_3,mot_4,dmot_1,dmot_2,dmot_3,dmot_4,vbat
2.7925,0.5983202426826877,1.1977338760317096,0.1917653794059462,-0.0047583798767399,-0.0660688079420686,0.0210097455092029,-0.0011455501417158,0.0057630177130779,0.0546727159805396,0.998486825592921,0.0216841091165989,0.0249821653754404,9.897694937845767,0.0186155775833156,0.0124366831885475,0.0157414519121253,-1.6830225135014427,3.4826933585632878,1.2253848537077745,1103.8136916295723,1101.9218704894192,1115.8883170109423,1093.4752546044188,235.99373627576415,-136.59666257176758,33.68759739250962,-203.14385389661288,164.20194579289748
2.795,0.4800256875094826,1.2912229688997967,0.1024202007305025,-0.0039226192628043,-0.0623945252534455,0.021622997551196,-0.0011448820309754,0.0057364056846083,0.054705912621136,0.9984851846449894,0.0211442567385268,0.0244444915650256,9.898120512594511,0.0188363818256465,0.012565533843156,0.0159023056339805,-1.6829801024608364,3.482724496825199,1.2254295109941615,1104.3778029217588,1101.6870422414927,1116.0256401064455,1093.223373873721,224.80236231240747,-62.26412038026998,100.2628277413372,4.879108182740414,164.20175494871413
2.7975,0.3684459315325072,1.337738929137809,-0.0364362520105929,-0.0032535107143503,-0.0579625545496328,0.0219188096046949,-0.0011452949714891,0.0057272212915003,0.0547301302757139,0.9984839236452796,0.0200531448246736,0.0236431812238503,9.898567876532276,0.0190531504853728,0.0126971223135524,0.0160560655293133,-1.682937753036755,3.4827576271096747,1.2254714598395573,1104.9377034411343,1101.610549887518,1116.3896311496487,1093.4996501453327,181.925122700874,-6.294799743136112,173.1441990833329,180.67320368125965,164.20156071408834
2.8,0.3120365629595729,1.3395423523934404,-0.1634336460027774,-0.0030243603329161,-0.0548645922605018,0.0216959207594531,-0.0011487751906154,0.0057323080904169,0.0547441754730853,0.998483121486785,0.0184862106612238,0.0225400247027274,9.899027358729725,0.0192656483214934,0.0128277543571145,0.0162079792315451,-1.6828952871862919,3.482793436242127,1.2255112876358172,1105.2874285352632,1101.6555682427772,1116.8913611018625,1094.1267398921273,116.18540696376056,23.34605522059816,240.1147633221009,298.9096809745459,164.20142703958393
2.8025,0.2984082147972452,1.3280311438769223,-0.282822853863083,-0.0030221220395172,-0.0524224871849136,0.0210381072971306,-0.0011576703687622,0.0057472048699476,0.0547519578005809,0.9984825855120278,0.0165470652038737,0.0210960686714237,9.899478512796618,0.0194734845507644,0.0129531897747769,0.0163634694210431,-1.6828522630281972,3.4828320885720587,1.2255491445789,1105.5186304759532,1101.727280163621,1117.5902049662595,1094.9941985502055,78.52567805212115,21.648528971446016,337.108749615625,388.35157207477926,164.20132167186324
2.805,0.3233594384773484,1.3191811824718227,-0.3960783536755419,-0.0028705034212958,-0.049687409660279,0.0198766019644883,-0.0011765340782976,0.0057626060699114,0.0547584234347201,0.9984820918238592,0.0144352053650501,0.0192314547295799,9.899890343748208,0.0196761467830271,0.0130690909350831,0.0165276659036084,-1.6828084920837971,3.482873749958117,1.2255851748028423,1105.6800569255236,1101.7638108876345,1118.5769048499403,1096.0684977525011,42.63644702259717,-1.2169681446721627,366.6934929147452,364.8573978170666,164.2012268485667
2.8075,0.3633189803682344,1.3194927982142515,-0.4518319741834135,-0.0024513897999439,-0.0473682618474009,0.0186206810283535,-0.001206273457924,0.0057719552547587,0.0547665299722851,0.99848151463642,0.012302005812614,0.0169488658883257,9.900221360696593,0.019872753782539,0.0131717331774174,0.0167051602019805,-1.6827641274519427,3.4829180674478386,1.2256190342639233,1105.731812711066,1101.7211953228975,1119.4236724308332,1096.8184855392908,4.533141672118387,-33.00342816805894,314.43918749265083,238.8874283653928,164.2011733673957
2.81,0.3967259468530372,1.3178183326547068,-0.4546419216711939,-0.0014996167202131,-0.0448344456438882,0.0171048623593725,-0.0012419504265332,0.0057702668584426,0.0547786789903402,0.9984807573947972,0.0102762478878266,0.0143745607519502,9.900421202964727,0.0200622072541273,0.0132583894567898,0.0168995258066909,-1.6827189346622031,3.4829634855052127,1.2256510026159435,1105.7027226338844,1101.598793746794,1120.1491007874035,1097.262934894328,-25.95833696877945,-58.41001242147409,247.6614057868172,116.8104543033248,164.2011454256455
2.8125,0.4024312982617473,1.297870330983234,-0.4080679630109787,-7.401902688826418e-05,-0.0418218231664218,0.0155067093119624,-0.0012775280052798,0.0057504772546319,0.0547930271212909,0.9984799698478783,0.0085306612323282,0.0116591364633622,9.900433332913144,0.0202432908092208,0.0133275588883672,0.0171129438253656,-1.6826718868541544,3.4830092481988606,1.2256820438604228,1105.6020210262222,1101.42914526079,1120.6619794597673,1097.4025378108074,-58.869645440473846,-70.87907553950723,132.08873292942653,-12.603954082078683,164.2011379381077
2.815,0.3517921846316324,1.2305765354823104,-0.3028831671976348,0.0017542511716235,-0.0380826689360013,0.0139294657040533,-0.0013061185616474,0.0057140288803258,0.0548057386346909,0.9984793611109776,0.0070719966283858,0.0089821448686738,9.900196863795715,0.0204145235810345,0.0133789688753046,0.0173463432360324,-1.6826224210051834,3.4830551074113623,1.2257132877824948,1105.408374406682,1101.2443983690966,1120.809544452051,1097.1999151239177,-105.33504153113653,-72.01806853959323,-34.02164210165283,-144.4126923736834,164.2011542374996
2.8175,0.2106087432833896,1.0696367310609143,-0.122954125212191,0.0041374026406981,-0.0331223952684962,0.0122951462228878,-0.0013283460781809,0.0056621721177176,0.0548150915174097,0.9984790171766758,0.0059033214385778,0.0063752530035036,9.899650345888489,0.0205747879410813,0.0134130769339979,0.017599190548096,-1.6825709054901794,3.4831002268409574,1.2257464558165356,1105.0753458185663,1101.0690549180922,1120.491871249259,1096.680474348939,-134.24379929379316,-48.30410042145662,-196.39789397943292,-212.5610945443486,164.20120015993163
2.82,0.0305636949247954,0.8651271432484408,0.0502944986378514,0.0058643172527649,-0.0293084298193634,0.0115598180816276,-0.0013508698062983,0.0055944719400943,0.0548224813590545,0.9984788580128732,0.0050542242212828,0.0037479059704023,9.89873499121998,0.0207236660137998,0.0134309523921406,0.0178694766774553,-1.682518351261594,3.4831445389808606,1.225783195433667,1104.737155410213,1101.0028778669891,1119.8275549821535,1096.137109651196,-138.58106757887955,-4.27438838719325,-328.86358012590387,-212.26390287737036,164.20125956703637
2.8225,-0.1860743324773967,0.6073624669599844,0.2099914648253858,0.0064060047748968,-0.0266102389534372,0.0121993975322233,-0.0013764578699475,0.0055167903772065,0.0548326327564552,0.9984785918829644,0.0044327439255135,0.0010905137670056,9.89739710146524,0.0208613331604702,0.0134344664693953,0.0181540507333912,-1.6824657678384165,3.48318787565697,1.2258230654285829,1104.382440480672,1101.0476829761562,1118.8475533486292,1095.619154834552,-148.3015725485429,44.76397104003507,-463.5847125516789,-199.27569725208303,164.2013399220254
2.825,-0.4332096319770912,0.2851147109969135,0.3391969144147678,0.00503680924839,-0.0252820527609552,0.0146411512668792,-0.0014064604452133,0.0054328797701571,0.0548444609967074,0.9984782645210049,0.0039878291937648,-0.0015849773154781,9.895591815396125,0.0209886015109773,0.0134264129353361,0.0184487467653534,-1.682414003927948,3.483229476183209,1.2258655613178446,1103.9956475474703,1101.2266977221896,1117.5096314193952,1095.1407311649355,-129.86895192293835,81.96536483155971,-482.01368134119673,-145.0622174902068,164.2014594107949
2.8275,-0.5859455835056802,0.0484100696220317,0.372738799164151,0.0026735475166995,-0.0257484147417863,0.0171810241867061,-0.00143927475889,0.0053444759392864,0.0548579051051673,0.9984778898037636,0.0037083843477986,-0.0042159472236079,9.893285666170216,0.0211069759534621,0.0134100758468095,0.0187486819958027,-1.6823632252574885,3.4832689471836185,1.2259107182777744,1103.7330957210575,1101.457509800314,1116.4374849419235,1094.893843747101,-93.09945994969183,100.96583492591193,-380.1399184826177,-71.8294215808798,164.2015773589841
2.83,-0.6460343648406459,-0.1115748476090682,0.3287099249246512,-0.0002308569057505,-0.0272665347836319,0.0191111393315499,-0.0014678874346039,0.0052562224598612,0.0548694271592265,0.9984776741797414,0.0035279275048386,-0.0066359832382601,9.89045819088211,0.0212181492310792,0.0133892576117209,0.0190486767876136,-1.682312935147391,3.4833063537985556,1.2259579057505867,1103.5301502477218,1101.731526896819,1115.608931826982,1094.781584057031,-86.49836066815809,119.84246446818617,-276.257291839926,-35.28599386563731,164.2017133683133
2.8325,-0.5948980018702122,-0.1884845695802664,0.2145608323364736,-0.0038387858818458,-0.0296163236992865,0.0201717766938757,-0.0014853397140615,0.0051733268555703,0.0548787366072831,0.998477655134084,0.0033645566830228,-0.0086858425184638,9.887103411613252,0.0213240698904014,0.0133675017864904,0.0193435549781165,-1.6822621872314756,3.4833425163612723,1.226006171629158,1103.3006039177167,1102.0567221226547,1115.0561984827239,1094.717413777773,-95.2380920346079,111.50311630445012,-119.71964228319194,-27.470895360830255,164.20189628292607
2.835,-0.4584769910651798,-0.1585449017639769,0.09828826522097,-0.006531300395864,-0.0315530994024522,0.0200713580685331,-0.0014876404645784,0.0050993644594791,0.0548900821586027,0.998477638183578,0.0031609025575264,-0.010273170881169,9.883230630861672,0.0214269650105821,0.013347664512973,0.0196282735138638,-1.6822115344457655,3.483377395428334,1.2260558176912937,1103.0539597875488,1102.2890424783411,1115.010333615566,1094.6442295802267,-127.67077322401109,78.62384372592882,60.52013929611478,-49.96141310248383,164.20206426917994
2.8375,-0.2596237704610053,-0.059001134354018,-0.0065660539376952,-0.0080334541266106,-0.0325927851872381,0.0192576098101796,-0.001475675060175,0.0050387418436585,0.0549104701332238,0.998477276912543,0.0028334950808628,-0.0114067762469201,9.878864150628855,0.02152912642502,0.0133317065152341,0.0198981711191665,-1.682162464123867,3.483410969398655,1.2261073516827588,1102.6622500515966,1102.4498413412844,1115.3587991792044,1094.4676067122605,-190.82066440073913,50.305894927943136,186.29360619584477,-95.22416706622809,164.2022473703668
2.84,-0.0486635405306541,0.0624192411500444,-0.0854966193672332,-0.0080341127855062,-0.0322683830453868,0.0181096399506251,-0.0014537210517278,0.0050002417798897,0.0549478851451374,0.9984761433926964,0.0022049661555793,-0.0121623367940709,9.87404247060286,0.0216325173158411,0.0133206560873162,0.0201492071011729,-1.6821165815954955,3.483444336539673,1.226160531825508,1102.0998564655451,1102.540571952981,1115.9418016465454,1094.1681087448956,-270.35318132473543,20.83212034526555,254.8211443830324,-149.78217574988673,164.20244223020435
2.8425,0.1269860590838426,0.163660571237338,-0.1281095078991164,-0.0066864130604523,-0.0306560468341537,0.0169666938995961,-0.0014286228147619,0.0049788345833301,0.0549984496115731,0.9984745073435652,0.0013646090956654,-0.0126845426896976,9.86881917784651,0.0217387728836401,0.0133150823580783,0.0203773344824156,-1.6820727592920834,3.483477644112356,1.226215083842907,1101.3104841449729,1102.5540019430107,1116.6329049011197,1093.7186958335108,-392.8118455485409,-4.7554298183510095,275.7343569207292,-221.33285839261913,164.20265032559908
2.845,0.2494179859959764,0.2192857800621607,-0.14918741003849,-0.0046386371034614,-0.028368180541623,0.0163241388345456,-0.0014024620341514,0.0049624929561632,0.0550583515083845,0.9984726598356372,0.0005421339275205,-0.0130338894568531,9.86326123519105,0.0218488831835396,0.013314903548429,0.0205786997310107,-1.6820291257945144,3.483511125607668,1.2262710396946728,1100.1357972378023,1102.5167948038893,1117.3204734311491,1093.0614444529326,-455.07070572885885,-14.800776259426444,191.1013234567731,-245.80479924821316,164.20291411397207
2.8475,0.2605177068701229,0.1992335901287198,-0.1580557648356968,-0.0029094163032137,-0.0267061945896247,0.0166304916189006,-0.0013735734195738,0.0049401649025076,0.0551222009721292,0.9984709530172176,-4.980642417958675e-05,-0.0131970027969667,9.85744630503114,0.0219626270040316,0.0133194949094665,0.0207501111334481,-1.6819834850306172,3.4835464821605857,1.2263267854706603,1099.0351306163286,1102.4799980617136,1117.5884115184035,1092.48967183727,-442.92883528706653,-7.713868903465646,12.391050712358528,-211.85598267293696,164.20314476359084
2.85,0.1765023680957575,0.1182975315523746,-0.1733976349595012,-0.0010327523868058,-0.0256277303680505,0.0173466026136797,-0.001344494348363,0.0049036814740433,0.0551834129189518,0.998469736967588,-0.0002608281956401,-0.013240032585743,9.851459907472272,0.0220785834645696,0.0133275084924212,0.020889371949711,-1.6819345770899867,3.4835846464681994,1.226382686685896,1097.921153061367,1102.478225459372,1117.3824286847107,1092.002164539568,-467.57461470389075,9.929072935756478,-207.12402111621927,-170.2393534143575,164.20338556500212
2.8525,-0.0088088609674389,-0.0202862793601427,-0.1986596653485569,0.0009681384096583,-0.0253981752530449,0.017724388120417,-0.0013194592676101,0.0048497913891301,0.0552396244564754,0.9984690295687548,-3.9310249891823246e-05,-0.0132559262844559,9.84539277453378,0.0221945707859224,0.0133370354726124,0.0209952611239083,-1.6818817411850062,3.483625758586279,1.226439327312986,1096.6972575428092,1102.5296434263923,1116.5527914128224,1091.638475070198,-417.95921729677485,22.60446010159333,-382.3022121062049,-82.20963399626444,164.20368499170897
2.855,-0.1951042378342513,-0.1438129920517013,-0.211761772769053,0.0015736924651949,-0.0260333574941262,0.0170901065913229,-0.0013027544851412,0.0047828801182357,0.0552898229259895,0.9984686336878996,0.0005167770314133,-0.0133284189557874,9.839337952563143,0.0223079941526551,0.0133461798681692,0.0210676085977496,-1.6818251821373635,3.4836699806633415,1.2264954088990248,1095.8313569748832,1102.59124775988,1115.47091762418,1091.5911163695866,-311.4777707599454,13.30292297830084,-466.2540574896056,43.425558758463936,164.20394229811052
2.8575,-0.34941279160403,-0.247399534509503,-0.1952039393807101,0.0005958873589201,-0.0271047892489527,0.0154590617279808,-0.0012982828970306,0.0047132351307348,0.0553320323157284,0.99846824423857,0.0011950199959194,-0.0135251085885564,9.833388283323469,0.0224164195712961,0.0133535480464806,0.0211071883345329,-1.681766762254272,3.48371479718915,1.2265510386293104,1095.1398686890095,1102.596158041284,1114.2215211253745,1091.8556028639905,-271.47599189830214,-37.49344151347111,-517.6656289250897,186.67557978865656,164.2042065548136
2.86,-0.4168639017435658,-0.3268497527546174,-0.1297217542350781,-0.0020778707687101,-0.0286011014342289,0.013424829089361,-0.0013039230073155,0.0046499378658192,0.055363857680983,0.9984674295683066,0.0018142516207866,-0.0137945335517553,9.827634684458317,0.0225183039118949,0.0133586502323771,0.0211151822973949,-1.6817082980210218,3.4837576568718465,1.2266077022026367,1094.4739770153917,1102.4037805523124,1112.8825894795543,1092.52449426853,-224.36277029372224,-124.65992326619084,-417.1300600273017,293.5169998611201,164.20453037137543
2.8625,-0.3273222766908138,-0.3478812873839124,-0.046161177627018,-0.0051640456891933,-0.0298811863857429,0.0125639539060329,-0.0013124385696031,0.0046010533936942,0.0553835628947995,0.998465819615372,0.0022191807439237,-0.013984381330841,9.822163348118968,0.02261312594403,0.0133617156140687,0.0210932505252012,-1.6816510751147027,3.483798191338261,1.2266662005226263,1094.0180548375408,1101.972858424953,1112.1358708252378,1093.323187863296,-167.3020456741484,-248.10723963049128,-188.71347109410272,348.20590460783404,164.20480482915823
2.865,-0.0588477690276924,-0.3213810135102583,0.0404452617455048,-0.0083989564088093,-0.0310948674622007,0.0129913902605525,-0.0013190354012311,0.0045632736844513,0.0553901950667809,0.9984639373872782,0.0024744574428547,-0.0140014880268943,9.817053753549203,0.0227016745238484,0.0133630613205743,0.0210434765689287,-1.681594636557165,3.483837416914844,1.2267252216206317,1093.637466787021,1101.16324435416,1111.939022124084,1094.2655237915692,-139.17869594370427,-391.3216254841329,12.839690137207343,380.87002109105833,164.20508288843635
2.8675,0.3480147145035575,-0.2606162952698008,0.1072322680676198,-0.0107406903729969,-0.0321953919812533,0.0142248344983475,-0.001318996083541,0.0045291834425873,0.0553861645539426,0.9984622137839284,0.0027234362367661,-0.0137577841720415,9.812375557884835,0.0227856096269542,0.0133628347411031,0.0209687724122228,-1.681538923420026,3.4838764608880064,1.2267835818843909,1093.3221613578223,1100.0162502975325,1112.2000692759239,1095.2275379687514,-104.2369801176414,-527.9998711519623,185.8120356595958,365.55287635088325,164.2053630376447
2.87,0.8690343458582029,-0.1709147652547935,0.1342424237067302,-0.0105183794066658,-0.032960354039269,0.0157511573456786,-0.00130839573755,0.0044957480739741,0.0553767030459085,0.9984607346449018,0.0030204297306124,-0.0131754670509096,9.808185559024384,0.0228669151473705,0.0133609181932139,0.0208732730464645,-1.6814840664442758,3.4839161835435903,1.2268395883845309,1093.1162818864327,1098.5232449984003,1112.868082302382,1096.0932881733236,-53.2603640060654,-697.4159560002739,326.8559797401919,333.3367849788445,164.20564460630223
2.8725,1.5221842668196688,-0.0518917079800844,0.1227445516026776,-0.0063676606510612,-0.0331250614901523,0.0170780807218928,-0.0012898042937234,0.0044642094039583,0.0553635013509747,0.9984596204778746,0.0033265979154612,-0.0122992517882958,9.804525736876586,0.0229475647506365,0.0133570263641283,0.0207622931062535,-1.6814304501049686,3.483956785205374,1.2268920047097782,1093.055859537792,1096.5291705175312,1113.8343491746248,1096.8942218936456,18.07806265978836,-723.2228929957428,334.0556740482569,242.07769228528892,164.20598268585687
2.875,2.0093736478145505,0.0398169517768968,0.092357335688023,-9.237076000802762e-05,-0.0326241992229242,0.0174562548616249,-0.0012685664459554,0.0044339961073507,0.0553484727071577,0.9984588841961106,0.0036331966016679,-0.0112304274269387,9.801422935158179,0.0230297059219198,0.013350809419951,0.0206415399716648,-1.6813784397887308,3.4839980555069965,1.2269405342629771,1093.2066721997317,1094.9071305334217,1114.5383606726232,1097.30367663475,110.26330752988775,-585.8735120323797,217.12744353122167,104.991913227152,164.20626351307274
2.8775,2.364559662762253,0.1090418820568799,0.0667832481919515,0.0075455646445134,-0.0318419997340871,0.0171260463937972,-0.0012443551789846,0.0044074428343255,0.0553354735561606,0.998458356362238,0.0038785368634076,-0.0099569894375256,9.798888267614752,0.023115296641097,0.0133422643760337,0.0205165685119544,-1.6813283153229968,3.484038947738472,1.2269866734959431,1093.6071760754414,1093.599802957369,1114.9199863922809,1097.4191814597812,237.16929885632047,-447.6867052580114,72.60242468178302,-12.599540198107475,164.20654210245925
2.88,2.600952729349267,0.160770252328966,0.0681221978452678,0.0165435977351425,-0.0309978171426552,0.0163330103059518,-0.0012093183765565,0.0043887756168524,0.0553302761382637,0.9984577131902802,0.0039704361372533,-0.0083193012938968,9.796917337645215,0.0232058567259984,0.013331853307232,0.0203922652724681,-1.6812803950178328,3.484078922297076,1.227032248868267,1094.3925186940132,1092.6686970071316,1114.901372796032,1097.2406789337595,335.5491889560725,-209.59605260205072,-81.02235373630894,-109.606864563059,164.2068722890268
2.8825,2.6402575603612894,0.1806908422365655,0.1058330098166538,0.0234086408766314,-0.0304894170060428,0.0155939506320755,-0.0011596178189978,0.0043692381604238,0.0553257095160734,0.9984573579950946,0.0040656337575231,-0.0062528901434927,9.795491846952636,0.0233023191100914,0.0133206450108132,0.0202723244424928,-1.6812325679902511,3.4841183402990974,1.2270782674444571,1095.2849220202215,1092.551822694359,1114.514874623599,1096.871147136966,394.4831088866711,96.93470630876874,-208.6809516627768,-180.04961972845797,164.20714287213508
2.885,2.534568451014808,0.1840259867050436,0.1786246882940936,0.0296689910781612,-0.0301782694404369,0.015103719337363,-0.0011011521305995,0.0043382935244088,0.0553185474896156,0.9984574562497844,0.0043449665737839,-0.0038885316528689,9.794579544760698,0.0234048103348189,0.0133092592074213,0.0201599174578486,-1.6811827424874015,3.4841580774952634,1.2271243117759911,1096.3649342384467,1093.1533705386755,1113.857968037718,1096.340430835117,493.97531045416446,407.6633214174942,-317.689265648984,-255.4981463098384,164.20740732647215
2.8875,2.269490843825112,0.1772941077260848,0.2845357757341415,0.0367291335517747,-0.0299362741623527,0.0153869793545144,-0.0010408918503948,0.0042980783251384,0.055311267366103,0.9984577974707988,0.0047411876925868,-0.0013676078230316,9.794134819506436,0.0235122234934178,0.0132981450275189,0.0200581587157111,-1.6811306801825334,3.484198839997183,1.2271699183932048,1097.7547985724927,1094.5901393014467,1112.9264282953543,1095.5936564054168,501.4998173786005,611.9233323182601,-344.0641450381991,-283.4584208204493,164.207715949638
2.89,1.9564091443146447,0.1663692068954416,0.3641355493120819,0.0422211740356482,-0.0297534432706149,0.0165163096576835,-0.0009820344479939,0.0042462863354735,0.0553070378679887,0.9984581688504404,0.0052801077024831,0.0012334472819811,9.794102402169646,0.0236230700862499,0.0132880315164504,0.0199692182527404,-1.6810758900359717,3.4842405971747703,1.2272154287111852,1098.8724333253397,1096.2129872002668,1112.1376473125272,1094.923138731015,407.70709588706234,684.3883325851639,-302.1467949974586,-271.01166978096114,164.20796465081264
2.8925,1.579547828127618,0.1503817260353311,0.4063999936232826,0.0467811430692012,-0.0294890734880732,0.0181750472139016,-0.0009257952127114,0.0041787515055875,0.055312811727592,0.9984581769432938,0.0060289001686321,0.0038704899821948,9.794419069249887,0.0237358146047534,0.0132798110771126,0.0198944974482595,-1.681017913677182,3.4842827284742715,1.2272610507401316,1099.793334051928,1098.0120809643724,1111.415694320367,1094.238598056512,314.95548144008114,706.6086208613492,-273.5216968882982,-271.8548380370124,164.20820306592333
2.895,1.1785773951929006,0.1282972457811962,0.4031167864832721,0.0501968819203131,-0.0291065313905161,0.0199444599228369,-0.0008706764909871,0.0041050104813305,0.0553328714965808,0.9984575354405484,0.0067930367573489,0.0065624343762276,9.79501431929208,0.0238484853011115,0.0132749578475732,0.0198353547835437,-1.6809585930788236,3.4843244390314787,1.2273065803081096,1100.44721073254,1099.7460303045734,1110.7700388280855,1093.5638645408299,180.8202878147806,632.7858569458066,-241.56738748884493,-261.4829260459884,164.20843182503927
2.8975,0.7867150381545986,0.096102284056186,0.3389060886081491,0.0521109922748433,-0.0285855490158342,0.0216537951890128,-0.0008123981054997,0.0040370345075537,0.055369328929587,0.9984560909290064,0.0073369195836992,0.0093803542979924,9.795813707532776,0.0239594146079595,0.0132754416776068,0.0197926326275468,-1.6809000667277252,3.4843645974476085,1.2273525819002236,1100.697435491002,1101.1760102491014,1110.2078573829228,1092.931183426282,12.573476473699243,518.2344213885355,-233.50109946691688,-258.62918714793165,164.20864755084395
2.9,0.372668402164265,0.0454448987875023,0.1995802786698091,0.0526147309106579,-0.0279550430774916,0.0233762203276937,-0.0007468322839677,0.0039756148476269,0.0554164803862985,0.998454182891756,0.0076469290801769,0.0123754146572925,9.796742304347763,0.0240676280794213,0.0132837086403637,0.0197661699264428,-1.6808420855184156,3.484403053751349,1.227399566962366,1100.5100781149083,1102.337202411516,1109.6025333307512,1092.2707186050902,-140.04431824060092,319.9311053768338,-213.44761217983887,-218.220528323268,164.20888952357447
2.9025,0.0983825832619638,-0.0027081148744455,0.0489161111736606,0.0519155858722377,-0.0276837717416947,0.0241727133630819,-0.0006728967175483,0.0039213176624341,0.055469613529418,0.9984521112386928,0.0077140232590249,0.0155346612522674,9.797725870699184,0.0241724932333649,0.0133019516773744,0.0197554964363988,-1.6807844609001055,3.484440504827353,1.2274467391969,1099.997213899799,1102.7756657759855,1109.1406193220237,1091.8400807846658,-255.32192895660145,68.87848031428338,-175.365450023025,-142.17894624747663,164.20907572383655
2.905,-0.0925751369044881,-0.0473856658067647,-0.1064547655787718,0.0510599719402792,-0.0279136543725324,0.0238261208873489,-0.0005915390087847,0.0038788800514793,0.0555250708015846,0.998450111307385,0.0074487464217018,0.0188063341845653,9.798692646202015,0.0242734058618496,0.0133319527648356,0.0197600845125154,-1.68072763520421,3.4844768920233866,1.2274928011461184,1099.2334684701254,1102.6815948130875,1108.725706080636,1091.5598238738528,-359.04501932093206,-141.01976160917687,-163.2299386355388,-91.41626437416855,164.2092442370275
2.9075,-0.2359708282471771,-0.0853126702844984,-0.2600859256007806,0.0503347523729083,-0.0285521597165374,0.0222129736531982,-0.0005058740825079,0.0038479115788386,0.0555802927609531,0.9984483785530937,0.006862913847322,0.0220880204463597,9.799576295427059,0.0243700007837116,0.0133748868062261,0.0197788587029348,-1.6806720172825185,3.4845121431706625,1.227537768206145,1098.201988803194,1102.0705669679396,1108.324469628846,1091.3829994627947,-372.6737623967063,-281.61107779683937,-119.47172648633823,-46.722284242651845,164.20942404113416
2.91,-0.2988762325420769,-0.0991296748596538,-0.3411475003729085,0.0499000027818113,-0.029122247880789,0.0204767471073001,-0.0004200198379916,0.0038233934881661,0.0556356973509189,0.9984469480046878,0.0060611349148196,0.0252511854318165,9.80031779057246,0.024461982943425,0.0134311148003065,0.0198100279220542,-1.6806173743066457,3.4845467753121464,1.2275821133179443,1097.370099658142,1101.273539424103,1108.1283474482043,1091.3262124526395,-304.10633705678913,-344.5131577334524,-32.89586227110774,-18.56201066589204,164.20955374063897
2.9125,-0.3206102274498799,-0.0949366977812963,-0.3662631416853047,0.0494645311983055,-0.0295618043036238,0.0190675462890329,-0.0003327749242732,0.00380238126101,0.0556906092111636,0.9984458795552716,0.0051163146595484,0.0282735124827111,9.800866274966728,0.0245485714306531,0.0135005277861914,0.019851078295001,-1.6805625699881073,3.4845822561818767,1.227626492120877,1096.6814571179102,1100.3480011792724,1108.1599903174904,1091.2901894094655,-255.3992850784707,-399.27180652258306,81.44089593843265,-27.17964939856814,164.20966076128178
2.915,-0.3140827591439217,-0.0754925677689183,-0.3399792002061923,0.0487538426100802,-0.0298953491771871,0.01792384213339,-0.000243966483083,0.0037788509602686,0.0557428698235928,0.9984452734146332,0.0041633286839646,0.0311105150675369,9.801181088041442,0.024628595801627,0.0135823157972223,0.0198986638464551,-1.680506389645392,3.4846197161107684,1.2276719446939184,1096.0931032327496,1099.2771803914904,1108.5355519278964,1091.1903142056467,-173.4212228332163,-362.0517336697581,195.26130754643836,-53.200916763399846,164.20976086204124
2.9175,-0.288970100835958,-0.0539268698408803,-0.2816866576318511,0.0479354386835479,-0.0300301185083786,0.0173373113189846,-0.0001548883154923,0.0037421276454353,0.0557963241030212,0.998444825738834,0.0034292692063258,0.033686862496612,9.801233079423811,0.0247008765023907,0.0136747441476125,0.0199486163583094,-1.680447365629136,3.4846598444980668,1.227719190590637,1095.814351003744,1098.5377425109236,1109.1362968552223,1091.0241848256485,-71.11016697167695,-240.41538969723263,284.8125855678124,-84.70598354210958,164.20981911096496
2.92,-0.2517175117725949,-0.035123832609267,-0.197701258465964,0.0469625927882509,-0.0300569403520086,0.0170278621206367,-6.939071752053523e-05,0.0036887898998663,0.0558539915138494,0.998444131030858,0.0029983682823048,0.035889276050311,9.80100408156732,0.0247638932668436,0.0137757458270535,0.0199967387918858,-1.6803848434293407,3.4847023697611754,1.227767984115803,1095.7375523978912,1098.0751034430043,1109.9596148557355,1090.766784287936,4.7053853028502175,-119.37520247093089,374.1541961818791,-127.52727707343453,164.2098493334612
2.9225,-0.207047670033842,-0.0243678900927167,-0.0768779088240035,0.0458276524205555,-0.030010182877944,0.016604662492794,8.49750410569419e-06,0.0036201352717899,0.0559134557961391,0.998442917134274,0.0028630622784631,0.0376113908252902,9.800487125012976,0.0248162254410734,0.013883515480122,0.0200388623044614,-1.680320246872031,3.4847455366325586,1.2278189758459044,1095.8378779302584,1097.9408664985688,1111.007067836132,1090.386548440281,62.15514772674887,29.407465265919942,354.78046129717194,-143.35039256892685,164.2098509477773
2.925,-0.185252119212802,-0.0302298653673014,0.0351184671540838,0.0449400977810993,-0.029933602447879,0.016112485654062,7.941649464247158e-05,0.0035394516781646,0.0559698394722677,0.9984408522263916,0.00298179614888,0.0388467674222769,9.799685972836617,0.0248571543365368,0.0139966908396404,0.0200708596117344,-1.6802548639422203,3.484788161970963,1.22787308024595,1096.048328136525,1098.222140769334,1111.7335171622215,1090.0500323250915,102.22890364160995,194.4087709096817,211.77207357530668,-129.52725036629124,164.20982174369163
2.9275,-0.2046615197089937,-0.055351044752523,0.1486962959506839,0.0443535369726227,-0.0298503109917261,0.0158107415652509,0.0001483696390193,0.0034590803190362,0.056016811482455,0.998437730906804,0.0031394740294371,0.0396915711159527,9.798613345873353,0.0248865984363432,0.0141142611486793,0.0200893755534667,-1.6801906793406418,3.4848292865058763,1.2279301105619491,1096.3490224484665,1098.9129103531175,1112.0659282040083,1089.7389121884498,128.65332872625277,335.78564273917243,40.20634354901717,-116.60033871362678,164.20975880010505
2.93,-0.2807383581273032,-0.0973335441585845,0.2500587833689591,0.0442735688711042,-0.0297917511375897,0.0161537458540987,0.0002123941483312,0.0033818907294226,0.056048537030338,0.9984343725004896,0.0032955314887656,0.0400838196092421,9.797292122616378,0.0249058208682867,0.0142347512473427,0.0200917410772038,-1.6801284932846554,3.484868737700906,1.2279886811819891,1096.6915947801563,1099.9010689830295,1111.9345488799663,1089.4670306315231,138.742353783485,446.1614835338973,-174.070673861892,-101.62074601257916,164.2096663352413
2.9325,-0.4493837890322966,-0.1575257052674938,0.3155863744286037,0.0448981652234617,-0.0298173894411576,0.0174016730842502,0.0002654015284697,0.0033132073752593,0.0560630685103482,0.998431475302984,0.0033550038782417,0.0399120257248826,9.7957519473646,0.0249168002191577,0.014356024068442,0.0200767335319844,-1.680068699207036,3.484907286993865,1.2280481248302264,1097.042734217384,1101.143717770787,1111.195574834699,1089.2308084583867,146.2051905912662,567.8485789531471,-439.12899774301,-107.15763989487868,164.20953637417873
2.935,-0.769474359200987,-0.2429836214238463,0.3306654014571638,0.0457231189668109,-0.0300457556269981,0.0193692360742962,0.0003088823488282,0.0032611941693683,0.0560636153706123,0.9984292432098134,0.0031721281085404,0.03922561772509,9.794026387565934,0.0249219240336411,0.0144754515059569,0.0200444526857025,-1.6800115095241939,3.4849458693429414,1.2281078529546459,1097.4226207331124,1102.7403118777954,1109.7389038912515,1088.9312424320487,126.39946866025,570.7567324616897,-583.2824524255226,-124.24146400194596,164.20933458201912
2.9375,-1.116529821848694,-0.3155164332093917,0.2841624140114452,0.0452995115957039,-0.0304908376246958,0.0208019472811726,0.0003476853700951,0.0032312714494222,0.0560579921393632,0.9984274726158298,0.0026544373210815,0.0381464343194514,9.792151553380846,0.0249238142011137,0.0145897018681725,0.0199962451512564,-1.6799561411099022,3.4849862370527327,1.2281653686139653,1097.6747315606851,1103.9975014330953,1108.2791625725715,1088.6096011383772,83.44310039983789,448.47605942851305,-560.8451648532201,-156.5979840901979,164.20912640260792
2.94,-1.4932067100930666,-0.3737043915136009,0.1820665891890656,0.0424647969489303,-0.03129870996214,0.0216274936057505,0.0003845131770755,0.0032211785723441,0.0560503795543535,0.9984260727648983,0.00185264189916,0.0367552869834198,9.790164897756462,0.024924957348757,0.0146950456180952,0.0199344877943596,-1.6799019180074717,3.4850286556746775,1.22821931295725,1097.8398362351115,1104.982692174938,1106.9346780669855,1088.148252511598,52.2338462316395,331.0505478068605,-478.09115023661536,-244.85384688592217,164.20887468697748
2.9425,-1.8955200936362653,-0.4063249289796155,0.0120531741593947,0.0362431962275441,-0.0327043774483242,0.0219060172376326,0.0004198409532379,0.0032250993145674,0.0560405201262906,0.9984251279941612,0.0008800115225777,0.0350944596361658,9.788103097257933,0.0249273101002706,0.0147876730981331,0.0198623792041694,-1.6798482506400532,3.4850741324090304,1.2282688969139564,1097.935900791843,1105.6527541721296,1105.8887068213885,1087.3853319039476,20.085907132488927,140.279419656011,-241.61638993305647,-317.5811010842221,164.20852042597016
2.945,-2.1341318398815114,-0.3889706417511941,-0.1551220288929627,0.029513768492446,-0.0340909049059221,0.0217199510904007,0.0004589172075474,0.003238217334646,0.0560288218705379,0.9984246219046268,-0.0001682410955655,0.0333088722082621,9.786000041459964,0.0249322050381879,0.01486410525631,0.0197833460259522,-1.6797937290843075,3.4851236565100945,1.2283133929876568,1097.9402657707742,1105.684089273218,1105.7265961173202,1086.5603470061767,-10.95499755401687,-105.1453924280324,104.81847723003033,-369.42793632299293,164.2081806678979
2.9475,-2.232745355065685,-0.314791168717749,-0.332405441897975,0.0221122195615093,-0.0352897868875565,0.021286909795132,0.0005026763214686,0.003256614263508,0.0560165794727581,0.9984244532758126,-0.0012222206975029,0.0314669827314363,9.78388668021812,0.0249404169732731,0.0149213103065822,0.0197006526402472,-1.6797384201426215,3.48517623250606,1.2283544592240856,1097.8811258040732,1105.1270272099891,1106.4127992075387,1085.5381922223323,-37.67816357235206,-367.47684116669257,473.68505420582983,-491.4739705896077,164.2077938263751
2.95,-2.186772185327577,-0.1561571006813278,-0.5364613127180164,0.0135376754657479,-0.03642844861097,0.0204489894016028,0.0005479748790658,0.0032762930973094,0.0560078027761279,0.9984243558793348,-0.002217142480821,0.0295627373177409,9.781790982561128,0.0249524194421889,0.0149570940481254,0.0196167573884416,-1.6796827792088185,3.485229904129336,1.22839460548261,1097.7518749529124,1103.8467050673844,1108.0950213883496,1084.1029771532287,-55.16245363119314,-546.9088874606886,712.7228525275921,-553.7415007969803,164.20727468719562
2.9525,-2.038276384649445,0.0318253382155411,-0.6808509849131926,0.0075859386801873,-0.0372151005849044,0.0193247692381483,0.0005886114223994,0.0032946031255178,0.0560068628058166,0.9984240374267016,-0.0031193108206539,0.0275349368533223,9.779738054193952,0.0249683809968682,0.0149705379706097,0.0195330343511051,-1.6796268341405982,3.4852824627396926,1.2284350325832472,1097.6053135359173,1102.392482772686,1109.9764134701763,1082.7694847183477,-63.45279785728188,-620.589329784902,774.6343583059735,-545.0271327928592,164.206796261273
2.955,-1.8302768175895612,0.2669548925452494,-0.7712142510137389,0.0035072790062688,-0.0373369149443744,0.0175082104344481,0.0006199724070363,0.0033046018454647,0.0560152016058342,0.9984233875327484,-0.0038101574631759,0.0253494187239838,9.777751280797384,0.0249883473564142,0.0149623160285602,0.0194493157217299,-1.679570534113627,3.4853322289649915,1.2284771695748171,1097.434610963626,1100.74375841846,1111.968193179879,1081.3778414892645,-68.19264830783285,-656.4534345770566,753.692984568777,-546.5516553640216,164.2062706321236
2.9575,-1.6173204869654492,0.5261532921809696,-0.794510793650228,0.0007949781715984,-0.0364932012324134,0.0150014299947935,0.0006412952598559,0.0032961288359249,0.0560343546329009,0.9984223069386952,-0.0041039114013258,0.0230423155958887,9.77585296946387,0.0250122998030329,0.0149343350995108,0.0193640595570532,-1.6795141051810236,3.485378314518729,1.2285225770384616,1097.264350294378,1099.1102155998008,1113.7448783930204,1080.0367264415277,-61.0373700789309,-608.7759389205205,596.1751467218292,-493.29727908453754,164.20570638551794
2.96,-1.4375101634365288,0.7920235170845618,-0.7155382226110669,-0.000951191247443,-0.0346277787448859,0.0118382803735269,0.0006551547156682,0.0032669541220892,0.0560603424605821,0.9984209850474148,-0.003965135855525,0.0207198666299477,9.774063778670035,0.0250395292808087,0.0148895474027806,0.0192753091060771,-1.6794574371745847,3.485421498775338,1.2285714416280311,1097.1294241132312,1097.6998787238574,1114.9490689134884,1078.9113550938418,-42.944901514648336,-527.0110907130513,347.2006713625961,-402.5179975337864,164.20509636104555
2.9625,-1.277905168340585,1.0922712165839052,-0.4952944707377801,-0.0029339968325268,-0.0317901624844487,0.0080765390425873,0.0006621293271977,0.0032199206744608,0.0560853490835833,0.9984198201014068,-0.0034579021144708,0.0184495713396546,9.772403630205613,0.0250687593208336,0.0148311849783765,0.0191812688568103,-1.6794004614984628,3.4854634518299767,1.2286236194271076,1097.0496257868049,1096.4751601462356,1115.480881749833,1078.0241364538588,-13.5231722109441,-353.64530016787126,34.260298574509584,-220.5515058668472,164.20431242471471
2.965,-1.1804404430145283,1.310152511049574,-0.2232961435489343,-0.005106098517209,-0.0290711516702601,0.0057275704252616,0.0006623768958091,0.003156995908119,0.0561091813543833,0.9984187921432768,-0.0026273764285877,0.016283777955741,9.770892499720564,0.0250987322685287,0.0147619319287394,0.0190805108560833,-1.6793419214396064,3.485505652866736,1.2286776337949952,1097.0618082521767,1095.931652223018,1115.1203704063607,1077.8085975645076,15.883701675237551,-116.85303774124016,-287.99366621799766,44.37692154242241,164.20361661044203
2.9675,-1.0869357786801357,1.4746077191744908,0.095224293984491,-0.008157791388807,-0.0259016170157905,0.0050702443874126,0.0006564103643324,0.0030878842165161,0.0561321355610424,0.99841783486168,-0.0016668653206563,0.0142829347799986,9.769549273614425,0.0251277887422782,0.0146842477213834,0.0189727714869714,-1.6792820336973795,3.4855487245347025,1.228730658313106,1097.129044295181,1095.890894957529,1114.0409134187432,1078.246021061571,26.98846203088396,77.18691297063219,-583.3037304209545,349.10241004897586,164.20287748718513
2.97,-0.936976373087394,1.5841634300990233,0.4580216600074539,-0.0124287900886185,-0.0215190398536051,0.0066677198903473,0.0006436223823029,0.0030223716927863,0.0561514347666651,0.9984170629328356,-0.0007699188992465,0.0124775683274274,9.768392306704632,0.0251542489039269,0.0146005358233852,0.0188587368946931,-1.679221889270258,3.485591841217552,1.2287813400196468,1097.196750562331,1096.3175867878713,1112.203851754256,1079.5541096147526,8.472709874877363,209.78395758048,-712.8086378746655,599.7355776935037,164.2019414220723
2.9725,-0.7603650641750948,1.5820481180390449,0.6917547285198034,-0.0157972772729234,-0.0173958576952705,0.009708419409469,0.0006252362166572,0.0029663808682303,0.0561657627783813,0.9984165264671608,-5.029477890392681e-05,0.0109213513797282,9.767439329795483,0.0251768250136321,0.0145130892431337,0.0187395713113527,-1.6791617141558643,3.485634480683456,1.2288293995536523,1097.1714078445555,1096.9398147454317,1110.47687022937,1081.2446989500384,-42.357487613299774,268.63521762875854,-675.4977348133397,772.704746361358,164.20112111936575
2.975,-0.5268929034428069,1.4616680933719954,0.8116677226599152,-0.0182662151531539,-0.0128459073324304,0.0135520886046509,0.0006062393866174,0.0029259144485604,0.0561760970436584,0.9984161482894696,0.0003828443208858,0.0097329665333293,9.766706503224768,0.0251945287283605,0.0144241319400033,0.0186167213013465,-1.67910125218534,3.4856768267502662,1.228874822837262,1096.9849631242644,1097.660762876015,1108.8263630801891,1083.4176333465591,-128.7890537284084,303.0629812419712,-664.1456335484378,1020.4184458342514,164.20025984324988
2.9775,-0.2012741451678797,1.1692283262758691,0.8136310307166765,-0.0199185060755801,-0.0074283248800937,0.0178074343279301,0.0005877572938619,0.0029074332711913,0.0561874507956461,0.9984156264825356,0.0004086714089229,0.0089478719116372,9.766207918832274,0.0252067060709586,0.0143354284910729,0.0184918107574981,-1.6790404610518344,3.485719379467838,1.2289172310402947,1096.5274625759134,1098.4551296516415,1107.1561420616279,1086.3467911792095,-205.75708998344888,261.1009405907281,-545.5931932624596,1088.31281851642,164.19917988563944
2.98,0.0828408213393714,0.8101132060476636,0.7149044144177644,-0.0202061613715817,-0.0037674185554305,0.0204491704254923,0.0005712385835223,0.0029131753205767,0.0562010073415729,0.9984148871363224,-9.915308658993427e-06,0.0085946027456591,9.76595572415764,0.0252130236380318,0.0142488426689554,0.0183659042362688,-1.6789798209179416,3.485761598162305,1.2289582605664116,1095.9561776743471,1098.9662675789687,1106.0983971138771,1088.859197439141,-256.8612801674189,164.99399226732191,-352.89658868674286,972.8350574160893,164.19824204420988
2.9825,0.3451617728941042,0.3624914459085917,0.553273138481928,-0.0194072128034666,-0.0017110671337836,0.0218705973385553,0.0005571528539914,0.0029383822962765,0.0562193894732334,0.99841379659061,-0.0007743432592135,0.0086669513734764,9.76596016604412,0.0252137221422988,0.014166024404388,0.0182391501572359,-1.678919301893092,3.4858027477341578,1.2290000475584226,1095.2431561750764,1099.280099612978,1105.391659118194,1091.2109664662898,-294.0353735502475,96.54396926075812,-231.22683490587897,882.6490429426672,164.1972662173516
2.985,0.5638434111263062,-0.1225746943375134,0.3754836484487973,-0.0177382659379243,-0.0011418186148091,0.0223419921969081,0.0005455630010028,0.0029751281611547,0.0562443042111166,0.998412284063012,-0.0017250227112968,0.0091396903106182,9.76622900303716,0.0252093794269099,0.0140885004962187,0.0181109406400338,-1.6788585812285923,3.4858434960761304,1.2290435693612092,1094.486000806596,1099.4489874252724,1104.9422629393475,1093.2724426538543,-291.824472618808,44.35089449493417,-127.78898049254212,725.3713255529839,164.19626019859734
2.9875,0.7056538206524376,-0.6023036053220865,0.216190481821916,-0.0151480113853789,-0.0023146250543593,0.0220109758936208,0.0005379363638173,0.0030147404306989,0.0562764453202937,0.9984103392700427,-0.0026871945099584,0.010007139270419,9.766766998881188,0.0252008127119629,0.0140176868226551,0.0179802046015132,-1.6787978540106383,3.4858845959282143,1.2290898527725187,1093.7840338119822,1099.5018540854528,1104.7527142157314,1094.837823094055,-270.5564716478693,10.98954331628118,-33.97765594126893,551.8500574954113,164.1952197427845
2.99,0.7724355295113192,-1.1076180400126354,0.0786044673829198,-0.0114471216342122,-0.0054621080288091,0.0212759218660481,0.0005362137541062,0.0030448817186098,0.0563153439289768,0.9984080288985108,-0.0034156058222835,0.0112624894888497,9.76757580897533,0.0251891870766087,0.0139548745828424,0.0178456817305499,-1.6787370872484395,3.485926315634395,1.2291386097773043,1093.1332184483567,1099.5039351418538,1104.7723746596414,1096.0316929413318,-194.02761026349668,-5.448019856248837,42.805947567331714,320.0533460034944,164.1939344285547
2.9925,0.7480042174975278,-1.429131091188293,0.0181548149633517,-0.0083573900527015,-0.0092955359583533,0.0206782582763791,0.0005421193590719,0.0030574950907562,0.0563587968261559,0.9984055048558084,-0.0037507256839294,0.012893830392114,9.768652397713415,0.0251757238692494,0.0139013386906473,0.0177067552349752,-1.6786764627499464,3.4859683470188783,1.2291880030237714,1092.8138957606648,1099.4746139861716,1104.966743953568,1096.4380898240724,-75.34999517752271,-24.849426332321475,108.51990098981564,50.51608681042234,164.19283527867722
2.995,0.669197728116455,-1.6103777862995667,0.011381777254817,-0.0059878553325516,-0.0141648323178128,0.0202718528126374,0.000550373946486,0.0030457774944614,0.0564020315856707,0.998403063423405,-0.0035676347530736,0.0147492493541508,9.769988549134196,0.0251617734266588,0.0138582217390292,0.0175638033083137,-1.6786162517429963,3.4860100145123596,1.2292374736216392,1092.7564684724691,1099.3796880101922,1105.3149741645905,1096.284273375384,32.058434106784944,-75.68704998693809,178.27701434598947,-170.64192471175738,164.1917105276754
2.9975,0.5654489590867263,-1.6446925725285446,0.0501306713745882,-0.0046484394392779,-0.020591810712625,0.0200859973203477,0.0005540776024936,0.0030023273655532,0.0564435323885448,0.9984008197903104,-0.0027342733691463,0.0166410162984298,9.771570224296129,0.0251490143899316,0.0138264458189773,0.0174180712365719,-1.6785566642396323,3.486050446038782,1.2292866148135708,1092.9741879311987,1099.0961787362369,1105.858129025298,1095.5848802005137,119.92157691243192,-146.2498855784392,208.52499452399104,-316.667809993994,164.19033580581407
3.0,0.5127733048806608,-1.5240844412782293,0.1058100375059108,-0.0047601747114037,-0.0257911764266409,0.0202084182725521,0.0005492098365141,0.0029313079038545,0.0564833622848219,0.9983987599401593,-0.001343848538244,0.0184477350901362,9.773375277489135,0.025138905266855,0.0138068773021766,0.017272152583581,-1.678498046965056,3.4860887792075737,1.22933418904479,1093.3560763570313,1098.6484385823,1106.3575991372104,1094.700934325414,180.63307144812296,-229.92241045313253,192.16543950215464,-384.0508826417672,164.18917268169727
3.0025,0.5297720507469256,-1.276469127123914,0.1648490696385602,-0.0054677986842913,-0.0300983440852459,0.0206318341372246,0.0005360315817283,0.0028421387641282,0.0565195845026718,0.9983969655218448,0.0004098066397295,0.0201357704586491,9.775373558544674,0.025132680089075,0.0138003238889799,0.0171295365550595,-1.6784404349807824,3.4861256808932657,1.2293790201434323,1093.8773532884393,1097.9465666839712,1106.8189562228088,1093.6646257873049,242.43892141817528,-355.1691453535644,174.85769723125858,-459.79024624485714,164.18799470267487
3.005,0.6357599654785167,-0.8897455300047011,0.2158107055857382,-0.0057381685282841,-0.0335255700866985,0.0214565893329536,0.0005224768419944,0.0027436584115655,0.056552579170676,0.998395384827156,0.002350256980475,0.021820577577006,9.77752721145355,0.0251315125033483,0.0138071884208965,0.0169939575453891,-1.6783837138794024,3.486162323329528,1.229421230506814,1094.568270964122,1096.8725928555323,1107.2318876233667,1092.4019830941895,250.39948687229423,-409.895907836853,119.45724671335589,-451.0313357526379,164.18656680967672
3.0075,0.77412683931851,-0.543331098855693,0.22668251451311,-0.0048592102349566,-0.0345235722317928,0.0223229390257837,0.0005158553711229,0.0026520029432038,0.056583569408815,0.9983938982122568,0.0041560707235231,0.0236147237322218,9.779790113843063,0.0251360335021503,0.0138271581230388,0.0168696790854348,-1.6783281022443957,3.486199446550512,1.2294608275874748,1095.1293507228008,1095.8970871447868,1107.4162424563756,1091.4094691085415,208.13471906506908,-370.55057771910697,42.11574859495784,-378.2575540475336,164.1853663807136
3.01,0.919176190089056,-0.2278747390714773,0.1916558503718508,-0.0026796223346805,-0.0337664818527706,0.0232945990602688,0.0005180497734167,0.0025806621558013,0.0566129181974193,0.9983924457489758,0.0055503361401394,0.0255242182193996,9.782109755792511,0.0251464628915983,0.013859135822788,0.016760793477961,-1.6782736211236025,3.486237557713558,1.229497624426994,1095.6089445594475,1095.0198399669366,1107.4424663663415,1090.510695323952,172.5564625908228,-307.2505723908827,-4.715964562956388,-347.5587434481514,164.18415593232675
3.0125,1.0312967203936592,0.0344724653946449,0.1137538583402133,0.0003156830851284,-0.0322576116713419,0.0242678767349595,0.0005263038388026,0.0025297016938998,0.0566395706179391,0.9983910832566594,0.0065130662180539,0.0274529103233054,9.78442938953998,0.02516279525456,0.0139013989281903,0.0166703088352036,-1.6782198275090283,3.4862768848480767,1.2295324255154485,1095.9921330357547,1094.3608342828325,1107.3926626335608,1089.6716753913008,129.0276429821943,-186.7731891108218,-15.269631053979863,-332.31562411020406,164.1829372602556
3.015,1.0634747948860688,0.2252113106341565,-0.0135450704405257,0.0040383256951531,-0.0306819021592746,0.0249941301818637,0.0005362485737554,0.0024912605324827,0.0566616820032828,0.9983899338062048,0.0071784452751452,0.0292684964676381,9.786688910911524,0.0251845123964985,0.013951856207181,0.0166000081928083,-1.6781659487291765,3.4863179357051424,1.229566349955462,1096.2540827743585,1094.0859740213823,1107.3661182110716,1088.8491172034007,92.98045356336131,-19.599411344734527,28.11770540147396,-374.51787087944354,164.18170806908572
3.0175,0.9770337812712336,0.3901049387461944,-0.2086525691448053,0.0089065340067209,-0.0293652807268264,0.025221144177845,0.0005445245464198,0.0024581060315308,0.0566798922470623,0.998388980421771,0.0076717891139241,0.030864026851111,9.788825920446746,0.025210370490631,0.0140082032776138,0.0165505893706407,-1.6781112613796831,3.4863610932726057,1.2295997340827836,1096.4570353035715,1094.2628372261088,1107.533251160568,1087.7990860369036,63.635027697820526,143.64050301806253,116.0577847974334,-404.38378999579936,164.18021927147777
3.02,0.7969449801763061,0.4991128099198247,-0.3883043110836111,0.0126129411491044,-0.0288449265914791,0.024728174235059,0.0005480862772668,0.0024239003119077,0.0566948860093142,0.9983882047791172,0.0081043442850465,0.0321449359766494,9.790777966432765,0.0252384281137659,0.0140682835705099,0.0165216019474087,-1.6780544281779748,3.486406404159754,1.2296327094084407,1096.5722579128476,1094.8041765364728,1107.9464071350587,1086.827198253422,45.53210130557188,276.21023425008974,234.7995566767672,-411.3075614846908,164.17896570956898
3.0225,0.526605707863596,0.6067831757663151,-0.5585901264650769,0.0149198735554862,-0.0285869525242045,0.0235096104377169,0.0005467294325993,0.002384227267358,0.0567086711417039,0.9983875092348105,0.0085566040830144,0.033079859521837,9.792484663723535,0.0252663137598216,0.0141303727920488,0.0165113734449481,-1.6779946175488292,3.4864530032358902,1.2296663156007248,1096.6846958100996,1095.6438883973592,1108.707248943952,1085.7425482294802,59.38485323008661,399.6726109419882,405.43898241781744,-493.90901924785936,164.17769739792791
3.025,0.1473547634654596,0.7502817666460454,-0.7194702983952703,0.0154584309722758,-0.0278359279994893,0.0211860845507379,0.0005479384569038,0.0023409894592927,0.0567213484369395,0.998386881818862,0.008997784009657,0.0338002269727383,9.793889302923183,0.0252913953099049,0.0141936911913946,0.016517109393511,-1.677932156171954,3.4864995012512527,1.2297013193493576,1096.869182178998,1096.8025395911827,1109.9736020471476,1084.3576531571828,81.0435794973745,418.2889138693643,498.8650958729174,-508.1062507166843,164.1761574322971
3.0275,-0.1756763823324304,0.878786861030977,-0.7968783481079634,0.0143814487716533,-0.0263849888280953,0.0185944398282742,0.0005541950416421,0.0022956880337883,0.0567334368060572,0.9983862901529356,0.0094030201375722,0.034344647956577,9.794942108705474,0.0253114494861918,0.0142578629832004,0.0165351212701135,-1.67786833711018,3.4865438311235724,1.2297386473224359,1097.0899137075864,1097.735332966706,1111.2015744233163,1083.2020169758969,104.6782376970825,331.02865486023387,482.89549382353846,-442.51245754846167,164.174858883056
3.03,-0.4719526624142094,1.0007520288372143,-0.8011788795008556,0.0127403019239019,-0.0238327439668223,0.0156247261239291,0.000559693517175,0.002251738363555,0.056746495943423,0.9983856430306371,0.0097040018397959,0.0345970402927777,9.795601910668594,0.0253248663885619,0.0143225558990416,0.0165613389579645,-1.677804379178067,3.4865853557623288,1.2297793177787253,1097.3925733674835,1098.457682865484,1112.3880795162656,1082.1450908694403,149.6967836886041,239.18059085738807,455.966706810401,-419.8216709921952,164.17354473058995
3.0325,-0.7770199841175424,1.1194334215799853,-0.724707454715994,0.010899758321744,-0.0198026918966208,0.0122944849942911,0.0005581687895422,0.0022120752148779,0.0567584780714809,0.998385055798488,0.009843624526934,0.0344367502893319,9.795837195175839,0.0253306864121082,0.0143875868332006,0.0165913730917035,-1.6777409028304624,3.486625341890271,1.2298232198436336,1097.8383976260295,1098.931235920993,1113.4814079573687,1081.1029086209355,171.3861059712181,97.3783088181356,311.6549011032087,-331.6487132563068,164.1719506285907
3.035,-0.9809880962581828,1.1886229584414492,-0.6092351778907397,0.0093592098503432,-0.0161801503142639,0.0103263970573499,0.0005498198046916,0.0021862679763305,0.0567688088684965,0.9983845382653614,0.0096438976093912,0.0338821704609103,9.795625721744692,0.0253284605682766,0.0144525678198206,0.0166211234640031,-1.6776785320573346,3.486664839408547,1.2298696070502535,1098.2495038973395,1098.9445744095747,1113.9463540217816,1080.4868473031588,160.5004997776666,-71.66622962495391,71.16887720026321,-184.7655913907641,164.17060905981532
3.0375,-1.118821198903733,1.2333871928325506,-0.4703909277251642,0.007274347948638,-0.0130026594439322,0.0094463690802638,0.0005395468414323,0.0021787325857943,0.0567742983058893,0.9983842564154336,0.009033570530319,0.0330430389297673,9.794955762893998,0.0253183845272034,0.0145168670491983,0.0166466739600001,-1.6776171980405283,3.486705229319202,1.2299174108703208,1098.6409001249178,1098.5729047728682,1113.83725234337,1080.179080663982,140.77377757267033,-200.623615907584,-138.073863118919,-69.89875323925084,164.16925569481006
3.04,-1.1851961781053253,1.270454887566216,-0.3351644295596325,0.0042230713075117,-0.0105404263616523,0.0091624069705943,0.0005343662656979,0.0021861617413565,0.0567753447056237,0.9983841885441767,0.008094931500145,0.0320673105634932,9.793826109372558,0.0253014133788414,0.0145792225770431,0.0166645328434096,-1.677556359004322,3.4867472022404167,1.229965394411155,1098.9533727852029,1097.9414563300368,1113.255984706187,1080.1373535369623,88.71335933472625,-290.8490327512089,-325.3425059699181,44.21217956901368,164.16789420255256
3.0425,-1.144574517480815,1.3115708022403074,-0.224048090433725,8.138475930303677e-05,-0.0087609912960487,0.0091051101463614,0.0005400317011434,0.0022025292480856,0.056774782049947,0.9983841834521002,0.0069613000580823,0.0310805240183103,9.792245071831866,0.0252789611690736,0.0146378618492634,0.0166720984401743,-1.6774961619601791,3.4867908178612126,1.2300123472494977,1099.0844669215915,1097.1186596091122,1112.2105398135204,1080.400141561827,-4.148678679985185,-365.64636482322254,-521.8074612838902,174.87349997318603,164.16652483321008
3.045,-0.9627508480388786,1.3641830868048856,-0.1317002678509288,-0.0051167263906301,-0.0064637681621995,0.0088753173369971,0.0005545641318511,0.0022207158085126,0.0567724511115282,0.9983842673513436,0.0057771811408705,0.0300606604124845,9.790229626059714,0.025252605484003,0.0146907891645958,0.0166678752295511,-1.6774372809560316,3.4868357558635736,1.2300570203065568,1098.9326293918027,1096.1132245059207,1110.6469473997677,1081.0117210368285,-115.64872963968146,-338.43984526507296,-585.2227593096029,260.98766413948044,164.164874639111
3.0475,-0.7157225932799332,1.3915164642929516,-0.0927615496240629,-0.0087652534376958,-0.0036900781014018,0.0086349776239017,0.0005699376579852,0.0022356951889904,0.056769633251917,0.99838438373951,0.0046375737276145,0.0288746329330336,9.787803889090736,0.025223998262948,0.0147358450906389,0.0166513285465974,-1.677379697142218,3.486881950118984,1.2300989846481307,1098.506223273393,1095.426460382787,1109.2844260169725,1081.7050798825244,-230.79738768922917,-204.88389431596693,-511.9824056586476,296.78428074337535,164.16349501841273
3.05,-0.4164336105973399,1.363851774432025,-0.0957755612785294,-0.0107151767662442,0.0001662818132664,0.0086833550615685,0.000581893503751,0.0022490611222774,0.0567688596478447,0.9983843886115294,0.0035102606064336,0.0274746884015574,9.78499715866941,0.0251945686735428,0.0147712464061704,0.0166224182008461,-1.6773233611433387,3.4869285310731524,1.2301383907963668,1097.7786424533567,1095.0888050343408,1108.0870353714743,1082.4956424405455,-370.17871908812816,-33.366519116859784,-449.3233386700618,347.770452169356,164.16211208277227
3.0525,-0.074488939718836,1.2239855475729504,-0.1473876967613927,-0.0103883776180435,0.005771922440748,0.0093627117176643,0.0005881152784973,0.0022628842605271,0.0567711553077865,0.9983842228777416,0.0023539291601459,0.0258549617538114,9.78184360950134,0.0251654654732823,0.0147957762147515,0.0165809671806715,-1.6772687072059895,3.4869745957814247,1.2301762401596823,1096.6553296779523,1095.2596277872024,1107.037809323622,1083.4439321433713,-430.08866708533793,171.19855285696212,-305.31972244903693,333.50695706167954,164.16044990842
3.055,0.1411704256707991,1.0022676198728264,-0.2220947441829038,-0.0082517021601853,0.0105543213244974,0.0100147123897721,0.0005875088684108,0.0022710535728133,0.0567730230098937,0.9983840988658524,0.0012867073914733,0.0240266516729193,9.778382384450142,0.0251375507014022,0.0148089027838902,0.0165259823324225,-1.6772146079900332,3.487019820733641,1.2302149994528964,1095.62819911793,1095.9447977986256,1106.560436759229,1084.1631772258538,-396.6273024361356,381.5083525520631,-109.23717194969193,262.0118904845241,164.15906319341192
3.0575,0.2439695946656724,0.6827328791982352,-0.3038639695511711,-0.0055329808136861,0.0141730239184866,0.0095142836314015,0.0005802159596967,0.0022719816369954,0.056771622699245,0.998384179627474,0.0003384997267186,0.022031651037035,9.774655472029739,0.0251109771904606,0.0148104646073386,0.0164562396410573,-1.6771600300175176,3.4870648334538537,1.2302558758462314,1094.6721931657717,1097.1671695499629,1106.4916234638736,1084.7539915957939,-368.2311812297109,629.4625967099497,43.768311300937995,227.29377795899865,164.1576753561447
3.06,0.2345791978969988,0.2384537962033628,-0.3678902832612255,-0.0029892374580039,0.0161305011810688,0.007161376889231,0.0005642093518529,0.0022632233284136,0.0567638143375527,0.9983846507568984,-0.0004471552850728,0.0198689869504084,9.770707490358562,0.0250853174526898,0.014800513898377,0.0163703697352741,-1.6771045916099068,3.4871094263649463,1.2302997344641855,1093.7870432117816,1099.0921107821753,1106.7792783157336,1085.2996461156488,-262.08940059491954,744.8253981284938,144.57538349934418,176.90454112121563,164.15600892626244
3.0625,0.140943395540863,-0.129172707648967,-0.369437537353987,-0.0019302610574792,0.0156249137802742,0.0046741730182322,0.0005338576804062,0.0022420349325083,0.056750428099791,0.9983854757945524,-0.0010250719450657,0.0174667544678838,9.766584664426862,0.0250597710087612,0.0147789879973627,0.0162673392683101,-1.6770475091284416,3.4871534402953843,1.2303463530102607,1093.361746162797,1100.8912965406053,1107.2145003813703,1085.6385143014,-96.95987504797107,708.348667426541,186.41372648258252,121.71575123543595,164.1546193752318
3.065,0.0054675319894397,-0.4319535795271511,-0.3126251692257243,-0.0020831448184515,0.0132929130645592,0.002715798728949,0.0004864786901334,0.0022144052863851,0.0567337320503052,0.998386513369978,-0.0015168772178257,0.0148188100176192,9.76233264305652,0.0250329987257468,0.0147459842832166,0.0161471196736569,-1.676988811845154,3.4871973704098,1.2303937208970914,1093.3022438365415,1102.633854119308,1107.7113469481467,1085.908224871826,31.09020204174224,650.0648208051329,191.70435557467,106.1688411869022,164.15322869053847
3.0675,-0.1270213223185785,-0.6482566256581613,-0.2215477288801161,-0.0031018217501829,0.0101595553281585,0.0015533904386531,0.0004274253567564,0.0021865556849003,0.056716427717726,0.998387593080231,-0.0020391597789108,0.0120731822266656,9.757996432468707,0.0250036247747835,0.0147018961722974,0.0160103946307158,-1.6769290718047876,3.487241955117016,1.2304391449534475,1093.5171971730056,1104.1416206446308,1108.1730221592436,1086.1693585073344,132.29596989166583,509.7533236124602,163.9777185419351,113.85300572277768,164.1518367137269
3.07,-0.2194936911948959,-0.7469801361519895,-0.1188169989558915,-0.0047280934417459,0.007048113195286,0.0014329053948347,0.0003702278161105,0.0021631049260716,0.0567023416554125,0.9983884812942188,-0.0026675181180738,0.0095314474848949,9.75361984481371,0.024970530041921,0.014647397353384,0.0158584470147531,-1.6768689498901854,3.487287334840679,1.2304822583887656,1093.963723686,1105.1826207373704,1108.5312355408564,1086.4774899004399,214.21955150247783,320.12303142544283,130.40082925012058,156.95322560767485,164.15044255061744
3.0725,-0.2579788027353057,-0.7437931903252216,-0.021596784632769,-0.0065873329109521,0.0041493478244882,0.0023315773626733,0.000329930810672,0.0021483771056843,0.0566926233567748,0.9983890977213083,-0.0034695443392939,0.0075188036927217,9.749244683610323,0.0249328276551559,0.0145835266948755,0.0156931974198964,-1.6768085313449,3.48733424514839,1.230523024490427,1094.5882949305183,1105.742235801758,1108.8250263054942,1086.9541246353729,216.25469567648457,83.12795183897101,90.7334408761036,195.11326090001108,164.1487659655712
3.075,-0.2258227592084793,-0.6645597609886011,0.0172494491822683,-0.0077140165244227,0.0025414886152444,0.0036526073989658,0.0003126211020548,0.0021455140217099,0.0566889527089641,0.99838933665984,-0.0044993448282687,0.0061784558235594,9.744910139131443,0.0248900600395511,0.0145113846651932,0.0155171817216313,-1.6767479616019962,3.487382400633411,1.2305601277848133,1095.0449971643825,1105.5982604965652,1108.9849027452367,1087.45305620494,143.10884310125707,-174.7647020731657,59.44778301027453,216.55231202253623,164.14736487040867
3.0775,-0.1350846421172874,-0.5397857372367904,0.0067327762492343,-0.0083715638418872,0.0014411806257346,0.0049031262722906,0.0003171912605135,0.0021516248409034,0.0566898282337908,0.9983892873674952,-0.0057015328832346,0.0054997385379224,9.740652984506205,0.0248423069323037,0.0144325837231506,0.0153328579165784,-1.6766879141808904,3.487430146761947,1.2305939502343095,1095.3038391460243,1104.8684122913924,1109.1222652205456,1088.0368861954855,54.05971743230226,-424.8680821763264,72.13864215041366,263.62802776171173,164.14595836040382
3.08,0.0238576329514819,-0.3724930494875378,-0.0428218397707702,-0.0087814299726289,0.0005197513594556,0.0053290937467425,0.000337631760743,0.0021633091720372,0.0566908844203399,0.9983892052895836,-0.0070166340508233,0.0053682722400633,9.736507132691212,0.0247900180986776,0.0143494141920627,0.0151423508559091,-1.6766286987267915,3.4874767512741647,1.2306254595268422,1095.315295751544,1103.4739200856836,1109.3455959559888,1088.7711963437484,-42.79259226227714,-563.7791104319268,100.56675357577873,261.9482440768535,164.14426277567864
3.0825,0.1821567285473305,-0.2394665792884003,-0.0888826559211285,-0.0089453999863981,8.308225234816286e-05,0.0046664850823705,0.0003663138778222,0.0021760989944658,0.0566902001301906,0.9983892115300836,-0.0083670078140961,0.0056291422156922,9.732504340174307,0.0247341015893026,0.0142646209810948,0.0149469483524482,-1.6765702668528717,3.487521622557072,1.2306546821580826,1095.0898761847131,1102.0495167392328,1109.6250989884245,1089.3466274158695,-121.92635756705644,-575.4707894434555,133.68447791008575,206.22982502678028,164.14284259495926
3.085,0.3436088841005822,-0.1328198962494225,-0.1100001634707874,-0.0085336676191612,-7.15459605418248e-05,0.0034006602957342,0.0003951167520805,0.0021827049988467,0.0566847203534166,0.998389499219196,-0.0096217223599646,0.0061063314404982,9.728675291381501,0.0246757417147899,0.0141814437955222,0.0147466899450312,-1.676513031293777,3.4875643524112125,1.2306821976259568,1094.7056639637087,1100.5965661384664,1110.0140183455392,1089.8023454688823,-175.9638460899206,-586.3806951595177,186.96798861483728,157.28746250443115,164.14141474188412
3.0875,0.5072857184965482,-0.0520700048286542,-0.0879238244996779,-0.0068894326383419,-2.689978620586249e-05,0.0018364840145842,0.0004180094615629,0.0021798793992382,0.056672309832324,0.9983902007239476,-0.010727127206854,0.0066606896755885,9.725049627437283,0.0246160962645706,0.0141033642786687,0.0145404163649647,-1.6764566950238382,3.4876052744629886,1.2307109644617167,1094.2100569542636,1099.1176132634353,1110.5599389314987,1090.133064728392,-165.31196176297624,-459.1868174540748,199.29794788568384,79.01128467456316,164.13969304647085
3.09,0.5949539308167274,-0.0326646191982362,-0.0311904443549352,-0.0047138706512863,0.0001374298693646,0.0008938603469023,0.0004317101944013,0.0021702926927112,0.0566542352636424,0.998391241614539,-0.0117422735357053,0.0072054574788024,9.721656315955697,0.024556159754802,0.0140337582943648,0.0143259044869581,-1.6764006348503815,3.4876449974066177,1.230743395494479,1093.8791041548939,1098.300632051196,1111.0105080849676,1090.1974018922551,-95.68160929651904,-208.50423415634808,157.6189555535514,-17.796274525470544,164.13825240179204
3.0925,0.6140289047629647,-0.0688865269350893,0.0483908702109821,-0.0023818750508325,0.000358782898565,0.0005565122797492,0.0004319230530476,0.0021593030732918,0.0566335435269609,0.9983924408737762,-0.0127798001686325,0.0076304354756142,9.718524273892637,0.0244967089784673,0.0139756615593257,0.0141002717556325,-1.6763450051127524,3.4876832026146167,1.2307807712971952,1093.7316489077807,1098.0750920926534,1111.3480337092665,1090.0440833557643,-14.938340717343536,46.05434540244149,97.03636821972648,-109.03422382652198,164.1368074894762
3.095,0.5550582956450824,-0.1771655874642099,0.1384511371136323,4.870610239561844e-05,0.0005782066915763,0.0009437387003034,0.0004190536217363,0.0021469393298893,0.0566160301790599,0.9983934680749182,-0.0138435509022932,0.0079056194841074,9.715683244883822,0.0244385012644694,0.0139316787053927,0.0138601452051483,-1.6762896323937115,3.487719193090518,1.2308229647471025,1093.8044124513071,1098.5309037782083,1111.4956899260665,1089.6522307731225,61.80981990578534,272.2678735415742,-3.155237899181951,-168.9567238685449,164.13507166500543
3.0975,0.4463730545339825,-0.3161464332262935,0.1838449454012448,0.0016143536180323,0.0005994043817305,0.0019193074488189,0.000396336910749,0.0021363400084795,0.0566047967210123,0.998394136614376,-0.0149938125470852,0.0080554237077899,9.713161826339096,0.0243818167865621,0.0139039515195461,0.0136029263803013,-1.676234340965066,3.4877532580791395,1.2308676889255985,1094.0406980073099,1099.4364314603613,1111.3322575197703,1089.1992997364218,110.88553735349032,428.70051684018114,-132.09022956312137,-195.9612432478521,164.1336262956278
3.1,0.2943038491246234,-0.4906782436772796,0.1743919157550096,0.0025695045629715,0.000233240040458,0.0034294908791061,0.0003670515621769,0.0021283957173136,0.056600357138942,0.998394412689636,-0.016245745222042,0.0081009090237731,9.710986767564147,0.02432656339509,0.0138937721926272,0.0133272641201352,-1.676179391992138,3.487785473773996,1.2309127123527397,1094.3588401380744,1100.6744063624092,1110.8352387782509,1088.6724245568832,120.06109259705482,506.63850165975595,-248.6317165618455,-215.91849164492947,164.13218596973962
3.1025,0.1229710000876382,-0.675986323309054,0.111624765213233,0.0030400965091536,-0.0006719601842475,0.0050820359368441,0.0003340459385022,0.0021218797296654,0.0566001053223551,0.9983944451611004,-0.0175717790717879,0.0080531367005505,9.709181164190824,0.024272213320318,0.0139013317594399,0.0130334092814499,-1.6761243641112968,3.4878173556549483,1.2309566926090671,1094.6410034702951,1101.96962396866,1110.0890989369611,1088.1197072781972,78.13675113211667,475.921320551298,-335.6451104024999,-221.52902202956756,164.13075282298695
3.105,-0.0510317578697151,-0.8436749923532564,-0.0069800093214824,0.0031428356315503,-0.0025074454411299,0.006154945557179,0.0003037711881257,0.0021195084082509,0.0566014728604217,0.9983943713307776,-0.0190140368168816,0.0080008693587575,9.707761627958543,0.0242177337016395,0.0139255292528,0.0127234324287736,-1.6760685192296296,3.4878503915998493,1.2309979797845867,1094.7495238937352,1103.0540129651656,1109.1570132262384,1087.5647794467354,-19.474180187444706,367.7509774562701,-404.81595681604585,-240.01067306763215,164.1293318475277
3.1075,-0.2364682575710418,-0.9812917388434444,-0.1815540483895239,0.0028022205177134,-0.0059967580908465,0.0058774174555243,0.000281836789357,0.0021227442517578,0.0566008790532861,0.9983943901039692,-0.020587825400825,0.0080210177955119,9.706737020396387,0.0241617802372185,0.0139639327992824,0.0124009422931335,-1.676012042221418,3.487885152354904,1.231035744912926,1094.543632569358,1103.808378855941,1108.0650191528812,1086.919653912859,-142.39509403410315,158.16585318712325,-353.92528297403106,-230.17539321900168,164.12764512387415
3.11,-0.351490902776251,-1.0165855889324804,-0.3238066242389698,0.0020245869920415,-0.0098108913035034,0.0045937414160143,0.0002680942938414,0.0021292096007111,0.0565969570950534,0.9983945845022159,-0.0222365085104914,0.0080830576693178,9.706107166609435,0.0241029871617681,0.0140126981690731,0.012070767227551,-1.6759550777550445,3.487922621636652,1.2310695398478315,1094.0375484235647,1103.8448422311012,1107.3873868113683,1086.4139024806404,-271.5822290126469,-114.51397745007988,-178.24036679761483,-190.65119241544,164.12625797238744
3.1125,-0.4017926204871745,-0.9560626759433204,-0.4328788830320622,0.0007766900656386,-0.0137176936454277,0.003014403167291,0.0002613757934124,0.0021397332398286,0.056593562951792,0.9983947351875516,-0.0239626335748571,0.0081507132128966,9.705860717224793,0.0240400289241669,0.0140668800617922,0.0117386914524537,-1.6758980465493591,3.4879630930490086,1.2310992659686,1093.1857214242943,1103.235808968691,1107.173817318893,1085.9663979507818,-438.5375319342688,-390.5721284007732,40.899557957934086,-174.11208446645747,164.1248935189273
3.115,-0.3644357032720183,-0.7883936243072235,-0.5049707262044572,-0.0013361144750346,-0.0173858126185377,0.0011781848770933,0.0002620228600331,0.0021572020537017,0.0565937838647159,0.9983946636726532,-0.0258027747469868,0.0082301285400759,9.705974826350083,0.0239716012518188,0.0141211874383056,0.0114108265286638,-1.675841837131609,3.488006333558169,1.2311247284913889,1091.8448607638932,1101.8919815890972,1107.591884601158,1085.543342058308,-524.9712038407889,-557.2564522937801,262.6629603364164,-127.5520981760137,164.12328637556567
3.1175,-0.2433577108112684,-0.5986260237541797,-0.5086358476320447,-0.0034596841472001,-0.0192607037100417,-0.0003405092533558,0.0002689958290797,0.0021812348692527,0.0565970645727499,0.998394405981706,-0.0277276279206097,0.0083079652094137,9.70641623419224,0.0238964737998323,0.0141704661567739,0.0110929419056703,-1.6757871299335432,3.48805157301556,1.2311466151126291,1090.5608654050907,1100.449526707222,1108.487132120575,1085.3286374599015,-518.8252876139924,-587.050884035956,439.9165123330116,-47.8255053092663,164.12197504896164
3.12,-0.0371603028746138,-0.4013123071824171,-0.4508889969928963,-0.0051028363109892,-0.0199106792743116,-0.0020591845073114,0.0002857742734075,0.0022035832663574,0.0565994537534891,0.9983942020032088,-0.0295467321761824,0.0084602776930697,9.707143189283233,0.0238135059141582,0.0142101769456348,0.0107896088009897,-1.6757329404665855,3.488098516832535,1.2311662793079747,1089.2507343258233,1098.9567271689175,1109.7914671628228,1085.3042145317615,-545.5996893867111,-601.9885735005702,605.1285197651979,37.84577465076008,164.12069596639205
3.1225,0.2710050993314117,-0.2038393821745211,-0.3167950879951398,-0.0053938882690609,-0.0195024376723414,-0.0042681237851513,0.0003094589299043,0.0022201818701042,0.0565988912569894,0.9983941748855694,-0.0311545575667557,0.008654028508255,9.70810517802076,0.0237214336610264,0.0142362108456229,0.0105047615418211,-1.6756784927342347,3.4881472118496473,1.2311838931861876,1087.8328669581572,1097.4395838397193,1111.512774719401,1085.5178663331556,-468.34910171706815,-470.4964841789306,603.5739389045958,114.8217261842571,164.11920195345095
3.125,0.5380910737231169,-0.0959455576045483,-0.1661669366091967,-0.0040039460621679,-0.018569300668339,-0.0054929854979464,0.0003321700859888,0.0022272117707256,0.0565966743448061,0.9983942600664308,-0.0324534601395273,0.0087682756826507,9.709245869292594,0.0236190430020914,0.0142451135401287,0.0102412434059186,-1.6756236668520967,3.4881969400027275,1.2311996726735348,1086.908988817238,1096.604244748023,1112.809336857346,1085.878323162683,-290.798482404586,-214.00708998153732,431.3554791282151,167.20152515277175,164.11799356641163
3.1275,0.7673921358115671,-0.0556716757867131,-0.0061024548688595,-0.0014236907448581,-0.0177639292325135,-0.0052648166652251,0.0003488507391855,0.0022163888424772,0.056595299195628,0.9983943346788344,-0.0332547547364068,0.0087376819048611,9.710506746626343,0.0235053258480751,0.0142345489684932,0.0100001579304412,-1.6755677463605811,3.4882475689195958,1.231213854287604,1086.3788745461343,1096.3695483898116,1113.669552115042,1086.3538739589192,-135.41148267873103,14.578457112702692,240.3842303099788,192.25616261697223,164.1168261481418
3.13,0.9378691933140412,-0.0635656365970044,0.1366852707698674,0.0016506576482371,-0.0176009765678455,-0.0041428075304582,0.0003598278780287,0.0021860071905671,0.0565957979583323,0.9983943413360212,-0.0334912521449918,0.0086112999036286,9.711828182933802,0.0233793582580353,0.0142036219336493,0.0097811354907131,-1.6755104459670995,3.48829914785722,1.2312273579655568,1086.2319314038443,1096.6771370335864,1114.0112580088955,1086.839603975768,33.97965276867351,247.5912188308317,-3.54225829942128,173.98308844457196,164.1156948463595
3.1325,1.0196654634529532,-0.1104123635348965,0.2386503581404123,0.0048612403986831,-0.0181585370770291,-0.0027611447252667,0.0003679589116821,0.0021327203015762,0.0565961882821623,0.9983943988398736,-0.0330625623739463,0.0084851258834223,9.713153827277251,0.0232406715543107,0.0141529868678367,0.009581987507723,-1.675451557103857,3.488350650507801,1.2312422423549516,1086.5487728099777,1097.6075044839658,1113.6518408235447,1087.2237894011423,226.9026315628554,526.839751060207,-307.2983068824462,121.55445502843666,164.11460961584953
3.135,1.0108491823494687,-0.1883527956268372,0.3064768560315717,0.0084545702429913,-0.0191332203360976,-0.0013767819657204,0.0003778541749679,0.0020548149448306,0.0565969845678082,0.9983944825389214,-0.0319011694843553,0.0084884379409515,9.714432840225472,0.0230896318052083,0.0140846144950251,0.0093990362598424,-1.6753905919306855,3.4884011834163076,1.2312605052377619,1087.3664445616587,1099.3113357888876,1112.4747664744834,1087.44737625091,344.5828989389684,692.7560217693701,-524.6030244759479,33.19297000216537,164.11336376979963
3.1375,0.9210920183252616,-0.2601142728928251,0.3221572458862589,0.0109662632823249,-0.0199539695324532,-0.0005628459900894,0.0003908553261802,0.0019638001488685,0.0565990660613549,0.9983945159271006,-0.0302045675571716,0.0086960635321946,9.715620297286192,0.0229274710544765,0.0140017226314403,0.0092282056395806,-1.675328772316513,3.4884499128426185,1.231282297788355,1088.2716873046725,1101.0712845928126,1111.0288257011653,1087.3897542511531,364.72810891819654,730.8905280998416,-618.9254264893993,-72.10482329287667,164.1123748426365
3.14,0.7601037894992233,-0.3318922814238219,0.3055579721770617,0.0129370659526036,-0.0206701145470149,-3.359357386732681e-05,0.000407567159998,0.0018716690462498,0.0566015747630562,0.9983945231585876,-0.0281871808619557,0.0091607322595729,9.71668140821783,0.0227567022978174,0.0139086922641228,0.0090649399312953,-1.67526858419251,3.488495306346015,1.2313072341097235,1089.1900851062496,1102.9657884293867,1109.3801393420365,1087.0868521344455,355.8914541338329,811.4284380151904,-697.9673074338883,-173.4139345577242,164.11143968720705
3.1425,0.5030260780778706,-0.4131361796647891,0.2584327238543409,0.0149145256373413,-0.0216147768028453,0.0004571518011277,0.0004267576670646,0.0017856972434767,0.0566061077513048,0.998394404315005,-0.0259821427818736,0.009884621385972,9.717593586832065,0.0225812729887839,0.0138104911040795,0.0089045806475295,-1.675211952415037,3.488536403354229,1.231334573205627,1090.0511445753416,1105.1284267828885,1107.538989163996,1086.5226845783643,246.74337212964545,739.8321622295201,-602.0654318180406,-221.83161802395733,164.11038263215866
3.145,0.2498235055662628,-0.4725155020053237,0.2003934333140053,0.0160259538355643,-0.022686332417648,0.0008829243011648,0.0004484348635386,0.0017148992572461,0.0566145273695165,0.9983940465386592,-0.0237641769524137,0.0108845659342718,9.718345832780736,0.0224059939087558,0.0137123495810533,0.0087430429877485,-1.6751605195111556,3.488573353592045,1.2313632988264192,1090.4238019668978,1106.6649492405343,1106.3698121829464,1085.977694044326,60.959086201593365,529.0192472988223,-348.030948046706,-209.6595988490252,164.1095581461556
3.1475,-0.0241726165311691,-0.5175382593917016,0.1241722479080161,0.0163768658113263,-0.0241038780016105,0.0014307596201641,0.0004776044600539,0.0016674066281592,0.0566308183596578,0.9983932144968088,-0.0216950632883969,0.0122617674955417,9.718938912188078,0.0222359807242212,0.0136192169090145,0.0085769449996871,-1.6751145087802268,3.4886068734669697,1.2313926374322943,1090.3559400063496,1107.7735230193823,1105.7988344237624,1085.4743865841194,-125.07376665244276,370.5638417264333,-93.41968480953454,-188.3952862489463,164.10879466885046
3.15,-0.3511715547928959,-0.5510455950335305,0.0136389205365559,0.0160436345787414,-0.0259856776953092,0.0021953387096737,0.0005166588606777,0.0016360943432625,0.0566499487802568,0.9983921977026572,-0.0196528420744515,0.0140370951833674,9.719386575287558,0.0220758156088087,0.0135356689033213,0.0084034346914266,-1.6750716248893491,3.4886389532857414,1.2314208661568444,1089.7984331336356,1108.5177684491664,1105.9027137588987,1085.0357176130813,-264.1581753971024,172.62564162765923,158.79694948235166,-121.91885299939972,164.10795183737355
3.1525,-0.6013399883335568,-0.5627066047650249,-0.0884404578742111,0.0150406201586352,-0.0275799032338857,0.0027292075487512,0.0005656822552228,0.0016145063593395,0.0566693127431728,0.9983911482127787,-0.0175398304394999,0.0161767510961135,9.719711745187398,0.0219289755550264,0.013465154267965,0.0082208906666252,-1.675029238535139,3.488671021947046,1.2314464771408304,1089.035149129364,1108.6366512275208,1106.592819171174,1084.8647923191224,-333.07499200047937,-49.28697451650473,360.4357246572574,-22.496252083190782,164.10731260777047
3.155,-0.8012714715771277,-0.5631724862378588,-0.1847984274481695,0.0129291433979758,-0.0290609519367642,0.0026716659646382,0.0006198601051866,0.0016037259438893,0.0566903641503652,0.9983899786599324,-0.0154175533853742,0.0185510225565432,9.719944171800272,0.0217975227539811,0.013409848212512,0.0080290606385092,-1.6749857289183372,3.4887049909990333,1.2314679594685687,1088.1330581736331,1108.2713335765839,1107.704892382185,1084.9232363526653,-355.3169926628685,-215.1887700415355,469.8181367275221,59.47991426141524,164.1067412651024
3.1575,-0.9409051353053732,-0.5612689821847437,-0.2585809443622953,0.0099055898907498,-0.0303664142054752,0.0018111495027251,0.0006697124923089,0.0016031676782163,0.0567095166293813,0.9983888939745292,-0.0133262439975337,0.0209293465565044,9.720120391093172,0.0216821135489876,0.0133712150796362,0.0078282247763118,-1.674940536740183,3.488741206826018,1.2314856528309575,1087.2585641660496,1107.560707377313,1108.941909854812,1085.1621918904295,-310.8209531088117,-349.02139458254914,466.68889701073647,130.12652919715316,164.10622795235602
3.16,-0.9956332480717484,-0.5656439501596877,-0.2841330756855861,0.0065142987577127,-0.0314506808039991,0.000219858072103,0.0007070818944093,0.0016098171133163,0.0567256034205826,0.9983879673881378,-0.0112617477889019,0.0230985055776547,9.72028219624123,0.0215824952445395,0.0133500606741495,0.0076184929686847,-1.6748937128132737,3.4887784203383307,1.23150140586711,1086.578953408089,1106.5262266036711,1110.0383368672387,1085.573868998651,-220.7221618390624,-502.44385039237545,388.1532877460896,202.70209277692152,164.10578665807031
3.1625,-0.9672061785409728,-0.5867580688577062,-0.2451077562432145,0.0030607777645499,-0.0324510854665857,-0.0018504906635692,0.0007316111676633,0.0016216905662433,0.0567387020704124,0.9983871960415104,-0.0092337929257037,0.0249941331419538,9.720474341412505,0.0214977472197816,0.0133469006013906,0.0073994161095682,-1.6748451127286343,3.48881539560702,1.2315170900718744,1086.1549533568543,1105.0484881253512,1110.8826762935423,1086.175702354314,-75.17913791152911,-560.2988580742141,204.68913585214503,222.46997008997388,164.10534272474513
3.165,-0.8791865778303143,-0.6182749302938747,-0.1585686975787775,0.0009353999092282,-0.0331087508987574,-0.0032145081119354,0.0007472386616255,0.0016320390333898,0.0567480191944178,0.9983866328317944,-0.0071557948113426,0.0266282910876018,9.720743596937783,0.0214266169985844,0.0133620308655359,0.0071697724155347,-1.6747948153063104,3.4888518857363446,1.2315343605543725,1086.2030577185315,1103.7247323133,1111.0617825464994,1086.686218849101,106.61427072632476,-525.5294690677259,-41.16143232754526,187.4732741810516,164.1050455046013
3.1675,-0.7447496411892777,-0.6540982716262997,-0.0371815980617752,-0.0005722116356547,-0.0339224345267323,-0.0038361926813889,0.0007575963792788,0.0016322813696326,0.0567573216402193,0.9983860748026808,-0.0049053607854421,0.0280061584885417,9.721136665217026,0.0213679023145356,0.0133951564768222,0.0069280211421524,-1.6747430307823687,3.488887989308535,1.2315544839173662,1086.688024710486,1102.4208407800127,1110.6768691319044,1087.1130687252191,300.530464693572,-547.7587874045756,-270.69880815984686,153.03290120373603,164.1048249630913
3.17,-0.5481178229629851,-0.6748635380805441,0.1108405738042296,-0.0020380046375861,-0.0355853040586066,-0.0036164978015262,0.0007607493044102,0.0016207327825986,0.0567678263679033,0.9983854546649124,-0.0024984861382194,0.0290351649696608,9.721697443938572,0.0213203820996635,0.0134455413238946,0.0066732288650072,-1.67469135055415,3.4889238671986615,1.231577506424837,1087.7057100419993,1100.985938376277,1109.7082885057002,1087.4513833551196,424.91030806946577,-493.4779232262477,-400.7593119583902,90.14977742199527,164.10464978122087
3.1725,-0.3629606364919464,-0.6473552937734571,0.2063525742723194,-0.0031740440909115,-0.0378752919287104,-0.0026958722015317,0.0007530147707193,0.001592838650259,0.0567804741139323,0.9983847290926364,0.0001052114261821,0.0295908681894277,9.722466111314167,0.021283132028871,0.0135118764910356,0.0064050771685326,-1.6746409291977136,3.4889583327949687,1.2316029899368692,1088.8125762508332,1099.9534511638815,1108.6730725721127,1087.563817612329,463.1283160655272,-371.07357298543536,-403.95187753990285,11.89414942650648,164.10457857942154
3.175,-0.1628595629389829,-0.5462498746212069,0.2428993260843566,-0.004198072392747,-0.0408387790528979,-0.0012804950879556,0.000735533160037,0.0015422428281451,0.0567952374618024,0.998383911343184,0.0029898194400593,0.0296478561729586,9.72347646356245,0.0212554083331073,0.0135922569860229,0.0061242130752745,-1.67459166332185,3.4889913658407257,1.2316294746874652,1090.021351622327,1099.13057051135,1107.6885291180004,1087.510854102252,513.67494285115,-310.2255420683623,-356.54464706860705,-51.06556208838466,164.10458483114803
3.1775,0.0816566651955526,-0.3320806871839047,0.1987327010424655,-0.0047716284130448,-0.043924907260664,0.0005420882035886,0.000717231653063,0.0014720172931341,0.0568120924609573,0.9983829919339304,0.0060691279908155,0.0293518992014861,9.724752376293404,0.0212363690011383,0.0136839788539783,0.0058329655225155,-1.6745427854995436,3.4890246963824234,1.2316546244993227,1091.3809509650891,1098.4023234535396,1106.8903493367695,1087.3084898018872,456.42100482992714,-225.28060273312371,-192.95313489110825,-87.14032230218622,164.10468112534383
3.18,0.2740095448629614,-0.0921389739123769,0.0870851873644615,-0.0042601746743621,-0.0453050236409705,0.0019218426159574,0.0007050524936253,0.001389312290578,0.0568284634208975,0.9983821059572616,0.0091802077342102,0.0288260444538045,9.726306941712535,0.0212249706261008,0.0137834187922518,0.0055354830050864,-1.6744938390202984,3.489059382895074,1.2316763723849655,1092.3034566464767,1098.0041674976844,1106.723763443545,1087.0751524907412,303.00003078260227,-122.18191801585168,56.7835576532628,-95.68207094830744,164.10483444811254
3.1825,0.434216415882249,0.1729043393269293,-0.0873111825548488,-0.0027809544646902,-0.0452163503608262,0.0028122976355438,0.0006997824695824,0.0013019951311525,0.056838682474202,0.998381573680826,0.012144572925749,0.028087348820628,9.728141449700017,0.0212199790883459,0.0138860967199194,0.0052374871089143,-1.6744453233926566,3.4890959870155784,1.231694067882988,1092.895951119002,1097.7914138634603,1107.1742671250358,1086.8300794471459,175.51376854144485,-61.616746392839055,277.398661355443,-94.65312720158384,164.1050620949844
3.185,0.5567512881824258,0.4237423191471387,-0.2904432253313488,-0.0008542739634299,-0.0439728614451795,0.0029079126060979,0.0007015018840363,0.0012163886245896,0.0568409295567976,0.9983815071745022,0.0148187931765743,0.0271514736589489,9.73024437014076,0.0212201852644994,0.0139866671386067,0.0049455684982603,-1.6743978323598327,3.4891353159794822,1.23170670548026,1093.1810254891839,1097.6960837657202,1108.1107567503223,1086.6018868547333,45.18368274075425,-19.70355163075552,462.673443168488,-85.26652845266835,164.10534990864667
3.1875,0.6308136240632165,0.6191251234890152,-0.4894451781827968,0.0011653961067685,-0.0415284895157171,0.001717324337877,0.0007092530364254,0.0011392660602567,0.0568361076133133,0.9983818737305696,0.0170557482552147,0.0260285015561269,9.732590912609213,0.0212242910909625,0.0140793015001183,0.0046666820093573,-1.6743515975823111,3.489178028831391,1.2317135660864371,1093.121869532706,1097.6928961053063,1109.4876343408782,1086.4037468048823,-82.74474572426875,9.087630064778034,649.5572610371394,-82.17957185029438,164.10570810425128
3.19,0.6725777175278582,0.757683788660296,-0.6717271169242874,0.0032095683117964,-0.0380315841850372,-0.0010465833779485,0.0007204499857635,0.0010732758349001,0.0568249245867268,0.9983826682644394,0.0187931440472057,0.0247056612147853,9.735143992389537,0.021230756642342,0.0141582474376233,0.0044072667948877,-1.674306516439686,3.489223862304592,1.2317153138967187,1092.7673017605623,1097.741521916044,1111.3585430555079,1086.1909889954818,-152.14911576900118,21.969403695084576,673.9473641732418,-76.68728937742507,164.10621599507618
3.1925,0.6798381967857016,0.7872389413029762,-0.7469411360638749,0.0042817979246707,-0.035295159185499,-0.004043002705533,0.0007335249302209,0.0010164469348321,0.0568083667892378,0.9983838841332092,0.0200663916907514,0.0231969368448627,9.73785560908094,0.0212376922947654,0.0142183114141315,0.0041724267298819,-1.674261552922778,3.4892726347702925,1.2317131445575216,1092.361123953861,1097.802743123782,1112.8573711617444,1086.0203103579954,-152.14810816982092,28.3141762768063,534.0196071826633,-69.91955056791521,164.10670150216978
3.195,0.6691628760743884,0.7385541977872571,-0.7259160029005942,0.004926257645418,-0.0330244039180845,-0.0070760795222335,0.000750427901562,0.000969927406129,0.0567879074896335,0.9983854888970626,0.0208610641260611,0.0215982822223674,9.740668552778573,0.0212427572601442,0.0142553133636606,0.0039655802906726,-1.6742156854555152,3.4893236161767875,1.2317091792969883,1092.0065612197131,1097.883092797428,1114.0286410914212,1085.8413912426422,-110.71677440653892,44.84916426099213,397.19738374708,-83.10241040562124,164.10724788405503
3.1975,0.6322015189736288,0.6165446620304202,-0.5972103676766549,0.0059422891898968,-0.0309570863184974,-0.0099099992696507,0.0007722100583981,0.0009326324570444,0.0567654555860224,0.9983874322464904,0.0212118968794098,0.0199932504107363,9.743519886965437,0.0212432965815322,0.0142664005615084,0.0037880407804666,-1.674168474517862,3.489375478796118,1.2317061149021151,1091.807540081828,1098.0269889450867,1114.84335808048,1085.6047983059673,-19.639718221424538,66.25405948657458,186.95025356269468,-92.08121744132055,164.10796901175488
3.2,0.5669519322287505,0.4853513628026888,-0.4237388684580087,0.0074952031406624,-0.0298174232025229,-0.0113399412934052,0.0007992888836439,0.0008948320857116,0.0567454803962324,0.9983895205899722,0.0213275148845829,0.018448069094118,9.746344632652328,0.0212366411755061,0.0142501680790556,0.0036387522464351,-1.6741190502595913,3.4894277464181718,1.2317057000995684,1091.9083626286063,1098.214363094861,1114.9633923592348,1085.3809851554356,100.53785491218363,94.90486896784407,-62.43460111763985,-97.25869179669853,164.10862056149574
3.2025,0.4438502149213649,0.3506399175020772,-0.2133560956229539,0.0098037865334319,-0.0291901920180795,-0.0119382692132912,0.0008272727492483,0.0008502844490711,0.0567297563962076,0.998391698394386,0.0213490599140721,0.0169401697466869,9.749078348170148,0.0212201370208112,0.0142069305909664,0.0035152328357487,-1.674067627724937,3.489479430892295,1.2317085883005197,1092.310229356389,1098.501513289926,1114.5311850748917,1085.1185048469836,234.70207092751073,153.19336643129063,-289.51997358895534,-126.30155156903396,164.10931949481414
3.205,0.2164905983193081,0.2105710177244021,0.044343928274743,0.0124955239508412,-0.0289323121836057,-0.0118475242695508,0.0008480740094792,0.000792369103952,0.0567153432102029,0.9983941530234725,0.0214255766525584,0.0153719555759455,9.751660449189629,0.0211914321439469,0.0141387701703487,0.0034138831150014,-1.674014617184961,3.489529567621226,1.2317149666214235,1093.0818729832436,1098.9803299270175,1113.51579249129,1084.7494773975905,313.2333540450939,198.5770210145844,-425.971586272326,-143.89820674573764,164.11020646550395
3.2075,-0.0306128040078999,0.1248755362638491,0.2391112119805728,0.0137975404270217,-0.0290774554587172,-0.0112330076392849,0.0008548051436609,0.0007173687615383,0.0567018271553261,0.9983968762840778,0.0216541465012176,0.0136668559607629,9.754036601109334,0.0211489342316597,0.0140490928497834,0.0033305265888171,-1.6739600386752844,3.489577923348307,1.2317240620556167,1093.8763961266145,1099.494398394999,1112.40132714353,1084.3990138132551,320.84768107384434,228.03775941547917,-464.6868854656176,-144.39743335756555,164.11098068213667
3.21,-0.3062127867893666,0.078560026324771,0.3890196445880845,0.0135913145112195,-0.0293916314519008,-0.010175476110006,0.0008440458263953,0.0006332910374556,0.0566877018864635,0.998399829771438,0.0219088267214148,0.0118203029519458,9.756160316758407,0.0210918766403523,0.0139425480015321,0.0032611917228501,-1.6739046640010384,3.489624237301724,1.2317338009804844,1094.6861113886127,1100.1205187240948,1111.192358063962,1084.0274902308026,303.4392503273076,265.65633397736406,-474.3582629775675,-144.4612383505986,164.11178473606495
3.2125,-0.5734863173680536,0.0633602921390429,0.4874012631219165,0.0120882925777192,-0.0296726887634097,-0.0087331384197129,0.0008128721024198,0.0005453575820138,0.0566677531168225,0.9984030828719844,0.02211819867058,0.0098234838839988,9.757995574980452,0.0210204961664321,0.013824812569169,0.0032019019988122,-1.6738495702033198,3.4896669902535824,1.2317431358920503,1095.393592378251,1100.8226800648858,1110.0295358286423,1083.676707621502,233.4443797548424,290.9887231698638,-429.6491156646517,-121.71573347523268,164.1126082937481
3.215,-0.7940902869623226,0.076289964464307,0.5117145005832643,0.009285069493095,-0.0297742631489995,-0.0068090717045888,0.000766076402866,0.0004545911395625,0.0566358808391813,0.9984066165722076,0.0222993057425632,0.0078010701126626,9.759517954583968,0.0209361409657971,0.0137021126630609,0.0031484801753965,-1.6737951066961527,3.489705654998423,1.23175221934608,1095.8533332873872,1101.575462339944,1109.0441124856388,1083.4189115634265,122.62784651738085,326.31053689262967,-369.695483126518,-72.50099480824667,164.1134486247453
3.2175,-0.9742177588465049,0.1055214260727927,0.4512121573052493,0.0055174231286252,-0.0295634128219043,-0.0042834587680639,0.0007181302381578,0.0003700990748562,0.0565938339218315,0.998409781090068,0.0223188302748655,0.0060628574780629,9.760714486958783,0.0208413256701113,0.0135803612965771,0.0030969824752167,-1.6737421656809968,3.489741033903831,1.2317610723148409,1096.006731610838,1102.454232749349,1108.1810584130096,1083.314202647461,-16.416119670110476,302.36356386037875,-253.21807967791864,7.6800786721827805,164.1144671755115
3.22,-1.0467576377221468,0.1254571099567275,0.3348351755554898,0.0027189540552314,-0.0290497833699056,-0.0023798187140281,0.0006853185177904,0.0003031413007911,0.0565538766738131,0.9984114078876136,0.0219986139436269,0.0049441427309172,9.761584055596435,0.020739626543683,0.013464523995039,0.0030436743030535,-1.6736916144746499,3.489774665788266,1.2317694242748185,1095.7712526890366,1103.087280159246,1107.7780220872492,1083.4573119567874,-163.8879497847973,211.9739846798484,-92.34114524283737,112.20738848110396,164.11531733456945
3.2225,-1.0421911922506464,0.1236679750785045,0.1762667113516712,0.0004086500746034,-0.0281760478128191,-0.0011600423549261,0.0006706671682411,0.000260311261914,0.0565301063887525,0.9984111452531508,0.0212314422269928,0.0045046276733471,9.762137011864736,0.0206351634092429,0.0133585787248066,0.002985164254067,-1.6736441744570463,3.4898065332034074,1.2317779418767671,1095.187291861914,1103.5141026727483,1107.7193526867954,1083.8752395898664,-315.92366787204566,118.37188195204617,45.52631497917998,243.76522131647627,164.11616040523475
3.225,-0.9538037966726836,0.0852640152753137,-0.0158427069383257,-0.00212476175177,-0.0268755079594785,-0.0007715447130731,0.000672765360649,0.0002474172705612,0.0565333494432169,0.9984089178590984,0.0199153100515774,0.0047057267895786,9.762393856537544,0.0205320194813945,0.0132655796073392,0.0029183121219229,-1.6736011223188343,3.4898360448772734,1.2317884888051085,1094.1916343496764,1103.6791395690063,1108.005653662145,1084.6761380633695,-390.9939562881474,-9.135831054072893,150.1191593060444,333.4359981419382,164.11715476996193
3.2275,-0.8122702603294223,0.0248572900257482,-0.1378651710138723,-0.0043074566572581,-0.0259150302197748,-0.0014106626075971,0.0006926128811996,0.0002586539339541,0.05656337518308,0.9984051033114534,0.0181727907283112,0.0055334971078564,9.762384677702098,0.0204335533727874,0.013187813885629,0.002839790406506,-1.673561683046464,3.489864821938854,1.2318011768693342,1093.2323220804733,1103.468423517478,1108.4699484833257,1085.542419580576,-377.92381619175,-164.22655716692483,207.35063823977256,369.15981686002726,164.1179629810682
3.23,-0.5997740190194086,-0.0490950581794732,-0.1760620646821055,-0.0066229852068236,-0.0256710901001348,-0.0030063875668447,0.0007280147443484,0.0002796037695942,0.0566085847140069,0.9984005858706372,0.0162872694277042,0.0068947439052964,9.762147345283108,0.0203418143667464,0.0131266518207783,0.0027466925375671,-1.6735236983853887,3.4898938091093106,1.2318152035320376,1092.3020152687177,1102.8580067831715,1109.042406853344,1086.5219371476699,-364.60311192932613,-360.44943750253736,242.90853045645753,430.35776907614496,164.11874363030333
3.2325,-0.2696246857787429,-0.1235970331665188,-0.0914890052516062,-0.0091688781182921,-0.0264236482326346,-0.0057023245026128,0.0007708557937797,0.0002986649074264,0.0566582990548766,0.9983960960647814,0.0144781230046228,0.0085796086370573,9.761724817304861,0.0202574438056322,0.0130820599934028,0.0026373554925476,-1.6734859874370456,3.489924328859004,1.2318300401488218,1091.4093065208267,1101.6661763299653,1109.684491135608,1087.6942084259567,-267.04440186659326,-505.9199272591849,205.0061107035206,408.2078357097176,164.11964215992947
3.235,0.0509891229597105,-0.1530408940070572,0.0901256632829659,-0.0106682466000856,-0.0275460600964994,-0.0079974938160247,0.0008124114524344,0.0003085791333835,0.0567065853482371,0.9983920205462252,0.0128782415683826,0.0103694922841707,9.761162856688035,0.02017966422374,0.0130526646400792,0.00251145798037,-1.6734477439395816,3.4899576417735005,1.23184411527171,1090.9667932593848,1100.3284071468759,1110.0674374068615,1088.5629763262184,-98.042991628238,-588.4363781850483,102.33663442722208,300.3469479562934,164.12035505550318
3.2375,0.3794351734530305,-0.1340541030066143,0.3552206855717037,-0.0107447594251773,-0.0285911031236527,-0.0090400049875268,0.0008459194427552,0.0003014741295222,0.0567481184100338,0.9983886639834776,0.0116351837500685,0.0120836327710951,9.760508078914096,0.0201062826754765,0.0130362764924637,0.0023697908400629,-1.6734078742446044,3.4899941196297264,1.231856192725856,1090.9190915626855,1098.7239944390399,1110.196174307744,1089.1959431657383,70.9916302379904,-736.2726417555181,-8.737380742240338,199.1386392054985,164.12102670342796
3.24,0.7180891722642349,-0.0540366996660548,0.6926619414876494,-0.0084732176905121,-0.0293777920632361,-0.0076072260558571,0.000871732399307,0.0002700949955449,0.0567797955340692,0.9983861703068728,0.0108942845299666,0.0136828412658459,9.759805524876544,0.0200339809974349,0.0130302884195702,0.0022140100770885,-1.6733649887008428,3.4900338275409184,1.2318659113946215,1091.3217514105747,1096.647043938098,1110.0237505031503,1089.558669522246,212.5128011185597,-759.2096881620071,-110.9847357588047,53.88776764639376,164.12178129351705
3.2425,0.90671605539104,0.0533590449745146,0.9221873296776664,-0.0049389484036408,-0.0295282018502062,-0.0043100231593957,0.0008969730528003,0.0002176164316939,0.056798222172875,0.9983846729754786,0.0106081242953436,0.0152748181357468,9.759095640448663,0.0199586503018622,0.0130322128079983,0.0020467547186544,-1.673318157340114,3.490075813489172,1.2318732678931203,1091.9816555682783,1094.92794599823,1109.64125062895,1089.4653820039703,306.59410350363686,-650.3359109243459,-183.43057736465593,-125.03869025404396,164.12236509607342
3.245,0.9601488687045776,0.1901155738503242,1.0286977109333855,-0.0007624189785489,-0.0291145047049977,0.000210185887275,0.0009247305883485,0.0001475881082004,0.0567998063269511,0.9983843179905983,0.0107209737644701,0.016893411356369,9.758413530262409,0.0198760465533085,0.0130399591898221,0.0018712682021209,-1.6732671022401528,3.490117767353241,1.2318791295702622,1092.8547219280929,1093.3953643834764,1109.106597616327,1088.9334760709755,362.8577972471781,-558.086667986084,-220.39922036870408,-280.144304678976,164.12289992842517
3.2475,0.8949569136736037,0.3412958670027448,1.00312080704014,0.003302709048206,-0.0282609190186508,0.0051017495164276,0.0009496079868769,6.292514538880547e-05,0.0567845612851636,0.9983850587097112,0.0111833183896827,0.0184116464507827,9.757788064706748,0.019782557855845,0.0130517650812209,0.0016912573978357,-1.6732125064446632,3.490157930620493,1.2318841319375167,1093.795944554514,1092.1375126582996,1108.5392545271063,1088.0646604805754,369.19718302698,-415.29751825697514,-213.35032725142355,-409.84520569978446,164.12339273085172
3.25,0.7073917151684337,0.5005448836845123,0.8170710605848674,0.0065758574203602,-0.0270251321363337,0.0096266441055822,0.0009659548898975,-2.785556153168622e-05,0.0567590616074076,0.998386482868612,0.0118387299140879,0.0197095866214245,9.757240700194,0.0196758564096877,0.0130659411216497,0.001510756318611,-1.6731566092080719,3.490196180805931,1.231887340930793,1094.7007078432275,1091.3188767921915,1108.03984598007,1086.8842500424769,367.82717272700086,-244.90240563814564,-185.0493440477788,-553.390758297076,164.1238334323817
3.2525,0.3980446076299516,0.6933706271203461,0.4534067994170782,0.0087313868938973,-0.0253687330391421,0.0131831478765059,0.0009759075476796,-0.0001110785314609,0.0567313496376944,0.9983880954109376,0.0124401611285533,0.0208299958360911,9.756785278198478,0.0195551445359856,0.0130808026970379,0.0013337078546305,-1.673101586991002,3.490233586570648,1.2318872791307232,1095.635080418149,1090.9130006301089,1107.6140078068677,1085.29770668909,308.87244301898795,-53.81990653886647,-122.56253101486696,-576.3336498646036,164.12430058916897
3.255,0.1247104923898395,0.8512064531898619,0.0929832407477592,0.008586880786613,-0.0237944184670674,0.0138149008655702,0.0009844864364594,-0.0001794785227864,0.0567077533022503,0.9983895059976796,0.0128682384322848,0.021869465036831,9.756429451924456,0.0194211718861596,0.0130945654340377,0.0011633448859412,-1.6730486525152675,3.4902716382536805,1.2318838879041651,1096.2450700583227,1091.0497772594972,1107.4270333249956,1084.002581793154,206.37654996429288,140.2715117952899,-45.49531908491792,-472.5561377288749,164.1246376956342
3.2575,-0.1024388489509771,0.9985488531646354,-0.2446658638196726,0.0067736252564158,-0.0218040947167567,0.0119895560972948,0.0009945055008652,-0.0002279356206957,0.056694047122262,0.9983903698156616,0.0130407909090462,0.0228836418234815,9.756175262997738,0.0192760667894709,0.0131052875350459,0.001002087659065,-1.6729993028289691,3.490311190490144,1.23187864971873,1096.6669631679706,1091.6143581890851,1107.386531211443,1082.9349260004456,145.4253597954805,321.8597352308517,0.2864280034827777,-381.8612725120344,164.12492001120347
3.26,-0.2768078608426508,1.149598561933918,-0.5457623380214823,0.0040724833712834,-0.0187505706053286,0.0080177141813185,0.00101025859432,-0.0002508363022378,0.0566949611312802,0.99839040744467,0.0128639532914754,0.0239612943494469,9.75602006972064,0.0191229458661703,0.0131110923634182,0.0008512274509067,-1.6729544190442687,3.490352304375408,1.2318737225798109,1096.9721968573,1092.6590759356516,1107.428465465013,1082.0932754305936,83.07569033795694,422.8127067187506,18.18190748713316,-222.22872048196697,164.12519512578865
3.2625,-0.3329006486221519,1.2423339566279556,-0.6812423107610156,0.0021318076689769,-0.0155755785382988,0.004465495212671,0.0010296228511472,-0.000253684507912,0.0567068896586742,0.9983898145163164,0.012448290355854,0.0250561125686135,9.755959204007837,0.0189652263704847,0.0131107130838287,0.0007106626530867,-1.6729129142797667,3.490394451128561,1.2318700880815108,1097.0823416196604,1093.728421722679,1107.4774407488787,1081.8237823980355,21.50828864332698,444.25372777856,13.462941259740832,-19.716795187332956,164.12537129125883
3.265,-0.3127248890594306,1.2894442764127663,-0.7000770706122978,0.0008473053065313,-0.0118524694458503,0.001738277677063,0.0010448153963004,-0.0002441936555112,0.0567265465245785,0.9983887771732614,0.0119353811180209,0.0260109600212893,9.755986831774173,0.0188063225758491,0.0131034205908095,0.0005793801628334,-1.6728738969211276,3.490436905480076,1.2318683198731064,1097.0797383005167,1094.8803445745443,1107.4957801713117,1081.9946914546567,-15.953166514146115,501.74702281952864,2.486980736011954,156.426851840664,164.1254922967105
3.2675,-0.2375368821816088,1.2910217990161692,-0.6247255990828486,6.359622527548081e-05,-0.007485175660979,-9.802786338675456e-05,0.0010515490138856,-0.0002224413372586,0.0567522750355336,0.998387389718468,0.011315888993162,0.0267459969197938,9.756096305748143,0.0186492819059526,0.0130891401490882,0.0004558394786362,-1.6728367452470214,3.4904785956671445,1.231868322084346,1097.0025757870897,1096.2371568367766,1107.4898756525588,1082.605916657239,-30.835541765919263,479.36189623234094,2.2451832275237873,268.9824139825817,164.12557355381293
3.27,-0.1630426084412916,1.2538468395759519,-0.5142760604651243,-5.851412372811623e-05,-0.0045088200178594,-0.0005667576110991,0.0010494456993254,-0.0001900366532091,0.0567803467499435,0.9983858629568908,0.0106087087471054,0.0272549764336317,9.756282090029872,0.0184964276219954,0.0130685911366199,0.000337948439608,-1.672800392608012,3.49051884719257,1.2318697556304556,1096.9255605916871,1097.277154055706,1107.507006087449,1083.3396035245698,-22.504139210650944,384.49118417089176,28.472510183565344,310.62325164835534,164.12558775668876
3.2725,-0.1095276285166484,1.1896405068632494,-0.3866032142523914,0.0002284414773788,-0.0021787876334391,-0.0006422087664419,0.0010440793606843,-0.0001543717562419,0.0568103859247526,0.9983842101513888,0.0099466877175463,0.0276396057912086,9.756540952536493,0.0183493469677223,0.0130429589217017,0.0002231505826353,-1.6727636579149172,3.4905581938331367,1.2318718692247583,1096.8900550910364,1098.159612757631,1107.6322382034766,1084.1590329154808,-2.977256867325259,320.0269515579362,82.26123872095916,323.046091914564,164.12554604697348
3.275,-0.0923306527139863,1.1090446492432786,-0.2569034452083654,0.0007474091333349,-1.5227564647358924e-05,-0.00092727297599,0.0010449886325113,-0.0001201114937149,0.0568412501345419,0.9983824847616378,0.0094093754752073,0.0280788363953007,9.756871820709833,0.0182087893894633,0.0130138998184478,0.0001089941604252,-1.6727251161334376,3.490598000771508,1.2318738886769232,1096.9106743073503,1098.8772888134956,1107.918312281054,1084.9548339841426,18.50676250433065,243.44762108544796,167.84109727268873,297.65411576827955,164.1254576154226
3.2775,-0.1313876349943163,1.0072998536671058,-0.1284245048943589,0.0013841598008497,0.0021305357476077,-0.0015827874711769,0.0010555266426641,-8.949039779889675e-05,0.0568664451529063,0.998381049512106,0.0090183823365145,0.0286295571847222,9.75727633279869,0.0180747599909667,0.0129836496255085,-6.488083743889044e-06,-1.6726846304244256,3.490638069545641,1.2318764204243011,1096.982588903558,1099.3768508630583,1108.47144368984,1085.647303494322,27.666257566168447,173.0209481833182,315.36049917279036,272.9061547712988,164.1253123166498
3.28,-0.2430027732095818,0.8499649040420724,0.0215873464455869,0.001948565204586,0.0047447775431245,-0.0022998806847332,0.0010754134263135,-6.25821632896484e-05,0.0568844886646114,0.9983799854893892,0.0087466060048619,0.0292764762338216,9.757758647042285,0.017947110572415,0.0129546560010619,-0.0001247678848608,-1.6726432239243552,3.4906772998003364,1.2318801969287796,1097.0490055951811,1099.7423935544123,1109.495114776918,1086.3193647579992,3.927038601477496,105.03450485111188,433.44728678477424,220.8638617391294,164.12507141213888
3.2825,-0.3770024447443127,0.6786979129733715,0.1363232002184509,0.0018975625595503,0.0071546813150045,-0.0023935315958248,0.0011020039585834,-3.90808536238042e-05,0.0568984662012784,0.9983791178233554,0.0085552946182129,0.0299546636524728,9.758325165814867,0.017825781061185,0.0129295356596417,-0.0002467577655504,-1.6726019665905827,3.490714561178759,1.2318844097877628,1097.0022240965654,1099.9020233873139,1110.638680123764,1086.7516228030179,-60.309331558938915,52.15801527224468,501.54158769824954,151.96984812614895,164.1248145309436
3.285,-0.5248786976615735,0.4573479679831981,0.2260187477124635,0.0010904850576375,0.0098060346846082,-0.0017345827814462,0.0011287679616591,-1.815351553477533e-05,0.0569115233237281,0.998378274585702,0.0083903213316082,0.030519939819181,9.758983975739095,0.0177107734568415,0.0129110317106347,-0.0003726135726117,-1.672561422898688,3.4907489251942434,1.231887769454139,1096.7474589373867,1100.0031836307735,1112.0028227154091,1087.07921399863,-174.30453654724633,54.09956533599257,614.4880405779662,128.2919432902445,164.1244984858913
3.2875,-0.6751415467765731,0.1439486045371404,0.2874920577966286,-0.0007467920063433,0.0122568839934725,-0.0002642120776165,0.0011505098152536,-1.439992653160064e-06,0.0569271914073277,0.9983772632945304,0.0082473452371095,0.0308480171036403,9.759744174354017,0.0176021009539674,0.0129016557505798,-0.0005019679336785,-1.6725223668362523,3.490780414648257,1.2318892871175926,1096.1307014138292,1100.1725212139938,1113.7111203266538,1087.393082519469,-277.46206153747744,83.68802636037069,602.1373767496825,107.58876363988976,164.1240496544044
3.29,-0.7448265816760443,-0.1309651086412946,0.2935011669612511,-0.0030564227886658,0.0127479166069129,0.0011436872936491,0.0011664406115034,6.678551485178045e-06,0.0569496314910403,0.9983758538177132,0.0081813774374278,0.0308953093719308,9.76061494254737,0.0174996294083773,0.0129032705895856,-0.0006341604301645,-1.6724843256403104,3.4908096237218214,1.231889251582186,1095.360148629699,1100.421623762575,1115.0135095991575,1087.6171578168291,-347.256535641107,130.70035623973405,448.08922781372576,87.24497375215108,164.1236167037524
3.2925,-0.7237899775378269,-0.3742728127493837,0.2555619341558991,-0.0061392891340435,0.0112859094039796,0.0022856112699967,0.0011793804803768,4.443738241634488e-06,0.0569787564312353,0.998374058242528,0.0082021459341064,0.0306905411403703,9.761604280998023,0.0174027834698588,0.0129168967598541,-0.0007682280932872,-1.6724463113376185,3.490837996246801,1.2318881588044364,1094.3944187356235,1100.8260229951925,1115.9515664657224,1087.8293073882298,-440.20162793154697,212.7171076221248,278.9105225550034,94.39914480276657,164.12312136832915
3.295,-0.5760313638486699,-0.580603782903431,0.1752807594790316,-0.0101495113750776,0.0080435011194596,0.0031335387799647,0.0011894929434822,-9.410642717415225e-06,0.0570110312586675,0.9983720947309264,0.0083095310760088,0.0302122672715299,9.762718793446576,0.0173104994260755,0.012942461018259,-0.0009029617672257,-1.672407883869836,3.4908667633357666,1.231885897859265,1093.1591404900416,1101.485209300686,1116.4080622119327,1088.0891535408432,-439.1478587941131,263.72991487710914,32.25740463735816,97.07817053740862,164.12245330389948
3.2975,-0.3598678703038982,-0.6621789259227642,0.095832402509053,-0.012804099054729,0.0050615588004583,0.0034137345895471,0.0011909540496147,-3.539561957912972e-05,0.0570454820246259,0.9983700491271702,0.0084856471985923,0.0293268074641111,9.763963242625396,0.0172214382297638,0.0129785461011192,-0.001036934492223,-1.6723685921111595,3.490896802505832,1.2318823148102225,1092.1986794416532,1102.144672569578,1116.1128534889092,1088.3146982409169,-338.23770688657066,274.81486745357836,-262.08990948915067,91.2156682745201,164.12183399788327
3.3,-0.0854329568416169,-0.6529447485882504,0.0239877007222587,-0.0137639497112577,0.0026650982059012,0.0032145890003047,0.001179266956395,-6.802122745226001e-05,0.0570804434507283,0.9983680536929534,0.0086012757248366,0.0279383308064251,9.765339343368659,0.0171340507773274,0.0130225933340404,-0.0011686733461627,-1.6723289146876084,3.490928542492772,1.2318774324494393,1091.4679519556087,1102.859283637954,1115.0976126644869,1088.5452318822158,-234.51300066574967,286.4754106760108,-506.1548835936832,91.42981036338207,164.12114821385143
3.3025,0.1957037892363579,-0.5856937663043871,-0.0283916557199821,-0.0132106499466828,0.0009722912331608,0.0026919896429171,0.0011531426644652,-0.000100648602788,0.057110256281466,0.9983664756902094,0.0085129872447668,0.0260215986194455,9.766845883139919,0.017046629498656,0.0130712030892148,-0.0012970200582274,-1.6722894410412643,3.4909619942544152,1.231871772430973,1091.0261144383244,1103.577049622958,1113.5820790709406,1088.7718472927338,-92.71232901219459,280.5248702850864,-678.1420527024836,87.5676409479202,164.12040617992292
3.305,0.4345904942917957,-0.4772068199349759,-0.0479054624245499,-0.0112109932066416,5.064730443639141e-05,0.0019173832630736,0.001116552843006,-0.000129098878471,0.0571304358769429,0.9983656193868607,0.0081362875033666,0.0236598638263814,9.768478875228679,0.0169575221745193,0.0131201945227669,-0.0014214045446489,-1.6722498419388083,3.4909979343861406,1.2318665538367544,1091.0043903105477,1104.261907989379,1111.7069024009745,1088.9830700869554,89.87662291701973,287.4330986107513,-826.2281666591837,87.6983359076367,164.11959517980037
3.3075,0.6248375206581824,-0.3343476435432729,-0.0330660238073677,-0.0078057801099796,-0.0004232729851323,0.0011167513844932,0.0010808574497484,-0.0001503730917169,0.0571362276330511,0.9983658015738645,0.0074232366397385,0.0210885851024072,9.770231425722567,0.0168651770657418,0.013164963858606,-0.0015418359969805,-1.6722095330037023,3.491037605191816,1.2318627799126816,1091.4754975529095,1105.0142151160119,1109.4509382376448,1089.210338972272,244.42181578911524,259.574876219318,-768.1301428113038,79.04645541957677,164.1185411716086
3.31,0.6879553367437227,-0.223808311773834,0.0026158407647189,-0.0048322985442513,-0.0004907044440854,0.0007810838037173,0.0010537221839782,-0.0001600898960935,0.0571309999081762,0.9983668779654042,0.0063001355961489,0.0184832536998205,9.772093805237821,0.0167685110309009,0.0132006613216987,-0.0016583169233863,-1.6721693904437525,3.491079718829189,1.2318614875554992,1092.2264993894933,1105.559782370476,1107.866251686918,1089.3783023640533,347.65186796558567,193.09598109826268,-518.6191599715695,63.90030999541659,164.1175949925076
3.3125,0.658952204703556,-0.1348483876771958,0.045130421171672,-0.0024870385138344,-0.000406532328616,0.0008951177783737,0.0010343547637509,-0.000158294845719,0.0571192390461872,0.9983686419966792,0.00477525794263,0.0158588774561583,9.774053875113689,0.0166668163727789,0.0132228811122048,-0.0017705608507373,-1.6721306330144328,3.4911228463560913,1.2318620139095302,1093.2137568927371,1105.9796950215032,1106.8578424377868,1089.529840522249,446.49405401020016,143.45742034279587,-285.84974285273046,63.43714334179957,164.11657814654524
3.315,0.5481883832678832,-0.0560694611877579,0.0814155237376107,-0.0006493604429732,-0.0002699680933902,0.0015243822265226,0.0010212203326057,-0.0001453046474446,0.0571067839633097,0.9983707960402048,0.0028661868850145,0.0132241456051524,9.776096343078654,0.0165597304990126,0.0132279184026308,-0.001877735785321,-1.6720938063028004,3.491166813219079,1.2318619917369196,1094.4589696595442,1106.2770694721899,1106.4370029726545,1089.6954880807623,434.8389191807293,66.69999765690733,-33.08217700346247,56.581027098219536,164.11527638065965
3.3175,0.420575352247403,-0.0100287302123938,0.0858674757496698,0.0001666266890727,-0.0001836060947048,0.002328292717116,0.0010135740128139,-0.0001214957465721,0.057098554921892,0.9983730641338816,0.0005971691430436,0.0106098572678222,9.778202678343508,0.0164470002165445,0.0132130265880638,-0.0019783804049309,-1.6720582603433356,3.491211997082784,1.2318589982470336,1095.3879514886407,1106.3131950097877,1106.6924315527697,1089.81274565774,318.4910227812692,-33.423660938522076,188.49082765358247,38.55240799225352,164.11412401836915
3.32,0.287255541698845,0.024275689186038,0.0556199694773806,0.0004691095707685,-0.000155754412047,0.0030998739406857,0.0010081379239709,-9.072311105311891e-05,0.0570944922541983,0.998375403783602,-0.0019379628770279,0.0079978354277969,9.780351594137455,0.0163281798138447,0.0131767394695503,-0.0020706265713429,-1.6720236703249776,3.4912575584721193,1.2318524498942762,1096.0514247734507,1106.1099511674972,1107.3794571109224,1089.8882501207236,212.37973351474847,-138.7488926448347,339.41741333726424,18.090485586297888,164.11290236608335
3.3225,0.1472357969880226,0.0636879313875145,-0.017285147546816,0.000493718919417,-0.0001912672086437,0.0037215705920564,0.0010023641752338,-5.849021027681602e-05,0.0570910968819641,0.9983778863675008,-0.0046079676609067,0.0053845265438227,9.782519222708926,0.0162025535550005,0.0131189391525337,-0.0021526714780458,-1.6719898054659807,3.4913028155746697,1.2318422954389618,1096.4498501562148,1105.6194505465635,1108.389518619456,1089.9031980856716,80.12980001413041,-209.8839227567668,358.0383045671245,-9.749003727029256,164.11135769678918
3.325,0.0593456143193119,0.1027716058060551,-0.0984839072156943,0.0003689713021371,-0.0002606139254039,0.0039035607862253,0.0009961793327174,-2.4650073984658063e-05,0.0570825430764151,0.998380598917704,-0.0073850258862122,0.0028209811288597,9.784678927162451,0.0160691206425375,0.0130408413224557,-0.0022231038340771,-1.6719559348822115,3.491347152922701,1.23182952446383,1096.4520737735213,1105.0605315537134,1109.169648633758,1089.8395051020884,-53.04949463234265,-238.08209250092256,263.5007522819307,-41.02912869561893,164.11000624018263
3.3275,0.0085220155968537,0.1541443407639035,-0.1824016029132886,0.0001919279437647,-0.0003241499015922,0.0036865829045764,0.0009892128607308,1.066978086001022e-05,0.0570638996048518,0.9983834291400504,-0.0102325807342604,0.0003502280967638,9.78680275767264,0.0159266483111982,0.0129448279503656,-0.0022814320906887,-1.6719213891855063,3.4913895228591825,1.2318166707219103,1096.184602683053,1104.429040084059,1109.7070223808655,1089.6980524421936,-134.2895402247024,-253.84522664381248,164.17924730972467,-66.34171598089011,164.10859007748311
3.33,-0.0102325432960457,0.2161233483442462,-0.2518969361315114,7.499413289728191e-06,-0.0003221392333074,0.0030699566561995,0.0009823803784371,4.195754254672578e-05,0.0570326099882288,0.9983859472018805,-0.0130042568896624,-0.0019692983770016,9.788863154957763,0.0157737640980678,0.012834190837756,-0.0023284498351765,-1.6718855523201444,3.4914290053618173,1.2318057951993235,1095.7806260723978,1103.7913054204944,1109.9905448703066,1089.507796522184,-172.4347079309646,-249.3546080708764,58.28718473039896,-81.54862780916291,164.10712200202587
3.3325,0.0080131253817971,0.2852618428899177,-0.2838132998498635,-0.0001658162365293,-0.0001294619044467,0.0017847146998441,0.0009745062160891,6.581454812373723e-05,0.0569882607717,0.9983876900743828,-0.0155947989045414,-0.004123003628457,9.79083295753968,0.0156091385764199,0.0127128057588678,-0.0023657631951919,-1.6718484381118375,3.49146497714152,1.2317975756564714,1095.3224291433983,1103.1822670437043,1109.9984583045175,1089.2903093031475,-192.20082595088977,-259.08294058622783,-36.535593647796176,-93.50296171574175,164.1055937811769
3.335,0.0671744854104464,0.3610564332808442,-0.2605799716026265,-0.0003345506591788,0.0005094118580147,-0.0002824531976979,0.0009552134399665,7.692266209388606e-05,0.0569321852094022,0.9983890829621892,-0.0178700641259111,-0.0062848769431248,9.792686447793352,0.0154316430221008,0.0125847260260316,-0.0023953693122409,-1.6718106671867008,3.4914976505699955,1.2317919100470092,1094.8196219426432,1102.4958907175633,1109.8078669020676,1089.0402817136053,-167.98570426472355,-244.99649145005216,-82.05901272454132,-85.1767902951924,164.10369399871314
3.3375,0.140775565252977,0.4023671502799493,-0.1888176526708949,-0.0004038442261037,0.0015240930618576,-0.001840646752823,0.0009216000523038,6.662758493671081e-05,0.0568699704314058,0.9983903949887312,-0.0196218707084199,-0.0084932723320843,9.794400667759247,0.015240560631278,0.0124535574830695,-0.0024197384467909,-1.6717718324633688,3.491528418907975,1.2317885616680386,1094.4825006220747,1101.9572845864543,1109.588163240895,1088.8644253516716,-115.87441991673832,-208.3656331529754,-79.71016943570417,-61.11388446174845,164.10205887942936
3.34,0.2271288344692404,0.4010264710727496,-0.0786644664714731,-0.0003107914335303,0.0031370536882951,-0.0024521600008947,0.0008787128861471,3.626073264147088e-05,0.0568024163313696,0.9983919703381228,-0.0208288375515792,-0.0106280465683764,9.795953949111537,0.015035588057632,0.012322388737567,-0.0024410490796772,-1.6717319496982574,3.491559498407176,1.2317862125479,1094.2402498430597,1101.4540625517984,1109.4093160548891,1088.7347122912963,-87.87146552548937,-209.51554156561943,-57.917481890304494,-48.128508625356,164.10037374607447
3.3425,0.324105021323045,0.3351272409110222,0.0656612119669958,0.0001534523947709,0.0055956919394766,-0.002076002978142,0.0008351391056835,-8.74641356157778e-06,0.0567284735625231,0.998394101899938,-0.0215478000360293,-0.0125025984161199,9.79732661604848,0.0148171010268695,0.0121936227581125,-0.002460981210773,-1.6716913509845823,3.491591867629347,1.2317842571939852,1094.0431432944472,1100.909706878626,1109.2985758314435,1088.623782808545,-59.1259700730876,-184.8931470059472,-24.99430496968502,-37.30942851748044,164.09829867909292
3.345,0.3793628030379154,0.2285248797113826,0.172833994973847,0.0009826298644637,0.0075901028003411,-0.0012458574755389,0.0008009396476795,-5.924483501564248e-05,0.056656249713546,0.9983964452003964,-0.0219107397057511,-0.0139024108363679,9.798500777777072,0.0145866412577081,0.0120687873619895,-0.0024805435351085,-1.6716505893328326,3.491624959280258,1.2317827304923843,1093.9446199926942,1100.5295968167686,1109.2843445300407,1088.5481651487091,-26.42028320910924,-130.01758068899383,-1.271049882279867,-33.50113788069465,164.09652885589244
