t,ang_acc_x,ang_acc_y,ang_acc_z,a_vel_x,a_vel_y,a_vel_z,quat_x,quat_y,quat_z,quat_w,acc_x,acc_y,acc_z,l_vel_x,l_vel_y,l_vel_z,pos_x,pos_y,pos_z,mot_1,mot_2,mot_3,mot_4,dmot_1,dmot_2,dmot_3,dmot_4,vbat
7.1725,-0.9240320015951878,-0.2710629133937747,-0.4916966531517642,0.0259059503819785,-0.0735617294312235,-0.0312954631750133,-0.0087975459334278,-0.0011974220301731,0.0422274290748544,0.9990679391950564,0.0615073952970029,0.0482865455344458,9.96793190104603,0.0563571283149644,0.015841462644845,-0.0036322005617198,8.473275170717555,0.0277177900995985,2.1367668334610754,1145.0235187287624,1143.016764165279,1143.4578393341694,1125.1776596645875,-43.47544774141262,-93.98097353755675,-152.52065796112544,-400.8904037761653,162.50498945044933
7.175,-0.8160600914033149,-0.4596256188841643,-0.3199218453567367,0.0240484300637461,-0.0733597957687475,-0.0341143236276567,-0.0087781082543149,-0.0012788784448679,0.0422138669238383,0.9990684995422148,0.0664276201212833,0.0445351857083559,9.96676156255675,0.0567416285182551,0.0168507427182458,-0.0031628242906078,8.473407630150362,0.0277676425323247,2.13675663376978,1145.0715778391743,1142.6036069134386,1143.0463339840192,1124.0775278517942,76.29921489115239,-219.4988622033226,-147.09322289459436,-363.6155147274244,162.50748909143115
7.1775,-0.7392343413891403,-0.5941698021362286,-0.1113128262405986,0.022468441027846,-0.0745346060232032,-0.035343267308508,-0.0087528390071358,-0.0013646737818188,0.0421995979026687,0.9990691121620316,0.0702210444503126,0.0404730597912946,9.964702076243501,0.0571432827811712,0.0178546059608076,-0.0026948276241292,8.473541399824187,0.0278213003716607,2.1367481047165895,1145.405014803218,1141.9192698542624,1142.7223732196965,1123.3595820909504,179.6152661651415,-349.9364836435763,-119.25867445429756,-193.4045168697635,162.5096635546662
7.18,-0.6599799203413023,-0.6543554557104517,0.1358261266060227,0.0206577793210202,-0.0773000463693724,-0.0352163671181262,-0.0087197150706119,-0.0014630646377371,0.0421861557195765,0.9990697229318208,0.0730149251299239,0.0361478502527881,9.96176365565256,0.0575557503244012,0.0188491926027226,-0.0022334753211657,8.473676743852316,0.0278783724111445,2.136740150363552,1145.9696541700002,1140.8539244952208,1142.450040611748,1123.1105052674454,274.40133540195023,-552.9530974056461,-94.69406237258428,46.425070138730995,162.51192820589787
7.1825,-0.542148162271849,-0.5943931171688268,0.4362972001001567,0.0183419275431188,-0.081851994638903,-0.033858047955973,-0.0086803485997277,-0.0015732231064552,0.0421713611468006,0.9990704205239448,0.0747733071467046,0.0315537693642741,9.957973508104542,0.0579719802003273,0.0198309628050809,-0.0017830359986116,8.473814032432077,0.027938743670936,2.1367327892404955,1146.7770214802279,1139.1545043672343,1142.2489029078336,1123.591707441644,294.1123168109693,-683.909022574137,-41.199542605357166,322.2914926185646,162.5147440196116
7.185,-0.4150859413530995,-0.4256790809962174,0.664029593526433,0.016556969002778,-0.0854961871082045,-0.0319376912349353,-0.0086384704840574,-0.0016891920281763,0.0421536651724208,0.9990712660941378,0.0753805998028787,0.0266577135252654,9.953374410473476,0.0583844615539437,0.0207963048854513,-0.0013472985543331,8.473953760258546,0.0280024932518326,2.13672693798226,1147.440215754055,1137.4343793823496,1142.244042898721,1124.7219627305385,234.27491446810157,-734.0399310543646,43.310766905734475,593.8212919107299,162.5171676150831
7.1875,-0.2556247847551249,-0.1627718792220835,0.8465981585588636,0.0153712166193416,-0.0873332006253273,-0.029266619990063,-0.0085986030465452,-0.0017998111823756,0.0421288076191987,0.9990724442212484,0.0746399023668056,0.0214262911420717,9.94802374419469,0.0587852895103964,0.0217420317713832,-0.0009295722364533,8.474096503332905,0.028070421585096,2.1367241663325878,1147.9483960525683,1135.4843047119623,1142.4654567423622,1126.5608139011977,157.4295277552698,-802.8930513203877,129.5082470461721,826.3245749852279,162.5196650931056
7.19,-0.074106917620124,0.1333354210861858,0.9847612572098572,0.0149715902618102,-0.0870726323286124,-0.0262658474370148,-0.0085606537597824,-0.0018966808061994,0.042094039305107,0.9990741173249796,0.0724379758958406,0.015924886997221,9.941988581858416,0.0591666114916292,0.0226650636046913,-0.0005336776995834,8.474242445762892,0.028142607809018,2.136725144392215,1148.2273633928316,1133.4199141257477,1142.891584133952,1128.8535856054643,37.892670549900586,-834.1460339204509,214.6173809366292,978.7747293789134,162.52221891962245
7.1925,0.1253400825150925,0.4089769577742637,1.073601517651442,0.0154541766646158,-0.0848192892503828,-0.0234276637799511,-0.0085271879598576,-0.0019723252721262,0.0420522969278546,0.9990761869538572,0.0687034870288462,0.0101724858289788,9.935347460025964,0.0595212196500348,0.0235621643335129,-0.0001630589627946,8.474390498455154,0.0282186182397447,2.1367301747249776,1148.1378594053178,1131.3135745423604,1143.5385436470451,1131.454687548092,-134.85207804579036,-912.4075517770701,315.3585912402899,1146.1147846123156,162.52483430357339
7.195,0.3787100921611899,0.6583250584983708,1.1397133713778544,0.0164087530908494,-0.0810826066064825,-0.0206024069517707,-0.0084985972064454,-0.0020298891379898,0.0420094267967666,0.9990784297376624,0.0635997297874773,0.0042289341872597,9.928184645326267,0.0598427760154578,0.0244304689446553,0.0001782663110319,8.474539609624598,0.0282974072384866,2.1367379436152354,1147.5531030026027,1128.8578763668625,1144.4683770901531,1134.584159528526,-288.91147562590663,-871.7755817353648,342.3753901940545,1099.1220105675673,162.5280350983446
7.1975,0.600891078210037,0.780124244889229,1.1736237615850784,0.0172634703625472,-0.0777654111565032,-0.018673441152669,-0.0084779541910141,-0.0020776150354101,0.0419711259235752,0.9990805926091748,0.057406110843349,-0.0018977926052537,9.920591435428387,0.0601258832884356,0.0252679666265198,0.000486939604142,8.474689804146957,0.0283778525130536,2.136746736714357,1146.6933020271883,1126.9546966336836,1145.2504205980156,1136.9502976009298,-399.7599276462637,-713.0753195501864,278.50837282090333,846.3343945809991,162.53074750607922
7.2,0.8330397826666482,0.8198645544928737,1.1911377342483969,0.0183637415169992,-0.0751055729931209,-0.0166417628521198,-0.0084576321409462,-0.0021299584581448,0.041938644300457,0.9990826772315928,0.0505457365612475,-0.0079884490924912,9.912659784104003,0.0603659609346739,0.0260740387806161,0.0007595373998516,8.474841626633449,0.0284595225105548,2.1367548473060647,1145.5543033643714,1125.2924997691116,1145.8609189542578,1138.8158315014307,-525.1169604451295,-656.2431936131245,188.35275589500964,667.5654395073118,162.5334980389177
7.202500000000001,1.1118678950344507,0.8057282056295886,1.1828939449794436,0.0205716454790139,-0.0731248684153816,-0.013176537153112,-0.008427968291089,-0.0021921738754193,0.0419094019598231,0.9990848742892032,0.0432695473982859,-0.0137746443070018,9.904486506311427,0.0605593498928945,0.0268492904542723,0.0009947430122974,8.474995284107326,0.0285426809560112,2.136761856120729,1144.0677172249623,1123.6734806656175,1146.1921843774908,1140.2881247984667,-529.8691014103609,-518.1951046489868,33.211575923997565,401.2203457594381,162.5368326249873
7.205,1.3283607606902983,0.7695914704534684,1.138957209882813,0.0233946662979891,-0.0722562585876578,-0.0095110936261884,-0.0083828058802643,-0.0022587872852739,0.0418777508860913,0.9990874784074238,0.0356188690097752,-0.0190501236984526,9.896172220996855,0.060703476616973,0.0275953441188621,0.0011936507642448,8.475150379766509,0.0286282147868137,2.136767814549665,1142.9049578573197,1122.7015242458667,1146.0269768338778,1140.821933230228,-408.2006257244844,-297.6723555283179,-166.11836047464195,74.96205647503461,162.53963281168885
7.2075,1.5046514423300377,0.7294309868682719,1.049266033665307,0.0270200386330508,-0.0714821279641797,-0.0060815029804684,-0.0083214807633882,-0.0023231883814756,0.0418431087583129,0.9990904999769072,0.0276137526571516,-0.0237212402920737,9.8878170560815,0.0607974935985312,0.02831382180667,0.0013585243938353,8.475306774963235,0.0287163042191555,2.136772695665364,1142.02671409634,1122.185118887976,1145.3615925751176,1140.662935080842,-283.9855100647188,-113.8221523025574,-392.652170374785,-206.6029231346464,162.54244762527065
7.21,1.6438299147677005,0.6801208373264002,0.8981237287667881,0.0319683542390297,-0.0697070546242881,-0.0029352744991627,-0.0082477152729434,-0.0023803646485847,0.0418090362154892,0.9990936896785982,0.0193031197277504,-0.0277884864754116,9.879517463333526,0.0608424491729746,0.0290065071105476,0.0014921973756174,8.475463274264051,0.0288064727150095,2.1367767894460674,1141.485030306996,1122.132413484354,1144.063715982004,1139.7889186145549,-99.13057728054112,73.9528390426601,-531.8495202309464,-410.0809096580721,162.54583443940174
7.2125,1.6846874568686632,0.6321384440756339,0.7505885197635281,0.0364963387507127,-0.0675024657396204,-0.0011614214067654,-0.0081617492841637,-0.0024344020608598,0.041781793660272,0.99909662349572,0.0109142225856659,-0.0311984678940307,9.871361441018529,0.0608413360805167,0.029675606127011,0.0015964838037377,8.475618267002702,0.0288972668899792,2.136779833700522,1141.5310612099372,1122.5548830831892,1142.702344973963,1138.6125305325515,120.92217334461822,254.6517913299394,-557.5785575062247,-530.5982460277504,162.5486591480654
7.215,1.6375577364769358,0.573558318952811,0.5988252211592177,0.0411118974467548,-0.0652614830869042,-0.0001423102686284,-0.0080653309049115,-0.002486795681712,0.0417637361776872,0.999098950358528,0.0026109199026184,-0.0339338127206477,9.863430458339721,0.0607985680959609,0.0303244774134831,0.0016736822864203,8.475770324471425,0.0289875351199553,2.136782026428879,1142.0896411737192,1123.4056724410036,1141.2758231944729,1137.135927384416,295.52459428687774,396.49463435622175,-545.0247532827805,-614.9831073182344,162.5514808137224
7.2175,1.5175246132994644,0.5125019312590762,0.4524811941765974,0.0452500514646474,-0.0634690094241961,0.0004708191417865,-0.0079642906013611,-0.0025332214208855,0.0417481116196232,0.9991006046737352,-0.0055768718104576,-0.0360624868070027,9.855799003852852,0.0607192802964893,0.0309580476943759,0.001726967445761,8.475918416975437,0.0290770336667035,2.1367841746056886,1143.0086841813716,1124.5373562549703,1139.977221207549,1135.5376149959607,427.72351348627126,497.0629012908026,-450.5644672671775,-638.6504840362386,162.55429634280048
7.219999999999998,1.31710151535908,0.4657990297312577,0.314181126539858,0.0484778697877266,-0.0625691350404788,0.000885359114949,-0.0078666432716241,-0.0025669167467818,0.0417296058960533,0.9991015748179825,-0.0136826479833845,-0.0377049604541266,9.84853249986814,0.0606094217738909,0.0315812403116746,0.0017597714223946,8.476061441022438,0.0291656426509985,2.136787312750535,1144.2282587411505,1125.8909869474576,1139.023000858137,1133.942674964235,563.7246142789656,613.9590442365392,-307.71219923463576,-664.0675467682883,162.5571006577449
7.2225,0.9948420574963062,0.4499566261742529,0.1485723170810884,0.0515391883556717,-0.0626748635497748,0.0014535688806657,-0.0077711894230785,-0.0025890726424819,0.0417058165345615,0.9991022429358623,-0.021590675107923,-0.0388187188420312,9.841683226995281,0.0604752330222748,0.0321985535694487,0.0017738219486267,8.476200046346182,0.0292548666227478,2.1367924530048974,1145.8273072527663,1127.6071514761527,1138.438660211376,1132.2172772621193,576.4627787588332,620.7889641737377,-111.89466631333812,-575.6819667038153,162.56044827884142
7.225,0.6637375918012627,0.4773167583989287,0.0003502801310086,0.0537523103552259,-0.0631100091013414,0.0020999930737938,-0.0076794011822411,-0.0026040550281523,0.0416781910754317,0.9991028315162636,-0.0291407529199044,-0.0394283708272368,9.835293745649357,0.0603226562957257,0.0328137041417005,0.0017707082958851,8.47633604870723,0.0293456321418412,2.1367997320459966,1147.1105726349451,1128.9949317683268,1138.4635275265703,1131.0642651307155,467.2149739002279,520.5414918568861,109.5397753057137,-374.22452228307407,162.56321988447175
7.2275,0.2741144299645661,0.5324597204325309,-0.1677864997747411,0.0558368386743499,-0.0626623551501678,0.0028663141997939,-0.0075998255293596,-0.002618221412188,0.0416483475826257,0.999103398265805,-0.0361567364329899,-0.0397103108292567,9.829397905417048,0.0601566401302887,0.0334300068474864,0.0017526511894441,8.476471100972882,0.0294380233345311,2.1368075614203725,1148.1633821222674,1130.2098589354373,1138.9863590879045,1130.346154650704,378.3019534296808,471.4567605637613,319.6233391149304,-191.2016757477472,162.56596837199191
7.23,-0.2408349878116122,0.5903279281874224,-0.3881194861082976,0.0578090573214071,-0.0605169650795055,0.0034918048208799,-0.0075369399350506,-0.0026420745927387,0.0416211015867662,0.9991038078692862,-0.042393388524953,-0.0397744620090399,9.8240181227663,0.0599811571019289,0.0340500649336985,0.0017216620487623,8.476607412707045,0.0295313258874411,2.1368134330548334,1149.0020824020935,1131.3522155711455,1140.0616442221449,1130.1082567519768,224.392986446451,357.04060515596063,441.98596079946617,24.112774684727416,162.5692344604819
7.2325,-0.6762450177521411,0.6000068278233791,-0.5685891654619187,0.0580895879750863,-0.0577988426947488,0.0031283586555355,-0.0074874538527552,-0.0026792627369085,0.0415999191496641,0.9991039984541966,-0.0477500348667821,-0.039581885828417,9.819164801301074,0.0597989735836841,0.0346762828330519,0.0016804501135158,8.476746368324136,0.0296255298816219,2.136816571689569,1149.2853470544997,1131.995061961217,1141.1962888919015,1130.4667185241276,27.797706414413053,194.64672201620905,465.9006886029701,250.6039078013199,162.57192531426873
7.235,-1.054178221082724,0.5466783862322865,-0.7074448297672254,0.055529714035825,-0.0552125884720989,0.0009245871495078,-0.007447364327142,-0.0027302714330213,0.0415855038202612,0.999103994209534,-0.052202749448713,-0.0390854515060088,9.814837926163976,0.0596119061093401,0.0353109054849344,0.0016321496350556,8.476887747008009,0.0297211981502101,2.136817432341344,1149.1410709341656,1132.3254491812263,1142.3911476651597,1131.3612762909831,-143.97886182328273,92.31608107766273,495.6059429751455,484.87511577733255,162.57457889435395
7.2375,-1.358335902233755,0.4095449488397522,-0.7808670608721088,0.0492452938529639,-0.0529910632113328,-0.003612828789674,-0.0074194294624574,-0.0027933927162612,0.0415828007157016,0.9991035717406376,-0.0557871504991273,-0.0383754084607463,9.81102933688074,0.059421757033114,0.0359550630758092,0.001580404244517,8.477030235095535,0.0298178607867376,2.1368167208208138,1148.5654527453833,1132.4566423666051,1143.6743186067774,1132.8910941030142,-257.9330801319939,26.74202797020428,417.15013926760525,600.7389549797282,162.57771368688788
7.24,-1.446748245305608,0.2476141096276605,-0.750423038980938,0.043086203262099,-0.0518641105994998,-0.0076032733261201,-0.0074126920557504,-0.0028637927652511,0.0415953308115311,0.9991025155088182,-0.058616963887367,-0.0376675690014534,9.807723532774789,0.0592302700439983,0.0366093685321467,0.0015291967672573,8.477172198278977,0.0299150991279868,2.1368148605529207,1147.8514055335056,1132.4591593210775,1144.4768983614977,1134.364971065882,-308.9915026947049,9.468342822992984,241.0246881307154,580.3286999657427,162.58027985183628
7.242499999999999,-1.3588565831639636,0.0605550601986188,-0.6431839246003209,0.0379906166925388,-0.0514240582733117,-0.0102874467487214,-0.0074321893667201,-0.0029330562331382,0.0416206652169094,0.9991008873094516,-0.0608848881160925,-0.037099863619207,9.804896396047322,0.0590389175267538,0.0372743641246801,0.0014819335311916,8.477312605725702,0.0300131347806615,2.136812841476037,1147.0204952319095,1132.5039840807203,1144.8794420474308,1135.7927376028429,-335.73055217776334,44.10412340139467,85.06627068081981,527.0750326882649,162.58279212376652
7.245,-1.1503153733924845,-0.1263662213446253,-0.5066995316525104,0.0342219005082185,-0.0516951290144356,-0.011655527714469,-0.0074677964690158,-0.0029977209130294,0.041649844680366,0.999099107240318,-0.0626852113607739,-0.036519505255901,9.802514073241035,0.0588487733909996,0.0379505102799535,0.0014394549799096,8.47745083679198,0.0301137078190832,2.136811297940081,1146.1727527726168,1132.6796799380843,1144.9022297149015,1137.0003462293232,-329.6570699701017,112.96090285803128,-82.33333990905142,396.7936069867226,162.58525528105295
7.2475,-0.8462066451965672,-0.2888615355007533,-0.384218149249012,0.0319581003034479,-0.0528958844172674,-0.0114873319887349,-0.007506766903343,-0.0030585009903752,0.0416741115588609,0.9990975978681668,-0.0640354026689166,-0.0357264088751745,9.800537519175151,0.0586608124885273,0.0386373736350157,0.0014010981344575,8.477587444251059,0.0302183397729429,2.136810951300862,1145.3722098820588,1133.0687885950103,1144.4677753478857,1137.7767056377768,-331.04958616068666,213.8504692228298,-282.0958935064542,221.54146545222392,162.58765394406507
7.25,-0.4403373830454561,-0.4337899495613509,-0.303283937938952,0.0307836503392855,-0.0552008837289567,-0.0099712511973051,-0.0075389508268328,-0.0031155866757743,0.0416885160500944,0.9990966110173009,-0.0649696262866261,-0.0345699383017668,9.798925036073879,0.0584760201422714,0.0393334415493452,0.0013658069729966,8.477723069366716,0.0303277027981544,2.136812574421788,1144.5175048418134,1133.7489322841986,1143.4917502473695,1138.1080535565843,-291.77815048747726,264.5804900846144,-413.24807479587406,24.85127434815748,162.59045106559475
7.2525,-0.1140087579020085,-0.509250876987809,-0.3038618079120706,0.0309978328581017,-0.0573372163837304,-0.0087243082814952,-0.0075540640333798,-0.00317498544182,0.0416966887458678,0.9990960271482268,-0.0654089508847018,-0.0328992107608001,9.797633017696569,0.0582957298662298,0.0400359899085415,0.0013314481123201,8.47785745983763,0.0304412295751422,2.1368156413927624,1143.9133191296216,1134.3916910454336,1142.4015349739063,1137.9009620095176,-216.68491644787088,235.00255846661773,-459.814290484074,-159.84847184709335,162.5927094332571
7.255,0.1577419044366804,-0.5506525385716977,-0.356597394125479,0.0325304877634155,-0.0587098650439799,-0.0089409747492635,-0.0075474325754993,-0.0032425271461634,0.0417032371213647,0.9990956515023957,-0.065284901357466,-0.0306707662338331,9.79661819554296,0.0581209935739187,0.0407423692061874,0.0012962688889705,8.477990178075489,0.0305577040540423,2.136819241523727,1143.434080259574,1134.9239450765317,1141.1926787949492,1137.3088111973489,-181.8025843707385,159.7785568739289,-512.9017379266879,-306.28854687821075,162.59488676445864
7.2575,0.3969472271158293,-0.5874528480646862,-0.4323493695734286,0.035256709860207,-0.0591155418686431,-0.0111799728572229,-0.0075214482614481,-0.0033205859822948,0.0417088555665756,0.9990954171618088,-0.064605294328907,-0.0279747736002388,9.795838771415923,0.0579520786947308,0.0414508583505129,0.0012596058442768,8.478121724407668,0.0306762273217269,2.136822324185255,1143.004306207768,1135.1905838298032,1139.8370262842727,1136.3695192751263,-136.53953247626595,6.808714193766863,-447.1718273604079,-347.2813864888468,162.59739930911138
7.259999999999998,0.5281438686976055,-0.6200485912573382,-0.4736578537630671,0.0374504187701377,-0.0592331267826142,-0.013730931047169,-0.0074818111411324,-0.0034082287578902,0.0417133425821373,0.9990952863100132,-0.0634456869729508,-0.0249617371547374,9.795254254133308,0.0577886019391464,0.0421604606197831,0.0012216020629517,8.478253564597965,0.0307963350523575,2.1368247269012075,1142.7513825971928,1134.9579886475003,1138.9568196581472,1135.5724042649047,-87.9545907470875,-204.4848707523713,-266.1918024310637,-284.58596104615634,162.59940480269196
7.2625,0.6163384598246453,-0.6500183803370133,-0.4743345082961245,0.0388936366899713,-0.0603436009553329,-0.0158393855753684,-0.0074290003890755,-0.0035022337439022,0.041713908145765,0.9990953796938133,-0.0619219831270327,-0.0216771714046446,9.794823830326733,0.0576294022928632,0.0428711523870429,0.0011822869025071,8.478386242415729,0.0309184034120652,2.136827247734752,1142.5645332540323,1134.1681594760414,1138.5060672721177,1134.9465894698956,-80.896609524858,-469.9222054684644,-75.5999634142763,-208.64001574156111,162.6013132271239
7.265,0.7168121508256082,-0.659658012938473,-0.433041727863349,0.0398425629604667,-0.0629842429444431,-0.0174761348017912,-0.0073647296830862,-0.0035971136155051,0.0417101508191153,0.999095721069911,-0.0601921813579846,-0.0181883659548171,9.794508437171343,0.0574731154652912,0.0435832861748802,0.0011421008441465,8.478519743440232,0.0310423967076153,2.1368305595495247,1142.3468995495684,1132.6083776201579,1138.5788198410755,1134.5292041861967,-88.53083478279774,-654.1754608670684,132.19431240568437,-91.86791776028454,162.60348567436455
7.2675,0.8231691250336854,-0.63046046837277,-0.3759515615712076,0.0405959489271191,-0.0655356688428595,-0.0182878942799589,-0.00729503755135,-0.0036875891849095,0.0417039169321092,0.9990962052114626,-0.0584097285392357,-0.0146477003863907,9.794272068511399,0.0573183876273269,0.0442976059669799,0.0011019874089098,8.478653620487972,0.0311676928273941,2.1368346203387825,1142.1218790801183,1130.897282171706,1139.167038834146,1134.4872498810944,-106.9956442830994,-734.608246920395,331.954183563819,37.71428204690972,162.60519473500344
7.27,0.9693747110731364,-0.5583026424309485,-0.3110454355762348,0.0416943891935858,-0.0676231924351629,-0.0189083089482309,-0.0072225807163089,-0.0037798390771492,0.0417000357706292,0.9990965787926528,-0.0564962386487887,-0.0111516460583047,9.794080055050191,0.057164144266033,0.0450151432346008,0.0010615522989026,8.478787625176494,0.0312929216726382,2.1368377640413807,1141.8119213281527,1128.935336385556,1140.2385907588948,1134.7177755964312,-139.8968419612204,-795.6520439409984,488.3700239732311,122.52855573615568,162.60679558689287
7.2725,1.1475284760237738,-0.4580622137626708,-0.249258649634073,0.0430707546199528,-0.0691160310561786,-0.0194051622618075,-0.0071475294930303,-0.0038795083061539,0.041700978218146,0.9990967091217042,-0.0543790119388895,-0.0077493588556754,9.793898971720791,0.0570092156887898,0.0457376310210602,0.0010204543518193,8.478921863653166,0.031417327755271,2.1368387626907928,1141.4223948703125,1126.9190219520012,1141.608888954012,1135.0998926597752,-172.17385287431537,-781.0902935848555,586.1331691558132,167.85033600654418,162.6083050502693
7.275,1.346326165730999,-0.3402899918477909,-0.1999710571121602,0.0453566664815916,-0.069943323590338,-0.0197096190152995,-0.0070691543908975,-0.0039883535299971,0.0417057994024758,0.9990966312064644,-0.052058598215918,-0.0044711801840103,9.793697137809785,0.0568523024780044,0.0464672848867815,0.0009786975562769,8.479056205832922,0.0315410699406599,2.1368373109337124,1140.9510520637812,1125.0298849176315,1143.1692566046738,1135.557027276464,-217.97231616797495,-753.7763671672725,680.7025122339073,194.19528059320743,162.60970305709932
7.2775,1.5684469936036185,-0.2007965408980586,-0.1625416195814404,0.0498381700246974,-0.0703783738153081,-0.0198858859534952,-0.006988573261393,-0.0041046163471941,0.0417124911426547,0.9990964283083924,-0.0496030499122313,-0.001382271820446,9.793445695391094,0.0566922613263842,0.0472061470870421,0.0009365258355712,8.479191441649606,0.0316648625216621,2.136834608899639,1140.3325332894726,1123.1501401161647,1145.0124015151816,1136.0708690627412,-228.0789851775856,-593.4479494779351,634.9337973091814,171.33540135451224,162.61125113723384
7.28,1.7074089906304035,-0.0994171058842617,-0.1511669773312971,0.0548333063197585,-0.0704406823230994,-0.0199336252411845,-0.0069053155532761,-0.0042223696923155,0.0417186255126916,0.999096231645572,-0.0471581091507145,0.0014858246190935,9.793117833298615,0.056528297028104,0.0479556947317498,0.0008939033462762,8.479327807674425,0.0317897056322005,2.1368326542451794,1139.8106571378935,1122.062645170242,1146.3439255912197,1136.4137042832365,-201.56937461270417,-307.3100910874538,453.5874448678084,114.83987957890592,162.61243343435808
7.282499999999998,1.771329624236688,-0.0244119200083013,-0.1573108751802932,0.0603541298466142,-0.0703436275255163,-0.0199660819233126,-0.006818965289135,-0.004334719572754,0.0417249911824255,0.999096044535352,-0.0448847873410355,0.004101570350153,9.792689504946527,0.0563605214621617,0.0487162142974433,0.0008502866639728,8.479464208001833,0.0319164505750188,2.1368332144832944,1139.3246864164091,1121.6135896607277,1147.2803387395206,1136.6450684606357,-197.09924741382983,-36.04327248704144,292.16050231789893,78.73466296746467,162.61350453804982
7.285,1.7556364864502003,0.028104915676154,-0.1744122936177484,0.0664780296519912,-0.0701494261715643,-0.0201005946890132,-0.0067302063531794,-0.0044358236994641,0.0417305280546913,0.9990959369947434,-0.0429236121984508,0.0064121310983377,9.79213980875485,0.0561896286562556,0.0494873012875819,0.0008047718474262,8.479598902607046,0.0320459417218482,2.136837339610226,1138.8251609008244,1121.8824288078067,1147.8047281028091,1136.8073775980736,-163.98827341879206,226.0239503154127,82.06043774360832,43.81470742923054,162.6146618404677
7.2875,1.677299270512924,0.0382199608342801,-0.1847331751645803,0.0708056137738258,-0.0699634644700674,-0.0203767924748908,-0.006640409677991,-0.0045278310014463,0.0417337703515119,0.9990959559660136,-0.0412583807619262,0.0083471485398509,9.79145060681124,0.0560169970187318,0.0502677626993007,0.0007557587462707,8.479730557362961,0.0321784245940084,2.1368435016440355,1138.504745049315,1122.7437094123047,1147.6906409282387,1136.8641419977819,-103.3837678854092,444.791598373295,-162.4421834852945,7.7648209180098835,162.61551956580493
7.29,1.5544851865547666,0.0126426999034896,-0.1730037913484496,0.0744003252332557,-0.0697795092657042,-0.0209082796661886,-0.0065485497108679,-0.0046148996110922,0.0417310192954362,0.9990962462436344,-0.0398318609239142,0.0098851187392085,9.790605101334089,0.0558442432537108,0.0510559901241714,0.0007017112562785,8.479858602648214,0.0323145754486533,2.136850149506438,1138.308242061397,1124.1063867996731,1146.9925171853827,1136.8462017026638,-54.12248898419536,652.6585785393447,-437.6337601540947,-31.041137044986247,162.6162660535612
7.2925,1.3824815483969235,-0.0578077059323106,-0.1121751033524146,0.0780559519832243,-0.069598532729507,-0.0218655257680076,-0.0064451582310427,-0.0047067712987291,0.0417204133676379,0.9990968983452674,-0.0384690384966412,0.011170124696657,9.78958519949156,0.0556732440982348,0.0518497658977943,0.0006403242490097,8.479983531766447,0.0324545334617577,2.1368559278680275,1138.234132604394,1126.0070023050016,1145.5024721274683,1136.7089363125567,1.5349327942203999,686.2427952282961,-648.4824199010429,-79.01284104637112,162.61703205163107
7.295,1.2331523365992003,-0.1463228993646796,-0.0109154118732197,0.0806771992376706,-0.0695338878558059,-0.0228343270329512,-0.0063278540498199,-0.0048087224357979,0.0417044339130358,0.9990977942091848,-0.0370848044769772,0.0122173075941864,9.788376399797764,0.0555060281242639,0.052646244941232,0.0005712501945611,8.480106676084477,0.0325973059709636,2.136860279423696,1138.3159167253684,1127.5376007758148,1143.7501050858775,1136.451137497432,64.32690435708673,539.2405343679117,-793.0547319853927,-146.97041871618552,162.61756095312614
7.2975,1.0866689754783472,-0.2577057927871439,0.1461300258584475,0.0828602186586824,-0.0696730363828716,-0.02362156678673,-0.0062012336039465,-0.0049192321466585,0.0416865725492157,0.999098764270464,-0.0357302594545805,0.0129175602209639,9.78696758687136,0.0553441856841933,0.0534425625700179,0.0004962436455485,8.480228798350215,0.0327420959822848,2.1368627689410955,1138.5557671261795,1128.703204976841,1141.5371984675414,1135.974084218976,123.71735094075385,372.243410482414,-943.9358714443844,-236.00084055242908,162.61797426071303
7.3,0.9425260089604942,-0.3780220606598021,0.3409249344723868,0.084797855702481,-0.0701099247293121,-0.0237802561580711,-0.0060760234070719,-0.0050336054335908,0.0416696593760642,0.9990996477448704,-0.0345208497858016,0.0130517367634044,9.785350588200483,0.0551885648697012,0.0542361245254165,0.0004184987842299,8.480350213338316,0.0328883619184459,2.1368631629628103,1138.934503480072,1129.3988178282268,1139.0304257286557,1135.2711332946699,186.95210713477024,149.211123552735,-1041.7973810686583,-338.44825577549085,162.61828985776296
7.3025,0.7931446423806426,-0.4920558959262086,0.5584184724390613,0.0866425624211798,-0.0710952585053683,-0.0227855976450836,-0.0059627965455205,-0.0051433838073596,0.0416525289285356,0.999100471801859,-0.0336430131755355,0.0124143557115565,9.783518074086563,0.0550388381299318,0.0550249732372865,0.0003417648052779,8.48047092636763,0.033036038444725,2.136861869677098,1139.490527661853,1129.4492605946048,1136.3282115621982,1134.2818429400986,286.61437462188286,-113.04737307464409,-1181.9114480300211,-489.3309619590686,162.61848527329727
7.304999999999999,0.5909007316018066,-0.5963891005057546,0.8090195034907419,0.0887789964345779,-0.0731130603205222,-0.020502433158675,-0.0058647315582214,-0.005244138089577,0.0416345604976343,0.9991012671182536,-0.0331923868985521,0.0109493785331888,9.781461124693998,0.0548939392493185,0.055807228993582,0.0002684082039045,8.480590996547603,0.0331849401752361,2.136859113419441,1140.3675753531816,1128.8335809628536,1133.1208684885055,1132.8244784848744,354.664858368604,-307.93465717229736,-1127.6422414485992,-558.4682607155293,162.61857843009037
7.3075,0.3903064114118878,-0.6400612970505458,0.9837311455533821,0.090364289969699,-0.0754908910709473,-0.0180775115739681,-0.0057788096632227,-0.0053346797187091,0.0416123022625503,0.9991022045760188,-0.0331904238022296,0.0087273451383927,9.779170303051892,0.0547516575036713,0.0565813701550265,0.0001993753599124,8.480710980655104,0.0333356337804376,2.136855857796561,1141.2638519536963,1127.9095873087433,1130.6900003549551,1131.489501636521,386.49824944603427,-405.56255987465215,-873.3226865714186,-524.0000360962857,162.618537164643
7.31,0.1454784952229575,-0.6303348674768796,1.097655060821438,0.0916556237837379,-0.0781774657603831,-0.0151715420990493,-0.0056974778138048,-0.0054223527175769,0.0415868322252478,0.9991032471196774,-0.0334778123427348,0.0059089686629729,9.776637160756769,0.0546094829567156,0.0573453619174787,0.0001336548284258,8.48083162094822,0.033488286698116,2.1368520987881032,1142.300066600412,1126.80576816348,1128.754255055648,1130.2044783043928,475.5290998730844,-470.072621369728,-694.1224220852439,-510.15341195871946,162.61837193062274
7.3125,-0.2007757299036259,-0.5688152844412044,1.142426074222067,0.092705889400285,-0.0806590810921071,-0.010932758800601,-0.0056187607358263,-0.0055133910150787,0.0415633607950551,0.999104163001394,-0.033910560715825,0.0025554009695733,9.773859217933392,0.0544647162704099,0.0580966653665823,7.040854363725734e-05,8.48095306573382,0.0336425004951059,2.136847503489032,1143.6414974530617,1125.5592242018947,1127.2193882445292,1128.9387345767275,495.09617908248555,-411.7654885736644,-415.61292086476874,-390.22272805046583,162.61803065370273
7.315,-0.5226132242742685,-0.4974215574007914,1.0962391520985055,0.0928613967524962,-0.0815966597489018,-0.0071154754890926,-0.0055431248001911,-0.0056118698138265,0.0415435390940035,0.999104874120732,-0.0343807924541119,-0.001310093053478,9.770840271898791,0.0543137697642841,0.0588330512288184,8.662130594793964e-06,8.481075059161174,0.0337982291964159,2.1368419371922878,1144.7755474958244,1124.7469407206115,1126.676190451324,1128.2533646641405,436.81963465393005,-257.6626031722354,-67.95422998061585,-174.11226512813673,162.6176279715809
7.3175,-0.850560563381275,-0.4331378235759228,0.9717793570459708,0.0917179427403995,-0.0817896685250067,-0.0038747654980202,-0.0054699661838536,-0.0057190822291679,0.0415260997891222,0.9991054540579882,-0.0348254720288877,-0.005633240791958,9.7675906568881,0.0541523979261596,0.0595524810212364,-5.3156633739976496e-05,8.4811978657877,0.0339561027336961,2.136836260679692,1145.8255956263313,1124.2709111860336,1126.879617094626,1128.0681732510868,388.05690949567094,-134.97944455153007,187.07639844310904,16.539448695175803,162.6171043241837
7.32,-1.1525205459284078,-0.388242299845424,0.8009352483948412,0.0892706199443234,-0.0819242131980501,-0.0014707490374041,-0.0054002520673856,-0.0058329712445263,0.0415072911696189,0.9991060964059876,-0.0352396091957057,-0.0103802726679902,9.764129426030628,0.0539759308507441,0.0602530573416447,-0.0001168895276592,8.481322046737587,0.0341172198421792,2.136831726227213,1146.7158320433027,1124.072043497854,1127.6115724435397,1128.3360619076163,294.12499809505505,-29.67984464808132,384.3123511582771,211.24729270969047,162.6164822869734
7.322499999999998,-1.382366897112376,-0.3698676750251612,0.6045033166950776,0.0853512954579745,-0.0823514600984769,-3.54567182717983e-05,-0.0053319446915488,-0.0059514511812827,0.0414865949153195,0.9991068827055996,-0.0356062182983508,-0.0154514956477515,9.760484013281369,0.0537802152612929,0.0609325258528663,-0.0001854745097589,8.48144768940727,0.0342817599495653,2.1368287795777543,1147.2962206168063,1124.1225119627932,1128.8011788504175,1129.1244097146352,156.48758562079243,45.320136313376736,572.8048871218683,440.81611853331214,162.61574446983548
7.325,-1.5325565167029722,-0.3701470216902575,0.3781702745816325,0.0794659892348041,-0.0834397849560363,0.0008564938301045,-0.005261632974394,-0.0060711314953446,0.0414666650531548,0.9991077790122628,-0.0359242827946523,-0.0207129294684288,9.75669171307642,0.0535619447580618,0.0615884946273223,-0.0002624084592154,8.481573839858514,0.0344495217461388,2.1368276569608806,1147.4982699714067,1124.2986441794208,1130.4755968791487,1130.5401425002829,-21.837362232278103,56.62538178916317,612.7153547880378,565.8177019249276,162.61472887328927
7.3275,-1.5383015723457119,-0.3798412389701144,0.2212352035921072,0.0744020296889703,-0.0844809014429392,0.0011269057975574,-0.0051824973741594,-0.0061958658751828,0.0414518370379368,0.9991086487713732,-0.0360433590510183,-0.0259647160761973,9.752799447616113,0.0533187496397412,0.0622188269794019,-0.0003526109651266,8.48170011815834,0.0346195544830214,2.136827804935337,1147.1870338056451,1124.405638871739,1131.864755624358,1131.9534982242603,-227.4938317603804,6.851897534488817,511.5027720842245,567.7397601764035,162.6137763043822
7.33,-1.426057334297795,-0.3900646419444045,0.1181481383285079,0.0702296862894641,-0.0853145185650952,0.0010651753293348,-0.005095182923393,-0.0063316671951252,0.0414456809339579,0.999109319251795,-0.0357753266709157,-0.0311503552757081,9.748866787550845,0.0530491020668999,0.0628220529867259,-0.00046024586619,8.481827384324585,0.0347906463941398,2.13682814164197,1146.3608008126048,1124.3329036670934,1133.03311073957,1133.3788413011648,-466.606790711522,-94.43822980447496,434.44322906571887,576.6295787262728,162.61271568475107
7.3325,-1.1831467582724806,-0.3928849933411046,0.0713224041018107,0.0665692296280632,-0.0864166055492645,0.0006126610151403,-0.0049998031630362,-0.0064799085861586,0.0414451391512059,0.9991099029367148,-0.0350254633998166,-0.0361971072932922,9.744963138947512,0.0527517868980667,0.0633980052807335,-0.0005888801297478,8.48195637127973,0.0349628940122715,2.136828487396773,1144.8539998520876,1123.9334477227167,1134.0369717696867,1134.8366461178916,-614.1076388788082,-204.4189656860497,299.79659797055047,461.0469809231843,162.61131998600916
7.335,-0.9149344937416855,-0.3792985287299932,0.0997397467318251,0.0644014306011307,-0.0875667548547333,-8.157784541299137e-05,-0.0048985393356808,-0.006634697106152,0.0414470530208342,0.9991105219230744,-0.0338462205523568,-0.0410654443743939,9.741167323345305,0.0524270195722366,0.063947052511208,-0.0007408355907343,8.482086171507644,0.0351363918998329,2.136829520054331,1143.2902626182108,1123.3108088386632,1134.5320937294227,1135.6840762057807,-650.5329287463749,-304.91265857409155,147.05289361718627,241.202002575306,162.61005546912943
7.3375,-0.6035757314540098,-0.341280742147803,0.1898910038488981,0.0629469653835793,-0.0886224603090779,-0.0006486710539384,-0.0047939084265891,-0.0067848622902748,0.041449449803597,0.9991112327136425,-0.0323998805432804,-0.0457182469058067,9.737565475393891,0.0520769090697726,0.0644699134216292,-0.0009175253105988,8.482214473985465,0.0353111786970146,2.136832394828366,1141.6013352083555,1122.4088844298462,1134.7722362377726,1136.042656130768,-722.6758902148204,-444.83728497349193,89.36372439393571,44.80213293945876,162.60868641925532
7.34,-0.2018122336485263,-0.2626193539233425,0.3409647816973788,0.0619304698443146,-0.089527222130151,-0.0004686858213799,-0.0046882978501567,-0.0069231596383986,0.0414528205142505,0.9991118964953644,-0.0307820098993527,-0.0501205293942126,9.734248582774242,0.051705705061814,0.0649675126407785,-0.0011201979442793,8.482339911150177,0.0354868324370784,2.1368377452784912,1139.6768831671368,1121.0866224137956,1134.9789123513924,1135.908086870478,-654.7584766959202,-508.86951576945825,97.16873269303711,-126.8508641284852,162.6069230092531
7.3425,0.1437377448710363,-0.1675981646975487,0.4720844301287687,0.0617502124908307,-0.0899487175264615,0.0005237703722888,-0.0045872367379264,-0.0070435911058785,0.0414557072350999,0.9991123425966406,-0.0290808267195927,-0.0543026913561378,9.731310667355746,0.0513190707765067,0.0654414292167504,-0.001348851894299,8.482461204456323,0.0356628354424747,2.136844407113273,1138.3275428248762,1119.864536850999,1135.2580799012378,1135.4084018101255,-454.2917371962272,-496.3038517960391,168.12086806276415,-245.2543079903587,162.6053531171625
7.344999999999998,0.4857369100568634,-0.0389861448754502,0.5686917328681013,0.0623913889416531,-0.0900644962464185,0.002326617718612,-0.004488863345452,-0.0071490356877856,0.0414554227408626,0.9991123420411004,-0.0272225425491042,-0.0581630947259719,9.728843208599507,0.0509237507517623,0.0658937434977325,-0.0016040508430032,8.482577669309206,0.0358385533382157,2.1368502717517495,1137.4054244811557,1118.6051031548157,1135.8195166917062,1134.6818153305262,-282.8677269574715,-501.72496464562,284.8575463574495,-296.02761958549934,162.603679822083
7.3475,0.8125111839761207,0.121160602199744,0.610154937895757,0.0639713005877796,-0.0899693029104703,0.0046838212240104,-0.0043869636576658,-0.0072440926142514,0.0414520469512609,0.9991116952915532,-0.0251135532046725,-0.0615223645465813,9.726932961822973,0.0505275759288745,0.0663264943562051,-0.0018857000849687,8.482689131652903,0.0360135094174825,2.136853970986613,1136.913204190089,1117.3559120277707,1136.682367633025,1133.9282637121983,-90.57489662680784,-494.61603158562406,415.247081355236,-269.7565112731387,162.6019222600096
7.35,1.105602342847131,0.3248170539426111,0.5644966823076571,0.0666286010719212,-0.089667376884358,0.0072931220186937,-0.0042695276186083,-0.0073339201785901,0.0414469697312816,0.9991106590976117,-0.0226630168352924,-0.0640955681409,9.72565848331043,0.0501386713915241,0.0667416483692745,-0.0021932515470798,8.48279596907479,0.0361888346794461,2.136854934320868,1136.9525499980216,1116.1320229968871,1137.8957520984827,1133.3330327741603,120.71121796116388,-535.1428376835996,588.0307695030422,-187.2082515588357,162.60006600778465
7.3525,1.4028837817175157,0.6240035990176968,0.403722531772665,0.0707320283135764,-0.089117127445059,0.0099544461420996,-0.0041310237604711,-0.0074186977535906,0.0414420023567544,0.9991095142207664,-0.0199000436159169,-0.0657272422657939,9.725089529720886,0.0497647864893629,0.0671411029850893,-0.0025237593154748,8.482898215222804,0.0363653383605054,2.136852877708637,1137.5167602798947,1114.680197839353,1139.62252148054,1132.992222454404,263.7235436990124,-531.1365706998117,644.748813499623,-48.5561951527426,162.59772964137315
7.355,1.5992730088224791,0.9158935198660112,0.1934545027850981,0.0748326464204267,-0.0883374557277604,0.0114717509163971,-0.003981266905858,-0.007492895480556,0.0414378915948494,0.9991084511464984,-0.0169938150305728,-0.0665638343416724,9.725285665110324,0.0494125632446992,0.0675269050978629,-0.0028708828455627,8.482996144484215,0.0365430784986581,2.1368482307624457,1138.2711677165166,1113.476340143388,1141.1194961659808,1133.0902517983964,314.46312908570445,-476.61726046813885,561.6579416355881,115.1571355123021,162.5956968159804
7.3575,1.7433038721029828,1.2342246294231547,-0.0664677818066329,0.07946398795654,-0.0865958118697106,0.0120102663297733,-0.0038316541413476,-0.0075533328517815,0.0414374900684199,0.9991074594392796,-0.0140826379120859,-0.0667931176397703,9.726290580612073,0.049087390579341,0.0679009928927293,-0.0032278178765245,8.483091230257305,0.0367216307105589,2.136841677845607,1139.0890759253232,1112.2971115370124,1142.430811188718,1133.5680081319656,319.6890823467652,-498.88500679245374,478.6468936247376,268.24890296589393,162.59358193710415
7.36,1.868942755021353,1.6066806605650874,-0.3890759077346132,0.0849396942713663,-0.0827837135901726,0.0112672542078028,-0.0036907278227706,-0.0075965701882057,0.0414453218059892,0.9991064078734768,-0.011318090798827,-0.0665565748841999,9.728129359105415,0.0487929598011252,0.0682652741917044,-0.0035878752742768,8.483184829392798,0.0369005860612817,2.136834104311625,1139.8696131282504,1110.981915109426,1143.5127306341044,1134.431496313226,221.56545202019987,-449.90341078019856,284.35718025157865,329.38698180251566,162.5909589854714
7.3625,1.9502681490985017,1.8723650229798587,-0.6304591115454954,0.0890814646399559,-0.0781520430752839,0.0095644430737622,-0.0035547779641245,-0.0076276377294906,0.041461224168287,0.999105288447626,-0.0086857473074993,-0.0657745782241803,9.73080437806294,0.0485301162892953,0.0686221600630517,-0.0039466994369441,8.48327930079897,0.0370800182920574,2.1368260827230383,1140.196903185424,1110.0475944831114,1143.852597089976,1135.214943040978,46.10848595539308,-318.7555891628176,1.7434750955999705,276.1757911926056,162.58871015664275
7.365,2.025068989543182,2.050359866857119,-0.8050855602639743,0.0929573102099147,-0.0726024509736726,0.0069208765772584,-0.0034185656124931,-0.007652830457863,0.0414846335345953,0.9991040788653958,-0.006148613121132,-0.0643488116660187,9.734296471366209,0.0482975577917019,0.0689741068673925,-0.0043001106018912,8.483376401547492,0.0372598415023809,2.1368176921940742,1140.1001555580272,1109.3881371636119,1143.5214480095824,1135.812375269189,-133.11651003682812,-201.4762004199881,-296.1846116065835,166.21960262928397,162.58640511399366
7.367499999999999,2.11442938810092,2.128943058892866,-0.9081703462476062,0.0977189243043765,-0.065506905935903,0.0031095873427848,-0.0032816593878725,-0.0076778527516067,0.0415128190085871,0.999102822497174,-0.0036848007848191,-0.0622841653712856,9.738565571283056,0.0480919658269868,0.069323741775356,-0.0046429899396147,8.483476553870993,0.0374401758728959,2.136808140346876,1139.53132063524,1109.0402134810115,1142.371674031943,1136.0460410541243,-263.2110802424506,-36.36026408362417,-529.7982164559129,-20.344155447765367,162.5835838225727
7.37,2.1808083182743645,2.0697148239511347,-0.898332550858789,0.1020660868572554,-0.0595178427882614,-2.8009352253853103e-05,-0.0031454924928556,-0.0077045670839429,0.0415405104815359,0.999101687637375,-0.001344996194186,-0.05962893981706,9.74355040125134,0.0479084877962563,0.0696737869225598,-0.0049694011368753,8.483579185838298,0.0376213497076714,2.136796799412932,1138.7841001568152,1109.2063358431935,1140.872456927303,1135.7106544919502,-321.1751074330958,178.4827109294559,-680.81189194116,-249.83212074080896,162.58119318957833
7.3725,2.2150652174669534,1.8821888222476848,-0.798291296986501,0.1072021894648539,-0.0539196457390157,-0.0025914861420671,-0.0030087223597996,-0.0077319762682951,0.0415613359598321,0.999100920290718,0.0007736224646416,-0.056385123558861,9.749168044202598,0.0477414272189202,0.0700268230890729,-0.0052734545778146,8.483683435149986,0.0378041173869166,2.136783438767127,1137.9254450980743,1109.9326270356587,1138.9676145722367,1134.7968804504203,-335.42755700937767,391.6258670010931,-801.6216464299475,-446.297022309282,162.57876844614603
7.375,2.1989540995529895,1.600867068751721,-0.6401229724228154,0.1129394795296533,-0.0489594241596551,-0.0046302066182723,-0.0028692953968096,-0.0077607365865727,0.0415718039244571,0.999100638904407,0.0026169653850707,-0.0525518102588059,9.755315016268726,0.0475851683047985,0.070384957653019,-0.005549605140723,8.483789046429528,0.0379892131347856,2.1367681474560234,1137.1069623717683,1111.1644651781992,1136.8643486951532,1133.4791693804038,-290.75903637750054,615.0575262303977,-854.3701106858134,-588.9718227226365,162.5763200165848
7.3775,2.096070555601574,1.2343495817849863,-0.4385253913520544,0.1188419813786571,-0.0449363083769073,-0.0060958122850759,-0.0027301354289276,-0.0077893463099313,0.0415724138179844,0.9991007983480802,0.0040972456565736,-0.0482327926121736,9.76187068679734,0.047434715584037,0.070749919153949,-0.0057916822921972,8.48389549274165,0.0381765377608709,2.1367511765969653,1136.4716499161868,1113.0079146668108,1134.6957640188075,1131.8520213368072,-212.50082507336168,936.1895991292585,-925.7802039040798,-733.2866058971533,162.5738478853416
7.38,1.8514764248442508,0.7459143998492195,-0.1853640245324136,0.1257381961850763,-0.0415897950290485,-0.0068451815162111,-0.0025933059764831,-0.0078225738953976,0.0415677299108244,0.9991011407073044,0.0052632751656546,-0.0435294974793287,9.768697738691555,0.0472858653958137,0.0711231843294147,-0.0059946708502173,8.484002433872801,0.0383649415667891,2.136731725324565,1136.0444582464015,1115.8454131738451,1132.2354476756327,1129.812736350918,-90.63264336696386,1118.660474511604,-849.4541278270116,-725.346731143706,162.57085932496514
7.3825,1.544255428997748,0.3425637487319653,0.0060409933477129,0.1311191158647334,-0.0405986472324792,-0.0065222615335625,-0.0024597971918073,-0.0078641177542626,0.0415611300860235,0.999101475564122,0.0061567466026568,-0.0385305759501384,9.775646028267188,0.0471347304325666,0.0715065611997677,-0.0061543322261298,8.484109490203826,0.03855328760844,2.1367091036011288,1136.018486699352,1118.6012170393687,1130.4484933796728,1128.2252876810887,60.8830466089343,1137.1766230765177,-631.4960953517718,-578.3025051527725,162.5683538810675
7.384999999999998,1.146134464452526,-0.0036926459842741,0.148376622135468,0.1354179791135651,-0.0415311545160434,-0.0055232516296192,-0.0023272466455994,-0.0079120381090416,0.0415512699904544,0.999101867741822,0.0067235227184147,-0.0332630491690294,9.782556304920144,0.046977391829178,0.0719024297386462,-0.006267497088384,8.48421620916087,0.0387413995070982,2.1366836122726025,1136.348873479446,1121.5312962892278,1129.077967198874,1126.9212238251544,218.8279928361727,1264.4996857443673,-485.11235947954566,-485.90943860505047,162.56583643236277
7.3875,0.6077537159663453,-0.3088073448717491,0.2432407160105837,0.1385765648422246,-0.0438225941718904,-0.0042796810921903,-0.0021919047929636,-0.0079622202089245,0.0415321092611755,0.999102604267904,0.0068786537036039,-0.0277325317785986,9.78926455016404,0.0468098866822388,0.072313603507308,-0.0063324955983785,8.484322486456039,0.0389296769172029,2.1366562924550285,1137.1126266635329,1124.9237154680904,1128.022931582275,1125.7957404880635,326.3160549726253,1176.5930224116323,-282.63538690416806,-332.93577099233767,162.56280532293553
7.39,0.1526669698719601,-0.4585150364609479,0.2544838143967407,0.1394068005158871,-0.045988066038016,-0.0034216813515926,-0.0020500091753796,-0.0080090365745,0.0414984845250771,0.99910395190268,0.0065187299321129,-0.0219494160411511,9.795606920408787,0.0466289912886334,0.0727426730319985,-0.0063493415605336,8.484428343339145,0.0391187101375853,2.1366288499121007,1137.9804537543096,1127.4142614012867,1127.664790264353,1125.2565449701924,368.0724275629096,881.5185387033312,-40.72293534723117,-132.76103527623775,162.56027338658245
7.3925,-0.2532307799613808,-0.507983160826733,0.1967746659649053,0.1384508950065456,-0.0477939559583612,-0.002607306789758,-0.0018983325463966,-0.0080479946041332,0.041454295807451,0.9991057907592192,0.0055747708521007,-0.01594023918576,9.801424518085655,0.0464333822155354,0.0731911677897473,-0.0063200237014577,8.484533559309785,0.0393086456784011,2.1366029483717046,1138.9529888013471,1129.331308161607,1127.8193169055387,1125.1319353116824,413.4560784117272,681.6577982297222,165.39286685856848,37.091231544673846,162.557737875396
7.395,-0.628435072276259,-0.4810212112404522,0.0552616410934052,0.1355035606628825,-0.0492701535225673,-0.001641778663456,-0.0017383742930076,-0.0080765323806688,0.0414081193416564,0.9991077794205706,0.0040221373904896,-0.0098290466779601,9.806569556721932,0.0462230136375472,0.0736599872492713,-0.0062478310833124,8.484637716779876,0.0394991978390895,2.1365797583100394,1140.047734146368,1130.8225503924355,1128.491754598646,1125.4420011279155,362.1151631935468,409.0199202448817,305.61918065141725,186.3303379861503,162.5546938888325
7.3975,-0.8231058093282284,-0.4128769178491886,-0.1120785703067777,0.1319552092252906,-0.0499704870990271,-0.000942609855955,-0.0015725341644302,-0.008104291582253,0.0413714999064236,0.9991093480441539,0.002083409710704,-0.0037690673339395,9.810908203183878,0.0459987087193181,0.074149466785842,-0.0061385081148657,8.48474070985566,0.0396894949984056,2.1365584602569885,1140.763564617315,1131.3764077628311,1129.347412808796,1126.063587001613,223.3158280004365,97.44584594787037,374.5805223002287,316.291246413682,162.55215789225824
7.4,-0.8927009364979654,-0.3256083970869739,-0.3075561759429239,0.1282757460890587,-0.0502932775568675,-0.0008069545454511,-0.0014028874696953,-0.0081422627194197,0.0413546647551611,0.9991099732622766,1.4127312368529543e-05,0.0020921591179546,9.814325890230588,0.0457616038759618,0.074659607550306,-0.0059991709117606,8.484842519444326,0.0398789326309939,2.1365386457424993,1141.1643132863703,1131.3097796221748,1130.364657210147,1127.023457359984,104.28117120673272,-101.09856888234604,413.76389800207994,429.51186771793806,162.54962449284287
7.4025,-0.8784314318101338,-0.2378406021836628,-0.500266422147618,0.125366961853799,-0.0504456896310532,-0.00152764570334,-0.001228094322269,-0.0081961947758125,0.0413624044552971,0.9991094064937516,-0.0020271375945779,0.0076809301349275,9.81673066691908,0.0455125043977916,0.0751901619716444,-0.0058379828524588,8.48494273639544,0.0400677415740656,2.136520751560031,1141.2849704733487,1130.8709149184197,1131.4162322988063,1128.2111463402027,-6.912632385956533,-220.3378024517453,410.3951603156107,508.772771860742,162.5470944892498
7.405,-0.8049965539115314,-0.1597905994096497,-0.6516859290201046,0.1237891191772598,-0.0505321583988679,-0.0035694168842664,-0.0010451227488875,-0.0082671371309262,0.0413888145646026,0.9991078821500043,-0.0039733536944891,0.0129652743945867,9.818056470861203,0.0452509317069696,0.075740846861226,-0.0056637261497329,8.485041946385993,0.0402572394244913,2.1365062118187854,1141.1297501244403,1130.208090609916,1132.416633011725,1129.5673212192878,-101.24508958306465,-283.75825238622986,413.72850263943263,596.9573372673622,162.5445697100999
7.407499999999998,-0.7044753574181277,-0.081964456021188,-0.7419311440913559,0.1231018118488956,-0.0506697332810224,-0.0071106931005691,-0.0008511454392865,-0.0083531906277504,0.0414250184902872,0.9991057858693804,-0.0058149577731907,0.0179191292370937,9.818265631897434,0.0449761211837496,0.0763104664831137,-0.0054853464770939,8.48513985604737,0.0404486674878089,2.136495146196597,1140.7787450254334,1129.4521236564883,1133.4848748120035,1131.1959330265395,-130.16356716798603,-233.7792129955737,365.5616055758479,563.513903494016,162.54154678814876
7.41,-0.6394431423187544,-0.0297588387810562,-0.7226934587828502,0.1228722013277379,-0.0508310158366367,-0.010300071198561,-0.0006482890652106,-0.0084505070531753,0.0414636411323019,0.9991034566515532,-0.0075833849646012,0.022431106794297,9.81735176255424,0.0446876169935434,0.0768965417952528,-0.0053108796090323,8.485236267029904,0.0406427727222323,2.1364863487712102,1140.4789322886006,1129.0391945449383,1134.2444410396042,1132.3848907367578,-94.82821847808164,-91.8630981553035,277.73313801067366,401.2836866894131,162.53903341528425
7.4125,-0.6064852370205313,0.0111873681226551,-0.6064744783437059,0.1222209252055106,-0.0509724839125713,-0.0130421648523094,-0.0004418139469207,-0.0085504486386657,0.0414976588332242,0.9991012580852192,-0.0094063482011496,0.0263448894984352,9.81533983003583,0.0443850498059862,0.0774955329666651,-0.0051471249933013,8.485331097066076,0.0408404222162549,2.136478943784912,1140.3046039330427,1128.992808165712,1134.873540502057,1133.2023514599869,-29.364112491294406,71.13426718133421,251.60653582907423,242.93200180105092,162.53652545274508
7.415,-0.5953575934674044,0.0479709812730235,-0.3834033001723861,0.1208067845049805,-0.0509002724814787,-0.0150741068438509,-0.0002356155161635,-0.0086476598135645,0.0415250264771551,0.9990993233575314,-0.011344407647412,0.0295434661841394,9.812283328185675,0.0440686880120538,0.0781026479503017,-0.0050008140564897,8.485424598098627,0.0410414234056377,2.136472038572365,1140.332111726144,1129.3948658808447,1135.5024737187496,1133.599550745763,52.65714012011925,209.74334752786936,212.88059222243191,43.257095992476955,162.53352079118463
7.4175,-0.5958427421777133,0.0678143253132468,-0.1602948470374429,0.1191969756416768,-0.0504563774819427,-0.0155950252505365,-3.602212956984105e-05,-0.0087343828455524,0.0415475852765215,0.9990976504021644,-0.0135061965086591,0.0318810205183183,9.808264693067455,0.0437393084456857,0.0787122836909011,-0.0048774540217866,8.485517086696099,0.0412447826236905,2.136465378210161,1140.5678896336435,1130.0415249033513,1135.9379434631692,1133.4186369399492,130.9118951779538,286.3535053984894,155.80798055162055,-162.0478010380373,162.53101951406347
7.42,-0.5894878471058043,0.0782205635013449,0.060076050328598,0.1171830910264961,-0.0498072346259691,-0.014893653364023,0.0001499902064971,-0.0088009280911796,0.0415663778589433,0.9990962940033156,-0.0160397286535996,0.0332184378781387,9.803392370836088,0.0433974479579403,0.0793186506219248,-0.0047816309803596,8.48560859137826,0.0414501057971425,2.1364598851564622,1140.986671202034,1130.826633407837,1136.2815136215077,1132.7893117405729,207.35104988016687,317.96485939576763,123.20194429444462,-341.3150966064295,162.5285186622642
7.4225,-0.5627820059454107,0.0899607110517207,0.2835990401482639,0.1145030922791266,-0.0493622301671506,-0.0129315117907982,0.0003157046735864,-0.0088439211809365,0.0415822776437167,0.9990952581910584,-0.0189700689530406,0.0334349838546134,9.797797006704863,0.0430434373432519,0.0799158410010542,-0.0047177528130032,8.485699843555262,0.041657565055331,2.1364566072502846,1141.6046448830443,1131.63134920033,1136.5539531846412,1131.7120614569171,228.42012741025917,227.51395312357576,69.00307524051789,-416.3715254599172,162.52551492838148
7.425,-0.526867795952241,0.1110740035240113,0.4225826947016438,0.1125268812149545,-0.0494174742247297,-0.0110829018542102,0.0004669350200214,-0.0088737460835144,0.0415940194683871,0.9990944999459191,-0.0220451133682734,0.0326620346826059,9.791622956708096,0.0426770803227729,0.0804980072283409,-0.0046924336410588,8.485791317382326,0.0418681570841275,2.136455092027699,1142.1287718390852,1131.9642031734552,1136.6265289977102,1130.7074541132731,191.39078552484943,22.03005671453913,-10.263925581012009,-391.109409656846,162.523007238965
7.4275,-0.4922477241570294,0.1571894404134902,0.5156005053511505,0.1115886740951871,-0.0496522863471888,-0.0098157650314634,0.0006123661758912,-0.008898624843738,0.0415984721284261,0.9990940739604056,-0.0250558616763463,0.0311055751289285,9.785029190344243,0.042298016217298,0.0810596030898075,-0.0047114220204308,8.485882573430196,0.0420828565695558,2.136454811002144,1142.5615988106683,1131.7414994839028,1136.5026335567363,1129.7565144086327,146.48334935032238,-194.37735298125023,-82.87649278477323,-354.831471212636,162.5204926510766
7.429999999999999,-0.473469683504464,0.2288343891333752,0.5806965283443075,0.1114427471290552,-0.0498096173181705,-0.0088712818745071,0.0007553998820437,-0.0089167026903297,0.0415920774398669,0.9990941430116466,-0.0279974159979374,0.0288917495052725,9.778188357953267,0.041906202337454,0.0815956472084035,-0.0047774353585783,8.485972512818051,0.0423017813749967,2.1364559554079747,1142.8611885858368,1130.9923164085487,1136.2121465337864,1128.9332967572102,81.84792503757481,-415.595757375522,-150.09180324614456,-289.71684879639434,162.51797130036795
7.4325,-0.4821744018114639,0.3282564156632081,0.6229624135978025,0.1112888173154699,-0.0496446772329929,-0.0078455159544417,0.0008956835485677,-0.0089267427526094,0.041577427639712,0.9990946106948968,-0.0308561984351731,0.0260871664355325,9.7712808567804,0.0415029707833333,0.082101572997225,-0.0048910474790187,8.486060179574892,0.0425235411593004,2.1364578296952015,1142.9708384358564,1129.6635206970252,1135.7521745405056,1128.3079301646508,10.678794250087016,-672.452509720128,-226.8969387535535,-232.27162906556268,162.51544122736755
7.435,-0.5157850310716962,0.4650655383809803,0.6535725855433582,0.1103514145937059,-0.0488193481531807,-0.0063411128547354,0.0010284914235938,-0.0089299836061157,0.0415602071989171,0.9990952331741838,-0.033575906576108,0.0226828431258984,9.764490118000662,0.0410904618077625,0.0825738566922292,-0.0050505315457185,8.486144685578033,0.0427464314391285,2.1364591161868676,1142.9145825570872,1127.6300538599476,1135.0776618400184,1127.7719386118822,-36.74000110104394,-769.5149238241975,-255.19267728701007,-171.517738626475,162.51239521936043
7.4375,-0.5471213052073854,0.5776171224221606,0.661953573921015,0.1088800524314052,-0.047475699703345,-0.004730321940545,0.0011525407224689,-0.0089336794897881,0.0415456598437605,0.999095726779004,-0.0359839854896411,0.0187407445519203,9.757994870666115,0.0406707696029176,0.083010400042722,-0.0052533793058537,8.486226300824143,0.0429690094413158,2.13645777873762,1142.7871384303512,1125.8159460779043,1134.4762111540704,1127.4503414715186,-40.36130492622846,-687.9634674329428,-234.44773473379928,-121.23878784759911,162.50984938537428
7.44,-0.5613445518890575,0.6684050860149526,0.6501415217568474,0.1066976254403281,-0.0454574313492822,-0.0028718766631612,0.0012657335266333,-0.0089427110148206,0.0415390665359162,0.9990958295241664,-0.0379589926602009,0.0143143414017449,9.751966461590255,0.040245821990185,0.0834104563426405,-0.0054951385360432,8.486306656258574,0.0431904238653745,2.136452828342757,1142.712776032456,1124.1902365227832,1133.9054231663495,1127.1657446726442,13.15213187626824,-613.2974502133624,-229.47735763064463,-136.30310828648652,162.50729748166097
7.4425,-0.546081157904078,0.7354320695164654,0.6132872615467309,0.1038670710326375,-0.0426626108607573,-0.0006704225986379,0.0013659291588582,-0.0089579887982737,0.0415403268219751,0.9990955394082988,-0.039462736720361,0.0094610177250323,9.746564430659959,0.0398163184897578,0.0837748224046015,-0.0057698210403746,8.486386752617683,0.0434110352476419,2.1364437915435355,1142.8528990897323,1122.7494588268376,1133.3288243659172,1126.7688259300862,106.74020754231832,-418.4935167320508,-184.17143643182888,-160.9092205274044,162.5042311056917
7.445,-0.5107482952098187,0.7524646760832384,0.5685653938766028,0.1020438958555511,-0.0403695722526199,0.0008238389365941,0.001451603703339,-0.0089774597805499,0.0415487030250807,0.9990949086075014,-0.0405182416440755,0.0042516730514094,9.74193270870932,0.0393825106866747,0.0841051538159312,-0.0060706092942137,8.486466823308886,0.0436313727639984,2.136430999088097,1143.2464770701677,1122.0977689391227,1132.9845659841903,1126.3611985700072,216.95607849783764,-141.20116540280225,-101.45304992920715,-170.57344296804695,162.50167488019818
7.447499999999998,-0.4705519619776128,0.7343740511062493,0.5185185718279062,0.1011567358501875,-0.038359557843437,0.0017884696630905,0.0015230125308256,-0.0089983851127856,0.0415619138568046,0.9990940582264906,-0.0411647098840447,-0.0012114516153555,9.738196454322464,0.0389441334974018,0.0844037940748469,-0.006390726564605,8.486546271345086,0.0438518745256488,2.1364153722703625,1143.9376794822217,1122.0434529998236,1132.8215591162711,1125.915958715246,310.23475657835405,65.71535348348475,-33.07495735784939,-165.95187326134135,162.49912073966695
7.45,-0.4426135807292306,0.6960173552213889,0.4696762675363969,0.1008869789876221,-0.0368878900402183,0.0025345023239831,0.0015827998454495,-0.0090220577760994,0.0415790648163397,0.9990930112766008,-0.0413645920992031,-0.0067887975744857,9.735459849364128,0.0385009440140337,0.0846733846094284,-0.0067242786954288,8.486625061518083,0.0440723919333345,2.1363979067726513,1144.7976508530592,1122.4263457065404,1132.819191197401,1125.5314392037003,347.55858607817595,231.78104539916615,34.25279718675857,-108.38195737190416,162.4965705807032
7.4525,-0.4408838484298946,0.6438383552025095,0.4234238001197957,0.1009253892407893,-0.0358614810359944,0.0033570502519726,0.0016364519813489,-0.0090504000943828,0.0415987344532668,0.9990918006569236,-0.0410705298173826,-0.0122943004873698,9.733804744775258,0.038052513732052,0.0849168953974146,-0.0070663207489765,8.486703630010814,0.0442928370049444,2.136379902322428,1145.6754724126129,1123.2023582268196,1132.9928231022052,1125.3740489283864,331.4344760725887,390.8832584701569,105.99890774201639,20.170986265157328,162.49402794275727
7.455,-0.4649764068464957,0.5707505132456786,0.3660312096040465,0.1004096595080619,-0.0343446927116748,0.0044836986471353,0.0016953415131026,-0.0090908001630504,0.041617844537159,0.9990904653956624,-0.0401296311603156,-0.0174419053131698,9.733289022154024,0.0375980771480246,0.085137550128847,-0.0074137779549202,8.486783397753596,0.0445132250966191,2.136361917131289,1146.4548232334223,1124.380761998891,1133.3491857361112,1125.6322941350263,200.20185283229208,443.6846048723149,144.76364268598755,184.87963976668135,162.49098899247963
7.4575,-0.4915251432861093,0.4998795758215133,0.3114102384208772,0.0990445994146895,-0.0328450936305661,0.005359496854538,0.0017693799255378,-0.0091469479535914,0.0416348567390112,0.9990890171432902,-0.0384674592137014,-0.0219816664752678,9.733948534849901,0.0371374609277899,0.0853385516965997,-0.0077634709194628,8.486864789569182,0.0447335222507595,2.1363440185736953,1146.6764816767743,1125.420781251181,1133.7166413156351,1126.2984471272196,-31.121073738132264,398.4664190427423,149.3794921243566,357.8579550356684,162.48846929519365
7.46,-0.5029368927525074,0.417455717568599,0.24406382985283,0.0971493542234484,-0.031546703862216,0.0060901505540703,0.0018666475586234,-0.0092159224275518,0.0416510414814383,0.9990874164345968,-0.0361456006727117,-0.0257050225876561,9.735797103054946,0.0366717291350497,0.0855228945965222,-0.0081117446275477,8.486946585348145,0.0449540811148873,2.1363260784443407,1146.2992178647316,1126.3730940941048,1134.0960831967327,1127.4215839102046,-309.0747473360418,373.511041210221,159.6291118966326,569.2685965172253,162.48596595173404
7.4625,-0.4834272901225981,0.3081343556974076,0.1435353376981617,0.0951060149707462,-0.0304168283800289,0.0071093403987456,0.0019899323565922,-0.0092919644434895,0.0416692397517189,0.9990855980183349,-0.0332925481245554,-0.0285157357083148,9.738827598301393,0.0362032595321253,0.0856934537599562,-0.0084540096405226,8.48702725011205,0.0451747182722863,2.136307855199505,1145.131107940094,1127.288336457232,1134.5147868751183,1129.1447901098059,-527.4253899184372,284.32533965142886,144.52310127872204,657.4188307341641,162.4829844674292
7.465,-0.4366960678565693,0.2125243930323775,0.0429064456241542,0.0938101066661493,-0.0298009620908998,0.0083248756596003,0.0021335112017314,-0.0093688073066855,0.0416901004181481,0.9990836122901654,-0.0300629325456015,-0.0304951875572436,9.743013206318416,0.0357351972360375,0.0858532895644569,-0.0087842396427736,8.487105025047532,0.0453952837360486,2.1362883289061414,1143.6620909151395,1127.7947207923619,1134.8186987031263,1130.7086780638751,-640.3051315304447,137.66035802177905,114.80978312815994,600.5107312867168,162.48052119522163
7.4675,-0.3610198099826744,0.1177147672666046,-0.0643006266342473,0.0927795668816906,-0.0294163741017246,0.0094544161407044,0.0022876990437106,-0.0094405208309776,0.0417151504870991,0.9990814828055368,-0.0266175231341816,-0.0318142284900528,9.748307036537971,0.0352718294189271,0.086005331150967,-0.0090958114508236,8.487178739892409,0.0456157923421114,2.1362673615355567,1141.929582282442,1127.976638247341,1135.088835790759,1132.1473437662391,-741.5874503623103,-4.162327415724665,119.94144841187592,550.7098810584583,162.47808272127955
7.469999999999998,-0.242850827341696,0.0111542089862558,-0.1655411218346031,0.0919565978904102,-0.0291243489240718,0.0093341815963906,0.0024394067538868,-0.0094971530774596,0.0417454663992844,0.9990792932214284,-0.0232084793452368,-0.0327188764746862,9.754643445328771,0.0348180782632431,0.0861524424523995,-0.0093813846658111,8.487247173126082,0.0458361723772212,2.136245995536988,1139.954153663328,1127.7739091552833,1135.418405945186,1133.4622274691676,-643.7625358210563,-147.62322266879295,129.44759072602483,388.43891326119694,162.47518790468047
7.4725,-0.1263723521873491,-0.0663741001620355,-0.1919947387716273,0.0917458894101191,-0.0290170838296612,0.0076054676381717,0.0025854167243519,-0.0095366033041275,0.0417770760521663,0.9990772297101784,-0.01993808463422,-0.0332812825201075,9.761935674081101,0.0343779348366919,0.0862974882351668,-0.0096359706792665,8.487311151058702,0.0460567559452508,2.1362253644783316,1138.7107696033368,1127.238522133997,1135.7360737443892,1134.089538332545,-351.80623519239776,-286.97408487296406,143.47365250025663,146.2837765601533,162.47280335949563
7.475,0.0054930590049229,-0.1237565503631693,-0.1258661559456646,0.0919402659681498,-0.0291331699318379,0.0051429224832952,0.0027216538286967,-0.0095619856385718,0.0418081955637917,0.9990753386262337,-0.0168160436641645,-0.0336045779247746,9.770080250562664,0.0339552126359979,0.0864429965433782,-0.0098547457166254,8.487372219824698,0.0462772657483804,2.13620572683735,1138.1951224873656,1126.3390387309182,1136.1357742076873,1134.1936463519685,-60.37995400524906,-410.47151898465887,176.7906261440695,-34.26812603729632,162.47044934716985
7.4775,0.1512124558080603,-0.1562745168261017,0.0206844180316,0.0922533733806547,-0.0294328896849028,0.0030878873040805,0.0028448885016221,-0.0095878588249543,0.0418410907451597,0.999073387638977,-0.0136341549418639,-0.0337935304609422,9.778957976098038,0.0335533459496751,0.0865909985477106,-0.0100335152142032,8.487431845502611,0.0464969406599314,2.1361844627762063,1138.4088698333103,1125.1861645390738,1136.6200268751095,1133.9181977023588,259.5970831057967,-501.4617649626068,215.0946164329571,-174.76918825264335,162.46812167130383
7.48,0.3184019845064294,-0.1477331855917979,0.238574056162162,0.092478289550376,-0.0298297514190141,0.0022770253495788,0.0029561741145752,-0.0096285317278506,0.0418779297141598,0.999071144633927,-0.0101900368087328,-0.033876964695442,9.788435966313283,0.0331747035276793,0.0867431400409231,-0.0101685796954138,8.48749146426292,0.0467155057561752,2.136159219868625,1139.4931079028947,1123.8317299061052,1137.211247289852,1133.3198004107053,638.9439006536259,-608.3537974998437,282.1276477996495,-296.66460375870605,162.4658267092159
7.4825,0.5473304650765424,-0.075711547859081,0.5207440950689387,0.0926849052666186,-0.0303023591135892,0.0032052510862401,0.0030650829862816,-0.0096865473861275,0.0419156066902261,0.9990686856049106,-0.0065076330166431,-0.0337139607145075,9.798370326669609,0.0328199239799249,0.0869007453252297,-0.0102571612559208,8.487550849024663,0.0469341538621204,2.136129480046548,1141.6035893365784,1122.1443955515747,1138.0306651141077,1132.434874683565,861.4917713391789,-602.995738724316,314.03152652470214,-324.26657378806124,162.46311147168504
7.485,0.7556729260460887,0.0452447832544033,0.7191225849649471,0.0932492703150756,-0.0306250935451119,0.0056138353561758,0.0031812814900481,-0.0097576367880376,0.0419497544956131,0.999066208222615,-0.0027446023053418,-0.0331599218114914,9.80861148993904,0.0324886334339924,0.0870645800901221,-0.0102968460924039,8.487609409272796,0.0471538829062596,2.136095639872126,1143.8005667595903,1120.8167512124835,1138.7814049224755,1131.698467541765,904.1822064389827,-487.4830586774,307.05969981691595,-269.52708172471495,162.46088145718213
7.4875,0.959853817355852,0.2375739418872851,0.8219898737944167,0.0950205603457781,-0.0307571171127446,0.0093280890794298,0.0033065521715976,-0.009828901763991,0.0419784389893164,0.9990639098357462,0.0007682390435122,-0.032219487898145,9.819010404273138,0.0321801942382015,0.0872348004592187,-0.0102847149838306,8.487666552132433,0.0473753174423946,2.136059286927691,1146.1245003687732,1119.7069802581875,1139.5659636131923,1131.0872392749416,978.0854356363968,-415.0595488276483,346.02928737177365,-225.53886933001675,162.45868559945916
7.49,1.161033827894986,0.5524076047618527,0.7981603561418793,0.0987630737230277,-0.030460041663782,0.0140582132885432,0.0034422070756395,-0.0098933687398542,0.042003207344423,0.9990617819984008,0.0038209398156445,-0.0309120888353985,9.82941952710836,0.0318935433143663,0.0874109110579899,-0.0102199890553084,8.487722057577857,0.0475984657317253,2.1360216636637728,1148.6909939377724,1118.7414534683455,1140.5115513593344,1130.5707731951147,858.2120370962185,-283.3684895834782,345.4439971408266,-152.2584853026761,162.45609000262067
7.492499999999999,1.2658281549468733,0.8777644174218596,0.6559148946455045,0.1026194133609846,-0.0295825628376249,0.0172753361970339,0.0035879068987579,-0.0099445302800865,0.0420244019805603,0.9990598707835536,0.0062185852600812,-0.0292897276284667,9.839697765842653,0.0316263906504871,0.0875922963768393,-0.0101037868913265,8.487776289383199,0.0478231186120567,2.135984773886466,1150.4155605542544,1118.2901378102704,1141.2931835988963,1130.3259468484284,563.9173676091225,-104.04672353434074,313.19634396896373,-67.58302730859357,162.45395961746644
7.495,1.287190266300981,1.2478970793747095,0.4159884960269534,0.1065832272103569,-0.0277002641180674,0.0192219416841894,0.0037417366774166,-0.0099843497768175,0.0420435034732044,0.9990580993501048,0.0079420889259062,-0.0274407483622319,9.849713683594464,0.0313753918633904,0.0877782510641843,-0.0099396597027051,8.48783043686257,0.0480481484391457,2.1359493317224727,1151.510580775818,1118.2212198506738,1142.0775330791791,1130.232858058572,313.11779754818974,54.36292343914889,349.91991664018303,-21.324425966528302,162.45186255096587
7.4975,1.2151834216872848,1.7044785136824663,0.0718648067613617,0.1112328767844135,-0.0239767170786419,0.0199969078636302,0.0038982528020702,-0.0100126650126815,0.0420628665190296,0.9990563959564887,0.00894093325616,-0.0255185436848602,9.859350922124285,0.0311363526356768,0.0879680937597668,-0.0097325250998577,8.487886322642515,0.0482725446351706,2.135917035001935,1151.9811495419956,1118.561952427466,1143.0427831820975,1130.2193247185955,31.89493395420936,191.50760912380477,358.2943842641347,1.5587791685902963,162.44938368778213
7.5,1.0855783096004683,2.058890539675773,-0.2151589587761168,0.1147334192950724,-0.0195995898433011,0.0193764190831013,0.0040505339746401,-0.0100213973718456,0.0420822269876261,0.9990548901792176,0.009021628281924,-0.0236957452627047,9.86851158606238,0.0309039376183008,0.0881612408391273,-0.0094884111415635,8.487944562338177,0.0484960861949057,2.135890179000861,1151.670055445589,1119.1787578962928,1143.8690050004996,1130.2406519544147,-251.90517547840128,312.97305222402184,327.54346337902246,10.763031553097107,162.44734847570072
7.5025,0.911227232135328,2.3388846775318863,-0.4506716907287389,0.1172616192701459,-0.0138288313812581,0.0175093200926136,0.0041927052398699,-0.0099993569506528,0.0421022858316175,0.999053694959927,0.0079459664272539,-0.0221171442589213,9.877117215254586,0.0306725691812796,0.0883567334059543,-0.009214618973199,8.488004214376454,0.0487190715901283,2.135870201281127,1150.7216236646036,1120.1268176885862,1144.6805004989926,1130.2731398763613,-460.15413138930927,434.2892383896107,309.2285364244228,17.92897703267083,162.4453437423997
7.505,0.7263445837909333,2.52402565809016,-0.6140185330481162,0.1188427394972259,-0.0069292181583567,0.0147368297321978,0.0043306192118548,-0.00994837386736,0.0421221180740483,0.999052802084862,0.0057585293482555,-0.020701275848961,9.885104973751181,0.0304360325728246,0.0885530311938449,-0.0089216978165103,8.488064215619437,0.0489423484250834,2.1358561811278154,1149.3692847886423,1121.3502040882408,1145.4151476826219,1130.3302968395783,-599.9799762869443,557.6586390262611,252.87475201485532,36.943014574854594,162.44336343425215
7.5075,0.5590992126095846,2.567022418474361,-0.674339956751494,0.1194628193920575,0.0007464179872527,0.0113518068808091,0.0044691507234204,-0.0098763143590927,0.0421398628399682,0.99905218667899,0.0026392586839995,-0.0193841527628467,9.89243197722891,0.0301880449119583,0.088748113080186,-0.0086199337514038,8.48812456256131,0.0491669256614297,2.13584697954828,1147.7217237831687,1122.9151108837175,1145.9448742590669,1130.4578549492355,-740.6255810973265,769.1665777900816,155.36720868517807,79.48398643775533,162.44141201364604
7.509999999999998,0.404700048245534,2.445442687915645,-0.6399440018586184,0.1195268435303255,0.0097450582169803,0.0078498563395821,0.004611256302954,-0.0097868400418891,0.0421490933089794,0.9990520671651228,-0.001301062543975,-0.0181294064892136,9.899075678219962,0.0299219863630382,0.0889397558447408,-0.0083178975478723,8.488185360606137,0.0493941980935764,2.135842338107671,1145.666156883156,1125.1960369771912,1146.1919837260475,1130.727716771767,-731.0310311410077,902.4570182542186,8.480436177660703,115.56514092653988,162.43910374171043
7.5125,0.3194967483911521,2.21514263655324,-0.5537261389532394,0.1193961362989827,0.0162591486619598,0.0062639110695457,0.0047564161125436,-0.0096890904125903,0.0421449590754292,0.9990525568296744,-0.0058310603407841,-0.0169667818319316,9.905031277671165,0.0296320389335954,0.0891254063462681,-0.008022085928233,8.488246840243132,0.0496246564611398,2.135840541758675,1144.066568627464,1127.4273959749885,1145.9872764399552,1131.0356806538682,-581.574135697656,955.9637733329379,-176.46941269974343,125.11599805900777,162.43720863066807
7.515,0.2677186719133928,1.889512931642937,-0.4576164522286879,0.1195841782525017,0.0211982287606757,0.0062101446844719,0.0049010301118863,-0.009589404688539,0.0421267279200376,0.9990536368658696,-0.0107637412461488,-0.0159775191787994,9.910309590300175,0.029314017347945,0.0893023712538973,-0.0077361224424587,8.488308796970998,0.0498578272560534,2.1358398274101345,1142.7582862046672,1129.9758558438566,1145.3096366625489,1131.3532967620622,-481.46255123448213,1180.4303938680075,-400.60427087083497,114.3011456527826,162.435344425702
7.5175,0.214921066693902,1.4436585623424836,-0.3781447803449285,0.1205078553191963,0.0253173922427281,0.0069790095537629,0.0050451394211433,-0.0094984916503007,0.042098108804288,0.9990550421641544,-0.0158116253233783,-0.0151676545164274,9.914931090849693,0.0289655496454826,0.0894680675818494,-0.0074621696688949,8.48837106593777,0.0500923546983823,2.135837746197665,1141.6592558712916,1133.3295479443284,1143.984255085601,1131.607186382132,-314.34399663654165,1259.384724883084,-554.7736406217273,51.95978887354724,162.43314557048006
7.52,0.1552274984427336,1.062988085115615,-0.3565961356547814,0.1216621480701556,0.0275426853766231,0.007185841009121,0.0051861211240437,-0.0094241458149426,0.0420649767439054,0.9990564605405334,-0.0207397480622536,-0.0145876744554215,9.918924684246432,0.0285860058668094,0.0896204951679713,-0.0071995533635973,8.48843331805435,0.0503266545901738,2.135832408876688,1141.1865662214843,1136.272779468272,1142.5357684594403,1131.61309570643,-95.70948194978176,1170.4097760591844,-620.0002492106837,-55.54084556324715,162.43134738954683
7.5225,0.0589135449000765,0.7052159052847056,-0.3761239614422214,0.1227504841133203,0.0289572741113915,0.006307044014401,0.0053223025829371,-0.0093686073138067,0.042029239123167,0.9990577994130938,-0.0254196543085863,-0.0142605971532446,9.922323108380947,0.0281755607929068,0.0897585748413468,-0.0069457426538252,8.488494593676188,0.0505604036609441,2.1358228188091646,1141.1807084615427,1139.181596824624,1140.8842538395477,1131.3294821543159,94.00253997000817,1212.992996602296,-729.1720701015648,-191.92086894354767,162.42958820847477
7.525,-0.1063637769125389,0.3244990835205375,-0.4294296488047357,0.1233356979138018,0.0299278893045071,0.0047483599649861,0.005452310358314,-0.0093304825120169,0.041991266608434,0.99905906752566,-0.0297948671728897,-0.014197559450104,9.925159671302898,0.0277356285645141,0.0898819185004265,-0.0066970229866157,8.488553570536979,0.050793754657856,2.1358087555803285,1141.6565789213344,1142.3377444512832,1138.8899081089323,1130.6534913617122,238.87727888095975,1056.2422294248106,-699.500948780193,-290.9390579992367,162.4275268680457
7.5275,-0.2811622499654403,0.0564055681769434,-0.4883864409228924,0.1230859400463416,0.0301655155828632,0.0036096627475969,0.005573851136723,-0.0093006611618185,0.0419499618451561,0.9990604105570104,-0.033966105971429,-0.0144200050905069,9.92746611090713,0.0272688037565815,0.0899907329990753,-0.0064488439578649,8.488609570686878,0.0510271388047297,2.13579228647572,1142.3750948559475,1144.462807971748,1137.3867490956468,1129.8747868643195,327.42959096750167,702.2451840134786,-532.1159425747396,-327.8903535859242,162.4258538261645
7.53,-0.4831397770043515,-0.1557348643782279,-0.5535220420812453,0.1223713496553913,0.0298511420161749,0.0027318044837041,0.0056886764422099,-0.0092728109621115,0.041907706935536,0.9990617793789668,-0.0379809140612261,-0.014870552442733,9.92926896592555,0.0267793629733906,0.0900854378939834,-0.0061978609810421,8.488662267992062,0.051260468549519,2.135775308598709,1143.293726876172,1145.8489703713503,1136.2293283960587,1129.0140395937826,376.6698160315253,417.0184137158774,-385.77473484779966,-331.5645625763025,162.424231088986
7.532499999999998,-0.6966551443095591,-0.3203963433403132,-0.6154900348503841,0.121385250788714,0.0291031488128603,0.0017619435794409,0.0057974892318386,-0.0092422101317808,0.0418677230394246,0.999063083101619,-0.0418638044241146,-0.0155145638738748,9.93059030271287,0.0262725116555716,0.090166874013488,-0.005941274318774,8.488711290622659,0.0514934476055991,2.1357593817852467,1144.258443936105,1146.5479000403275,1135.4578754214078,1128.2169640514383,366.8739903719676,122.59130809821077,-204.31057714882152,-272.9722087680842,162.42265286225847
7.535,-0.9061018983104068,-0.4292452561073296,-0.6579758784638544,0.1199275612316848,0.0278885284556634,4.4765409995040735e-05,0.0059035443651234,-0.0092088981360583,0.0418354226318649,0.9990640817891964,-0.0455521853605231,-0.0162721581802089,9.931446501409743,0.0257542383817848,0.0902361664128151,-0.0056776925739095,8.488756619634625,0.0517254060050371,2.1357448838288966,1145.1280968280319,1146.4619269118416,1135.2077755103148,1127.6491785499422,326.8688715640963,-177.36241380850473,5.964047790802374,-166.74401532743227,162.42113158636823
7.5375,-1.1209832441309335,-0.5020986659347058,-0.6648544319199581,0.1172584829469488,0.0261015826436209,-0.0030220702844282,0.0060057662088302,-0.0091752273878865,0.0418165700006647,0.9990645242501716,-0.0489520436412859,-0.0171538827812948,9.931850726382224,0.0252306541550215,0.0902948098065186,-0.0054056759115824,8.488798303253004,0.0519554756891835,2.135731206520642,1145.8927882939258,1145.6610879712848,1135.4876956603619,1127.3832439748007,217.49404964503364,-364.95077498899127,182.39433458361808,-15.428504932561156,162.41937600496365
7.54,-1.2417306235034575,-0.524323749973818,-0.6264807036553552,0.1140299796460866,0.0245670372745563,-0.0056680309350058,0.0061038287151121,-0.009139260665626,0.041810666045648,0.9990644570568886,-0.0520662951318084,-0.018156273121295,9.931812243026467,0.0247064667000448,0.0903447447997063,-0.0051242939362091,8.488836480304995,0.0521840199952452,2.135718069934,1146.215567076257,1144.6371730368967,1136.119747183233,1127.5720360252794,57.754473922115125,-425.3828580372647,302.52060912662915,164.3295233203424,162.41797422568436
7.5425,-1.2705250099470287,-0.5237534831091489,-0.5510096724739586,0.109842953883297,0.0232368167885935,-0.0074986907028642,0.0061952790751775,-0.009096876121871,0.0418145362719137,0.9990640736383286,-0.0549544302146722,-0.0193204858309848,9.931338216626344,0.0241852358087663,0.0903879550181341,-0.0048327063355308,8.488871651227575,0.0524115660237398,2.1357049694329704,1146.1815606635364,1143.5341736810983,1137.0002987059947,1128.2048915914027,-88.16047400614667,-444.995307193049,398.9416324204825,370.0452590023439,162.41663935938956
7.545,-1.1792499525135023,-0.520621939081278,-0.4436645384924616,0.1046180789666732,0.0219517645147818,-0.0086877023348153,0.0062852089977844,-0.0090469828027917,0.0418190820604106,0.9990637398140164,-0.0576206028146428,-0.0205453647802605,9.930432433862116,0.023668412759969,0.0904263530303024,-0.004532199348243,8.488904935303998,0.0526393169260172,2.135691911231981,1145.7747647062263,1142.4121965009315,1138.1144553453353,1129.422262320291,-195.91973380179715,-348.2544742215925,386.4947177748573,504.6083045351332,162.4151186934581
7.5475,-1.0024475801537855,-0.5327334563977159,-0.3609518929717642,0.1008634861279411,0.0210818060308197,-0.0089185455819829,0.0063822005781341,-0.0089944335497873,0.0418199587236531,0.9990635422855602,-0.0599561792219576,-0.0216680765557563,9.929098154410381,0.0231571004995585,0.090461259975539,-0.0042256520933471,8.488937768914761,0.0528677948700868,2.135679318968484,1145.2019619945274,1141.7929013099906,1138.9327722948692,1130.7279331140783,-256.48527424310123,-167.1007564707942,275.68957466765494,551.0478539277873,162.41392183291512
7.55,-0.7473316597223302,-0.5754184876014187,-0.3021390560128947,0.0981848129988178,0.0202406056277028,-0.0087852375318732,0.0064880772782733,-0.008941222481074,0.0418186072041441,0.9990633843749044,-0.0619214420901679,-0.0226593703996084,9.927342358024275,0.0226523597949189,0.090493524531693,-0.0039153719285636,8.488970795562846,0.0530967567748754,2.135668104212602,1144.4923383350108,1141.5766927185775,1139.4929032186735,1132.17750158993,-318.1141582499617,-9.342280500141186,169.57099128717707,626.0014473920043,162.41280117203303
7.5525,-0.3994169636858497,-0.6705361799811819,-0.2613832382872951,0.0965191833474723,0.0192186037869097,-0.0087564600468606,0.0066100420260187,-0.0088967802303889,0.0418185675412044,0.9990629726694766,-0.0633304164701268,-0.0233912616985267,9.925174128986168,0.0221546278732907,0.090523681475495,-0.0036056755707316,8.489004607257877,0.0533255069770553,2.1356591601215222,1143.6113912032777,1141.74618990749,1139.780627251305,1133.8579403510382,-310.49509441814484,115.0674949521569,40.869069834389805,571.9148396041995,162.411548059813
7.554999999999999,-0.1146990538942124,-0.7848238203911733,-0.2425593298302314,0.0965264754033118,0.0183351668863663,-0.0089185126581733,0.0067508195505509,-0.0088706242409022,0.0418221008597272,0.9990620958173844,-0.0640040632426555,-0.0238263772108233,9.92260844457981,0.0216634674641036,0.0905521854936664,-0.0033006403376844,8.489039792714006,0.0535534984618676,2.1356525250820577,1142.93986286292,1142.1520301933383,1139.6972485678455,1135.0370757879507,-239.06767638691744,184.49603863851215,-87.550564130017,388.9358331870964,162.4105827636388
7.5575,0.122274234144004,-0.9214416256997608,-0.2184331819494537,0.0975838178377025,0.0169857673510592,-0.0093759106320357,0.0069130386510728,-0.0088626304558442,0.0418257541885768,0.9990608709496144,-0.0639589190691392,-0.0239229225390918,9.91966553522279,0.021177151033341,0.0905794737629366,-0.0030043467841216,8.489076083383774,0.0537813537926775,2.135648121236122,1142.416052821343,1142.6686701006824,1139.342874430655,1135.8026195169737,-177.03585841974888,195.89419248365297,-168.68540251554896,218.00816615947272,162.4097024297964
7.56,0.2982708758417057,-1.056377988549511,-0.1705919069181164,0.0990736387663693,0.0147938811461493,-0.0102515681835148,0.0070961609808539,-0.0088666223415312,0.0418272977577371,0.9990594483666831,-0.0633362488196506,-0.0236960721895263,9.916372350017207,0.0206942438901544,0.090605585598352,-0.0027202641462032,8.489112538300585,0.0540094790576873,2.1356465222427268,1142.0546835708212,1143.1315011557567,1138.8538215552676,1136.1271166187485,-100.95037707674452,136.59674164555616,-200.1607984448171,15.336066047939639,162.40889475196147
7.5625,0.3902020326917646,-1.1586914121384813,-0.073467460494976,0.1007728845971326,0.0113936216023763,-0.0118462983676273,0.0072935137029117,-0.0088750505242877,0.0418272781275179,0.9990579269271326,-0.0623107128324446,-0.0232790988048393,9.912763754744702,0.0202141395472991,0.0906300985156601,-0.0024506227906159,8.489147888887308,0.0542379131510476,2.135647947150271,1141.9113009359592,1143.3516538089102,1138.3420704384307,1135.8792998472131,-11.904555608407716,4.432259888108185,-193.4787370741601,-226.220727612604,162.4081772991721
7.565,0.4077361857259163,-1.211237307607242,0.1088949198856597,0.1027726797969166,0.0064813543297908,-0.0139047811570813,0.0074905488589128,-0.0088835249404386,0.0418306557371753,0.9990562555916296,-0.0610013712373796,-0.0229599513343336,9.908882978630576,0.0197374787506582,0.090652101754612,-0.0021959253031818,8.489181858599164,0.0544661764550613,2.135652243851015,1141.9951607927792,1143.1536624551973,1137.8864278698968,1134.9960129806855,71.86845011911072,-161.79038241494143,-117.87100517122121,-391.84684051634497,162.4074237897397
7.5675,0.3592551116572692,-1.1870449068950697,0.3003849165279623,0.1041028858418037,0.0024823847230069,-0.0145516097208879,0.0076680846848061,-0.0088899651803931,0.0418401811721853,0.9990544888597986,-0.0594866045837775,-0.023116362120551,9.904780077778563,0.0192649685363231,0.0906704633486624,-0.0019551595228423,8.489214090316718,0.0546940110799435,2.1356584066976088,1142.2706431865547,1142.5427018968355,1137.7527154125748,1133.9200656446317,149.9728661221102,-328.23985264277115,14.861958021947746,-449.99894575658845,162.40688714899272
7.57,0.271336831170954,-1.101218753497822,0.4906306710769984,0.1045630595643264,-0.000869231893015,-0.0131270523423275,0.0078199529317831,-0.0088980731867599,0.041853722744755,0.9990527266580252,-0.0577210963069935,-0.0238689190734402,9.900506103172953,0.0187968158868956,0.0906838365966649,-0.0017288686606532,8.489244520491601,0.0549214976109389,2.135665071450658,1142.7450251233895,1141.5124631919834,1137.9607376600063,1132.7460182519023,250.74928810213885,-512.2853437996691,173.8399526804224,-475.5383423563318,162.40644648963507
7.572499999999998,0.1514311527909273,-0.9559261219453936,0.6618451697737537,0.1040824614643341,-0.0039230218208617,-0.0095057661185782,0.0079503746250024,-0.0089044023477787,0.0418663486585869,0.999051165104781,-0.0557936179038625,-0.0251215691719083,9.896112181804542,0.0183330459907365,0.0906905724645025,-0.0015181799682339,8.489272251073373,0.055149106303784,2.1356718574297098,1143.5243896270656,1139.9812751778372,1138.6219151759767,1131.54237393285,317.33149533007,-571.7647449767477,301.3263824073029,-368.30308338358793,162.40602898164113
7.575,0.0536465104139971,-0.8258068087507114,0.7312985253960969,0.1034383990212777,-0.0054759577367713,-0.0060646610348442,0.0080695903200452,-0.0089104078022831,0.0418755284929778,0.999049810080502,-0.0536913900633151,-0.0266568906911579,9.891649690866831,0.0178742627273707,0.0906885592715437,-0.0013244232914004,8.489297547486618,0.0553769046541476,2.1356778526915416,1144.33168260004,1138.6536394670995,1139.467369572043,1130.9045028349847,349.7978381053507,-495.48135891033303,375.45700667068144,-152.25620951552975,162.4057732955062
7.5775,-0.0403677207178705,-0.7132639018442055,0.7230255455644715,0.103197768170137,-0.0060461772081446,-0.0033015841492666,0.0081847166119515,-0.0089191223417855,0.0418834602372541,0.9990484865632764,-0.0513732248253373,-0.0283136605775028,9.887171355690292,0.0174219100178785,0.0906752231659195,-0.0011474931700459,8.489321643682677,0.0556045576313458,2.135682189701749,1145.2733788175926,1137.5038683832852,1140.4992002093306,1130.7810928852723,434.2672747606777,-426.5197810423251,459.9111112433191,65.76689845346804,162.40561188806547
7.58,-0.1589822660290779,-0.6103915010729754,0.650769359415247,0.1035640911458966,-0.0064906007228278,-0.0011387291635914,0.0082979536030893,-0.0089324126775763,0.0418901015886776,0.9990471710236832,-0.0488258859148693,-0.0300212721477493,9.882730554755732,0.0169769054565994,0.0906478142158712,-0.0009857071432688,8.489344708504463,0.0558326409116316,2.1356836387127904,1146.5030189738432,1136.521040561888,1141.7669251282596,1131.233337327252,455.1368454378105,-282.5091409103212,441.13792605431655,247.58829148086608,162.40552440732216
7.5825,-0.2679789689954417,-0.5427532061701924,0.56702183656721,0.1041386133759563,-0.007311688187547,-0.0001906714288124,0.00841111447783,-0.0089470667537052,0.0418910220658468,0.999046076738536,-0.0461373631913406,-0.0317076747291309,9.878379305907671,0.0165392218029929,0.0906035156557601,-0.0008369609104557,8.489366417264558,0.0560626870423182,2.135681726344631,1147.5490630447816,1136.0913226787336,1142.704889839602,1132.0190343426766,402.15285953891856,-96.39048280805788,320.0285626649088,361.3951204688042,162.405537258816
7.585,-0.3804064469285992,-0.4687881172412215,0.4895620101518906,0.1040032194867873,-0.0090599313980035,0.0001804609003834,0.0085225670248128,-0.0089520187471995,0.0418818073466851,0.9990455085101114,-0.0435530356217128,-0.0333575028838007,9.874168674893427,0.0161086749181642,0.0905395049616975,-0.000698651799473,8.48938643496734,0.0562962659454556,2.1356781623400845,1148.513783271538,1136.039088147848,1143.367067941584,1133.040312929596,352.92004531089174,26.742196554642415,201.641080361064,414.4581134795405,162.4056350984206
7.5875,-0.4792500697121305,-0.3699305145740443,0.4317491410498808,0.1026298621378005,-0.0114687382571159,0.0003396273923507,0.0086335502083957,-0.0089439854121782,0.0418608173243265,0.9990455510322952,-0.0411610340179919,-0.0349012272501048,9.870146910288108,0.0156853823197858,0.0904532972196014,-0.0005696650371972,8.489405068719417,0.0565337264261553,2.135675251876596,1149.313663271336,1136.2250336615068,1143.7130952414075,1134.0913249100743,255.44764663387105,106.55914065769366,49.50816338878318,391.03660195297306,162.40580027353872
7.59,-0.539739395879752,-0.231978468672133,0.4012110694344582,0.1003028676252932,-0.0137070238341032,0.0005465988327476,0.0087403378945601,-0.0089218857164398,0.0418333045491947,0.9990460176240978,-0.0390083566010103,-0.0363664167789329,9.866361273646328,0.0152705053139371,0.090343217493206,-0.0004489360677394,8.489422476148436,0.0567732910225757,2.135674726010389,1149.7910215047073,1136.5718838511364,1143.614608758528,1134.9954959393608,110.18527185847468,154.5847142749186,-149.4736686996962,330.0836863154543,162.40604315682003
7.5925,-0.5547569907907823,-0.0383163360932682,0.3840775404848725,0.097677429931284,-0.0150114859695261,0.0011837212058246,0.0088435474200594,-0.0088893018774472,0.0418099085979897,0.9990464175716544,-0.0370445448139987,-0.0376986743479323,9.862855633582631,0.0148659597096503,0.0902089466981109,-0.0003370420082216,8.489438965833793,0.0570124789321345,2.1356769299366034,1149.8645896306284,1136.9979572328812,1142.965726897909,1135.7417433416515,-64.93928032960095,132.8689331873221,-317.73493185156207,204.7717611644701,162.40642042172146
7.594999999999998,-0.5234936299680641,0.1178685648599655,0.3689139762430974,0.0959992227049534,-0.0146913591025119,0.0022111612166718,0.0089434151457688,-0.0088509428738984,0.0418019154131895,0.9990462317389336,-0.0351953641809666,-0.0388550803058113,9.859671632856246,0.0144735720639099,0.0900518723724141,-0.0002349208564093,8.489454914638035,0.0572486792479001,2.135681629462253,1149.4663251030593,1137.2362285170727,1142.0259340992702,1136.0193547451831,-250.8179396708382,44.47094963484327,-433.9036817506077,38.20545831708923,162.40680371262349
7.5975,-0.462331923000509,0.2302205544110181,0.3301732272544697,0.0949183752249561,-0.0131276177808171,0.003795542660503,0.009038156220764,-0.0088118277470523,0.0418129417780348,0.9990452806756952,-0.0333802906683049,-0.0398392570065058,9.856848881244945,0.0140936040659956,0.0898751434853388,-0.0001432001910549,8.489470265637598,0.0574804357622582,2.135687687757147,1148.6104999322743,1137.2203119810556,1140.796208489156,1135.9327706332367,-461.4081653942964,-88.78570326859038,-562.7265404331895,-112.50636850452852,162.40725582467536
7.6,-0.3755005058779301,0.2843705840086313,0.2395834630672292,0.0943399623221638,-0.0103207123814315,0.0059897591447199,0.0091289556385093,-0.0087734886309791,0.0418391069911908,0.9990437061837278,-0.031582507411429,-0.0406017059233779,9.854423417377161,0.0137247984694036,0.0896831628039804,-6.276634571647543e-05,8.489484963088055,0.0577076228795667,2.13569446708496,1147.1592842760874,1136.79230000073,1139.2123013971038,1135.4568229026604,-579.6118109332507,-233.97759791546875,-558.7821697419832,-225.73508931846416,162.40787530004803
7.6025,-0.3030207764070991,0.2605491526807313,0.1285113368252187,0.0942225051091221,-0.0080704709619201,0.0073798651132645,0.0092214586799969,-0.0087348813883863,0.0418732959852762,0.9990417699569296,-0.0298288590242521,-0.041012083856728,9.852426687255683,0.0133651448712924,0.0894808581807795,5.077957559592415e-06,8.489498325396921,0.0579311887195328,2.1357013994039367,1145.712440877608,1136.0504239914783,1138.002297640446,1134.8040951866446,-595.7698289091824,-375.644285133202,-413.04825546827453,-299.27009699277454,162.40845406766496
7.605,-0.233358716414474,0.1908764856864431,-0.0007096564222395,0.093951697138968,-0.0070629777568306,0.0073541525131636,0.0093233431306498,-0.0086976865496479,0.0419091401003142,0.9990396571272105,-0.0280868798075367,-0.0409117909748243,9.850884996935507,0.013012550308735,0.0892730412480207,5.9003919952015896e-05,8.48951011908949,0.0581526280348663,2.1357087929872938,1144.1804351315416,1134.914078575064,1137.1470601197625,1133.9604724176963,-603.3190588009476,-509.84673370841114,-253.5045236860296,-355.99005150102886,162.4090962581109
7.6075,-0.1613069234168729,0.1161547483606721,-0.1253353893833043,0.0934639876933836,-0.0073349581008191,0.0061891731753423,0.0094343564763604,-0.0086613492049387,0.0419427747255522,0.9990375324868764,-0.0263704576409676,-0.040306108572745,9.849820878765774,0.012665052678299,0.0890640124674525,9.959160087968152e-05,8.489520675543153,0.0583727835017052,2.1357178581595355,1142.6958455836032,1133.5011903229363,1136.734775022016,1133.0241449291395,-558.9754750947242,-609.2070985833418,-37.47815095366684,-378.04227906099993,162.40979022295184
7.61,-0.0778729457360037,0.0739095650843129,-0.2295495106902051,0.0930233919574713,-0.0085747879260599,0.004608145285726,0.0095537271322366,-0.008634369297172,0.0419735397141494,0.9990353469304653,-0.0245114616559458,-0.0392273008225508,9.849249564252116,0.0123208714350271,0.088857370547144,0.0001279218727202,8.489531300445785,0.0585920291407007,2.135728011648079,1141.385557756068,1131.868043082147,1136.959669364994,1132.0702610223916,-514.9509500988297,-730.6403977967576,248.24185512921375,-398.4278320522292,162.41054598178624
7.6125,0.0444795443476173,0.0889876713929408,-0.3332260465808684,0.0927358506687669,-0.0098377394754098,0.0031616037884773,0.0096807703585099,-0.0086241666553298,0.0420005281700094,0.9990330728211224,-0.0223591584040249,-0.0377141328035455,9.849177893627452,0.0119778161627024,0.0886560290472315,0.0001458411534553,8.48954320801795,0.0588110684106743,2.1357384970022366,1140.1210908331093,1129.8479883339523,1137.975984297662,1131.0320057688784,-403.01972691405297,-718.8230251572048,481.9497321517804,-348.1737479221994,162.41152395043025
7.615,0.1691114731240023,0.1579371318966305,-0.4152467431339627,0.0926486540269099,-0.0099859647913384,0.0025164819554517,0.0098148527779299,-0.0086327526890893,0.0420231794331905,0.9990307188938712,-0.0198657881255405,-0.0358078632984988,9.849603288698232,0.0116336065284052,0.0884621866409743,0.0001561263512258,8.489556894237232,0.0590298870726172,2.135748885275548,1139.3704591214976,1128.2739279563611,1139.369418025753,1130.3293922827806,-233.02858076449908,-569.4185855981352,638.9755978292351,-239.96331441972472,162.41239817826553
7.617499999999999,0.3178857887806148,0.2732445148973435,-0.5111969231257477,0.0928652378960572,-0.0092002920372682,0.0022258121520214,0.0099557870188536,-0.0086581789617075,0.0420397056948193,0.9990283806486028,-0.0170585654228167,-0.0335445019170872,9.850512547392071,0.0112859457199721,0.0882773771670803,0.0001623734394637,8.489572075530237,0.0592480573974008,2.1357580647148935,1138.9559479292868,1127.000895405962,1141.170862286808,1129.8321891967798,-108.77053851372924,-454.7375469936566,840.3860965760211,-179.0231167645781,162.41333432938137
7.62,0.5176794233164503,0.4490301835577231,-0.6527783015211057,0.0938257899964858,-0.0081677247097005,0.0016492422538902,0.01010352946971,-0.0086976968203097,0.0420466311122665,0.9990262351416044,-0.0139788782622162,-0.0309618598695162,9.851880962229757,0.0109328088682198,0.0881024649515742,0.0001688699235369,8.489587433456947,0.0594658014408749,2.135765088020292,1138.8266064289292,1126.0002402213931,1143.571348508633,1129.4342766989575,4.65585189749545,-263.3804643633582,883.1714649565566,-127.42527692319352,162.41453025195557
7.6225,0.6930443336450471,0.6167972626281663,-0.7881341578228536,0.0953168521471508,-0.0075840833422081,0.0006263036665682,0.0102539949216759,-0.0087453806964737,0.0420426617935057,0.9990244384256692,-0.0107336907818798,-0.0281779723223112,9.853673192863848,0.0105733685316538,0.0879375426447199,0.0001810847354701,8.48960141513384,0.0596836804350301,2.13576889969847,1138.9792271887743,1125.6839930841447,1145.5867196115917,1129.1950628121635,98.33792252529955,-17.996603661413626,764.6699172200605,-98.26071496613832,162.41558830286763
7.625,0.8660185195007499,0.7894695995950833,-0.922672012993646,0.0972912403197804,-0.0066557955030321,-0.0011233165683679,0.0104006447606442,-0.0087895403541961,0.0420263524266473,0.999023223996292,-0.0075469104621449,-0.0253564382727644,9.85584335024072,0.0102076140852745,0.0877820408607582,0.0002049947100276,8.489613096597198,0.0599025083795312,2.135769929460112,1139.3182960415556,1125.910257203086,1147.3946980947333,1128.942973124127,170.3905555130441,201.59417977898076,698.9918642331453,-133.45740371101155,162.4167115089068
7.6275,1.0590441739819196,0.9678673335835476,-1.050965022237956,0.0999941941854712,-0.0037983521381341,-0.0042349393796642,0.0105430874406195,-0.0088251878107908,0.0419989816566994,0.9990225815374127,-0.0045081284738546,-0.0225456641738522,9.858332409065799,0.0098367414583373,0.0876348293552713,0.0002449358208755,8.489622373113017,0.0601224442745073,2.1357692224162848,1139.8311799663395,1126.6919639830398,1149.0816789327573,1128.5277757936087,191.2174266972256,340.9160629962644,509.1626142242712,-174.63553638868152,162.4181354963566
7.63,1.1995264367240155,1.0640431725509627,-1.1062537142132916,0.1025106755265713,0.0001485176712848,-0.0076381172917579,0.0106841667813882,-0.0088486538686128,0.0419600539343266,0.9990225280730934,-0.0016827216610414,-0.0197307587889641,9.861070281276143,0.0094621517439792,0.0874945452784281,0.0003038627680893,8.489629658224528,0.060343487930469,2.135768391184037,1140.2743831750415,1127.6148375180671,1149.9405111658543,1128.0697954421837,166.8798225618083,381.28340634712816,210.02295146145565,-194.132462536622,162.4193851394966
7.6325,1.3073288208773266,1.0869446732017158,-1.088325306469522,0.1053905850797261,0.0043820799300086,-0.011367705294539,0.0108301966714037,-0.0088637199647435,0.0419115935986004,0.999022871272106,0.0010083130033983,-0.0168323866575257,9.863976607705572,0.009086039525237,0.0873597539972942,0.0003830679856337,8.48963548346446,0.0605650253102434,2.135767879761098,1140.6655790791483,1128.5983810147754,1150.1317936900643,1127.5571134809256,140.49754568032156,372.99266974278794,-33.94772559427183,-194.44300024197636,162.420698270816
7.634999999999998,1.3775856016106172,1.0549598799890136,-1.0070218819215306,0.1087213360524728,0.0076668305886667,-0.0148148386731218,0.0109830270552298,-0.0088742655600264,0.0418593722100974,0.9990233109099282,0.0036361799389255,-0.0138560678049277,9.86696551061145,0.0087114936352966,0.0872291230793637,0.00048364917741,8.489640979218002,0.0607860918222793,2.135768522300056,1140.9768709034431,1129.4798008667813,1149.7707725378832,1127.0975804409738,99.98633107839153,304.1921564031392,-256.7294656657905,-142.9630750186819,162.42206163494868
7.6375,1.3900359480986975,0.9816546792138316,-0.8614510228573533,0.1122865342926259,0.0094988785086333,-0.0174527140728348,0.0111363075914071,-0.0088781559467204,0.0418102691329776,0.9990236438731174,0.0061398105293934,-0.0109605033401527,9.869949724603348,0.0083420193636801,0.0871015384967136,0.0006072891551172,8.489646214361628,0.0610057513551139,2.1357704362062253,1141.1655107345405,1130.119341796791,1148.8481463617356,1126.8422981058322,54.30732253097691,219.12654738513297,-486.4970338927982,-37.8372123651784,162.42348142865603
7.64,1.3258922886916888,0.877735941892772,-0.6407069072560414,0.1162806135215157,0.0110342933561626,-0.0194933278918096,0.0112817484778572,-0.0088720562507934,0.0417697723757035,0.9990237596441104,0.0084252980117587,-0.0083378913922405,9.87284087432363,0.0079811661656362,0.08697606577108,0.0007552197402267,8.489650476968796,0.0612234597767821,2.135773201747586,1141.2484075160983,1130.575433603707,1147.3382873684188,1126.908394379148,12.41930298492688,128.60865937095969,-575.2645757586956,91.71897253845795,162.42524350078898
7.6425,1.19983871787002,0.7902195333942726,-0.4412112246187093,0.1194290344940515,0.0125631739760426,-0.0203871386784854,0.011417124826561,-0.0088519454633603,0.041738631228053,0.9990236848661552,0.0103823037171607,-0.0060561040696156,9.875549340053935,0.007631943915203,0.086851828206448,0.0009269292344875,8.489652375800244,0.0614400305471581,2.135776351358429,1141.227607249465,1130.762385093646,1145.9718234829422,1127.3008929685243,-12.66030227570836,65.82521137998042,-515.316617730161,211.29216347335836,162.42675431790403
7.645,0.9919858910666433,0.7045655094717385,-0.2483846085445423,0.1224613188537642,0.0145563832980771,-0.0206951681916215,0.0115437444654797,-0.0088163829804988,0.0417196274015547,0.9990232996282286,0.0119474441916563,-0.0041103212408623,9.877986786985952,0.0072978773262095,0.0867277376342521,0.001120614544825,8.489650964024214,0.0616559842967738,2.1357794029357327,1141.1851060047195,1130.9045596606068,1144.761704279768,1127.9648551965147,-2.6830807339138687,93.23389941200928,-450.2756295639397,310.91574895668356,162.42830063401027
7.6475,0.6464279452420171,0.6044439940157851,-0.0415135307654925,0.1257071057657969,0.0169003602180304,-0.0206337627519495,0.0116632864940311,-0.0087636339108306,0.0417147592703267,0.9990225163234931,0.013045698324339,-0.0024828514439224,9.880069574988944,0.00698220295046,0.0866024803015364,0.0013337439599535,8.489645701351813,0.0618716525791304,2.135783308074737,1141.2141918457955,1131.228554590706,1143.7204453351223,1128.855471713308,37.28772041695345,166.5959623243488,-299.09768198491014,299.5387209966402,162.4301868788518
7.65,0.2854426739804281,0.5279593182764049,0.1044466018373042,0.1276709969932638,0.0184213067498693,-0.0203291284643773,0.0117829854466227,-0.0086982776766089,0.041723923571748,0.9990212155838192,0.013726513851111,-0.0010460458268936,9.881718288565171,0.0066872465637102,0.086474566400667,0.0015621217398037,8.489636466675046,0.0620871105643492,2.1357887468720804,1141.3715446068045,1131.7375394722287,1143.2662158698436,1129.4625488014979,98.43140893340416,261.40835388396783,-106.5386229346609,163.5794642676536,162.43177694857533
7.6525,-0.1300102186018907,0.4690817375826776,0.2211583432116548,0.12825837235315,0.0194262445099784,-0.019805062904107,0.0119092977639122,-0.0086279793011417,0.0417414264618408,0.9990194975696848,0.0140964893484137,0.0003152329265443,9.882861838042512,0.0064133791426468,0.0863424228722162,0.001801136816958,8.489625444066553,0.0623028554838189,2.135796476336638,1141.7063488904623,1132.5355963601255,1143.1877522204493,1129.673369034646,183.75890335133073,402.57144961093167,9.363766032220354,-41.636760627944554,162.4333774545684
7.655,-0.6538657838994976,0.4307833178380858,0.3291730932898524,0.1269382884269323,0.0202470351865643,-0.0189247463664397,0.0120425580493384,-0.0085576990628451,0.0417603413422669,0.99901761669728,0.0142032014262039,0.0016028441051722,9.883441396171497,0.0061594527566097,0.0862044037591186,0.0020469168275757,8.48961428404552,0.0625190897335283,2.135806718073507,1142.2903391235611,1133.750396720283,1143.3130347000047,1129.254364998358,232.60238836397127,464.6439194268268,39.96900713809823,-276.9513906198485,162.4353007175343
7.657499999999998,-1.08221258282541,0.4306840159162992,0.3951242685940616,0.1243401083748888,0.0208287812056071,-0.0180137622943428,0.0121761026061111,-0.0084903880515326,0.0417740502944695,0.9990159219921692,0.0140506926324058,0.0026871280155904,9.883411794355267,0.0059230141069262,0.0860588788827091,0.0022967060555464,8.489603449650902,0.062735678256548,2.1358183823411823,1142.8693608322824,1134.8588159572598,1143.3875972561395,1128.2886120815467,231.36100110046337,427.86713268406857,-25.45071154017987,-500.1295593797856,162.436899042077
7.66,-1.4735010066899796,0.4624911629169103,0.4402160606602246,0.1206890946196293,0.0215382612421778,-0.0170806037770395,0.0123060370458344,-0.0084272985337759,0.0417759261172102,0.999014751738156,0.0136160112137357,0.0034990406093413,9.882739041049472,0.0057003442030056,0.0859044004596214,0.0025473527958888,8.489593282615578,0.0629528260824896,2.135830683428847,1143.4471441290634,1135.8897323837036,1143.1857811423035,1126.7537172014593,217.80865315541865,372.6348226647005,-152.49825206794756,-678.6574180979036,162.4384852192922
7.6625,-1.8198843914300569,0.5148786444166276,0.4710437074273395,0.1163075686085296,0.0224582425008101,-0.0162282017295187,0.0124321599729556,-0.0083710484763635,0.0417644301314524,0.9990141802638765,0.0129131854602541,0.004045416576582,9.88139993749401,0.0054875365652066,0.0857397860533859,0.0027951959132109,8.489584554640627,0.0631704315374898,2.1358436147700055,1143.9584040980596,1136.7219900705836,1142.6251059958,1124.895324991057,180.11928268861467,258.3650785853534,-321.1624039190224,-768.6281041300099,162.44005587547585
7.665,-2.103068205978435,0.5805353960099203,0.4859943999466032,0.1111482987990804,0.0237528024626147,-0.0153514761354555,0.0125518098757668,-0.008318422064761,0.0417432756054093,0.9990141445135484,0.011847829056045,0.0042925891284328,9.879384952919303,0.0052807232030745,0.0855642201774741,0.0030371629175106,8.489577296185448,0.0633878197995495,2.13585812541144,1144.3477405425065,1137.1815577766304,1141.5799691227087,1122.9105766808093,142.98898631427923,97.01566501257936,-556.2285498210376,-825.2189831410482,162.44160149698988
7.6675,-2.36715435812044,0.6576321188358372,0.4824006487725229,0.1045521605497419,0.0257835013730611,-0.0139537840707524,0.0126664242549709,-0.008269912568843,0.0417200692260762,0.9990143408433312,0.0104122814275388,0.0042871391993233,9.876694596375156,0.005076199557932,0.0853773705858441,0.0032696719204933,8.489571704414917,0.0636040135007261,2.1358744999356247,1144.673349029631,1137.2070683956465,1139.8439632466948,1120.7692300753515,99.78278500621158,-77.15864156953268,-688.3627530637715,-691.8235755632543,162.4434196588881
7.67,-2.5264568766912054,0.7095350878368665,0.4572690284812379,0.0989507568621097,0.027670308677549,-0.0124386588353998,0.0127772559270221,-0.0082258459720939,0.0417007660361336,0.9990145425947788,0.008605820270802,0.0040733929608112,9.873340739955232,0.0048697671868107,0.0851793752212123,0.0034895455291952,8.489567762330893,0.0638183418506345,2.1358924951312908,1144.8466544675375,1136.7957645687827,1138.13815535739,1119.451458802993,51.386856385489594,-234.13493048602092,-691.9677604737137,-382.5123040650933,162.44489926506878
7.6725,-2.624967625735162,0.7397125269546351,0.4075009646846309,0.0930277857968054,0.0296279523921883,-0.0108565437808078,0.0128880441084678,-0.0081848910373942,0.0416851980817601,0.9990147558798542,0.0064073424214893,0.0037462801128697,9.869345113223812,0.0046562720075487,0.0849707379761397,0.00369373488226,8.489565020949865,0.0640310871412072,2.1359119333857195,1144.9302833115585,1136.0363937432164,1136.3841244443263,1118.8566685550263,9.194094575605245,-374.09783094659247,-733.442552819558,-71.4630463528935,162.44633665574685
7.675,-2.670928434078116,0.745682476836541,0.3272801222484068,0.085344542195248,0.0320430228219487,-0.0092789175751578,0.0129953477768103,-0.0081486682483615,0.0416732812145833,0.9990150341573764,0.0038584976151589,0.0032563688162182,9.864741033461572,0.0044310125587097,0.0847519971638034,0.003881089509585,8.48956403761223,0.0642425299242832,2.1359321088474768,1144.8926249404155,1134.9252754140496,1134.470942593292,1119.0941435712286,-48.42148784473569,-408.32835020911216,-642.3814710345732,236.74321876629213,162.44800737616205
7.6775,-2.6465069097780054,0.7250329176518949,0.2561525995300601,0.0785651299593422,0.0338994651140125,-0.0084468689840868,0.0130998912386278,-0.0081209211161128,0.0416592075587562,0.9990155770147828,0.0010551655793344,0.002633455997819,9.859568788228103,0.0041890484919162,0.0845237082378016,0.0040505120373347,8.489564944599778,0.0644538889435432,2.135952087651684,1144.6881758723348,1133.994751992171,1133.1722170891535,1120.0403846488575,-134.434006713812,-341.9359608001814,-440.7635878939439,495.32331108394976,162.44935117747286
7.679999999999999,-2.5582364936026387,0.6800576005458228,0.2005322628103927,0.0718758947694955,0.0353067821484236,-0.0083677555317476,0.0132009259880927,-0.0081026570757517,0.0416378863812954,0.9990165654710496,-0.0019539585092069,0.0018790973188526,9.853876995300126,0.0039266022321465,0.0842863041206742,0.0042018815606076,8.48956692833275,0.0646658846924097,2.135971141485135,1144.2204549068465,1133.2155956100487,1132.2671246538223,1121.5707601266483,-281.531761101002,-290.17434069328993,-305.72645426510206,740.894547009127,162.45064133833966
7.6825,-2.389600744567021,0.5988377789815225,0.1712303689488104,0.0644419321501312,0.0368187129280702,-0.0089802667320446,0.0132900074367967,-0.0080888796488845,0.0416098408752857,0.9990180423202828,-0.0052381697087862,0.0008468279791245,9.847723911602518,0.0036421451445654,0.084040103153525,0.004336926398449,8.48956810770712,0.0648785210515651,2.135988695314247,1143.2805170668298,1132.5438802887045,1131.643584817828,1123.7448573839033,-411.48789670290097,-204.319055065448,-160.08450746332755,799.8616181079002,162.45212446754823
7.685,-2.2103685152111745,0.5052700560120604,0.1822519471296679,0.0589909346248531,0.0383276699037314,-0.0093141443813635,0.0133605185219124,-0.0080783515348181,0.0415800475057266,0.9990197380633647,-0.0087867119234007,-0.0005782868818385,9.841172643359393,0.0033364007970152,0.0837855710758906,0.0044573352811061,8.489567130767137,0.0650909822581196,2.136003946552285,1142.1630154233317,1132.1940003347215,1131.4667021165055,1125.5700682171885,-510.1120063759135,-114.91446803697971,-16.43430013568867,676.4754762961419,162.45330453851625
7.6875,-2.0090174711724385,0.3803299538059083,0.2208615428235331,0.0545954374342704,0.0402547864797304,-0.0085838597565331,0.0134097231755614,-0.0080672003058326,0.0415527758841451,0.9990212898800284,-0.0126354251366138,-0.0024346301587087,9.8342905997039,0.0030112876678084,0.0835235204102509,0.00456409117198,8.489562878165609,0.0653019946081672,2.136017504160452,1140.7299570349503,1131.9693079485196,1131.5614133171496,1127.127234765384,-612.8437539962891,-91.9327691454802,68.79164691736297,549.3262073993382,162.45442566149904
7.69,-1.7989959783845606,0.2321886228852072,0.2716686968260659,0.0508344785230186,0.0420765191765175,-0.0071712883793894,0.0134425544698732,-0.0080561396471255,0.0415295568008936,0.999022224238332,-0.0167235940628039,-0.0046160951273548,9.827147611481655,0.0026693535814514,0.083255153664175,0.0046565199926658,8.489555104221154,0.0655104071244682,2.1360300117106856,1139.0987966533503,1131.734336488994,1131.8106603510923,1128.316699254185,-677.1822691343604,-128.6689426605817,121.34323144691992,373.24785891269926,162.45549821567153
7.6925,-1.579605803123585,0.0740793498683633,0.3321894832888212,0.0473787061011397,0.0429682361817629,-0.0059007800694056,0.0134648319013832,-0.0080444622788682,0.0415129282737505,0.9990221656833268,-0.0210190047542195,-0.0070005548860917,9.81981866245446,0.0023139255811852,0.0829818115962414,0.0047331916035013,8.489543922049215,0.0657152703681328,2.136042017230631,1137.3440456892783,1131.3259632352167,1132.168129474384,1128.9934740599474,-766.2334814692421,-256.8270716899915,165.70728672032044,186.8982796233962,162.45651390752917
7.695,-1.2940348138346216,-0.0889272538965056,0.4227017951637988,0.0433886210479197,0.0423002675748672,-0.0052448349103321,0.0134847738291144,-0.0080297752328304,0.0415054616058162,0.9990212150576564,-0.0255229126051788,-0.0094200122371037,9.812383504065812,0.0019485019697531,0.0827046882657876,0.0047915362840233,8.48952993362701,0.0659174685366665,2.1360545894482628,1135.267629246004,1130.4502011305442,1132.639196784694,1129.251190652302,-731.7172213086152,-400.9244866895728,169.67289773897753,20.52918426320546,162.4576708857004
7.697499999999998,-1.024480439056907,-0.1745579538942908,0.5192365363249954,0.0400696235000913,0.0404465949288803,-0.0052793630013955,0.0135075406962133,-0.0080062840114709,0.0415071771441562,0.9990196768750303,-0.030308442220682,-0.0117660980840699,9.804928337175864,0.0015759330891803,0.0824244781448405,0.0048287397793681,8.489513528192852,0.0661182709264419,2.136068591819768,1133.6854595827356,1129.3213408017689,1133.016493963079,1129.0961199812634,-576.1878206527977,-529.7144870216583,136.94649866343136,-110.98957925478553,162.458587533509
7.7,-0.7101994544255354,-0.1921850052016061,0.6325492496061215,0.0369338797175324,0.0383746733849948,-0.0051068350123933,0.0135389562817853,-0.0079712225638031,0.0415131031067229,0.9990179281503168,-0.0353913036538363,-0.0139220613854181,9.797544132151264,0.001197806375411,0.0821412436841893,0.0048412784544433,8.48949460501971,0.0663194655867242,2.136084279909328,1132.3866901427402,1127.801628695436,1133.3239292780113,1128.696242756028,-482.0998403033783,-720.8121729273681,108.5749801824762,-201.93622437620004,162.4594611278366
7.7025,-0.2846017765733034,-0.1493303377929327,0.7574497438969982,0.0342634423275159,0.0372364784915533,-0.0035446927884256,0.0135873949491584,-0.00792316410912,0.0415195505842927,0.9990161599239696,-0.0407607351277287,-0.0157232623451726,9.790325702228547,0.0008152332064694,0.0818544749479643,0.0048248464228155,8.489473933389554,0.0665225639178383,2.1361028816516043,1131.2749603812183,1125.7172799371315,1133.5593688639915,1128.0864388593823,-320.44045166299605,-763.8466938833224,59.57835114727585,-225.95423045987016,162.46046871497057
7.705,0.0929866577391976,-0.0860898371817892,0.8189761669337439,0.0335376406257493,0.0378448542293571,-0.000786831907822,0.0136525006258335,-0.0078587458453058,0.0415275567349253,0.9990144244839364,-0.0464519132031219,-0.0171740964332831,9.783374002755844,0.0004292236331703,0.0815632805322936,0.004776546981888,8.489452180496158,0.0667273968809642,2.1361254240782315,1130.7844878844253,1123.9823952260194,1133.6218210337477,1127.5664716037288,-96.89595354671134,-637.2871432765031,-1.5940092864184747,-189.8173292090218,162.4612820962119
7.7075,0.4610605857326589,-0.0219319968380095,0.8009503187082773,0.0345761315660184,0.0393322345865081,0.0027549687651888,0.0137350635945254,-0.0077839126274629,0.0415366539332421,0.999012694869842,-0.0523172378621213,-0.0182638168851364,9.776791693243522,3.975393576684615e-05,0.081266884071313,0.0046938443982185,8.489430874236188,0.0669325926521098,2.1361509330054647,1130.7904806134848,1122.530844220749,1133.5513988175594,1127.1373522133372,117.87953303787867,-524.5534798757601,-50.49602877034084,-145.19440065865038,162.4620775832163
7.71,0.8518987082048554,0.0501575305757529,0.6723276878139938,0.0375158613310271,0.0404332545771903,0.006550590699049,0.0138306732525075,-0.0077047707257527,0.0415490116620359,0.9990108779418412,-0.0582094441584319,-0.019082136463238,9.77068326327248,-0.0003535437370717,0.0809648379730034,0.0045760665343427,8.489410751145211,0.0671361988998635,2.136177357677755,1131.3738855496147,1121.3596278266407,1133.369340889896,1126.8404996004356,302.78296402075927,-320.46236568981607,-69.63087999474885,-57.29906241385956,162.46302123599511
7.7125,1.114732172800501,0.1194226872943117,0.4861723024685484,0.0409481331120459,0.0401380722579249,0.0086317355990653,0.0139305366214348,-0.0076247443381084,0.0415643433165137,0.999009053414412,-0.0640353910977022,-0.0198011975302324,9.765152260065342,-0.0007519964261253,0.0806570662584105,0.004424557944079,8.489391443759986,0.067337155641797,2.1362026902410216,1132.3043954335883,1120.9285323923,1133.2032444175857,1126.850856901268,446.10877350047343,-71.31153322120706,-51.50524769915247,70.96985412345171,162.46380467242048
7.715,1.3045494639632382,0.217444977833133,0.2475564643737528,0.0446548060850694,0.0390803416767087,0.0095404888620308,0.0140286358343752,-0.0075424201958423,0.0415781727480335,0.9990074732761623,-0.0697911392964518,-0.0205343201192586,9.760296309438337,-0.0011579225538658,0.0803437268914178,0.0042415423534863,8.48937240422984,0.0675354738220923,2.1362264974478617,1133.6044294171168,1121.0030701605347,1133.1118146514002,1127.1953488710528,560.197153015327,88.08375880694445,-12.867904669247128,196.0992896952617,162.4645912854216
7.7175,1.4402539380707655,0.3421622877246041,-0.0074712650839966,0.0481586975886003,0.0384076355230515,0.0097189319536844,0.0141226554805406,-0.0074547952607456,0.0415847757536008,0.9990064067968568,-0.0754968641600986,-0.0213202101610902,9.756203910668722,-0.0015739081773286,0.080024935385366,0.0040298714131978,8.489352793043544,0.0677321688131714,2.1362484708334195,1135.105381198665,1121.3689511863347,1133.1389048942394,1127.831353349744,616.3686051118152,177.90350159953428,46.777930304098014,315.7627532659784,162.46538433684768
7.719999999999998,1.5263308954926282,0.4817434127037752,-0.2500864809129061,0.0514560231149486,0.0390109808682434,0.0090527733307461,0.0142145206004212,-0.0073617724576538,0.0415822270189417,0.9990058855429969,-0.08110833703252,-0.0221151119715212,9.752951670910985,-0.0020018377139165,0.0797005740309541,0.003792801629951,8.489332672810454,0.0679281226131245,2.136268512729637,1136.686272442676,1121.8925876685323,1133.3457043029207,1128.7741626373827,669.6085722066216,225.18286013515103,131.10691000138382,458.2922023352792,162.46618872320244
7.7225,1.5916564577278596,0.6283839819818217,-0.4903196868183745,0.0554805724301437,0.0410485096003961,0.0071119856997501,0.0143011722157586,-0.007261647767848,0.0415726505096543,0.9990058519917198,-0.0866124588629459,-0.0229686045772618,9.750603960649311,-0.0024428428077254,0.0793701633358589,0.0035352282134423,8.489311816439308,0.0681234520648982,2.136287020742029,1138.453424059698,1122.4948654870104,1133.7944394442463,1130.1228143614203,596.8769221550223,200.93359254421145,188.597700293683,503.65888027573726,162.46717038793975
7.725,1.6242285525746656,0.7053370264340887,-0.6289602154952906,0.0590267772734572,0.0433897527149057,0.004854868161177,0.0143826087823252,-0.0071618481243973,0.0415590001129321,0.99900610040002,-0.0918117875865993,-0.0238759153635137,9.749209202737699,-0.002897675607796,0.0790329329037042,0.0032623476667447,8.489290387928873,0.0683180821262969,2.136303722339106,1139.6706570534516,1122.8972556312535,1134.2886928043893,1131.2924570387615,406.84098946954646,142.66514157739343,203.43740715998567,446.9996025634469,162.4680035791683
