t,ang_acc_x,ang_acc_y,ang_acc_z,a_vel_x,a_vel_y,a_vel_z,quat_x,quat_y,quat_z,quat_w,acc_x,acc_y,acc_z,l_vel_x,l_vel_y,l_vel_z,pos_x,pos_y,pos_z,mot_1,mot_2,mot_3,mot_4,dmot_1,dmot_2,dmot_3,dmot_4,vbat
0.0025,-1.4032568871351492,3.8028683121557294,0.7721058361634111,-0.1681596141420443,0.4670879169302238,0.06172011060682,0.0033801385039054,-0.0126077083044521,-0.0107693024590786,0.9998578960425928,0.2801459791550873,0.090664170580234,10.952617020163023,-0.0967997147738222,-0.0378903066335055,0.8050085112851623,4.185919436022536,-0.7448535754783293,0.1537574617796952,1212.9741562954732,1195.8806394625199,1193.6388147202028,1179.6480586035193,-1059.3249248028767,765.9911886526061,-811.0698158314334,1200.0192016319488,154.9500288495179
0.005,-1.4346782369507551,2.652583983517776,0.26001228376438,-0.1719029867790342,0.4725325172058133,0.0669665063731146,0.0031845171560176,-0.0120340820231701,-0.0107146937413165,0.9998654060090952,0.2617970561585272,0.0874291569637964,10.968270993542028,-0.0979066014386341,-0.0381331394253831,0.8076854114390505,4.185621914143125,-0.7449535005882724,0.1557839815200817,1210.325843983466,1197.7956174341512,1191.6111401806243,1182.6481066075992,-1023.2436891508316,726.8250514836836,-717.1979215997,1178.0816844767287,154.95492000334767
0.0074999999999999,-1.4840980104211368,1.6077151278120168,-0.3516311729218795,-0.1758204812352878,0.4747797657078538,0.0702633150925252,0.0029915045637492,-0.0114577511789969,-0.0106561470921009,0.9998728998121466,0.2433470873246065,0.0842219374803345,10.983875092923036,-0.0990257580207018,-0.0383715390162198,0.8103760125282224,4.185323971122512,-0.7450536297374475,0.1578052730618368,1207.857937849719,1199.5147647199383,1190.0528251122043,1185.5384670259027,-963.8651107067744,621.5157970583277,-525.1589231691469,1110.0268760716972,154.95953430942723
0.01,-1.523144526130714,0.734743659604279,-0.9866956434759552,-0.1798210374290923,0.4750466171534715,0.068459791571898,0.0028046535957003,-0.0108824782195754,-0.0105935002648909,0.9998802674262685,0.2248765328238208,0.0811035428619707,10.99939783183078,-0.1001523542163638,-0.0385983088880295,0.8130924966200292,4.185024866461501,-0.7451537842058176,0.1598238678244746,1205.506518429932,1200.903196419443,1188.9853455647783,1188.1982409879577,-1025.212360177238,514.3386112250936,-386.5208896029344,1100.3492472940704,154.96381389958455
0.0125,-1.5250662043447638,-0.1077409441870054,-1.6244603580243675,-0.1844885121616794,0.4745400408250797,0.0603990523126849,0.0026258371639556,-0.0103154031172137,-0.0105294630798764,0.999887332768952,0.2065444761199948,0.0780925865960761,11.01479118011165,-0.1012761595064659,-0.0388091726840966,0.8158478413829979,4.184724382537667,-0.745253835458365,0.1618422972275096,1202.7318760488329,1202.0864577760635,1188.1202206641897,1191.0402132623733,-1013.8672052878974,344.81984621579613,-269.89692482961806,975.6084497179928,154.96856250081498
0.0149999999999999,-1.469975179038709,-0.6591145011018053,-1.9686686152416812,-0.1882657656175777,0.4735192963673881,0.0516460054112242,0.0024520418461064,-0.0097567978445262,-0.0104646148435797,0.9998940314410272,0.188366454056111,0.0750919089192624,11.029992588499152,-0.1023986858816395,-0.0390071956236811,0.818652171079411,4.184422965990019,-0.7453543764012013,0.1638630520654926,1200.4371824034927,1202.627295650522,1187.6358609406304,1193.0762832365476,-910.187997567982,124.35235354591892,-164.8407065006267,737.2023179133975,154.97219812351435
0.0175,-1.3369695383594282,-1.088642815535109,-2.0869960513033283,-0.1923312626447886,0.4716743113561601,0.0440249274393783,0.0022749269517263,-0.0092019308988059,-0.0104006362426488,0.9999003601271848,0.1702557970561843,0.0718790469889423,11.044924228238244,-0.1035301125447364,-0.0392043826580932,0.8215120655133556,4.1841218313093,-0.7454559659926103,0.1658886452980913,1198.1809360609927,1202.7082195437931,1187.2960171316863,1194.7262248519403,-972.8775054219565,-54.731771959268364,-132.49341091482162,627.9361585985952,154.97550201043384
0.02,-1.0753701480209932,-1.501766559260544,-2.007393557334015,-0.1975959334945759,0.4683060264656896,0.0373346909095028,0.0020855160283564,-0.0086430327028126,-0.010338411872952,0.9999063638699296,0.1520667494622726,0.06821055229165,11.05949315615958,-0.1046863644095317,-0.0394138042670694,0.8244306885200303,4.183821502684816,-0.7455590923902369,0.1679222854823626,1195.5727948763829,1202.3536367907257,1186.9733938860563,1196.2159640295406,-931.9474515510141,-183.79606567164052,-115.07891526193822,460.2066939459749,154.9790866883419
0.0224999999999999,-0.7794520843332404,-1.7845004864419636,-1.80928477551533,-0.2018743146675779,0.4644086677379275,0.0335497930670352,0.0018782774019173,-0.0080768960465378,-0.010280515914166,0.9999120262005384,0.1337618855533995,0.0639150509051155,11.073592955741788,-0.1058762944500871,-0.0396435240789647,0.8274095180792927,4.183522420649298,-0.745664136543731,0.1699668027052503,1193.521198803238,1201.7892392154351,1186.7206225553768,1197.02725832167,-789.6252507756797,-247.77847454174656,-114.40366376455128,235.86651825899017,154.98176050642053
0.025,-0.440654358157238,-2.028877089332859,-1.5360841423746192,-0.2048901491259382,0.4598746397015379,0.0306280164810182,0.0016470471938165,-0.0074993385797031,-0.0102280260751056,0.999917363171684,0.1152916010214982,0.0588039308577325,11.087109652662008,-0.1071106388033827,-0.0399029368712554,0.8304471411109254,4.183225817836652,-0.745770549887079,0.1720224470598541,1191.6246686225045,1201.1147444180167,1186.4013755672336,1197.3952966208356,-797.7632336983331,-280.2876072792969,-180.95167511523863,72.22094583380564,154.98411343818964
0.0275,-0.066555702060882,-2.306604285433082,-1.1736971949874964,-0.2058575524373738,0.4542518409715537,0.0274170988335959,0.0013905657378492,-0.006907568037745,-0.0101825890005995,0.9999223748675224,0.0966446081510961,0.0527965363209811,11.099925228461746,-0.108397602088412,-0.0401942604131488,0.8335406336080153,4.182931366760902,-0.7458774845799578,0.1740885738958043,1189.5323826347462,1200.3878011790387,1185.8158641798007,1197.3883630508392,-739.9649888519436,-225.35963333034496,-267.48409713300146,-57.66840518972461,154.98657173507257
0.0299999999999999,0.1455445798907239,-2.5422477743129,-0.8697340971153527,-0.2041160402993517,0.4492421686545999,0.0251666769727903,0.0011123827475264,-0.0063014526782632,-0.0101476516193652,0.9999270252826528,0.0778753395708901,0.0459209387073264,11.11192287583392,-0.1097401132287531,-0.0405129848288508,0.8366862888378472,4.182637636638806,-0.7459840691627954,0.1761644601045891,1187.9248436782448,1199.9879462513652,1185.0639550815683,1197.1069545948867,-624.2366456787748,-92.7813239070474,-372.0204686073429,-134.4123945531919,154.98832056003184
0.0325,0.1800170876150942,-2.7923338615585966,-0.5890851469020651,-0.2001450935000564,0.4436242502655518,0.0236894060613914,0.0008242525699076,-0.0056931876403961,-0.0101243070297465,0.9999311983972264,0.0593175674959588,0.0383952741339372,11.122992794516025,-0.1111195394685347,-0.0408409640461815,0.8398824117557359,4.182343741892422,-0.7460897978403453,0.1782496993982662,1186.4111994063524,1199.9238945595034,1183.955761836764,1196.7163010780732,-601.3140449741961,39.207491550541775,-505.03685818766786,-142.1589367889736,154.9897641898809
0.035,0.043195438861485,-3.052493604787464,-0.3438099732581834,-0.1954383645414771,0.4372803131904004,0.0229584599612827,0.0005323346440716,-0.0050888581062274,-0.0101099124944911,0.999934860211572,0.0411763705060775,0.0303201781627499,11.133038540654937,-0.1125260520116763,-0.0411693325709665,0.8431244791535621,4.182049250571193,-0.7461945779533866,0.1803449311700216,1184.9182734533736,1200.183983709118,1182.5387707906302,1196.396159910942,-610.139033215319,177.9427231664159,-628.6918872259779,-72.19216753678668,154.99095950927105
0.0374999999999999,-0.2688103491363728,-3.312363079976405,-0.1557039436931688,-0.1917484620781104,0.4296959198004622,0.0229823710036844,0.0002413830702897,-0.0044960908297864,-0.0101005909926728,0.9999379946635548,0.0236942875331316,0.0217752750599645,11.141979991538872,-0.1139456233641138,-0.0414919330095975,0.846407342270079,4.181753280332961,-0.7462980524939591,0.1824500241626867,1183.3605042402755,1200.8136081753355,1180.812302400634,1196.3553402403893,-724.3559939777699,334.01858595457287,-794.9860427609113,85.54929465558419,154.99186158110513
0.04,-0.7241132493684366,-3.6025894188420886,-0.0049290399319408,-0.1910015984612269,0.4191371947775131,0.0233962787939848,-4.357901649934896e-05,-0.0039188083452222,-0.0100917706888197,0.9999406237337464,0.0070315781142429,0.012857193139065,11.149755293015028,-0.1153688823429205,-0.0418026021495847,0.8497243799375435,4.181453726235088,-0.7463997078807137,0.1845641547920613,1181.2964934834847,1201.8540766388908,1178.5638405768257,1196.82390638422,-802.9947841420372,394.0379853323972,-817.4476046558077,271.4230920456428,154.99261352667082
0.0425,-1.0413680890470791,-3.8147918696002105,0.0596126688315687,-0.1947096566767961,0.4095582911680777,0.0238119667422515,-0.000319680563576,-0.0033568060322018,-0.0100792516775453,0.9999427961297616,-0.0087452940878499,0.0036268980433752,11.156322427368435,-0.116792054241078,-0.0420993865961123,0.853067297502564,4.181148889512697,-0.746500376581202,0.1866876619807171,1179.3455303195656,1202.7837981019975,1176.725064377355,1197.7124557006175,-835.317778367517,336.1987878396123,-682.2477910867295,451.1862579453011,154.9929711249786
0.0449999999999999,-1.138452565577294,-3.9935450688508336,0.0696063538549669,-0.2023567719822017,0.399769312125279,0.0241487740617589,-0.0005890540338298,-0.0028051873717412,-0.0100608559858978,0.9999445661046112,-0.0236777305584663,-0.0059535005528199,11.161659633638124,-0.118218364860668,-0.0423897748104107,0.8564258082170059,4.180838279889064,-0.7465999498945685,0.1888216386800778,1177.1199045916471,1203.5350705780888,1175.152601621392,1199.0798376739465,-1035.3978757737882,240.02635474644205,-585.4728179723683,673.6564427432771,154.9930572212093
0.0475,-0.8901200412425185,-4.179245936511862,0.0343694160369968,-0.2123650142834546,0.3880434534275891,0.0244165240053739,-0.0008492881502336,-0.0022597429077904,-0.0100321433683488,0.9999460229918146,-0.0377981724795076,-0.0158044508549026,11.165766040318676,-0.1196501062605414,-0.0426732467009144,0.8597898411959097,4.180522951519425,-0.7466977511376,0.1909673308881559,1174.1685409406966,1203.9839298757297,1173.7977002874932,1201.080737914334,-1112.7584371748062,66.05625856323053,-386.4311168240871,751.3088533430158,154.99285563919133
0.05,-0.3756563227047628,-4.320723791138824,-0.0209802309526915,-0.2183355421713016,0.3781391794332684,0.0244653973808509,-0.0011044227668647,-0.0017221647707702,-0.0099928206065059,0.9999472288518813,-0.051011957521026,-0.0259748351297352,11.168663302216835,-0.1210794906720299,-0.0429614223226155,0.8631502877105691,4.180204183843673,-0.7467941268976372,0.1931267315355909,1171.556112405773,1203.8653518709048,1173.2204460372716,1202.8363819406616,-1046.2457853507663,-158.64838898792195,-106.73567459284646,666.2087644168881,154.99244013249663
0.0524999999999999,0.3761521489430061,-4.459697528311752,-0.0864897056365681,-0.219722014610667,0.3680455461482521,0.0241867670680658,-0.001353092703448,-0.0012105238605006,-0.0099417574459049,0.9999482124866234,-0.0628655587232974,-0.0363736529342704,11.170398013440725,-0.1224713482645253,-0.0432562186635939,0.8665032276806646,4.179883591208292,-0.7468893149544917,0.1952990526732721,1168.9373120139428,1203.19068793079,1173.2640219145287,1204.4117817364183,-1109.264281648439,-414.9640195633767,151.89137443953777,601.8640646338557,154.99177553632964
0.055,1.3966073847763776,-4.630365427398609,-0.1587252447423611,-0.2157015715263499,0.3559367530822781,0.023573384518494,-0.0015914402544425,-0.0007322082180378,-0.0098785259337803,0.999949006708002,-0.0731502264981234,-0.0468423020411882,11.171031821585158,-0.1238096864553307,-0.0435554214487922,0.8698438443559213,4.179563491892617,-0.7469822223526437,0.1974818817782597,1166.0097909975311,1201.790531773088,1173.9799029094693,1205.8457022638308,-1004.4333719431952,-594.3904266840485,351.1129011243153,431.26183731278576,154.9906991441036
0.0575,2.230550954084636,-4.77289610971076,-0.2029775621164767,-0.2084361916724317,0.3456805953954971,0.0229019431914934,-0.0018214391065514,-0.0002874889869188,-0.0098070033058965,0.9999496054718084,-0.0818201756506222,-0.0573425050835605,11.170637785285338,-0.1250912969846663,-0.043867775160512,0.8731669019108061,4.1792452605127135,-0.7470730381243945,0.199672959007423,1163.9151451542268,1200.2187357973698,1175.0195864201503,1206.5680909229823,-734.0514061759226,-685.3835468205036,468.10851023547025,192.92056141885047,154.9895763971393
0.0599999999999999,2.946947185906952,-4.898368186489401,-0.2219405888183419,-0.1987063843730489,0.3345476080880752,0.0220625961013957,-0.0020414827739293,0.0001299550292474,-0.0097300488141613,0.9999500263596064,-0.0889823430597972,-0.0677459391851038,11.169296277309636,-0.1263253588085096,-0.0441950902767803,0.8764677045561349,4.178927942124496,-0.7471621356208569,0.2018717640093458,1162.3395339666515,1198.3636140389856,1176.3204454606466,1206.810305070925,-530.734312386494,-766.3139835631232,528.2426985827444,33.81212789136045,154.98822728455815
0.0625,3.531548851691252,-4.988013603811912,-0.2169628045038164,-0.1882843312432795,0.3223889245462868,0.021215588720662,-0.0022550653430965,0.0005232267100059,-0.0096545450190142,0.9999502401194332,-0.0946745483121373,-0.0780303164736908,11.16709388201218,-0.127515455142474,-0.044548247707474,0.8797437116745174,4.17860985095677,-0.7472502416775081,0.2040780818850131,1161.2614735922944,1196.3871658795542,1177.6607999130642,1206.737151562439,-311.7537801946125,-792.7483376693992,503.31483925210654,-75.13481413648144,154.98669653605737
0.065,3.9628498183733423,-5.0083392453097195,-0.184423693479792,-0.1783819547560701,0.3092144487490309,0.0205426910813682,-0.0024613160643743,0.0008956332241581,-0.0095898162470163,0.9999502019730768,-0.0989435221054729,-0.0880710009960802,11.164118926829726,-0.1286656111146879,-0.0449301522110433,0.8829943596663472,4.178289433630504,-0.7473379232612459,0.2062912998019039,1160.7807650656785,1194.3998723506384,1178.8370196569072,1206.4346310002427,-96.25319454153203,-846.0698124655656,433.96568570296904,-145.8817555052063,154.98495447615903
0.0675,4.3439820296767415,-4.936109346685561,-0.1200676427482373,-0.167272978100741,0.293173159044464,0.0200030817597914,-0.0026490873787207,0.001250565342844,-0.0095399054319104,0.9999499209913184,-0.1018439396813396,-0.0975093660676136,11.160459043745687,-0.1297808647362393,-0.0453230274453955,0.8862214343083405,4.177967368088577,-0.7474250089892989,0.2085109884769634,1160.7802076195867,1192.1568168172264,1179.830628341579,1206.007742784913,65.14513004035501,-780.7475177784446,271.64805761103685,-143.19839687454976,154.9826302057812
0.07,4.57932192035932,-4.8030101288360205,-0.0520745872641735,-0.1579642370233259,0.2804663102721914,0.0197637043431284,-0.0028085660612726,0.0015897802789995,-0.0095052676642008,0.9999494346446524,-0.1033981408667924,-0.1060161411178342,11.156197512351739,-0.1308639542884038,-0.0457090261355488,0.889428276311222,4.1776458166035795,-0.7475118955463871,0.2107375023211685,1161.1064907158802,1190.4961347617464,1180.1952599449623,1205.71863901587,151.79779596228428,-604.9252289681601,35.82953416712378,-83.86778100730241,154.98050652465187
0.0724999999999999,4.74993156096837,-4.625159151826118,0.0219304815249411,-0.1478730627297075,0.2690892810945559,0.0197194625064667,-0.0029416598866919,0.0019139560525585,-0.0094819898561446,0.9999487889368436,-0.1036074119594512,-0.1135267648233838,11.151408111345608,-0.1319160412041627,-0.0460885271184944,0.8926184532170075,4.177326798735105,-0.747598787144709,0.2129702074370277,1161.539196599398,1189.1321906723856,1180.0097760124147,1205.5884038798763,162.45276303548084,-518.8546991803388,-209.39220744307968,-14.025919384403123,154.9781990208978
0.0749999999999999,4.878934141294796,-4.408990907677859,0.1069441681283012,-0.1346382286506535,0.2570392349035504,0.0198984537593682,-0.0030555915325495,0.0022221340496273,-0.0094701691815602,0.9999479768285404,-0.1024412342282217,-0.1201049265370815,11.146153477346,-0.1329346553745898,-0.0464711388295436,0.8957961606112433,4.177011458857607,-0.747686493213053,0.2152082691020006,1161.9187545310576,1187.9018612658447,1179.1482989077467,1205.648509418948,89.21554698163153,-377.12017371100006,-414.39700044884336,53.463170768691214,154.9752297673616
0.0774999999999999,4.91194679094524,-4.258360988148215,0.1666458258611131,-0.1227169871703405,0.247937200295643,0.0202738701474486,-0.0031588385763757,0.0025163995602404,-0.0094679327304079,0.999946997981409,-0.0999444896896648,-0.1258540847903435,11.140482411165337,-0.1339220168750276,-0.0468671095069086,0.8989649599666988,4.176698584577819,-0.7477758070098653,0.2174513600625747,1161.9852743343063,1187.2465898038306,1177.9377910101705,1205.85571973372,-32.79731694710787,-181.28892219992832,-568.3273007073235,98.95616404555759,154.97259786927768
0.08,4.852309057622217,-4.159746245466572,0.2057042714363633,-0.1103110634479985,0.2392856778940765,0.0209344239423292,-0.0032601241822324,0.002802567382949,-0.0094720342236938,0.999945855951144,-0.0962544110869124,-0.1308985457203326,11.134429557994851,-0.1348857319968207,-0.047285811378322,0.9021272010377852,4.176384960807041,-0.7478672223732774,0.2196996612560196,1161.754767946322,1186.995416654845,1176.3066624042103,1206.1432902391757,-143.77565740428497,-18.25599577837236,-783.4704697275349,114.63486349794027,154.9698141095697
0.0825,4.666488441078968,-4.09904420736286,0.2210745003861702,-0.0957703964283593,0.2286689653860507,0.0220574856085903,-0.0033667462566403,0.0030828802820706,-0.0094797214054575,0.999944562825336,-0.0914396503775848,-0.1353481299735882,11.128019481039852,-0.1358252653420761,-0.0477332923538781,0.9052856677461442,4.17606735765266,-0.7479607589417822,0.221953515181359,1161.2663960472848,1187.1553098249387,1174.0204386615328,1206.4288940512097,-176.45180446461364,130.3326307566748,-863.8281378492129,67.64990943529477,154.96631190584023
0.085,4.421993914499243,-4.078142440390476,0.2065407792008665,-0.0843450302398549,0.2190822593460548,0.0231522699988732,-0.0034821746359329,0.0033554827507811,-0.0094912713994255,0.9999431239288202,-0.0854903974081951,-0.1392475013022941,11.12126881310847,-0.1367308539953256,-0.0482087743714787,0.9084435765952764,4.1757440767171445,-0.7480559672562879,0.2242145772083707,1160.872508923999,1187.6470798086284,1171.9875217149643,1206.481539786352,-101.0252784400108,260.5473315975812,-799.3389769208981,-53.05840287855967,154.96326866981846
0.0875,4.102240412999611,-4.056808824934159,0.1707083805371161,-0.0737090311265059,0.208560800591077,0.0240174964611502,-0.0036079766364748,0.0036182276242955,-0.0095035799851207,0.999941582418424,-0.0784049169803028,-0.1426191868282146,11.11418637556466,-0.137591406702873,-0.0487066243067494,0.9116031292901248,4.175414457681723,-0.7481531126123971,0.2264833626160236,1160.7612696550848,1188.4580464829266,1170.0237437769283,1206.1636020368169,37.15249275101094,366.7415669155168,-742.2039749523733,-214.8954612021502,154.96010759798042
0.0899999999999999,3.740196190843241,-4.01541725094316,0.1289000318366595,-0.0638589441086531,0.1977867453401784,0.0243016249013828,-0.0037478217315676,0.0038692718668699,-0.0095146459711536,0.9999399618383432,-0.0702017712520517,-0.1455547107984915,11.106774507314432,-0.1383958578788041,-0.0492250569163493,0.9147648555070558,4.175079432519857,-0.7482539265167897,0.2287608818162303,1161.058271387754,1189.480787643206,1168.2765018402024,1205.4070624803414,239.6334531205416,443.79851506469174,-610.5229802187762,-433.3677224893116,154.95685726882144
0.0924999999999999,3.358874175347624,-3.9408446019651846,0.0964115165503175,-0.0552317038950987,0.1877257390431274,0.0238488181200209,-0.0038967351631356,0.0041089402763485,-0.0095242285358361,0.999938290310544,-0.0609630022061787,-0.147975794852589,11.099033820910522,-0.1391374657282665,-0.049747045644473,0.9179281227935572,4.174740183398501,-0.7483591332267061,0.2310473847989114,1161.9594369206875,1190.67703905825,1166.9711288758344,1203.9967634243703,533.5834664866975,538.9984092299069,-435.98225757514183,-786.5846623875306,154.9535092771944
0.095,2.926072617078394,-3.817808677155748,0.0809901255908474,-0.0468374835588601,0.1769824093010931,0.0231151548300146,-0.0040466286966762,0.0043360064747082,-0.0095353839610328,0.99993658344893,-0.0507489226667335,-0.149755556336374,11.09096620883936,-0.1398073947612274,-0.0502511328260747,0.9210917689269864,4.174397741268285,-0.748468318124953,0.233343859088319,1163.7261887201876,1192.1757796893555,1166.0965905523267,1201.4741391684036,740.9745889012803,535.3457422296283,-191.82772936619568,-1058.2559437900716,154.94939134360615
0.0975,2.618485354322497,-3.6928324335315295,0.0862195404568503,-0.0414445777859844,0.1688040168119427,0.0228773758378615,-0.004190293712187,0.0045476450309525,-0.0095473411680418,0.999934899896682,-0.0395956744861022,-0.1508030879647773,11.08257638749868,-0.1403956218459784,-0.0507173421156269,0.9242539557880232,4.174053227709938,-0.7485802619697669,0.2356510562627582,1165.664309865194,1193.3537677693982,1166.0119902290035,1198.70548370542,835.7092187743085,424.3562513208413,95.58967679013213,-1220.7641706544096,154.94588506116972
0.1,2.3902080586697134,-3.542003711657914,0.0978101770275594,-0.0369160434310696,0.1609710542355636,0.0232883114459722,-0.0043223160867681,0.0047388867710408,-0.0095575168879531,0.9999333219635684,-0.027500382976965,-0.151081138797053,11.073873908469537,-0.1408899930124312,-0.0511298728094001,0.9274125465696512,4.173707815279601,-0.7486932577373545,0.2379685434789945,1167.904734814059,1194.2975609459595,1166.5745389362771,1195.3703183151315,1015.2718895832083,327.52972644652766,365.06132017084343,-1550.4538395887253,154.94231169575716
0.1025,2.2082440123685068,-3.311909694677028,0.1021382778316063,-0.0318281774235014,0.1514514171164586,0.0243194073091879,-0.004439933977738,0.004906506238894,-0.0095654491642895,0.9999318966183984,-0.0145037859572176,-0.1506226891606811,11.064873584815247,-0.1412831550607517,-0.0514801360199855,0.9305642514201232,4.173363709394831,-0.74880639526941,0.2402955875461231,1170.74066931311,1194.9914164016309,1167.8372968298577,1190.9532145074763,1042.2948418784035,164.19434607255457,522.3201985537354,-1645.8963914903084,154.9379576407418
0.1049999999999999,2.1149717235120535,-3.0580479687502424,0.091173192605179,-0.0276248396621195,0.1432456990801144,0.0251712831471885,-0.0045349955407768,0.0050483813808181,-0.0095681739469474,0.999930715288898,-0.0006754807218614,-0.1493477170086106,11.055599228866276,-0.1415719039831054,-0.0517505952030061,0.933705873763291,4.17302329120343,-0.7489187561219764,0.2426314411944483,1173.1162090234511,1195.1185326763225,1169.186139929046,1187.1408363576802,935.4481226906519,-49.987953047275454,544.4121205075145,-1496.5768088592567,154.93428194421145
0.1074999999999999,2.0423977655257355,-2.717260308674133,0.0677055612601188,-0.0230113980414972,0.1352594296399938,0.0255749199808673,-0.004599758556068,0.0051684046831618,-0.0095612896915897,0.9999298525629892,0.0137819057563149,-0.1471888747859065,11.046082189759582,-0.1417658347989543,-0.0519257519817187,0.9368325025668904,4.172687104493443,-0.7490293427581804,0.2449753225794322,1175.4179099265632,1194.7414766363945,1170.5593574323952,1183.47033046318,899.3592408066426,-228.56664321870971,511.1639122344054,-1402.5923263345237,154.93056529147563
0.11,1.948712197544864,-2.2979669764639588,0.0413655011081286,-0.0177287870598064,0.1281631741725489,0.0255645506106429,-0.0046326544914533,0.0052674038917522,-0.0095416183963968,0.9999293553673708,0.0287378251501362,-0.1442127116445378,11.036362403691768,-0.1418695212062253,-0.0520033711397844,0.9399395664046688,4.172354642535906,-0.7491383053700899,0.2473268814067793,1177.6130052274843,1193.9756994602287,1171.741959490218,1180.1278747260076,842.0546213421395,-379.97459470298014,389.4528437073401,-1211.303121411628,154.92682000750497
0.1125,1.7849495932222617,-1.7927239997297209,0.0212014871166454,-0.0118250682111914,0.1228155141072235,0.0251780127073568,-0.004633078978221,0.0053581106157361,-0.0095079436611258,0.999929176431606,0.0438043867411889,-0.140503011643557,11.02648714883325,-0.141910112137094,-0.0519850221083181,0.9430191133612538,4.172024410899963,-0.7492451996891283,0.2496870725952834,1179.628183033274,1192.8416036628796,1172.506621650932,1177.413814856122,831.5896164087,-545.2548527287486,222.20786699672297,-1002.8014822067224,154.92304574225471
0.115,1.4705103887973563,-1.1131762700140204,0.0103019544199417,-0.0049002279679389,0.1184865180210635,0.0246089974543326,-0.0046002133800462,0.0054461036519228,-0.0094652804906561,0.999929240746222,0.0587591311029546,-0.1361265538773921,11.016513960158663,-0.1419008450505411,-0.0518744278854031,0.9460654232315931,4.171694881579868,-0.7493494012471869,0.2520561739821917,1181.7709533095278,1191.2494251965852,1172.8529988252017,1175.113867314974,730.8216075857209,-587.9106886430685,44.1035652002483,-666.2146284556906,154.91848914815603
0.1175,1.1069341760530436,-0.5094633087560173,0.009920474853227,1.3813277938528275e-05,0.1163628806762916,0.024325033088892,-0.0045427559966353,0.0055391899400361,-0.0094192457758418,0.9999294096548436,0.0733399293603777,-0.1313455539260661,11.006505264865243,-0.1418588406173447,-0.0516941990692543,0.9490715424080794,4.171364545618656,-0.7494507053172231,0.2544355382725299,1183.2822910712025,1189.9020502196643,1172.7271394769332,1174.0827417138435,538.7722855606636,-499.8843383796621,-98.57819798526197,-231.89217083240732,154.91467268591052
0.1199999999999999,0.6649432647174603,0.1028750835738833,0.0088652861177303,0.0033764277567618,0.1156235550977206,0.0244363910600126,-0.0044779188084615,0.0056434342997901,-0.0093752473421493,0.9999295182858504,0.0873326783264813,-0.1265914090526095,10.996527289473311,-0.1417977829201007,-0.0514835180683253,0.9520308412019262,4.171033922776509,-0.7495494005924261,0.2568247592720355,1184.4648147373312,1188.750003504687,1172.3601078352751,1173.954406460812,435.9031394745679,-416.39424912955366,-162.52758228902195,116.66217304114092,154.91083955123088
0.1224999999999999,0.1077341968729861,0.8079916876910446,-0.0066572881391156,0.0048788022839339,0.1166935225968542,0.0250555972038983,-0.0044177740694064,0.0057668719043093,-0.0093380423924744,0.9999294222018756,0.1004868364356081,-0.1221631192845283,10.98665010515889,-0.1417353994944149,-0.0512718401594636,0.9549377417879789,4.170705280042853,-0.7496460150599211,0.2592246974919016,1185.4618067685751,1187.8200789740165,1171.914501565488,1174.6660525790492,290.2112491224213,-242.2361348113097,-130.78952170430955,361.29000510254593,154.9062233915092
0.125,-0.3208472481382047,1.3381656124618115,-0.0370573533750664,0.0035636259154706,0.1195453555967334,0.0257277518533613,-0.0043737157854983,0.0059140401306267,-0.0093043246418941,0.9999290763881384,0.1126358171292692,-0.1183250006477792,10.976943374140935,-0.141683627812016,-0.0510848653305559,0.9577892758922816,4.170380226861876,-0.7497421058927425,0.2616348381364612,1185.9158709829433,1187.5388228306304,1171.7061602267538,1175.7608564863247,100.81061474065783,-2.336433650179968,-29.555401218567543,476.4807718839161,154.9023645478682
0.1275,-0.6495237855721898,1.770925756069265,-0.081948892285162,0.0002328054816713,0.1241463858344737,0.0259429513766162,-0.0043520802862479,0.0060887621346407,-0.0092719365753929,0.999928453499788,0.1236353600604126,-0.1152106465276751,10.96747316722194,-0.1416528064846416,-0.0509385012222944,0.9605851702922236,4.170058240210293,-0.7498391145728958,0.2640532451940073,1185.9658598422786,1187.8083968057656,1171.7667245593952,1177.0484564384687,-64.54943706157786,223.49751884630655,81.89467211022922,531.7761902675552,154.89849467950393
0.13,-0.8895379678207262,2.1461868408487286,-0.1370363288745558,-0.0042099438709509,0.1308658585499726,0.0256114122833834,-0.0043484997661905,0.0062846172666628,-0.0092351012260824,0.9999276646556868,0.1335700896462856,-0.112698912871736,10.958298566069548,-0.1416335054115495,-0.050826430688948,0.9633313955704256,4.1697380778763,-0.7499378152640865,0.266477463409002,1185.5931237976351,1188.6563104248619,1172.1156335873047,1178.4197374376624,-193.40361544564055,363.9179163748846,153.24405662431658,423.4404147622623,154.89383925264585
0.1325,-0.9604929700931232,2.3282365786094803,-0.1702387773889243,-0.0073757606722147,0.1367752194681195,0.025071305746369,-0.004352870610892,0.006490743736027,-0.0091913772452935,0.9999268436043796,0.1426264257509637,-0.1105246482326312,10.949466860892375,-0.1416065173681928,-0.050731629811526,0.9660379782328,4.169417505992489,-0.7500375321590508,0.268904085667172,1184.9988417650504,1189.62798638764,1172.5329448425168,1179.16565851228,-264.3898239593452,392.0305585707407,160.50225175913496,175.79229510220088,154.88995057256767
0.135,-0.9203523492973908,2.3745349903313655,-0.1756073823704168,-0.0094748491586984,0.1427130466871376,0.0242555238844152,-0.0043594995658432,0.0067000627248727,-0.0091406047343626,0.999926063226304,0.150913464741167,-0.1085039508051949,10.941009805856586,-0.1415586625045948,-0.0506459746203219,0.9687152273778888,4.169094567698777,-0.7501375316832483,0.27133211916304,1184.2711746778386,1190.6164632177156,1172.9181448461006,1179.2986989131734,-281.0183796514591,360.5108852645113,125.41449685400028,-57.378890562222246,154.88605258102396
0.1375,-0.8110522331983877,2.3139453576759976,-0.1504129310924056,-0.0105931309446776,0.148780317116484,0.0232821169166474,-0.0043646221519192,0.0069025716434823,-0.0090893179869907,0.9999253477223587,0.1586092086450459,-0.1064784182505059,10.932942370207943,-0.1414698735714229,-0.0505667522803266,0.9713751322916584,4.168768614486244,-0.7502365410782204,0.273760555388765,1183.5937498667931,1191.4305408139624,1173.1600173267868,1178.8787640594687,-217.13829494206016,249.43571525000127,40.70791620788437,-282.77152461414494,154.8821467272107
0.14,-0.637726668631094,2.137364913043852,-0.0867629322834125,-0.0113344640489824,0.15483108554519,0.0224090357427313,-0.0043625161182383,0.0070877332469751,-0.009044875566265,0.9999247262137057,0.1659065867138108,-0.1042336740243617,10.925263177755747,-0.1413189537795462,-0.0504875624643928,0.974030137368959,4.1684411769831815,-0.7503337398910708,0.2761887421415247,1183.1854832031283,1191.8636417939656,1173.12168442714,1177.8848412901027,-72.37624702156602,83.09162630935128,-98.96118461551842,-513.5196373818867,154.87823089806827
0.1425,-0.3616671045515297,1.8200653579879127,0.0246851017577464,-0.0127774906227825,0.1612892099447438,0.0218072512809773,-0.0043482337387466,0.0072525207263515,-0.0090094296674675,0.9999242157248928,0.1728379403129129,-0.1015650963681826,10.917955952511738,-0.1411002792577898,-0.0504019399437208,0.976689562388293,4.168115630292419,-0.7504284999170334,0.2786178673909323,1183.2318686316853,1191.845998945509,1172.6652114037092,1176.3111658725595,124.11983486713385,-87.8008488944492,-241.572945989584,-585.3663871723737,154.87351947154312
0.1449999999999999,-0.0723710114051086,1.4985664157763103,0.1327567209895692,-0.0142412144135964,0.1655141470686667,0.0219065886313074,-0.0043180399598975,0.007399734137355,-0.0089820861410231,0.9999238085452276,0.1793128612877417,-0.098289787854708,10.910991676938192,-0.1408206491182209,-0.0503044934765092,0.97935908846733,4.167794398674446,-0.7505201782758976,0.2810509564409122,1183.806082377464,1191.4246375494931,1171.913819697192,1174.9580093542409,335.9594425819539,-215.98125887198972,-378.687280499982,-483.88970574315186,154.86958226969244
0.1474999999999999,0.2738285606401777,1.1617533397201305,0.235762561950145,-0.0151735116961163,0.1682597402007719,0.0227573545373896,-0.0042735964257007,0.0075353923235595,-0.0089622121280037,0.9999234369877946,0.1851768584665474,-0.0943398406685142,10.904330780889664,-0.1404937117411233,-0.0501996052752112,0.9820404511928402,4.1674776339858735,-0.7506087229347871,0.2834905136000792,1184.911665844595,1190.7660926511492,1170.771775001209,1173.8917173438435,569.7514424456581,-277.37229651802386,-590.774238282574,-344.62932563051226,154.86563296647074
0.1499999999999999,0.7277153757491757,0.7890108227765471,0.3328790660621282,-0.0148184405564754,0.1700428114421398,0.0244495047367923,-0.0042249016605843,0.007668326053433,-0.0089460672559706,0.9999229838686756,0.1902212060064072,-0.0898309693951002,10.897926454440432,-0.140139113097289,-0.0501060231145844,0.9847310569923136,4.167163467142616,-0.750695529395182,0.2859393857412805,1186.6548395896923,1190.0377760669032,1168.9599485057793,1173.2348627260883,663.328394064319,-204.45843948696148,-736.1367902035446,-114.86855408520557,154.86087919991175
0.1524999999999999,1.103288422044071,0.5317689440931129,0.3847076846830718,-0.013048058480524,0.1706125074478741,0.0260360547326864,-0.0041758507952126,0.0078061156659964,-0.0089310758095782,0.9999223337942303,0.194269413600196,-0.0847495001367006,10.89172990944288,-0.1397741407866468,-0.0500292699443285,0.9874267150726396,4.166850551127359,-0.7507823343921042,0.2883986272947244,1188.2283078149167,1189.7438004537144,1167.0910910501916,1173.3173745734175,594.0364336694068,-4.510797486318547,-819.5148712099574,163.493310940339,154.85690523618567
0.1549999999999999,1.4241872621756504,0.3466633940153819,0.4103162023177553,-0.0097233804402531,0.1706611096197511,0.0274149693129228,-0.0041289830742609,0.00795602820173,-0.0089200943845089,0.9999213401373028,0.1971581213631069,-0.0790588646000522,10.885693141914423,-0.1394150303637702,-0.0499718986908056,0.9901213534334788,4.166537247447919,-0.7508707562668803,0.2908688389056248,1189.625021758039,1190.0152220794716,1164.8623741497295,1174.05232928079,512.6614005861934,270.494159828331,-1057.0336257854697,445.24801179154525,154.85291808641216
0.1575,1.6848147990265638,0.2062215547568958,0.4275738596503225,-0.0042788921026234,0.1705283914086717,0.0286147230312269,-0.0040874456472008,0.0081255115815279,-0.0089146146919958,0.9999199722109626,0.1987267646882003,-0.0727487965165738,10.879771667724121,-0.139078707514952,-0.0499356815089152,0.9928072758559912,4.166223704730472,-0.7509620312683112,0.2933499356563515,1190.7916148178476,1191.0962712528562,1161.8059229212643,1175.5436146323755,312.811522547008,508.29604556943144,-1173.483761624674,615.846970411348,154.84811823780893
0.16,1.7612623567333248,0.1438360497343833,0.4460387049588013,0.0009943293886305,0.1704863136277419,0.0292261820085875,-0.0040530608031692,0.0083189583978429,-0.0089127302100341,0.999918269917024,0.1988880409992024,-0.0657971422655426,10.873926278574318,-0.138776852870532,-0.0499175306979347,0.995476901466587,4.165911405824494,-0.7510564404209519,0.2958437802521476,1191.1890793707744,1192.5567023073188,1158.994955341606,1177.1315641328467,25.376817719370568,651.5712992293624,-1155.211527314303,665.9658981654496,154.84410578754964
0.1625,1.6640893356324231,0.1120510900875761,0.4833484538299219,0.0065643814146771,0.17071219414594,0.0296161370459424,-0.0040269254909892,0.0085274612340878,-0.0089129229321903,0.9999163516626864,0.1978510796600752,-0.0581826856291162,10.868122242091163,-0.1384951821182479,-0.0499119446677417,0.9981263209058387,4.165602653533313,-0.7511544305303272,0.2983507596383855,1190.9184989064445,1194.354127749003,1156.0298652846927,1178.8734441232027,-214.0380029336937,721.4937035776068,-1184.4436409238358,696.5950710680312,154.84008054394445
0.165,1.4186791171673523,0.0825217326583139,0.5402011795588578,0.0119378418377607,0.1712530867996978,0.0300442424534329,-0.0040094509334994,0.008747098829601,-0.0089121985003357,0.9999142892703786,0.1957238020207667,-0.0498925819916235,10.862333200505908,-0.1382297926456102,-0.0499113909957345,1.0007510978081469,4.165298556717835,-0.751255498104032,0.3008691325780074,1190.118889356106,1196.1641708252068,1153.0727371369867,1180.614539488187,-425.4632430906436,657.7069896467941,-1139.1049841443407,674.1448172651866,154.83604465921175
0.1675,1.0130869774211173,0.029678074243231,0.6139631071075236,0.0161617366500664,0.1721916273056341,0.0308323460319669,-0.0040014817134891,0.0089756389553787,-0.0089086899667628,0.999912117130867,0.1925852012092484,-0.0409465156370437,10.856540024511435,-0.1379801109038222,-0.0499096515180034,1.0033478992175386,4.164998693048325,-0.751358809612314,0.3033951457401044,1188.7911826909913,1197.642662697237,1150.334340363971,1182.2441682095287,-662.4843604650772,501.1354221873712,-1095.6627135004956,671.1693081622792,154.83199538735295
0.17,0.3940253020686039,-0.0826233346922755,0.7002661120658144,0.0190432131613108,0.1735824867317248,0.032573340301209,-0.0040064559021103,0.0092159850195601,-0.008900130301306,0.9999098077154404,0.1884110530672745,-0.0314453863093091,10.850730163748825,-0.1377556022405266,-0.0499062397655848,1.0059137713737591,4.164702010871595,-0.7514632422026097,0.3059259334634443,1186.8064675537803,1198.6698479361437,1147.5944235694844,1183.9703860289983,-753.1705412417061,222.97965583238673,-873.764960161815,582.6324550270778,154.82711940355057
0.1725,-0.1792185843654944,-0.218591790852814,0.7494466871123731,0.019382430406053,0.1745591051583748,0.0348486831516594,-0.0040203554835881,0.0094689983377725,-0.0088844028468981,0.9999073723221238,0.1832277112521887,-0.0213514246029907,10.844894852387675,-0.1375612933593005,-0.0498864450796747,1.008449069343734,4.1644066352467215,-0.7515674724292603,0.3084591408259195,1185.0253299847827,1198.7575609763987,1145.965515563162,1185.157330484664,-686.6192475481051,-124.28054839474486,-481.6767997906477,407.5064543372715,154.82304056506365
0.175,-0.7431135135518909,-0.3792900796404518,0.7538458279355719,0.0174812650031603,0.1745508636462525,0.0378239268936866,-0.0040419544782279,0.0097311488431815,-0.0088623651236918,0.9999048203798506,0.1771641467168917,-0.0107084068598225,10.839026474211908,-0.1373924559155749,-0.0498426545811537,1.010956676634443,4.164111607851149,-0.7516712073030528,0.3109945421176638,1183.37337131604,1198.04844519417,1145.1860395705312,1186.0079183006847,-637.4175035826768,-455.4242914806785,-136.32024950106887,275.69868767600514,154.81894333291703
0.1774999999999999,-1.3370856731791805,-0.5570260945349714,0.7010550890421876,0.0126823471448913,0.173009001208031,0.0413267113795172,-0.0040718718890607,0.0100033360536151,-0.0088317889084428,0.9999021395510822,0.1702603336458927,0.0003765618328793,10.833118564405144,-0.1372530854126327,-0.0497710811553357,1.013439043378294,4.163816776860259,-0.7517744911982824,0.3135323896699898,1181.8382424668691,1196.4804395189956,1145.2839143156566,1186.535823923044,-451.2204377696456,-645.291602125056,191.3942021385546,94.70910749664698,154.81400209051898
0.1799999999999999,-1.7266541559458186,-0.6568434477175152,0.6208009238298072,0.0069755950412774,0.1707945546721625,0.0434908859931744,-0.0041121430397026,0.0102874925002669,-0.0087898344410872,0.9998993130603891,0.1625403063536554,0.0117460411556957,10.827163966093117,-0.1371491125069238,-0.0496714851701333,1.0158985379986987,4.163522492745252,-0.7518771782287684,0.3160733507564367,1181.1172691271915,1194.8219871835447,1146.143010581224,1186.4814638381679,-143.06954211906475,-667.5768076146592,457.3981312598785,-139.9962765980034,154.80986110032788
0.1824999999999999,-1.9935807615855152,-0.6719676231650292,0.5320653311259657,0.0005038557109232,0.1681211939643076,0.0444768631149411,-0.0041660095304673,0.0105852581951882,-0.0087341699287706,0.999896324627552,0.1540400753813731,0.0231999566136224,10.821153856715222,-0.1370858319485362,-0.0495470141225872,1.0183372878993429,4.163230060167264,-0.751979331240318,0.3186189998238148,1181.122894756274,1193.1425554809223,1147.570904971956,1185.835842540054,178.56237261894404,-668.7268049038715,678.8634012906635,-420.66436624322665,154.80569217228137
0.1849999999999999,-2.199901163347876,-0.5717021617998402,0.4515558614882638,-0.0070193217337736,0.1649007232009936,0.0444302497931791,-0.0042345152982565,0.0109020178279393,-0.0086647160145805,0.9998931145333204,0.1447185079677897,0.0345718080147361,10.815077413405028,-0.1370761393517501,-0.0493977573741799,1.020756031254096,4.162939724381985,-0.7520807400137935,0.3211709290351538,1182.0100809902865,1191.4783531590251,1149.5373275876773,1184.3781420069515,458.4800162836924,-510.4573486697058,697.0113272846896,-629.9331528203305,154.80065257735583
0.1875,-2.3201264566256348,-0.3904976067680825,0.4209381266737499,-0.0124207839774826,0.1627190355937393,0.0440526275815049,-0.0043089659865073,0.0112336508572657,-0.0085819940436587,0.9998897588291848,0.1347419367324727,0.0458964132291688,10.80891928329215,-0.1371137855152644,-0.0492045753852363,1.0231583517266292,4.16265128282744,-0.7521808555305901,0.3237302293382156,1183.4152948376925,1190.5902687375735,1151.0559616083794,1182.6861767759524,660.7049448772608,-225.93461841506704,509.4381976279688,-732.9790805732947,154.79641882006297
0.19,-2.4489455021137543,-0.1274860373970793,0.4238358562956118,-0.0167106063953121,0.161594551057795,0.0444541864695845,-0.0043875046307502,0.0115668803187129,-0.0084873745178803,0.9998863998442664,0.1244780874884911,0.0570543069433267,10.802662384681643,-0.1371734940814846,-0.0489629441253475,1.0255490583340428,4.162365511658785,-0.7522801351814109,0.3262975094495234,1185.3136057146728,1190.34868006695,1152.0845185758171,1180.7132466040853,794.8747808346062,11.477735002245016,289.8852449223338,-792.9654438099526,154.79214567250827
0.1925,-2.623755058337757,0.1788269649492669,0.4380082348196978,-0.0206015139652828,0.1615106037681563,0.0456798107769309,-0.0044730890523456,0.0118925523858374,-0.0083836754202621,0.999883111270124,0.1142069770088881,0.0678167522885967,10.79629018432502,-0.1372379579714824,-0.0486793097600281,1.0279309502027971,4.162082821755312,-0.7523790556739169,0.3288720701399406,1187.3896687418655,1190.6476574125847,1152.5053878329911,1178.7213495569026,801.8450658548312,232.46652054926903,0.3270484113272684,-745.2007977673921,154.78783689184195
0.195,-2.8743221351512767,0.502912246646688,0.4425982301506894,-0.0250543086439777,0.1626617948854281,0.0472706864853136,-0.0045716463377343,0.0122052887280004,-0.0082737808633245,0.9998799193176388,0.1041272630824318,0.077888980464513,10.789787168482416,-0.1372972215994603,-0.0483670958294163,1.03030532018213,4.161803384213156,-0.7524776923735153,0.3314536944773068,1189.3228310439467,1191.5110126696964,1152.0861538178735,1176.9872426152483,718.5584153591656,473.43810257689216,-367.52912252936727,-636.7961564493265,154.7834815929564
0.1975,-3.2473554685197623,0.8704535832496844,0.4148275637223697,-0.032249476755762,0.1651857035399381,0.0490372150619468,-0.0046788811447721,0.0124882726810782,-0.0081625391867026,0.999877007740617,0.0946802021486323,0.0872016443118564,10.783136854189763,-0.1373172001825095,-0.0480198259788746,1.0326775536922097,4.161527151632528,-0.7525753978474853,0.3340414296804499,1190.9824608186611,1193.0148479254694,1150.6677422203443,1175.537368774656,433.5068036046774,599.4348587799317,-639.0678411703442,-389.16569858638434,154.77819694575123
0.2,-3.583392341474539,1.1338643724958386,0.3546795709526104,-0.040269008669647,0.1679460413380539,0.0502704278483768,-0.0047868346174167,0.0127346664323566,-0.008055065874133,0.9998744505102092,0.0860873191817099,0.0957680048050137,10.776323527064056,-0.1372835512732447,-0.0476244824154077,1.035050647705764,4.161253528248992,-0.7526713514285847,0.3366340612075528,1191.4903650619704,1194.508186963596,1148.890814612022,1175.0414141223164,-31.063834375936462,615.5384148588831,-771.9613311414826,-26.930083713386892,154.77374128217156
0.2025,-3.892408787496588,1.330235531912162,0.2513913347769958,-0.0503311748121299,0.1713424676883903,0.0512598914689319,-0.004888625003455,0.0129437720564895,-0.0079562154601206,0.9998722495647214,0.0784330797154845,0.1035858333945284,10.769333394287024,-0.1371937154857169,-0.0471710796387257,1.0374257235251945,4.160981508251624,-0.7527653778785087,0.3392311301547626,1190.8271416467817,1196.0925399997639,1146.8079355646369,1175.402718356089,-575.5793307371728,690.8791374326933,-898.9780512448752,353.08632707005887,154.76922826500856
0.205,-4.181260900729542,1.4712227288057476,0.0783151516638466,-0.0634604578453921,0.1762524390754896,0.0521330333699523,-0.0049804645312689,0.0131248956966427,-0.0078685797330656,0.9998702834889794,0.0715815357464439,0.1105965531869664,10.762155694436075,-0.1370651501838446,-0.0466564023188163,1.0398005842839915,4.160710137850714,-0.7528570386045889,0.341833054098446,1188.6124684082845,1197.9625826507595,1144.3959243557977,1176.8068457576667,-1022.3034085358896,666.3173067383917,-803.2896062338287,653.4584969869678,154.76374304082003
0.2075,-4.33395502872851,1.5056188921987619,-0.1020771290338718,-0.074284970660456,0.1806884679804442,0.0524384112495776,-0.0050640848026317,0.0132856192960358,-0.0077890407826974,0.9998684706740484,0.0654295798040921,0.1166380325482766,10.754785205491379,-0.1369113944239972,-0.0460880391566572,1.0421725363102767,4.160438921935381,-0.7529461996743742,0.3444403042932648,1185.7156246041022,1199.4241265334558,1142.7914875334675,1178.670010841024,-1310.914380674564,551.4027724301767,-486.6878293473314,843.8793022554405,154.75911242146523
0.2099999999999999,-4.3887915010317355,1.4622417819284075,-0.308986374963436,-0.0848490557544218,0.1845989461871024,0.0521239585806444,-0.0051453978726751,0.0134377847616596,-0.0077160254499826,0.999866639688168,0.0597739234126899,0.1214774139153337,10.747223211776262,-0.1367540851906378,-0.0454835059316428,1.0445367561378855,4.160168293518143,-0.7530328153820516,0.3470538279223985,1182.0578965049117,1200.7195965129104,1141.962485209061,1181.0262422689439,-1525.6564173602399,481.84480953377937,-164.81334642512667,984.2742329593011,154.75441903517248
0.2124999999999999,-4.363398642756536,1.3688896358428035,-0.5264429979710127,-0.0952921724192331,0.1876917129147178,0.0513542999282575,-0.0052349904384607,0.0135896416053267,-0.0076498818285964,0.9998646274817876,0.0544786378698065,0.1248047550133917,10.739479658293591,-0.1366067310584155,-0.0448712507755997,1.0468883886958456,4.159899071671831,-0.7531170307986321,0.3496731830658665,1178.087342517301,1201.8333505811247,1141.967420801342,1183.5913820058204,-1587.481791116987,391.5147869889548,221.67139360858508,1031.0729389675987,154.74967368471027
0.2149999999999999,-4.243708875911798,1.2332730507286307,-0.7397311930186246,-0.1054558644314185,0.1899577880813322,0.0500101857890894,-0.0053418218308681,0.0137473353584184,-0.0075922136048242,0.9998622952924076,0.0494412666471191,0.1263703894091998,10.731572446610125,-0.1364779895154303,-0.0442772880034636,1.049222710415325,4.159631321968632,-0.7531987264221562,0.3522985245700186,1174.1204875493268,1202.6771704478551,1143.070842177104,1186.1816069637819,-1665.5915296219955,297.3613287344503,722.1264118431002,1102.161056542808,154.7448667193072
0.2174999999999999,-3.993159784639636,1.0332009074402893,-0.9653472982354392,-0.1170640950702759,0.1922826094298351,0.0475182956684767,-0.0054712206058589,0.0139238963193661,-0.0075401491248431,0.9998594571252292,0.0444015839311282,0.1260269724593363,10.72352652121552,-0.1363910213572183,-0.0437195879116081,1.051532824957758,4.159363254559735,-0.753277311831351,0.3549296334527293,1169.759384869191,1203.3201572247967,1145.5780528605576,1189.1021872885344,-1495.43317236339,168.18230067269707,1075.7276564152553,1022.6823987557954,154.7390297067666
0.22,-3.6950034142414174,0.8324295617273773,-1.1084199775834307,-0.1262045008570724,0.1942953870765741,0.044576946509214,-0.0056255937306947,0.0141246791949195,-0.0074925739439732,0.999856030842438,0.039251862040714,0.123718817839988,10.715375871065328,-0.1363525909490018,-0.0432106869214134,1.0538135591990716,4.159092593255348,-0.7533529656278289,0.357567397874366,1166.6433216875096,1203.5180819512186,1148.4494804591802,1191.2950189575608,-1119.1838405854005,6.705662778176696,1239.6482593874211,822.9523007359596,154.73411109801418
0.2225,-3.3019163280820925,0.5843260389303981,-1.1857923143922255,-0.1349345529583271,0.1965740208104661,0.0409048383458452,-0.0058002546209196,0.0143453463605637,-0.0074497483221861,0.9998520950489312,0.0340795615362441,0.1195717708773332,10.70716303770634,-0.1363491537587621,-0.0427485364224451,1.0560624013534343,4.158819040306233,-0.7534258017799648,0.3602135712500417,1164.163465666264,1203.3536855386878,1151.7762941574947,1193.2169487922142,-944.3103070220324,-149.55823370232778,1478.4291849759925,791.4230746536751,154.7291403943013
0.225,-2.7218631956471553,0.2219537987472353,-1.1954156916134102,-0.1445125083960637,0.1991325750014051,0.0363714780127043,-0.0059848393498573,0.0145787252233839,-0.0074123804567762,0.9998477969454552,0.0290216445965467,0.1138609961796277,10.698938898004796,-0.1363618029436834,-0.0423191025787704,1.0582777183775531,4.158544048319089,-0.7534955824464388,0.3628683574112588,1161.9217701523996,1202.7702907827068,1155.84162638406,1195.2521343308292,-707.9003583937258,-265.4178772173507,1444.31226103611,711.0844400510807,154.72312183307912
0.2275,-2.1578021153616542,-0.1285638818881388,-1.1418389966576987,-0.1511598029427765,0.2004493664507509,0.0329597184779712,-0.0061749768679021,0.0148209591717405,-0.007382355477061,0.9998431936278556,0.0241360736850379,0.1067594791930348,10.690764371529625,-0.1363795377851667,-0.041921173067056,1.06045650737019,4.158270500114534,-0.7535616930358378,0.3655326268052032,1160.6239638742954,1202.026596152601,1158.9978554626753,1196.7723709924696,-414.1590039407216,-326.2571634981211,1163.2917660955616,584.4603722821824,154.71806729683811
0.23,-1.534473842424407,-0.5036107060150764,-1.0465095736565937,-0.1559169705255535,0.2001910783277924,0.0302085505869121,-0.0063665942630448,0.0150750893925429,-0.0073583704799225,0.9998382689513268,0.0193285251935904,0.098457671562397,10.682706326908376,-0.1364075863507461,-0.0415531743432095,1.0625944180341267,4.15800050939927,-0.7536240510862735,0.3682057051534606,1159.850975132696,1201.1390049652164,1161.658085214538,1198.17443619224,-237.2808552087006,-387.6262509121258,1024.087425712104,601.4720877118629,154.7129801471581
0.2325,-0.7587665695646721,-0.9343548995898722,-0.9176575582553828,-0.1592247598104459,0.1976174569672161,0.0276174205268927,-0.0065574538442873,0.0153461941180957,-0.0073366260365819,0.999832991990046,0.014458804836086,0.0891297362301655,10.674836114488208,-0.1364569973450622,-0.0412163286665333,1.0646874999705649,4.157734203315502,-0.7536835736626404,0.3708868737935491,1159.437559598252,1200.0884648980405,1164.1182925912356,1199.7797314310287,-83.10114652254006,-354.62669395319574,774.4809169210832,578.8510739923817,154.70684854549015
0.235,-0.1221290916269176,-1.2417913814034975,-0.8226684715244243,-0.1600172084325488,0.1940387826836231,0.0259694049631077,-0.0067481052236095,0.0156311928511317,-0.0073148811052638,0.999827430369153,0.0095593124082288,0.0789130474064565,10.667228473838044,-0.1365223312354363,-0.0409173829079901,1.066735386250912,4.157471474475259,-0.7537415647384265,0.3735749786801241,1159.435469400083,1199.3658714954504,1165.5304897991434,1201.068691562202,42.9298729145557,-224.5147317383724,443.528085331172,499.8212555399273,154.70172514558126
0.2375,0.4677917486122463,-1.465791204808237,-0.7644257514963025,-0.1589604645313164,0.1896846658838273,0.0247319538743885,-0.0069290887785208,0.0159208175746283,-0.007292287421276,0.99982179950565,0.00479276197875,0.0681776575971654,10.65995560148746,-0.1365856317512672,-0.0406411900786425,1.06874212611272,4.1572119134741765,-0.7537975627603547,0.3762695288610442,1159.6522089628247,1198.9658912393484,1166.3359330178916,1202.2788377087284,97.82128232882361,-85.04754031073429,240.37337766712992,461.31480272770415,154.6965991758788
0.2399999999999999,0.9971410457079216,-1.6113781285006823,-0.7478621648078425,-0.156544581896463,0.1849285454041478,0.0236103008142652,-0.0070991238887386,0.0162028386853042,-0.0072694593324499,0.9998162954714354,0.0003877824217685,0.0571338080097106,10.653087346823156,-0.1366226515069406,-0.0403895666976978,1.0707140618747089,4.156954799009148,-0.7538501500111856,0.3789683056094568,1159.9245758117274,1198.9406337938967,1166.732356687479,1203.3752655758403,90.64748272885524,96.7850956270472,92.45417811002925,398.7038133424013,154.69148071368843
0.2424999999999999,1.4369119353318625,-1.668030725144439,-0.7850839860619465,-0.1528486656969413,0.1800185459284374,0.0224150277660442,-0.0072553565127269,0.0164668001569404,-0.0072436248019031,0.9998111288740344,-0.0034603547538334,0.0460345434286953,10.646684756418942,-0.1366132653127183,-0.0401592436507684,1.0726593207506443,4.156699338819118,-0.7538983578122185,0.3816682654163217,1160.1054463764688,1199.4498167174838,1166.7982039084416,1204.2723567754404,25.676858394990607,348.313050378965,3.756756217808285,337.969721688614,154.68638398137503
0.2449999999999999,1.8538679707616537,-1.660532666803467,-0.8837876241456502,-0.1476664800909286,0.1747541394960926,0.0207678169848611,-0.0073981088734516,0.0167090169725211,-0.007210112933454,0.9998063986675164,-0.0066946903203529,0.035069338842065,10.640796639462687,-0.1365519916812509,-0.0399521520442997,1.0745857188959749,4.156445148679707,-0.7539422807315265,0.3843683818420337,1160.0529601037024,1200.6821990457915,1166.751140468568,1205.0651141842836,-75.61391987246672,537.6508297327288,2.177401745439054,239.73840506137077,154.6803098402499
0.2474999999999999,2.111604746955604,-1.6211818303994665,-0.9964038940087556,-0.1431194775983532,0.1712129405875315,0.0190198274289228,-0.007527753766331,0.0169261568011105,-0.0071691190066924,0.9998021674965528,-0.0092611699445754,0.0244276602255758,10.635457872772594,-0.1364339113875392,-0.0397698369767377,1.0765021277318372,4.15619330369554,-0.753983508738368,0.3870684359488997,1159.7273767771067,1202.1380708661475,1166.8090909171688,1205.4710488007474,-183.0208598832085,630.2340826003723,86.97573518629717,106.4251862488162,154.6752950370641
0.25,2.2810933084616902,-1.5831925145583368,-1.1140476809361517,-0.1381983313723938,0.1683273803915964,0.0165451299480231,-0.0076436871049944,0.0171252092666456,-0.0071203647797444,0.9997983362630616,-0.0113186158091737,0.0143133194604291,10.630685776171244,-0.1362764964984567,-0.0396097676574902,1.0784150782582056,4.15594402182856,-0.754023770307157,0.3897676202115787,1159.1378558042863,1203.8333694587934,1167.1860191444996,1205.5972401155277,-291.2537149781653,739.4290831359733,271.0352688664441,-13.67040667137188,154.67034297117735
0.2525,2.383050261236729,-1.5668247371814004,-1.2249546586256994,-0.1312296004305166,0.1651305473187538,0.0125400943951717,-0.0077463383017945,0.0173113822150827,-0.0070678887225076,0.9997948019630905,-0.0129819102701376,0.0048990122485736,10.626482742013692,-0.1360931698238715,-0.0394705094386001,1.0803311004189164,4.15569748287392,-0.7540644219270022,0.3924663950550553,1158.2711082022158,1205.8352162818271,1168.1642672615012,1205.4026967673904,-313.47177099560184,684.5672367897345,449.4342156922808,-130.33705027378335,154.6644887738536
0.255,2.3831083185250246,-1.5834780747845087,-1.2693782074145608,-0.1243361587500727,0.1624261836468355,0.0086167614038584,-0.0078353472360995,0.0174843830589603,-0.0070160314565692,0.9997915641061552,-0.0142428062923324,-0.0036398448763189,10.62283790092386,-0.135885320209854,-0.0393468755848774,1.0822570750421767,4.155453454158067,-0.7541064912775367,0.3951677162504305,1157.5704969493083,1207.256205642742,1169.433190222961,1204.9455548641588,-235.82128348834863,477.39543869397454,579.5573030377449,-236.91615454886207,154.65969505167115
0.2575,2.3065653673802764,-1.620796949935229,-1.2493768748398415,-0.1170437499098699,0.1593126835741666,0.0049194340437786,-0.0079151110027755,0.0176425517728354,-0.0069690605263382,0.9997886127916225,-0.0150581417821656,-0.0112481157007353,10.619728212913161,-0.1356509092585229,-0.0392422023681458,1.0841981049952667,4.155212217532933,-0.7541511392280301,0.3978737122476765,1157.092001784774,1208.2221934752972,1171.06205377669,1204.2181159946463,-118.99732367542119,298.441423551412,748.6793631756419,-357.61227800276134,154.65500238093435
0.26,2.169936539398787,-1.6585389137485396,-1.1511331914003204,-0.1094995659422446,0.1547169428317854,0.0012829006485867,-0.0079929530400179,0.0177868069465065,-0.006933078706776,0.9997858595523272,-0.0154358349747644,-0.0179560034880001,10.617119659388194,-0.1353927505365674,-0.0391653773029889,1.0861563693013063,4.1549739659139675,-0.7541988014016688,0.4005861859477077,1156.9755103309312,1208.7484127604991,1173.1765870388392,1203.1574934741448,53.20603985801421,89.38658826764359,757.5404136054651,-392.38856821411866,154.64950277615947
0.2625,2.0694584179143862,-1.6560222629671244,-1.0134874857113074,-0.1050126155184047,0.1501264692664867,-0.0011872812519803,-0.008073912038292,0.0179212414297405,-0.0069111912992295,0.99978319887535,-0.0154491659788205,-0.0237719605763365,10.614969922932072,-0.1351200388257224,-0.0391189498758478,1.0881314622117713,4.154738201610326,-0.7542496596281973,0.403306424792402,1157.358031984064,1208.6691264166354,1174.8497558447173,1202.2561731535757,259.7473571424414,-117.809464545462,602.7735113565535,-328.2802632434593,154.64503995568455
0.265,2.046408352603291,-1.5895739312398676,-0.8253996005329289,-0.1022531020583265,0.1449559452225246,-0.0034113255040849,-0.0081618162795392,0.0180484996607457,-0.0069064037174429,0.9997805595380682,-0.015141168596756,-0.0287063430603857,10.61323278657968,-0.1348379736661756,-0.0391026393198333,1.090121874895558,4.154503905180777,-0.7543037066521628,0.4060341778140876,1158.2742471166434,1208.1593654377718,1176.190454595622,1201.5160921579277,446.52471570766426,-247.1223889267092,455.85662861658386,-247.89698677873247,154.6407139431687
0.2675,2.1192151482157287,-1.460415949291746,-0.6004014287719887,-0.1002523733745461,0.1395333747985612,-0.0055835790319789,-0.0082562637346899,0.0181704493285162,-0.0069171588028543,0.9997779422732122,-0.0145408483461052,-0.0327088959181986,10.611861138315152,-0.1345494496777409,-0.0391062705199604,1.0921254201725004,4.154271394475544,-0.7543599046083796,0.4087681939808999,1159.5906555626025,1207.433514472002,1177.1290389878,1201.016688219682,595.9636108638273,-298.36032975508687,263.8465424998228,-127.84505315626107,154.63650992051512
0.27,2.307416530673627,-1.267363062005675,-0.3406457126137748,-0.0978904760711654,0.1345384005424079,-0.0074581788294454,-0.0083537171209513,0.0182933756165946,-0.0069376028045838,0.9997753099869274,-0.01377555746453,-0.0356926272959365,10.610808546927164,-0.1342663567611452,-0.0391127319084326,1.0941380377097203,4.154040887127755,-0.7544165519106943,0.4115083891265117,1161.2540651709623,1206.6675637889964,1177.509687308121,1200.8768668921464,759.3383456731765,-286.22754590446647,36.974630009080975,26.309783393344308,154.63246276005043
0.2725,2.6094453440976086,-1.011371141141628,-0.013486195921509,-0.092465886911992,0.1302586191255119,-0.0083557390358093,-0.0084489114344419,0.0184220991792614,-0.0069615361353442,0.9997726487477068,-0.0129484165987431,-0.0375611612635526,10.610032828816736,-0.1339964700659041,-0.0391021435390022,1.0961554708979433,4.15381214824771,-0.7544727347558184,0.4142545753180705,1163.3873472909684,1206.0023767424796,1177.3139121378456,1201.1482371366487,759.5035823913797,-163.13650924280395,-172.29548495229196,171.7890355915641,154.6277994115093
0.275,2.852827987092136,-0.8324484523215446,0.2461669395038967,-0.0847653202566987,0.1286758306005376,-0.0073730655026817,-0.0085393369669315,0.0185659042765372,-0.0069850769111134,0.9997697928777526,-0.0122652895043939,-0.0383024317054577,10.609496023475497,-0.1337561928145014,-0.0390624762940244,1.09817149582723,4.153583693197803,-0.7545274155089908,0.4170074379189882,1165.0515830829195,1205.8518812427824,1176.6482098833596,1201.7358120701042,590.1124634870934,54.36799656145008,-352.1453987766105,311.01579763967464,154.62408250797853
0.2775,3.0010341586214904,-0.7563134391569039,0.4648638583374602,-0.0749501019662697,0.1286474372726686,-0.0051476490038475,-0.0086237607854467,0.0187264165400834,-0.0070051970888078,0.999766659497563,-0.0117783923896755,-0.0379531843147017,10.609168027213835,-0.1335441840670295,-0.0389858042831981,1.1001814945797639,4.153353876514364,-0.7545804823691193,0.4197679206549465,1166.3379096084038,1206.2742167252868,1175.5531851439623,1202.703316124847,435.61173454600026,328.52687689201014,-551.6134251539365,520.5622230066633,154.62055044493715
0.28,3.0106608771411145,-0.8356989024779732,0.6697621844370262,-0.0634335946768414,0.1287899068331363,-0.0025369911872193,-0.0087001494215374,0.018901078997777,-0.0070203566055402,0.9997631917059784,-0.0114607339360675,-0.0365523814060932,10.609025894326532,-0.133349211123756,-0.0388638169191803,1.1021819853814638,4.153121139134201,-0.7546322763645351,0.4225374025136419,1167.2296417556495,1207.4945156272424,1173.89014275759,1204.3386231851375,205.8142659427629,556.621226760944,-645.2538202411681,684.3699252483016,154.6165356299
0.2825,2.872810580335577,-1.0550642852100696,0.8003112607552904,-0.0550984880767008,0.1281198497353243,-0.0008768460982103,-0.0087691875797388,0.019077601509705,-0.0070296062538433,0.9997594183531104,-0.0110871557586303,-0.0342120164260717,10.609054372752963,-0.1331383892508309,-0.0386952169316727,1.1041722960956724,4.152884904260584,-0.7546828935451055,0.425315459759388,1167.3669809381176,1209.0573228590915,1172.3269160427567,1206.1251657510886,-60.99159019490793,709.8691297002908,-640.6761889690637,801.472392546929,154.61338315705723
0.285,2.607808868675084,-1.4170115538432144,0.9044213542621862,-0.0485287341495463,0.1259137660281519,0.000288493578574,-0.0088353518524201,0.0192516249443128,-0.0070333986223679,0.9997552040573366,-0.0106077350412966,-0.0311391435656057,10.609240557288864,-0.1328967634230613,-0.0384885125369561,1.1061503043785124,4.152646190960483,-0.7547314720744952,0.4281026043683153,1166.9246838046747,1211.043861275744,1170.6867618127446,1208.345985147872,-292.1691476677094,924.1852387213831,-727.6026319163968,1056.8414761258728,154.61043884999955
0.2875,2.1854488137883568,-1.972796987617734,1.006459021568971,-0.0422024258161167,0.1214016168480139,0.0018637888345759,-0.0089002754333273,0.019422912877328,-0.0070333897640202,0.9997506992676148,-0.0100656297863237,-0.0274912464949945,10.609573105497484,-0.1326198581993297,-0.038247149948731,1.1081145209228582,4.15240712515878,-0.7547776445181176,0.4308969950350048,1165.906135199779,1213.6782490526984,1168.6889028831747,1211.409373131718,-419.2893861385116,967.7550505696771,-737.171397391656,1159.1275149883704,154.60715454806046
0.2899999999999999,1.7746834295544662,-2.4984594652697063,1.0648155076306487,-0.0376686729718076,0.1161737798830018,0.0041572663107003,-0.0089647048103828,0.0195937927884758,-0.0070338874825265,0.999746027516745,-0.0095613413844476,-0.0234141632817681,10.61004026332591,-0.132310716261155,-0.037973935903819,1.1100648026199191,4.152169216798055,-0.754821132523284,0.4336965560771737,1164.8282368739824,1215.8826365285922,1167.0009048257864,1214.141622722814,-435.69558268414306,835.6335281580044,-684.3823669423797,1077.3715332955016,154.60463059635723
0.2924999999999999,1.330378558691168,-3.040665477981905,1.076665898898222,-0.0339666863257988,0.1093989322695622,0.007527444111873,-0.0090295355868551,0.0197565087668258,-0.0070354958401318,0.9997414645362788,-0.0089797868652225,-0.0190604010663295,10.610630328375496,-0.1319523994425344,-0.0376715230402019,1.1120057974464987,4.15193427390012,-0.7548622104669636,0.4364976263493823,1163.7276572863584,1217.8564166934884,1165.2669910484628,1216.7962307981954,-416.8421881548962,718.970209110784,-702.8631528967247,1001.3525097163428,154.602333880681
0.2949999999999999,0.8773233304341873,-3.5610507043298583,1.0391893250274593,-0.0312563997026468,0.1014622088175382,0.0110487541050003,-0.0090997550282885,0.019905118457157,-0.0070354165980609,0.9997371840376004,-0.0082386524610696,-0.0146719131625516,10.611326810546794,-0.1315341929816249,-0.0373512417810517,1.1139432428430223,4.15170353858526,-0.7549011415569203,0.4392985181221993,1162.744025933208,1219.477487574146,1163.4865890613028,1219.1483852713957,-343.5108208441304,533.2887124872736,-717.1114462330017,808.5732526569238,154.6002298758187
0.2974999999999999,0.4371775190334742,-4.01416410695103,0.942583183231815,-0.0297860289266008,0.0920884948408821,0.0141133513973301,-0.0091746862873182,0.020036412790448,-0.0070299584840265,0.9997333268555187,-0.0073064810559764,-0.0103702820061014,10.61210646226902,-0.1310534521201011,-0.0370117615770053,1.1158838218240463,4.15147804658126,-0.7549386552033215,0.4420977962513021,1162.0101031821375,1220.5228602559248,1161.6814338172978,1220.83909706148,-253.91518850287844,303.992865163809,-777.3159645650587,524.6679494087398,154.59836301483898
0.2999999999999999,-0.0460195540261714,-4.431735931971582,0.7750172131907727,-0.0293021051432256,0.0790525809398344,0.017012479949906,-0.0092504852576935,0.0201479200379533,-0.0070183467546535,0.9997300015506204,-0.0061580514900403,-0.0062063117683956,10.612938619268215,-0.1305105045607038,-0.0366452753848187,1.117834617869838,4.1512584607239695,-0.7549749371769249,0.4448943103864134,1161.4744499906935,1220.9974518999652,1159.6000092384775,1221.7717250184392,-141.2247578667119,39.861907764043245,-723.2147337328108,126.74773650373923,154.59640257862273
0.3024999999999999,-0.389942011466173,-4.646926830163861,0.6120942682667234,-0.0298670475843065,0.0670418871082805,0.01871478160888,-0.0093206803477847,0.0202349580155909,-0.0070022976720126,0.9997273518657198,-0.0047097694364373,-0.0021688874742225,10.61378567634848,-0.1299015142516121,-0.0362384676949373,1.1198027998557283,4.15104506029301,-0.7550103623249985,0.4476900239938331,1161.303979392804,1220.722169794745,1158.0653601486335,1221.4728357439988,-19.644210927162913,-241.07166337998913,-536.424896490325,-353.7488476612449,154.59500581878024
0.3049999999999999,-0.6486124284257682,-4.707976039186663,0.4517889662023029,-0.0313944053549729,0.0547300431624922,0.0196750527917923,-0.009380909327151,0.0202934695759254,-0.0069850859210702,0.9997254706579431,-0.0028779698627525,0.0017159648866211,10.614603406846836,-0.1292241436176515,-0.0357829623982965,1.1217935793684888,4.150837911111381,-0.7550452138214337,0.4504887667051575,1161.3762289360575,1219.7920935830653,1156.9178847560258,1220.0029807801332,81.29599910903374,-538.0246928678839,-377.1439922678379,-887.827601024127,154.59385938427624
0.3074999999999999,-0.8358222854460767,-4.608749315836826,0.2907426356184687,-0.0342779548712181,0.0405837208764476,0.0201734107968917,-0.0094299992750601,0.0203203176587557,-0.0069683642114497,0.9997244103809438,-0.0005841964585097,0.0053634292449233,10.615342602935208,-0.12847773109964,-0.0352772128484525,1.1238095183272339,4.1506367317273005,-0.7550801529821313,0.4532934783819673,1161.7104593883491,1218.0320463304056,1156.1796401872944,1217.033697738878,166.3150790327107,-730.6302925844186,-144.66719824299602,-1240.1573151964828,154.59277854582717
0.3099999999999999,-0.8772300515983579,-4.3991586036912445,0.1979568781639212,-0.0373234673085343,0.0297438779110546,0.0202337520762394,-0.0094745456880129,0.0203189269420735,-0.0069508233546139,0.99972403286865,0.0021251549552479,0.0085334685018439,10.615950349996867,-0.1276754005679018,-0.0347368984771071,1.1258487308171188,4.150440375083153,-0.7551157027939422,0.4561063534205115,1162.2078043312213,1216.1389421201432,1156.1945487648109,1213.8021942041507,255.47462378603967,-817.1114199204105,145.27986329499055,-1364.8790210527284,154.5921279441092
0.3125,-0.798840673917182,-4.083976479137387,0.1580870178481877,-0.0403863869054609,0.0199628543129258,0.02013719904418,-0.0095165776655551,0.0202962125677902,-0.0069285509095374,0.99972418898279,0.0051404495289835,0.0110951900262687,10.616372309744104,-0.1268369691407697,-0.0341675485922615,1.127906914199788,4.150247141988396,-0.7551517312869456,0.4589291675625912,1162.9878325072796,1213.9464892308035,1156.9060395037695,1210.2093026336145,423.8877707993193,-1002.6119840546916,462.83303366058095,-1550.4172349794756,154.5917425749182
0.315,-0.5868610411333935,-3.611594977000701,0.1719419806702457,-0.0433509472286715,0.0091907415148552,0.0200502944014661,-0.0095607511031654,0.0202606618861809,-0.006896158516687,0.999724684884884,0.0083277791457033,0.0128766480313506,10.616555557591173,-0.1259842460356,-0.0335813045429304,1.1299779816851578,4.1500556689891885,-0.7551874784870227,0.4617616258638507,1164.3272431852179,1211.1258821998697,1158.5087139331135,1206.0501080292531,563.9030757619362,-1046.6005977845716,690.9875169648325,-1420.5200987459634,154.59159386005734
0.3175,-0.3400438581035034,-3.1561694183889144,0.2284892220285257,-0.0447089778512983,0.0010158673241077,0.020139936413481,-0.0096057614369055,0.0202234081891875,-0.006849450580525,0.9997253218490922,0.0115011684198019,0.0138495797711997,10.616449428877152,-0.1251434855503607,-0.0329783362007173,1.1320550813064363,4.149865519673296,-0.7552209997184383,0.4646026471752635,1165.8073478860892,1208.7134862418807,1160.3609770885937,1203.1067021398846,659.7519621704572,-960.0111023135913,810.4125950759674,-996.0954485299671,154.59173691320214
0.32,-0.0623545268873501,-2.655139245244018,0.3171763505253718,-0.0446839167432263,-0.0059723599172609,0.0205513944900586,-0.0096557757048612,0.0201901878350209,-0.0067864864108093,0.9997259442726116,0.0145913628195273,0.0138899064703194,10.61600893871402,-0.1243270700608921,-0.0323728790947445,1.134132480110378,4.149676732991807,-0.7552507290430843,0.4674509152423503,1167.62600299607,1206.3258266883015,1162.5607769084936,1201.0696307866035,764.4428537563718,-941.1726045811056,904.6431069609744,-635.4309558475501,154.5921641347702
0.3225,0.2108018113465558,-2.131062538887467,0.4176590358666666,-0.0437112645628393,-0.011767163228973,0.0213256001756125,-0.0097151778126987,0.0201654632415817,-0.0067071955254272,0.9997264139724445,0.0175543229518209,0.0128900236816834,10.615194124885091,-0.1235430300623001,-0.0317811771903407,1.136205313274318,4.14948933006804,-0.755275799019105,0.4703066924577544,1169.629562154871,1204.0076232189751,1164.8841926233983,1199.929547360647,808.6977815222774,-902.4472987986419,920.8782522095581,-241.05308210268933,154.59283256169036
0.325,0.4519723803830537,-1.598105728900472,0.5119267997262735,-0.0419255241127953,-0.0160608834296994,0.0225822150800332,-0.0097826679264906,0.0201568888692278,-0.0066125034224866,0.999726580801056,0.020272793785843,0.0108840784810746,10.613968958823632,-0.1228054736978253,-0.0312075447953776,1.1382691956831519,4.149302683825009,-0.7552956667824826,0.473168777780718,1171.6694919036815,1201.8135901943083,1167.1651681695414,1199.86436537609,848.6801533117606,-930.6415156196173,952.7782330827897,174.603442598618,154.5937984980743
0.3275,0.6879299211091477,-0.9719493966148964,0.5923341161657453,-0.0393298510484266,-0.0194672199706654,0.0246341058845701,-0.0098522562009205,0.0201646275231059,-0.0065082482713067,0.9997264580062318,0.0227796512897452,0.0080295645939451,10.612303134316756,-0.1221102939492958,-0.0306466887147037,1.1403230082906908,4.149116034253562,-0.7553105595475329,0.4760343633664116,1173.87296292143,1199.354415640877,1169.6480837888123,1200.80256457364,727.2870537039573,-870.9375658696891,844.7096920066534,456.90340797204914,154.5953093372977
0.33,0.840476439503783,-0.4763719592453338,0.6171735616091638,-0.0369095538152861,-0.0210104169817981,0.0267186113691972,-0.0099191454054197,0.0201879906866168,-0.0064014938098629,0.9997260586934248,0.0251167890932813,0.0044799049326557,10.610171067856996,-0.1214505380621302,-0.0300959260489784,1.1423668317270168,4.148928059297571,-0.7553213123515462,0.478901861145863,1175.305927172201,1197.45890236496,1171.3887166295747,1202.1488824159503,455.0928738165562,-725.5811073253875,605.8226437209663,575.165168111334,154.59686643009627
0.3325,0.9595942170886276,-0.0221917754273104,0.5891213128898284,-0.0343862408618479,-0.0215056986408532,0.0288369104658119,-0.0099772503995291,0.0202188214070032,-0.0063005758971168,0.9997255513040348,0.0274739285749683,0.0004366079005987,10.607552525137573,-0.1208016891081879,-0.0295490224444334,1.1444033487848573,4.14873835448435,-0.755328755358584,0.4817705024605682,1176.1484272905127,1195.72651010425,1172.6771970074171,1203.6783904141967,219.4446666022484,-722.6971072754615,441.6495620227575,625.6364427582406,154.598737982813
0.335,1.0884456814549803,0.4612942988042072,0.4976755790680985,-0.0316049425231849,-0.021097249495299,0.0310795082683235,-0.0100247092763741,0.0202532522996548,-0.0062091014188188,0.9997250070693836,0.0299407723545571,-0.003973098224839,10.604430919808532,-0.1201491353745879,-0.0290074966626332,1.146434127049824,4.148546855474798,-0.7553333782715204,0.4846409372513454,1176.4031505052124,1193.8454168285828,1173.5969644396885,1205.2770646297415,-26.975856165972772,-652.7274517745803,222.13696281114588,495.64971223462584,154.60135221578224
0.3375,1.2036916517730278,0.8018014906129981,0.3845326116547374,-0.0296725503130623,-0.0199160409435474,0.0325546522975736,-0.0100611118018628,0.0202935343798418,-0.0061286955137695,0.9997243734350696,0.0324673429826686,-0.0086396578756374,10.60079299459568,-0.1194929450257932,-0.0284746887024567,1.1484588359795576,4.148353963035703,-0.7553355521920851,0.4875140801081444,1176.0135480096828,1192.4628728453772,1173.787881821473,1206.1566389753696,-260.78838710827745,-505.3798071533488,-46.93752603329808,222.95406289435937,154.6038405208932
0.34,1.3428196304056363,1.0601047162909967,0.2544954993918183,-0.027849268270341,-0.0177185212026583,0.0333377501912772,-0.0100860560146817,0.0203355559701704,-0.006063392248527,0.9997237114347702,0.0351284326015686,-0.0134408527400947,10.596630898788508,-0.1188196621988906,-0.0279530108487172,1.1504778950242358,4.148161099491109,-0.7553364108867258,0.4903907042946195,1175.0992085696712,1191.318517792816,1173.362276809522,1206.391834944213,-433.1481766436351,-409.0099961254051,-266.11240376550967,-17.992581732187304,154.60665285326175
0.3425,1.5011629045475905,1.2347550349691667,0.129528185462703,-0.0255463951288929,-0.0145866445993704,0.0333366984180582,-0.0101020958316311,0.0203773081655101,-0.0060171149949027,0.9997230115557766,0.0379466226166034,-0.0183096338030762,10.591941413431647,-0.1181221443921516,-0.0274503262345711,1.152489970665194,4.147970550500052,-0.755337348959319,0.4932722818228498,1173.8478071264647,1190.41782286475,1172.4573198026455,1206.0666760667089,-557.4593686278599,-291.54108933871584,-457.4821100309687,-250.53500837475417,154.60973509905
0.345,1.6647923747050934,1.2925232987263524,0.0303754441316672,-0.022090142121899,-0.0105171265934033,0.0327564906262614,-0.0101119259581345,0.0204173141678944,-0.0059897892936542,0.9997222786018022,0.0409281064443442,-0.0231790831266667,10.586726555389316,-0.1173962733881599,-0.0269728593826278,1.1544924155049499,4.147784206398917,-0.7553380162158004,0.4961606101456485,1172.311911726532,1189.8608123461224,1171.0748662593671,1205.1391599023395,-711.9850925870644,-160.93348563958884,-679.2689629119188,-512.3930227561227,154.61314349134983
0.3475,1.8314561777422984,1.220778359922183,-0.0457237291061785,-0.0165241470009201,-0.0054999151955075,0.0320319600085802,-0.0101199759800251,0.0204523372952949,-0.0059800707072675,0.9997215453736736,0.0441128402169468,-0.0280188751624776,10.580994188174804,-0.1166353985028366,-0.0265295898653316,1.1564818659377225,4.147602589660077,-0.755338397442109,0.4990572997480914,1170.287881663529,1189.6131554365522,1169.060974988086,1203.5047109529282,-752.0765027019017,-26.08717011576116,-762.7957835432419,-656.5673539267658,154.61761044237707
0.35,1.9204731347836743,1.054628524172918,-0.0732823363730095,-0.0110782296420714,-0.0019849847680394,0.0316009970356159,-0.010128196551778,0.0204808498335192,-0.0059843284220993,0.9997208495863498,0.0475028001355942,-0.0327505395268984,10.5747576254517,-0.1158381080933352,-0.0261225385317764,1.1584540553723457,4.14742665287404,-0.755338422319431,0.5019633529554033,1168.5515292130224,1189.7303764955436,1167.2608873416507,1201.8563231327057,-681.2519274595685,97.74593566953726,-703.088545904582,-685.5764658252226,154.62164608386695
0.3524999999999999,1.9399535041714129,0.8076469530118806,-0.0707712718748433,-0.0055850838927697,0.0004604218800121,0.0313000972632193,-0.0101331836476025,0.0204973190066354,-0.0059978881051558,0.999720371279399,0.0511840467834449,-0.0371892383138957,10.56803610993151,-0.1149945758936461,-0.025740350429899,1.1604058768101935,4.147256393653193,-0.7553374362972903,0.5048778167518073,1166.8816220262315,1190.1018851149,1165.545532258563,1200.076828623802,-691.9679143499777,197.35264879086773,-693.8730735552851,-781.5347476712839,154.62600483277737
0.3549999999999999,1.8818955648812123,0.4628095289066938,-0.0458496394327388,0.0004064705452434,0.0020944202197318,0.0308049041534687,-0.0101261577423206,0.0204983061430149,-0.0060160573618045,0.9997203010960216,0.0551988365785027,-0.0410474036785351,10.560853426159705,-0.1141001687010318,-0.0253584842463122,1.1623345546057071,4.1470912539752804,-0.7553348385106601,0.5077994375266123,1165.0916896412723,1190.717139739498,1163.7915219738743,1197.948649394349,-601.6754682136246,237.67416957230105,-571.8840633282521,-760.7603180004837,154.63160541723016
0.3574999999999999,1.774078066610009,0.1684446746307066,-0.0190043151975021,0.0048843534477369,0.0023450043551731,0.0302555716153324,-0.0101057551343689,0.0204861255304021,-0.0060352742612011,0.9997206277269224,0.0594709127389975,-0.0442081001881087,10.553235914667784,-0.1131633670247363,-0.0249691799975626,1.1642366586803268,4.1469301551611215,-0.7553306843370275,0.5107258907819298,1163.8732446851632,1191.2902559627614,1162.6861119419218,1196.2730270337995,-413.3146436801322,230.67095377605236,-356.9200979738067,-632.1886583765712,154.63657765932535
0.3599999999999999,1.6189734135413396,-0.0992973127117496,-0.0065382735839655,0.0088595428325535,0.001651677039971,0.0299283186037327,-0.0100773286864903,0.0204678878847506,-0.0060518816665606,0.9997211732095947,0.0638268684962967,-0.0467124736950291,10.545210852116991,-0.1122033672720651,-0.0245796618684904,1.1661086551559428,4.146772390197068,-0.7553259307722208,0.5136561319921711,1163.0251164228719,1191.8704945083782,1162.0069214840055,1194.7877061024665,-280.8018345822345,256.5678133498748,-201.9374023283033,-592.1910238768753,154.64186165668247
0.3624999999999999,1.395421176343728,-0.3641046271727252,-0.0401023528574074,0.0130294906057545,0.0001039113045261,0.0302061975640272,-0.0100475043837638,0.0204459844648791,-0.0060643936463368,0.9997218302531362,0.0681962430021635,-0.0486443838719787,10.536805645648318,-0.1112277513390714,-0.0241997902132994,1.1679493224891215,4.1466179215735535,-0.7553214657427281,0.5165885911538609,1162.4692355122522,1192.5730950295108,1161.6764249302803,1193.3120719144151,-133.38316207587,265.2620136626863,-49.671152720384235,-479.16872654091054,154.64855594355154
0.3649999999999999,1.1891900755950595,-0.5293529354090208,-0.1319438858320119,0.0161403737916214,-0.0016476521777025,0.0310392920025783,-0.0100201596026964,0.020422746634992,-0.0060711302153482,0.999722523457898,0.0725127300071592,-0.0500483241913917,10.528045783476278,-0.1102432833133488,-0.0238323850800816,1.169758636365441,4.1464662650002815,-0.7553179675434258,0.519522469370484,1162.3582006124925,1193.1968045766916,1161.7585657204036,1192.391862469762,9.152113075060688,269.61064664333185,87.23204406965117,-295.10263549368545,154.6544233772328
0.3674999999999999,0.9745848578117,-0.6391235803163146,-0.3070855450677215,0.0187676476517537,-0.0037364020885883,0.0320929661029064,-0.0100007815332778,0.0203982736166311,-0.0060716894189359,0.9997232015272088,0.0767597124793737,-0.0510211675352457,10.518953150257047,-0.1092506207304193,-0.0234838475488403,1.171537648187928,4.146316781701353,-0.7553161006963812,0.5224585581800045,1162.5149960776275,1193.9211482627275,1162.1125851506283,1191.8365587369467,87.67011450313468,315.0346856803023,165.8522719409119,-160.74777309286205,154.66058346142208
0.3699999999999999,0.7626783896101755,-0.7131250540395747,-0.548049380280481,0.0208323395091783,-0.0058408505427547,0.0327559290992907,-0.0099917524623408,0.0203708842966396,-0.0060666142675764,0.9997238758416472,0.0809594329028991,-0.0516129895057923,10.50954484524166,-0.108245406009575,-0.0231533602959013,1.173288194507194,4.1461685372384816,-0.7553163573419591,0.5253977122521561,1162.796551185008,1194.7719780050932,1162.587827080108,1191.5881236042976,118.99259277793124,375.4204912148904,189.8101512916581,-34.693438086969735,154.6669807068238
0.3724999999999999,0.56592668030318,-0.7650955173752587,-0.8400847936029331,0.0221715962409885,-0.0073990994118208,0.0320416458686181,-0.0099931092044685,0.020347585580532,-0.0060585378031634,0.999724387096882,0.0849522682624374,-0.0518433544425065,10.49983170378837,-0.1072429382524327,-0.0228353457246138,1.1750103043501414,4.146019782774647,-0.7553190639933888,0.5283403988124873,1163.1099590415172,1195.798250718802,1163.0616359070868,1191.663091546512,119.75061298458048,486.5066403684518,172.1447948715193,80.56420064431214,154.6736570456298
0.375,0.3600454513974455,-0.8309960436672149,-1.1885251467194307,0.0230298482791617,-0.0084274698917498,0.0287965520204466,-0.010005131078277,0.0203300952768335,-0.0060545611144793,0.9997246511577996,0.0886903628305708,-0.0517513824534933,10.489818258958527,-0.106245647728387,-0.0225261934723939,1.1767049644205327,4.145870670819191,-0.7553235296007388,0.5312872103935964,1163.395304249931,1197.2045112069354,1163.4485510544655,1191.9909446075192,76.5712353927028,531.971668701271,93.03089932418509,130.6004277764713,154.68198210084472
0.3775,0.2186795844147909,-0.9010334131866388,-1.427987991342916,0.0232605018614963,-0.0091720104654437,0.024458754368089,-0.010023907288445,0.0203193504672084,-0.0060604643810467,0.9997246505348208,0.0921427047785232,-0.0513033361136271,10.47950233691334,-0.1052542665442219,-0.0222133132375826,1.1783732292916171,4.145721272913157,-0.7553283180813771,0.5342381675036403,1163.4928152184807,1198.4581090623083,1163.5267904037075,1192.3160936853944,2.368353076371929,494.891835812768,-26.729191476988465,100.7089495559284,154.68917389305332
0.38,0.107541180524106,-0.9814657076409466,-1.568917512030939,0.0233200765544767,-0.0108405671239183,0.0193775651345383,-0.0100388997423506,0.0203106319062833,-0.0060764036303864,0.999724582674856,0.0953975420271688,-0.0503403846464786,10.468875168653645,-0.104256862528464,-0.0218688702383326,1.180017301325459,4.145572410428729,-0.7553325383836098,0.5371933480076772,1163.4071460153127,1199.6789703859993,1163.3149050970808,1192.4944893552988,-77.9497441019884,496.01852963260126,-150.27503862170292,2.282540021360544,154.69662096379713
0.3825,-0.0003480767626962,-1.064036716331109,-1.5998632143307732,0.0234955588297123,-0.0140158377361889,0.0131635830309764,-0.010038942938319,0.0202949121954148,-0.0060981721256849,0.9997247674358082,0.0986344351898617,-0.0487014376060694,10.457920984085348,-0.1032321771963309,-0.0214642911727211,1.1816399232936832,4.145425085945614,-0.7553349196618446,0.540152959579416,1163.1030664979708,1200.9382017104713,1162.7754152105992,1192.3275063855012,-136.33105896560653,401.3680808715432,-230.4092062118796,-145.79466043810484,154.7058421309826
0.385,-0.0779408601281986,-1.0996999773056804,-1.5130706416060071,0.0238109937997294,-0.0170574398645212,0.0084561278009996,-0.0100156668723789,0.0202659807412624,-0.0061185356466867,0.9997254596050807,0.1019755890504109,-0.0462919038694632,10.44661701302062,-0.1021665694445056,-0.0209786826322203,1.1832427582385796,4.145281072511367,-0.7553340659101015,0.5431166285534695,1162.725490720485,1201.6858107903568,1162.1628590660212,1191.7655160531083,-159.4972227745528,206.100489778464,-259.7724480882787,-320.53333076592,154.7137557320889
0.3875,-0.1497817380712377,-1.081056263952378,-1.332243858360518,0.0241009604691936,-0.0200760012667524,0.0047690642697839,-0.0099692969020928,0.0202242809044938,-0.0061335842959579,0.9997266690174056,0.1054062453328876,-0.0431990562075434,10.434933926787208,-0.1010629775068261,-0.0204134892313444,1.1848254548177464,4.145141899984027,-0.7553292434804691,0.5460846189761172,1162.305580384098,1201.9687041593636,1161.4765529701579,1190.7248397316716,-169.9999452411701,-12.843796509378068,-302.93695391078444,-554.160995891561,154.72189744836362
0.39,-0.2273219569030541,-0.982145753793148,-1.0464691746510728,0.0238441859932447,-0.0236342945583664,0.0016529564569141,-0.0099072299113101,0.0201665919164211,-0.0061427919644754,0.9997283847044344,0.1089906441763945,-0.0396568668905498,10.422836995238338,-0.0999163522043001,-0.0197887213583406,1.1863879525304155,4.145009328966621,-0.7553205968593742,0.5490568547248625,1161.875490994279,1201.62159180781,1160.6481742964675,1188.9947110736505,-128.28026678726008,-255.4496118368204,-299.3237942785524,-691.4522134775774,154.7319191933557
0.3925,-0.2775191329391897,-0.8323320389913736,-0.7805063815817779,0.0230058339507487,-0.0264896652529705,8.725486526729212e-05,-0.0098371453502806,0.0200948898464961,-0.0061452430526279,0.9997304896863448,0.1126867826276505,-0.0359018084561529,10.41028748240842,-0.0987343841115218,-0.0191257704082686,1.187929092184384,4.144883626730587,-0.7553083539458765,0.5520330343542895,1161.6641790501617,1200.6914561001795,1159.979933998765,1187.2675786642835,-39.1152628412328,-506.2994259067632,-263.90109154399374,-716.6315136178575,154.74047119686125
0.395,-0.3041469973454212,-0.6179591419691484,-0.5132074264544522,0.0218982972206725,-0.0288181941782747,-0.0006872366059941,-0.0097621399510124,0.0200105182012709,-0.0061365592763358,0.9997329471375688,0.1164678701872478,-0.0320700917232282,10.39724384878164,-0.0975232360230225,-0.0184349038429723,1.189448083425654,4.144763805833062,-0.7552928174033161,0.5550125244289701,1161.679914680073,1199.0900946782763,1159.3286688387475,1185.4115535055612,48.66440054129266,-739.3987708192974,-262.0673418233762,-741.7223126192758,154.7492198836858
0.3975,-0.3087081176087736,-0.3621739833161281,-0.256691525215712,0.0208386439856554,-0.0302860224604644,-0.0010466136268562,-0.0096850293383093,0.0199155109832334,-0.00611525787609,0.9997356940899798,0.1202933728106797,-0.0282833980479048,10.383662704655464,-0.0962899759870188,-0.0177260961867748,1.190944073614726,4.144648311871382,-0.7552746570684092,0.5579944103472451,1161.907501052868,1196.994462246083,1158.6695972896482,1183.5589671011871,138.96674877291832,-926.9061491802398,-271.280622481572,-723.2991990671046,154.75812268424704
0.4,-0.2891441455414018,-0.0776162352419951,-0.0175073662360776,0.0199486337108592,-0.0304562543515373,-0.0011198988116617,-0.0096059615261146,0.0198123843430299,-0.006082516533852,0.9997386708071396,0.1241119455638401,-0.0245983633220277,10.369500102694351,-0.0950417776664796,-0.0170029933036576,1.1924161645420714,4.144535389651404,-0.7552544059634613,0.5609772513312288,1162.3747484239375,1194.455563932375,1157.9722657263396,1181.7950575102257,246.08638371346365,-1165.6426189984802,-318.8056859183686,-746.941748182507,154.76719991423394
0.4025,-0.2457224108784825,0.2711557842680816,0.2513424119457289,0.0190953367455762,-0.0294798233432798,-0.0009946890847528,-0.0095284679956916,0.0197098368581589,-0.0060418333352895,0.9997416499067366,0.127742824474488,-0.0211324759408861,10.354713181745696,-0.0937993298197847,-0.0162771714941029,1.1938618651368211,4.144424534641688,-0.7552327604857166,0.5639609863781379,1163.1379329714355,1191.1662491510904,1157.0755688600564,1179.8242583602748,296.2974739755279,-1202.4330036972503,-335.2643656344296,-698.4346175988316,154.77827879168504
0.405,-0.2004634004727589,0.5554446542172867,0.4619325520551846,0.018585378655787,-0.0281018229320438,-0.0006745166940344,-0.0094571478053578,0.0196181214567591,-0.0059985309515645,0.9997443562926625,0.1309708740998747,-0.018015015229548,10.339261780891388,-0.0925859339630724,-0.0155624191443629,1.1952777473844411,4.144315384537212,-0.755210493423702,0.5669464424144869,1163.8562357938151,1188.4433989138888,1156.2959438981675,1178.3028844222315,279.2806911927525,-1036.4314169603847,-307.05049065395514,-585.5733542301545,154.7876547140119
0.4075,-0.1550674855677992,0.8268430418702769,0.6547435513856962,0.0184111675443014,-0.026455809972926,4.674898133911417e-05,-0.0093961467247925,0.0195420181139398,-0.0059574620337854,0.9997466344160044,0.1336910839068429,-0.0153556290811464,10.323109638250992,-0.0914108631888293,-0.0148707307784679,1.1966604798073632,4.144206891195561,-0.7551881911657619,0.5699348959769643,1164.5343364273992,1185.9840920662887,1155.5403164067864,1176.896391589124,257.9943576629828,-981.6602068467992,-309.4109537500569,-590.6189793668085,154.79716568407403
0.41,-0.1082048482493514,1.134487750489185,0.8490709153053604,0.0186109397377619,-0.0240137039576001,0.0016814561048381,-0.009348031758026,0.0194852015782305,-0.0059178845564316,0.9997484032466754,0.1358178344719243,-0.0132243681419549,10.306225982706684,-0.0902800100956509,-0.01420913108107,1.198005843646033,4.144098838002613,-0.7551658960621306,0.5729281232305887,1165.14620758213,1183.5350978796548,1154.7488891294172,1175.3497895253975,168.2640366991562,-803.9300122848538,-260.7532979185178,-537.509901033945,154.80871892934607
0.4125,-0.075965888526722,1.371169697657924,0.9604821022171964,0.0188379278552856,-0.0213697586244598,0.0038831435449474,-0.009317112144221,0.0194538866730625,-0.0058773335488346,0.9997495252936316,0.1372089638776288,-0.0117192541593247,10.28858710835624,-0.0892048310109184,-0.0135884603214437,1.1993080443833026,4.143990930020053,-0.7551437209497045,0.5759277963852553,1165.375656610895,1181.9644420048644,1154.236549917194,1174.2088420839543,8.92227571757757,-543.2691709215756,-170.364483321964,-415.196210765043,154.81845170516775
0.415,-0.0435188833317553,1.576621694836705,0.9927641260609495,0.0188223621144921,-0.0178914019957587,0.0069638166834254,-0.0092965931795633,0.0194443253066225,-0.0058351699348341,0.9997501402795708,0.1379210093938519,-0.0106992003855716,10.27017619730982,-0.0881728785163718,-0.0129930485112076,1.2005626155879783,4.14388329071195,-0.7551206365173565,0.5789349660692859,1165.190818960718,1180.8187520250467,1153.8970667128071,1173.2738084715722,-197.14042450937288,-445.6171651499108,-116.46176394283547,-355.36189087916136,154.82827963712472
0.4174999999999999,0.0100515269164073,1.7706444423672356,0.9174862826135232,0.0183734311505112,-0.0127153443757931,0.0111616878917898,-0.0092840777120051,0.0194519517073719,-0.005792513632819,0.9997503538451188,0.1380224841570674,-0.0101053165291692,10.250984669406192,-0.0871698450499563,-0.0124181252814451,1.2017648367873148,4.143775889983953,-0.7550953380883402,0.5819486922281532,1164.389954488348,1179.7363561791149,1153.6542410974798,1172.4320326295583,-393.30740565329,-384.34453914583565,-71.99531938276851,-264.11161650198926,154.84016699076375
0.4199999999999999,0.075921775985883,1.87839921764318,0.7570107981585992,0.0177107285640456,-0.0077941890993709,0.0144263289882282,-0.009281519346485,0.019478877435322,-0.0057528880077761,0.9997500926904578,0.1374415254219214,-0.0099601344918292,10.23101277669608,-0.0861980156699855,-0.0118699221152537,1.202909044646792,4.143667793387664,-0.7550679186599257,0.5849675490174348,1163.2242819324515,1178.8970293293175,1153.5370901158935,1171.9532503890623,-555.2623296538964,-361.66891251091295,-42.75820702437155,-162.5423052270888,154.85013944915173
0.4224999999999999,0.1655109272968399,1.9255870113790428,0.5123017500677569,0.0172922918244815,-0.002715290621748,0.0166275686423009,-0.0092912363143019,0.0195275274821904,-0.0057187160844229,0.999749282292016,0.1360994907233113,-0.0102865946463568,10.210268490012867,-0.0852615646925263,-0.0113554924170501,1.2039903419401063,4.143558617147355,-0.7550395843704523,0.5879902380549624,1161.6136428400787,1177.9280116165603,1153.440450062358,1171.619321103423,-695.2167945924424,-429.0197391546822,-43.617845462222206,-133.67042402392133,154.86016648421258
0.4249999999999999,0.2667466638855069,1.9261391955921412,0.2231881588559251,0.017591359916243,0.0022856986434186,0.0177018233938742,-0.0093042204346206,0.0195892278784591,-0.0056915126609615,0.9997481609699684,0.1341447677903281,-0.0108687648563407,10.188765428593111,-0.0843397425636206,-0.0108543833040804,1.205007026849951,4.143449756691794,-0.7550106398658308,0.5910158069375748,1159.7481979594893,1176.7519306335444,1153.3190008885824,1171.2848982689427,-774.0508696099816,-532.2261090313982,-61.81745719868553,-172.09569297506263,154.87022812967038
0.4274999999999999,0.3654693378600898,1.8820090041676465,-0.0820389837717434,0.0186841591900445,0.0071613323126061,0.0176674439117051,-0.0093159808718494,0.0196591067907594,-0.0056736681113594,0.9997468406190708,0.1316514663475575,-0.0115779615568635,10.166523013246584,-0.0834229488370015,-0.0103572843971054,1.2059577355457567,4.14334366315336,-0.7549813912532533,0.5940432860139819,1157.7433884920288,1175.2668810714033,1153.1313627763643,1170.7588426385475,-877.4927691973054,-731.0483074470988,-106.39773365619466,-325.32921272409084,154.88031919653645
0.4299999999999999,0.4616058950527023,1.7994441377537993,-0.4191847677978335,0.0205488742500141,0.012600615758249,0.0167372609109785,-0.0093208785572826,0.0197299725840559,-0.0056662547090162,0.9997454994286704,0.1287469001962579,-0.0122578699801784,10.143564496237701,-0.0824982412283857,-0.0098521725071103,1.2068425993160448,4.143243704989691,-0.7549514547778551,0.5970712707863975,1155.3607341135028,1173.0966890963089,1152.7870122203014,1169.6582522053222,-854.1309513786466,-863.4853127479792,-154.50258071582525,-509.01156173167647,154.89244771993629
0.4324999999999999,0.515222037967722,1.7254950982083939,-0.6433925196484646,0.0223997070872778,0.0164990690432289,0.0151205173300918,-0.0093167165949757,0.0197952975583364,-0.005666240741994,0.9997442973122092,0.1255540009551972,-0.0128201716195723,10.119915799505455,-0.0815561844151228,-0.0093352363869854,1.2076624940268297,4.1431526841517154,-0.754919293993801,0.600098968827515,1153.4727337351355,1170.9494545076634,1152.3588498727854,1168.2137848298892,-731.3033609555525,-933.6765344097322,-214.89627151613584,-698.9811202980485,154.9025608918662
0.4349999999999999,0.5425158205060278,1.668077414577392,-0.774601331315584,0.0243056493312964,0.0197409525843406,0.012420421692747,-0.0093011249658459,0.0198486872633964,-0.0056688935182242,0.999743407059042,0.1222028435527928,-0.013170625342162,10.095604075882639,-0.0805889117217945,-0.0088024149872891,1.2084189376756023,4.14307140071546,-0.7548832046994607,0.6031262707398793,1151.7042173087248,1168.42830642426,1151.7125308627208,1166.163346603832,-760.1557551483886,-1197.7659436043712,-354.35692448086195,-1024.4381743117165,154.91266938622354
0.4375,0.5602573919576743,1.631994098332993,-0.7995483279987736,0.0262294368837206,0.0233894506666338,0.0083883999451428,-0.0092701083016102,0.0198891593021635,-0.0056689985225024,0.999742915065022,0.118724625075722,-0.0131812940127475,10.070656784736808,-0.0796019402307965,-0.008245813107963,1.2091129669785963,4.142999284526091,-0.7548422332573276,0.6061532362732504,1149.6719549593936,1164.9606247896415,1150.587065250381,1163.0915939583308,-740.6635437050674,-1338.9235210784125,-483.0460708518781,-1197.4345993530267,154.9247825344056
0.44,0.5803519963537207,1.6274171436045044,-0.7090256365460728,0.0273302547515536,0.0267131194738154,0.005157678204001,-0.0092204159158569,0.0199212801485254,-0.0056632295588828,0.9997427821615836,0.1150497673175659,-0.0127392954432314,10.045100825792694,-0.0786135290023174,-0.0076592212705602,1.2097448238632447,4.142933602037304,-0.7547970712172009,0.6091788392219585,1148.0008995901997,1161.733688818868,1149.2973005084611,1160.1761736070669,-673.0587255591212,-1338.4092654051972,-594.9556474810828,-1191.3652692657695,154.93485481799655
0.4425,0.6274263449654889,1.635030464861476,-0.5260048804690836,0.0279328455607488,0.0307610185038029,0.0029306448618467,-0.0091547680938868,0.0199538404728498,-0.0056492258524852,0.999742823651209,0.1110354487956714,-0.0118537082180874,10.01896206198534,-0.0776506652077445,-0.0070501493444991,1.2103138240427822,4.1428721972715605,-0.7547491730031112,0.6122044533938895,1146.306661331598,1158.2685784626156,1147.6122870129757,1157.134767612002,-750.9015327776062,-1533.5811997807455,-824.0859967698718,-1307.470908037975,154.9448957205287
0.445,0.7283920799003233,1.6376556527465336,-0.2489853274398917,0.0285271949329558,0.0362220518001498,0.0018027776763963,-0.0090776980154633,0.0199872418939886,-0.0056270497452085,0.9997429893544508,0.1067160283551921,-0.0105712322170396,9.992265029112705,-0.0767181693693681,-0.0064293977266275,1.2108201433330457,4.142813824501638,-0.7546998048692435,0.6152318145930644,1144.2463919263116,1154.0657828199644,1145.176870524612,1153.6388190668767,-751.937259999658,-1504.5468371750744,-944.7907636742448,-1216.740615040088,154.95689953348491
0.4475,0.8454626433086389,1.6252202500909174,-0.0118462963661654,0.0294344089233608,0.0407249120753672,0.0020898352529846,-0.0089935554215562,0.0200206586668609,-0.0056002361114934,0.9997432353971912,0.1021549261052088,-0.0089388915993266,9.965033611004339,-0.0758158921414857,-0.0058062356892864,1.2112636103668444,4.142756672123061,-0.75465028009403,0.6182611756227022,1142.5469750315997,1150.74584427674,1142.8883331946045,1151.0510645368015,-661.0487833981091,-1233.7735231950762,-939.7792986711002,-931.7736209277873,154.9668589942817
0.45,0.97444243896479,1.597363330893838,0.1876247505575062,0.0312941481692175,0.0446417085343477,0.0033211996334061,-0.0089081171106247,0.0200608857848124,-0.0055706484373911,0.9997433594304224,0.0972665507239144,-0.0070415996524752,9.937291669503566,-0.0749601648242822,-0.0051919001937421,1.2116424410493205,4.142699779591611,-0.7546015674175257,0.6212922966051636,1140.941148009321,1147.896915203989,1140.4779740312565,1148.979950962238,-616.3847310762316,-1024.0340753618957,-959.8945249958424,-727.6396192346502,154.97676655770033
0.4525,1.088190023984131,1.56129990520761,0.3328110568502944,0.0340659852272743,0.0479714852283503,0.0050624826067968,-0.0088246503764259,0.0201103641258161,-0.0055391487988506,0.9997432740474133,0.092052086196967,-0.0049240955648156,9.909063599615834,-0.0741551058654973,-0.0045901800148604,1.211955229569272,4.142642723848184,-0.7545539808786091,0.6243244992698046,1139.4650513762183,1145.6256738999307,1138.0888605696252,1147.4128664406282,-553.3916717486586,-739.3293989846363,-924.3278154113789,-503.0099404870721,154.98662665290047
0.455,1.1532811183569232,1.5182029389105365,0.400963566345197,0.0376923018793673,0.0508846436118949,0.007202181547272,-0.0087450236835108,0.0201687921032586,-0.0055078035426697,0.9997429546645576,0.0865631791188415,-0.0026145320632172,9.880375308521256,-0.0733968855129564,-0.0040006506496417,1.2122007107531616,4.142584863468008,-0.7545078421874172,0.6273571704643778,1138.1741896505775,1144.2002682090658,1135.8563349541996,1146.4649012598027,-529.1376545294947,-420.74393963107434,-924.1248774857006,-291.2186403875691,154.9964246367418
0.4575,1.1492614834705104,1.450084079424361,0.4021110334123569,0.042366936987017,0.0545593205559784,0.0095615354696272,-0.0086734998392332,0.0202354769723271,-0.0054781891106326,0.9997423680196657,0.0808530658027884,-0.0002015187697419,9.851255232373896,-0.0726797780538973,-0.0034280950001054,1.2123773694102713,4.142526779589458,-0.7544636612171514,0.630390561984731,1136.819363103571,1143.521954201775,1133.4682361821967,1145.9567732386904,-474.107436005033,-89.96635124412924,-822.5915062115283,-106.2654501297401,155.00810469113907
0.46,1.0733230790549415,1.3649225950735488,0.3579151645516554,0.0459084243294145,0.0581268213558373,0.0108680243346098,-0.0086097672711155,0.0203112956137822,-0.005451388926693,0.9997414934499956,0.0749352793901243,0.0023030135745051,9.8217347372969,-0.0720014298127932,-0.0028660365069665,1.2124832008958388,4.142468512983475,-0.754421542834708,0.6334248369252041,1135.8036524705526,1143.7504364528452,1131.743377423142,1145.933574009154,-398.16288258311914,218.2270420741586,-643.2326380914213,35.24306919566695,155.01776966962925
0.4625,0.9340598795526271,1.2303827599971393,0.3046187975374868,0.048563514034827,0.0620603355218938,0.0110661844084525,-0.0085488512592325,0.0203957306202395,-0.0054301513752739,0.9997403716679076,0.06884044940827,0.0049658166849154,9.79184876626608,-0.0713560827696581,-0.0022971487127721,1.2125161627261272,4.1424104711325,-0.7543813315554853,0.636460100156762,1134.8285486906555,1144.613089412146,1130.2520729917396,1146.1329885846687,-436.38735977942775,462.8163095235773,-625.7299929822233,92.187964866116,155.02735952425647
0.465,0.7197777850880979,0.9997387105321156,0.2717177555744934,0.0507237062489686,0.0662544603164224,0.0103310598735351,-0.0084905957959125,0.0204882382697717,-0.0054172312825273,0.9997390035909604,0.0625899623457296,0.0077463453580155,9.761636747158255,-0.0707380817549793,-0.0017165877707029,1.2124740165489618,4.142352958252541,-0.7543423177505053,0.6394963017865958,1133.6217156716555,1146.064518000463,1128.6147274582308,1146.3945138334843,-457.2344134964165,550.4138093581782,-597.5582355829823,69.23877244416866,155.03877606826904
0.4675,0.521533223691971,0.7528641076008488,0.2870836752049319,0.0518298794097883,0.0688103042536706,0.00956178870537,-0.0084382425589303,0.0205872375766526,-0.0054084469669671,0.9997374180157496,0.0562172428954159,0.0105258413900749,9.731143010634144,-0.0701395812224281,-0.0011283016858581,1.2123546257824356,4.142297281771067,-0.7543034678186779,0.6425323833926522,1132.5423766231731,1147.365158458937,1127.2642818138247,1146.4791824468896,-452.93450623703353,483.09357290468097,-565.4065786041424,-20.961024842790703,155.04821057305446
0.47,0.3213078899688662,0.4634108602326554,0.343947626397284,0.0523373937899823,0.0702966171608186,0.0091173508207222,-0.0083918847719929,0.0206895759255012,-0.0054050358490931,0.9997356725464148,0.049775163405826,0.0132420316945583,9.700416540718567,-0.0695496811140615,-0.0005305521851263,1.2121561030240222,4.142244222060508,-0.7542637066937539,0.6455673698850695,1131.3570431404703,1148.4799858649865,1125.78769456521,1146.2897087092704,-494.6906064931677,383.1589861448716,-630.102287675208,-133.01574069073456,155.05755881017268
0.4725,0.1277526070808994,0.1526586666424335,0.4163066434175742,0.0523540056729436,0.0709825096717458,0.0092028500946974,-0.0083535756362884,0.0207918434383417,-0.0054059587726586,0.9997338296016804,0.0433137664526012,0.0157897127245349,9.669511004370046,-0.0689574159795326,7.226603083031363e-05,1.211876595258566,4.142194018020433,-0.7542221557239898,0.6486016164115652,1130.0689235907075,1149.2809533896611,1124.1137703754487,1145.814103743436,-544.7098650745825,222.4729521075458,-732.5595770252669,-261.7784103115807,155.0668323990408
0.475,-0.0554646114305832,-0.1669415587966019,0.4693075317867426,0.052009581228186,0.0707873052882639,0.0104465936234576,-0.0083239189776149,0.0208957377608814,-0.0054053296119874,0.9997318869806596,0.0367789131695988,0.0180890760248919,9.638483309835172,-0.0683646527171837,0.0006780632950321,1.2115135242672164,4.142146058240988,-0.7541781680584095,0.6516355154643328,1128.6334938150972,1149.5923506255242,1122.1248966800836,1144.9808166577127,-675.1836375743089,16.895366493145033,-954.7108587106768,-437.7107399577649,155.07601200051485
0.4775,-0.2695155819470049,-0.5413635503020763,0.456586504370113,0.0515165404709358,0.0695117951748963,0.0133184982584416,-0.0082975591027461,0.0210097273173086,-0.0054005995158948,0.9997297294165683,0.0299817309806983,0.0201772248894565,9.607391755038057,-0.0677902679038993,0.0012973805076947,1.2110634016130146,4.14209917627509,-0.7541303642254241,0.6546696438621384,1126.693005402836,1149.365430222127,1119.3402160818953,1143.625550043647,-757.2464181257678,-174.48152248826042,-1081.8689797887257,-538.8399872207228,155.08691341939402
0.4799999999999999,-0.4505714372944311,-0.8342781808793442,0.3534402411830516,0.0510844718509396,0.0674949621220148,0.0160695354803734,-0.0082716782934749,0.0211298749828883,-0.0053944737652644,0.9997274441874596,0.0229708741094678,0.0220487056946785,9.576298134023007,-0.0672237055579973,0.0019331563423556,1.2105246000365868,4.1420528840651,-0.7540775506578163,0.657705133383048,1124.8472617244684,1148.719943013083,1116.7155517811402,1142.286616721609,-797.2171606531075,-331.12456210010686,-1095.9835812480035,-553.0101586649891,155.0958986186423
0.4824999999999999,-0.6401158723727994,-1.098962339339293,0.145416544892258,0.0504762163330666,0.0644578561115655,0.0181870058308861,-0.0082455290296121,0.0212494626816258,-0.0053901513223304,0.9997251599762804,0.0158487415102172,0.0236651490371329,9.54526547814192,-0.0666484437147333,0.0025826312975478,1.209896327028462,4.142007671556254,-0.7540195394209278,0.6607425297420496,1122.7069195995705,1147.7098074116263,1113.860298175655,1140.860499250322,-1017.1573956415604,-497.9554488764729,-1282.3233104564213,-617.740852995575,155.10477533521225
0.4849999999999999,-0.8721915429901793,-1.3860375876257596,-0.2008828461397957,0.0491853128223601,0.0600485295180647,0.0193966541925459,-0.0082165899430852,0.021355581869434,-0.0053851159364069,0.9997231831816524,0.0088396126282245,0.0250298888542777,9.514356858870759,-0.0660338637239989,0.003247751030916,1.2091794909932971,4.1419646785292725,-0.7539573597906011,0.6637800497854057,1119.7614747462608,1146.2301657687003,1110.303935228858,1139.1979124566312,-1140.2284458461045,-566.2444771757687,-1304.740369189493,-583.8251606264744,155.11529535781483
0.4874999999999999,-1.05545867136481,-1.6114142818011905,-0.5337730978000081,0.0473418286543256,0.0563899210103961,0.0190728628260629,-0.0081842552183434,0.0214379177216754,-0.0053782004653094,0.9997217444304056,0.0021226589182358,0.0261196095861871,9.48363241393528,-0.0653567528342001,0.0039259927847197,1.2083759111324723,4.141924565853383,-0.753892955272135,0.6668160541531192,1117.00577737034,1144.8785850257475,1107.3365963297078,1137.9413734471896,-1150.6237643038266,-546.4914277699786,-1165.3565348456584,-463.51318944462,155.12394735364057
0.4899999999999999,-1.2018013534596454,-1.8431740684699465,-0.8563732370625718,0.0444579797181646,0.0531095953823794,0.017214900462893,-0.0081424603058291,0.0214878398614476,-0.00537223019693,0.9997210651055636,-0.00414862079475,0.0270256088067167,9.453146597841892,-0.0645992500264273,0.0046282934572453,1.2074885697232132,4.141886840197683,-0.7538272923329641,0.6698489911791594,1114.0083559247416,1143.4977086298506,1104.4771525546298,1136.880346509408,-1347.3585240944872,-604.3554487139767,-1212.9682027872138,-421.3327622352604,155.13247545350396
0.4924999999999999,-1.3014144270061991,-2.144732305637845,-1.162822178510157,0.0399892982016108,0.0490535370959224,0.0132500767241126,-0.0080896088787787,0.0215030843983669,-0.0053717641361121,0.9997211859136304,-0.0099300227861325,0.0277642001802787,9.422946057234569,-0.0637599042949219,0.0053552271923691,1.2065210591304545,4.141851748298194,-0.7537612110177128,0.6728767137781347,1110.2689847498675,1141.8568077821778,1101.2717553157715,1135.8347096360135,-1372.0324155060086,-601.4456002572837,-1126.4673695500724,-354.3130996633405,155.14256126624116
0.4949999999999999,-1.3032020668068975,-2.4115143927457594,-1.3082390511892144,0.0359400021975432,0.0448405439622841,0.008802838472775,-0.0080319868393545,0.0214948315209539,-0.0053801223966497,0.9997217942017284,-0.0154144707023808,0.0282125430647932,9.393066400522029,-0.0628704793778967,0.0060888602519206,1.2054765477699487,4.141819509309366,-0.7536960998797784,0.6758987025985087,1107.1481938472116,1140.4904806285642,1098.8448157068794,1135.1087810110914,-1224.9404026538728,-560.6285343670602,-910.2275028789783,-277.71916260721787,155.15084004841444
0.4974999999999999,-1.2133918053522803,-2.6681047911890654,-1.3087544575767576,0.0321251165111333,0.0390045771727615,0.0038218750285814,-0.0079745033000643,0.0214718176768754,-0.0053972848006559,0.9997226597498972,-0.0207292697272258,0.0282854213661398,9.363533476133277,-0.0619574438740702,0.006815249578353,1.2043593566666,4.141790262929369,-0.7536321592702904,0.6789138085555606,1104.144282736598,1139.0536651103423,1096.7206178013769,1134.4461138229772,-1169.6054314734727,-602.4910858982815,-794.9067376731358,-268.78098679349,155.1589853100686
0.5,-1.0532613800836284,-2.8869460081817144,-1.186973014915241,0.028780419188764,0.0317506126763239,-0.0009589691132669,-0.0079185870392995,0.0214454164823073,-0.0054184126243515,0.9997235535346624,-0.0260308047018498,0.0279729783220787,9.33436160978557,-0.0610539973378952,0.0075291671256461,1.2031737292075428,4.141764536013328,-0.753568246389812,0.6819216929408679,1101.3001666898442,1137.4780251990728,1094.8702820185135,1133.764876077124,-1092.76467325552,-682.35278811234,-672.5398137983494,-290.84709248217786,155.1670183316764
0.5025,-0.8260673601762005,-3.0279227801984585,-0.9426639750235744,0.0261541918633677,0.0234304671664308,-0.0048552658242688,-0.007863662790259,0.0214300252003857,-0.0054384497510054,0.9997242009743595,-0.0315121537488163,0.0273123011880777,9.305553839616465,-0.0602008363491617,0.0082298643178461,1.2019231902468732,4.141743362917877,-0.7535030632530164,0.6849233601121929,1098.6804593703205,1135.6419011697808,1093.357918732385,1132.9918783605665,-1102.5081859292632,-881.7656173213882,-589.5981361869866,-372.43358114956175,155.17491471904617
0.505,-0.5084334474874305,-3.0847495460299355,-0.5701027952608465,0.024032277407474,0.0131895497143261,-0.0075841776766093,-0.0078134708533869,0.0214294568019204,-0.0054543217488057,0.9997245067411588,-0.0371507324995008,0.0262702830767563,9.277107244952893,-0.0594130719364026,0.0089057750556381,1.200611740589272,4.141727758234502,-0.7534354930060463,0.6879198063267175,1095.787625760198,1133.0691971124659,1091.9222913375788,1131.902708171376,-1024.234323414065,-1003.2707504487907,-466.3033240527507,-430.10829334198166,155.18423141474042
0.5075,-0.234018422970315,-3.0397404151258782,-0.2518713926666548,0.0233127130561082,0.0050744347358399,-0.0076995470720477,-0.0077671765943414,0.0214426270487639,-0.0054679205753833,0.9997244907704071,-0.042820084435536,0.0249076944256091,9.249012599170499,-0.0586937440826291,0.0095557514100236,1.1992425792159676,4.1417177211266845,-0.7533644510541001,0.6909121701203644,1093.55928775325,1130.6255474175368,1091.026402112121,1130.8413368938564,-859.5080533329102,-1022.4292821459576,-299.356765358834,-459.0332241836673,155.1918625626411
0.51,0.0176559694135738,-2.917501014971978,0.0085434194167144,0.0237405459678576,-0.0021706643562623,-0.0060932023028025,-0.0077235401136022,0.0214686795180604,-0.0054818034369376,0.9997241723477652,-0.0483871784167845,0.0232982068379709,9.221255655952248,-0.0580454166938183,0.0101795104361726,1.1978173671177799,4.141712153809432,-0.7532891932859765,0.6939018783631266,1091.4900854935331,1127.957050701736,1090.4255075107847,1129.6075420504578,-874.9067067242963,-1190.783669645523,-199.3441968857084,-587.2580952992972,155.19935604747727
0.5124999999999998,0.2643880392199171,-2.713281496798727,0.2068795093949818,0.0251441292994845,-0.0099053446504175,-0.0036444536563082,-0.0076875087772787,0.0214986821444142,-0.0054983437108217,0.99972369724903,-0.0535625534369745,0.0214058643747031,9.193822679921094,-0.0574496972091731,0.0107623892907373,1.1963373760408427,4.141710327357754,-0.7532100164166398,0.6968899577798585,1089.1847542196288,1124.6716290693091,1090.0296811276928,1127.90504641736,-811.2735763354061,-1188.8568599975304,-93.97717486990578,-666.4813067563949,155.20818982071495
0.515,0.4132834942186729,-2.517501221867787,0.2680872950736063,0.0265930329484058,-0.0156034120193492,-0.0018753958549765,-0.0076588824614988,0.0215163168700999,-0.0055160103307067,0.9997234274755502,-0.0579198856208248,0.0192919964510274,9.166701843272856,-0.0568686152660756,0.0113032012900458,1.1948033850080575,4.141711728195332,-0.7531270444311013,0.6998765931083016,1087.4337176118563,1122.0127664017484,1089.9556216364351,1126.2751355166758,-654.6358098954437,-1016.1436407019656,16.64969452863259,-702.7029586136445,155.21542018669774
0.5174999999999998,0.5030033305727585,-2.3147564874598974,0.235517506764941,0.0279403825943015,-0.0206929594336039,-0.0007169680730414,-0.0076323177150199,0.0215175722252028,-0.0055336444135238,0.9997234938880268,-0.0612639907308636,0.0171095883762599,9.139879063152499,-0.0562916427229532,0.0118140314474294,1.1932137416706392,4.141714147902262,-0.7530406463766661,0.7028611445625079,1085.9115751701515,1119.5909108657995,1090.112929600336,1124.391531624292,-602.2534316651667,-989.0848784920754,108.42948478411915,-892.2197592070452,155.22251591581997
0.52,0.5512633543559792,-2.0733820304414032,0.1231376774811644,0.0293365585576049,-0.0263157878372962,-6.942234366841449e-05,-0.0075993847812414,0.0215052372752869,-0.0055505033312548,0.9997239070801492,-0.0635321261779955,0.0150621624998118,9.11334123638488,-0.0557222940981883,0.012315686535429,1.191565405787805,4.141715320364472,-0.7529520424789768,0.7058426482418235,1084.4224504535305,1117.067342009288,1090.4977690603555,1121.8140367206406,-481.5056886350698,-857.7714992380598,158.7359692882272,-996.0960537533072,155.23087726949842
0.5224999999999999,0.5494484446706972,-1.872695981646336,-0.0014036046174644,0.0304572277746008,-0.0307345070824601,-8.926204925909776e-05,-0.007549747691319,0.0214849166228226,-0.0055666107379047,0.999724630514838,-0.064724861835413,0.0133791506038784,9.087078806149961,-0.0551687523444358,0.0128351144497563,1.1898546743046163,4.141714219339105,-0.7528626521305911,0.7088208033405708,1083.504046726976,1115.3020533696092,1090.906609446777,1119.4110513555252,-298.379987265798,-645.6092322997387,159.740001655109,-1001.5017318757136,155.23771895315852
0.525,0.5103141555696109,-1.664105968777064,-0.1228451094041728,0.0317025839810552,-0.0351080178509176,-0.0005961446732539,-0.0074855341087006,0.0214584059276774,-0.0055841537556137,0.9997255968737137,-0.0647889839440626,0.0120531541802755,9.06108980036,-0.0546284032842416,0.0133712472830654,1.1880784487013396,4.141710752054321,-0.7527752801595359,0.711795758886717,1082.9305505172015,1113.8392958477891,1091.2964690686313,1116.806528061262,-178.92912800912183,-551.0868402187493,135.06018838456828,-1055.716361691883,155.2444321701011
0.5274999999999999,0.4434350906560458,-1.4415768159174078,-0.2186939776349343,0.0329246109705958,-0.0395375388331416,-0.0014206495928651,-0.007408031856953,0.0214205035146682,-0.005606100506295,0.9997268870720324,-0.0635660438988212,0.0110818683763719,9.035380087155296,-0.0540809482386844,0.0139266893230783,1.1862343845478596,4.141706463305026,-0.7526911199860172,0.7147671358757732,1082.6094010869303,1112.5466191685155,1091.5819103887,1114.132469547066,-85.80062051128145,-502.98550895249673,68.15671807939901,-1050.783571502915,155.25104065155568
0.53,0.3472437503959477,-1.2000950732308162,-0.2617465239070751,0.0338396313169473,-0.0436091893816735,-0.0024616214825085,-0.0073252428138491,0.0213746766187017,-0.0056320004943175,0.9997283592599804,-0.0610783463398233,0.0103286707496947,9.00995831474542,-0.0535257602833711,0.0144893043875192,1.1843195591951376,4.141702186838864,-0.7526113436360807,0.7177358757621096,1082.501547414645,1111.3243683030269,1091.6372526590283,1111.5526102037475,-29.96895237952228,-558.8282379783318,-54.59517213621434,-1059.5379097687319,155.25752455836363
0.5324999999999999,0.2036863493615028,-0.902117503179155,-0.232813793155635,0.0346309169131774,-0.0472725390520839,-0.0039009832195111,-0.0072473488418778,0.0213210382193742,-0.0056582598931382,0.999729947312206,-0.0573137252519402,0.0096066823919896,8.984838783361033,-0.0529535791711047,0.0150424806089102,1.1823319306004432,4.141697653632854,-0.7525364729780125,0.7207030753654134,1082.4595563250327,1109.7524779786238,1091.3089345280189,1108.8347799982223,-25.382563851508145,-617.0336397576187,-204.55801384773605,-897.239979969435,155.2651627050875
0.535,0.0645909229611514,-0.6675467733566676,-0.1346545566756195,0.0352944402074647,-0.0491372097909269,-0.0053837514905484,-0.0071847783645705,0.0212577931707774,-0.0056811494638383,0.999731631211952,-0.0522546706257167,0.0087145643238516,8.960039439368973,-0.0523503268781866,0.0155687167836821,1.1802705020623823,4.141692913195556,-0.7524659047645401,0.7236680451904811,1082.3746345953875,1108.2392001042388,1090.6144625897896,1107.0664103039003,-69.29956048020352,-662.843165842059,-385.46475551188416,-576.4098938576348,155.27140955924725
0.5374999999999999,-0.0872884236578131,-0.4761607393253713,0.0349741458332405,0.0359491522998582,-0.049977055263251,-0.0069219253287756,-0.0071420321738456,0.0211841600085531,-0.0056991331547394,0.9997334043095744,-0.045932579081198,0.0075484223644274,8.935578733142494,-0.0517044188474954,0.0160632139104671,1.1781352355184995,4.141687299104666,-0.7523974269018266,0.7266289985233529,1082.113058522632,1106.4382621494135,1089.3816107504595,1105.952730528934,-174.078124715288,-856.1952990565251,-682.4158681535657,-337.402812126538,155.27753357463803
0.54,-0.2650402512473754,-0.3245254378927505,0.2890466062830962,0.0359217781809727,-0.0502264313280673,-0.0077293848100448,-0.0071130745525121,0.0210969240089752,-0.0057081342961527,0.99973540383871,-0.0383650327361175,0.0061850926066659,8.911474417894514,-0.0509987213834762,0.0165442908841839,1.1759275042158033,4.1416793093282775,-0.7523286846952981,0.7295828175507862,1081.504243971811,1103.958223608956,1087.2023832490215,1105.3793962432676,-276.6978302337518,-947.8234797745235,-915.8219673442081,-106.44060898462148,155.28473937304406
0.5424999999999999,-0.3875368691502747,-0.2750618046781038,0.501843756580653,0.0346744575377755,-0.0501228001498386,-0.0066608414262158,-0.0070874359453223,0.0209948833738912,-0.005703232185583,0.9997377627700424,-0.0296335393430992,0.0047739480449164,8.887740577591254,-0.050221443215093,0.0170383654206973,1.1736497443832927,4.1416683037477435,-0.7522574377929323,0.7325281124929112,1080.7295693714632,1101.6991447505409,1084.8025009137384,1105.420527484011,-360.3521828862992,-916.2286645675968,-1062.6411787702627,70.1609093000115,155.29062365955312
0.545,-0.45788325703164,-0.3066090980488115,0.659221516367844,0.0326545252242336,-0.0500526937666007,-0.0038749114562493,-0.0070646377249978,0.0208841555691834,-0.005682452029961,0.999740365383452,-0.0199737243964611,0.0032836399302506,8.864385422661165,-0.0493790796588576,0.0175458064972731,1.1713050961826008,4.1416546628298585,-0.7521826847297465,0.735464498333838,1079.7024830573796,1099.377080286118,1081.8891773551704,1105.7302007897677,-495.04754948511567,-1000.7911786331524,-1355.0752652435665,116.76360278011077,155.2963804857577
0.5474999999999999,-0.4677907265125669,-0.4229381296223809,0.7345888333692995,0.0303294707644673,-0.0503975655568229,0.0003377170740721,-0.0070398108771546,0.0207684311352216,-0.0056480957158295,0.9997431507872714,-0.009599211686738,0.0017639805263262,8.841411878993025,-0.0484742798911994,0.0180751694046496,1.1688974703100752,4.141640023934508,-0.7521044573058757,0.7383919057144505,1078.2543316240376,1096.6951888573751,1078.0271245875203,1106.0043454979116,-552.6901718925269,-943.00240015068,-1432.4310199872327,26.22892940066774,155.30313841732752
