t,ang_acc_x,ang_acc_y,ang_acc_z,a_vel_x,a_vel_y,a_vel_z,quat_x,quat_y,quat_z,quat_w,acc_x,acc_y,acc_z,l_vel_x,l_vel_y,l_vel_z,pos_x,pos_y,pos_z,mot_1,mot_2,mot_3,mot_4,dmot_1,dmot_2,dmot_3,dmot_4,vbat
0.005,-2.8810538430415806,0.7869653656385808,0.199809319972634,-0.003632529826151,0.1531923142921442,0.0498988441209645,-0.0002218993911647,-0.0082175850651113,-0.1013330263586461,0.9948178925624868,0.1509707044351069,-0.0003177168627319,11.28861151501252,-0.0504670698365847,-0.0152213732060963,0.8514153527503485,4.5776060681601045,-0.946212103074263,0.1526132151119641,1235.3623187889536,1195.4115416903428,1201.5826067290593,1175.8821843554297,-1097.1222004660378,-770.9362421342123,-417.9603105029856,-357.336986979226,157.44035765726147
0.0074999999999999,-3.778359446044396,0.9460413301592971,-0.0309585100261211,-0.0130015269418848,0.1555754191326409,0.0508606326444509,-0.0003930767871488,-0.0079505688094605,-0.1013239035634488,0.9948209583929,0.1405391291132255,-0.006673452334333,11.299546234068673,-0.0508701513888043,-0.0155510780118159,0.854981634099364,4.577434941001845,-0.9462206552873356,0.1547488340215415,1232.6195132877883,1193.4842010850073,1200.5377059528018,1174.9888418879816,-1155.5302749705788,-1033.533460855142,-291.62615354266563,-268.95059556800334,157.44701394578092
0.01,-4.389542810483743,1.0648686529227815,-0.2409033627600848,-0.0311734751532429,0.1584395147287009,0.0507269115240274,-0.0005452839080574,-0.007722587164758,-0.1013009613645719,0.9948251011451824,0.1309573534244361,-0.0125207747342253,11.310383479640318,-0.0512213294496424,-0.015845506458995,0.8585702692342602,4.577266679531601,-0.9462288226660792,0.1568860840389186,1229.5846674141007,1190.243874386067,1200.124475961346,1174.5374313775897,-1251.77831806709,-1472.4804557235072,-53.41716506700322,-105.90141783559372,157.45339383796056
0.0125,-4.620326806536241,1.119022558165746,-0.4179646878267117,-0.0518715179234305,0.1620516414563354,0.0497752624403424,-0.0006745583649486,-0.0075392110145442,-0.1012585461338625,0.9948308542470862,0.1223651703713335,-0.0177531634623065,11.321065717757781,-0.0515151442057327,-0.0160972706264725,0.8621898767935146,4.577101102413764,-0.9462356593036402,0.1590263081442968,1226.360621697453,1186.1217988063895,1200.2706201274668,1174.4593347988036,-1307.6658200397108,-1781.17166669972,167.66851346451406,48.55464454376489,157.45954718836413
0.0149999999999999,-4.35840581725849,1.0689419077243532,-0.5359670481310359,-0.0694576982915302,0.1667126325503984,0.0482864751876658,-0.0007810838632448,-0.0074024389577458,-0.1011924685267455,0.9948386322544532,0.1148392400528411,-0.0223634349675662,11.331516961890424,-0.0517514933642655,-0.0163068268854968,0.865847808455607,4.576938487620112,-0.9462410269654586,0.1611723101003513,1223.046338313902,1181.3380160525685,1200.9628185286683,1174.7802046003085,-1430.4218455699352,-2141.4898366238044,363.00830565196514,210.35690208568664,157.46542996235422
0.0175,-3.5931678746100566,0.8860591125473535,-0.5895012601749516,-0.083754476247037,0.1727024271584121,0.0457682659901868,-0.0008662145916617,-0.0072985755475762,-0.1011049680734349,0.9948483069410572,0.1081122610520548,-0.0264047850185383,11.341645459221036,-0.0519566665173029,-0.0164799073151644,0.8695481677524542,4.576778678786633,-0.9462448548878032,0.1633263240555138,1219.2085124696034,1175.4143496232707,1202.0856616557267,1175.511119309232,-1345.2007109626716,-2127.46910931778,400.42129217549694,303.6514677358354,157.47217905763483
0.02,-2.731708739196398,0.6634621539449079,-0.5539748020373195,-0.0901961775576961,0.1768453506656071,0.0434771801174183,-0.0009324277532531,-0.0072035838182781,-0.1009960532580754,0.9948600501445864,0.1016911924358801,-0.0299786144208914,11.351343005300352,-0.0521744966750759,-0.0166252591862436,0.8732919893990819,4.576621188698214,-0.9462481335818024,0.1654907901474723,1216.3203347590888,1170.7006705059796,1202.964924989546,1176.2984619389877,-1049.5895281630967,-1776.892966298511,276.65368942366524,320.18932235505434,157.47754636088794
0.0224999999999999,-1.8273402822375489,0.4480322239445834,-0.4412895046832881,-0.0924016016957029,0.1783654635133997,0.0416439836223,-0.0009815827557084,-0.0070970312755672,-0.1008716949234417,0.9948733998005136,0.0951663684946663,-0.0331632289915786,11.36048416350144,-0.0524420734984539,-0.0167499385144653,0.8770787161497468,4.576464526930275,-0.9462517528225372,0.1676655409460005,1213.960564828788,1166.529884791778,1203.4689301028448,1177.1120659210071,-835.3888113640096,-1553.7139762687727,108.9514122861601,302.00245225969405,157.48264934526145
0.025,-1.0016442902249345,0.3157526080606437,-0.2791988686943258,-0.0923638189043969,0.1771934356660397,0.0403090630946499,-0.0010191785680908,-0.0069649683437307,-0.1007363263099642,0.9948879975154024,0.0882848272722867,-0.0361044188599139,11.36892872827756,-0.0527837999259176,-0.016865270712036,0.880906532114222,4.576307259755311,-0.9462564763295124,0.1698503825552032,1212.1433907022688,1162.9321006246355,1203.5096820509768,1177.808474200286,-591.1655950829753,-1291.6578289761671,-105.63148213991552,213.41615754918163,157.48753559179477
0.0275,-0.3571047445686868,0.3624066883219409,-0.083685249076511,-0.0912509312156459,0.1742965743121219,0.0395938865725755,-0.0010491398310051,-0.0068058916919854,-0.100594935494733,0.9949033336312552,0.0810719755806408,-0.038884352327945,11.376524718429003,-0.0532014102319762,-0.0169770784747787,0.8847732461227376,4.576147854776665,-0.9462629164304543,0.1720453144198429,1211.004736853373,1160.071595646897,1202.9407726921454,1178.1791467087533,-371.12798346834114,-1091.3648149709848,-373.4596092178892,43.08191664672452,157.4921642974541
0.0299999999999999,0.1563370063230771,0.6667902690873064,0.1487719695302671,-0.0897119063876275,0.1713284218500696,0.0399342530321841,-0.0010816745803235,-0.006617570847967,-0.1004561200231964,0.994918527845773,0.0735501318233833,-0.0417298618980766,11.383114059276291,-0.053695387104805,-0.0171024457459623,0.8886747995154051,4.575984946013104,-0.946271714099871,0.1742516565108178,1210.287750784927,1157.4752765497808,1201.6423840048872,1178.0238837835195,-197.9015049222198,-820.430724693324,-549.8766904066541,-179.36101782506736,157.49742699326163
0.0325,0.3603357942509716,1.1046179512688423,0.3102883151789765,-0.0878059907875338,0.1707086003544713,0.0414015060093602,-0.0011250380480095,-0.0063948772229927,-0.1003333451577927,0.9949322290301864,0.0656684127527656,-0.0448311778298639,11.388536614633532,-0.054270533331204,-0.0172562750320246,0.8926053849405591,4.575817975135288,-0.9462824690149316,0.1764701552522175,1210.015229328762,1155.9694420234307,1200.191389240112,1177.282341619628,-111.7088920959758,-478.663909491706,-614.2921949020086,-426.45988750691646,157.50157456243835
0.035,0.346911009110484,1.6520319067746592,0.4118643950449779,-0.0848467804450491,0.1732827584617227,0.0435169235622916,-0.0011882114167604,-0.0061290119263826,-0.1002354764633773,0.9949435743998472,0.0572889554460235,-0.0484037347438063,11.39263285064152,-0.0549377059225861,-0.0174554278332199,0.896557608986665,4.575647083214966,-0.946294379725403,0.1787032850823644,1209.7292063244472,1155.0819570023223,1198.5709230303771,1175.8915843459852,-213.3669882535288,-267.4611208087755,-704.3845323739337,-724.9933725165196,157.50548204651915
0.0374999999999999,0.1334322144646413,2.3038771983986948,0.456856459311293,-0.0813680468031902,0.1803653541715441,0.0456298561103514,-0.0012758959709509,-0.0058215804309147,-0.1001662134274658,0.9949521585651416,0.048493053866454,-0.0525412733481355,11.395245130665636,-0.0556900909141237,-0.0177075255106966,0.9005247369969094,4.57547367600409,-0.9463070728849666,0.1809517593153522,1208.9483943874943,1154.6321364193868,1196.6694665782425,1173.657374757045,-408.56434858751544,-80.57953206243842,-662.6448720216562,-860.5705381573448,157.5099025491913
0.04,-0.1379076170868715,2.7495590717813148,0.4386300080973115,-0.080422045372897,0.1888406048842098,0.0466013779275515,-0.0013797566159465,-0.0054804033263637,-0.1001259896234528,0.994957881592573,0.0394655104544516,-0.0570253208711956,11.396222065408457,-0.0565122105844957,-0.0179961996502071,0.9045012387879248,4.575298393642456,-0.946320365650291,0.1832140261076505,1207.6863845815096,1154.67905934201,1195.257698670269,1171.5887316551984,-663.6638257481985,82.34495134729505,-509.12174361305864,-788.693865133927,157.51336962016927
0.0425,-0.3943173822045469,3.013961736536598,0.3775444021266367,-0.082996294057629,0.198440398259024,0.0468168325555758,-0.001487817652151,-0.0051155163108272,-0.1001100325543988,0.9949611595847012,0.0304243748496009,-0.0615458643839506,11.395420603721554,-0.0573855258125421,-0.0182981572843743,0.908482845563049,4.575122327712444,-0.946334286218612,0.1854875392896586,1205.630075258753,1155.0438611761233,1194.1238578601772,1169.7139054313757,-953.9921118293936,181.3601695733724,-403.0927317319313,-655.9495720036015,157.51662026659645
0.0449999999999999,-0.5592465354307006,3.100790286809579,0.2869459440785676,-0.0874010126091621,0.2080147764758095,0.0468251142511267,-0.0015975266265561,-0.0047245223702676,-0.1001124611788391,0.9949625725080202,0.0213181262686705,-0.0660301544863142,11.392707004675579,-0.0583125225641505,-0.0186100062023448,0.9124648833949937,4.574945926681174,-0.9463481552677868,0.187769960494541,1202.9164240223627,1155.5858601898767,1193.2422350116094,1168.3089837951804,-1215.4653278257235,242.1104978109271,-299.080730705464,-390.8958974219333,157.51969771921236
0.0475,-0.5579043243614707,2.9783300154118626,0.1561461150724913,-0.0917199999017068,0.2168276819185372,0.0472920546388312,-0.0017136251901684,-0.0043072674838653,-0.100123696242011,0.9949630573873732,0.0121532344959153,-0.0705597994106536,11.38795667072261,-0.0592908630180142,-0.0189417917177331,0.9164439846160356,4.574770373801866,-0.9463603170293488,0.1900588494764156,1199.5527486196247,1156.254413665178,1192.6284542066498,1167.759425944266,-1566.0245751250372,307.7151304531523,-233.12865897437385,-9.041385653608803,157.5225738279389
0.05,-0.3538351533788445,2.6318519718498727,-0.0609298427115408,-0.0952891296768888,0.2257845080431451,0.0485545489427508,-0.0018332062628942,-0.0038710591412768,-0.1001357773861906,0.9949633736387204,0.0030787753452532,-0.0750197567520421,11.381057507667556,-0.0603061612281321,-0.0192894455550524,0.9204187543081388,4.574596256772356,-0.94636926329581,0.1923518234184845,1195.0863011467375,1157.1244358421427,1192.0765917167375,1168.2637768669124,-1650.9320276173648,325.07824772233124,-199.6254070923443,369.47931440727206,157.52580195280547
0.0524999999999999,-0.0422995592392268,2.223678397142773,-0.295546025766535,-0.0963598403813328,0.2315809122719859,0.049894105192696,-0.0019514418685449,-0.0034245188612525,-0.1001477680785084,0.994963584349802,-0.0057393343253476,-0.079243003766086,11.371911918438556,-0.0613415910697737,-0.0196464329699305,0.9243882046362056,4.574422780730951,-0.9463751968901192,0.194647750692743,1191.298088481538,1157.8798049037896,1191.630327171188,1169.6068225163024,-1457.3026338669483,310.47100905007045,-215.3722340753121,676.5472601545301,157.5283129279721
0.055,0.3632451771586772,1.7523232557109836,-0.567429430568431,-0.0953271804565223,0.2357169579256451,0.0505301019876392,-0.0020614384610941,-0.0029760940423276,-0.1001614266252189,0.9949635013197832,-0.0141525106822014,-0.0830115027323305,11.360439284489663,-0.0623806228964433,-0.0200026536708217,0.9283506264598684,4.5742486452310684,-0.9463781009960563,0.196948622802446,1187.7997879774027,1158.676790887393,1190.9997305463608,1171.646513167685,-1304.6851102822973,332.0584290460826,-310.7418352808051,869.262414377453,157.53064604706597
0.0575,0.8069216610536423,1.2698908718909119,-0.8342549036697785,-0.0931970183917875,0.23862979601489,0.0492568767349899,-0.0021537461680959,-0.0025442437152027,-0.1001733469745172,0.994963434396178,-0.0218010798860936,-0.0860230877815282,11.346579332190164,-0.063388504240356,-0.0203400361039978,0.9323040450331396,4.574073837152751,-0.9463777888723928,0.1992579398580206,1184.7746629301264,1159.54009704902,1190.076617994784,1173.9531345881896,-1059.2196922601493,370.1857328575899,-461.8508914543784,902.2532002425583,157.53283759242055
0.0599999999999999,1.2589644304626568,0.8134009148701761,-1.0359401245381124,-0.0904210113037573,0.2403109457268165,0.0452823645126381,-0.0022172834715378,-0.0021435996028,-0.1001786476994784,0.9949638653504852,-0.0284250131873018,-0.0879468677776405,11.33029479354518,-0.0643374388293559,-0.0206366908114395,0.9362439560683256,4.573898226927992,-0.946374506347414,0.201578460109216,1182.503689516102,1160.527719551681,1188.690476089089,1176.1577791688978,-812.2929485170974,468.6139194204318,-720.5465787526012,851.9544083890654,157.53486508535127
0.0625,1.7723878006300309,0.3307980557470332,-1.1421911715639184,-0.0861192250499302,0.2410026820423177,0.0391408269131428,-0.0022502934142716,-0.0017810566861805,-0.1001696140282258,0.994965566760056,-0.0339262768822163,-0.0886819248039089,11.311571936683228,-0.065212151730182,-0.020887451031048,0.9401623802095896,4.573721873107318,-0.9463698684898872,0.2039115449027038,1180.713198187541,1161.883166646122,1186.473885101021,1178.2129066301347,-517.6706775298949,520.6979575656983,-886.7365074379896,611.1443827378929,157.53711558510528
0.065,2.149230225484108,-0.0026491907170439,-1.1037381472408516,-0.0813663015471589,0.2407498873939945,0.0344536162213746,-0.0022552512524923,-0.0014539638316277,-0.1001440838463822,0.9949687684234648,-0.0384180030756435,-0.0882494134442868,11.290423169046964,-0.0660142967947317,-0.0210958570216398,0.9440479455737149,4.5735438331688405,-0.9463652567577566,0.2062591127964671,1179.9153361284525,1163.1312093395095,1184.2567935518991,1179.2135010825873,-218.97128168461657,505.7236835481485,-920.4522377875937,236.9177208358904,157.53884292497312
0.0675,2.4413710136410014,-0.2601362467816307,-0.9553422878698176,-0.0752342177435487,0.2400485505778932,0.0311875130675728,-0.002241930659479,-0.001151657492723,-0.1001019897765379,0.9949734891493484,-0.042180230036514,-0.0868596206752322,11.26688855411818,-0.0667595933257234,-0.0212793185368539,0.9478864904508516,4.573362912488681,-0.9463626085682144,0.208622818371306,1179.6183417791178,1164.411785063863,1181.8716239120831,1179.3974952343144,-78.13556309110929,536.0685584860671,-1024.8970424690915,-86.04487776892702,157.54041985918943
0.07,2.664594565658144,-0.4869823307127616,-0.705513307779625,-0.0664439481316967,0.2387398911868261,0.0289815499843211,-0.002214733952099,-0.0008622348645145,-0.1000409586386593,0.9949799946001328,-0.045533716902117,-0.0846136830745112,11.241039613543352,-0.0674680882103966,-0.0214437142741874,0.951663129236312,4.573178838351939,-0.9463626396301305,0.2110014297071922,1179.5246583129967,1165.8115521319398,1179.1323083395537,1178.7832766937427,-31.52597948537738,460.24235623017455,-941.1577071844042,-332.95846456394486,157.54214027069852
0.0724999999999999,2.7357163599963363,-0.6154460786966975,-0.4824220197346046,-0.0588549770702134,0.2371370216346895,0.0282450069681598,-0.0021844425913558,-0.0005754076575413,-0.0999614835370351,0.9949882443077076,-0.0487466060829292,-0.0817636676421038,11.212978490730288,-0.0681566336455717,-0.021606055732112,0.9553631793129512,4.572992724709884,-0.9463654145045736,0.2133934008661694,1179.4607118816907,1166.7129968450135,1177.165835376161,1177.7327029114947,-53.30377125433198,272.42077270543683,-686.5056466085673,-489.82838281863314,157.54343100689314
0.0749999999999999,2.696562530334602,-0.694352634395241,-0.2895835684549614,-0.0523722248615261,0.2350035233339294,0.0282877074651356,-0.0021604017762517,-0.0002910296043378,-0.0998695910246851,0.9949976296746132,-0.0518603371827961,-0.0785200656380991,11.18283942168042,-0.0688241329049232,-0.0217789662432966,0.9589743204455804,4.572806471404985,-0.946370742897961,0.2157973425201705,1179.2581394567253,1167.173655995467,1175.6997801065108,1176.3341347796495,-110.3356135409739,94.41307040992787,-494.2460549254061,-589.0318107931756,157.54457243619987
0.0774999999999999,2.580147935544546,-0.7472532839161735,-0.1454335691220324,-0.0463466478702334,0.2326346495928138,0.028712687808228,-0.0021497361063617,-5.895972324024523e-06,-0.0997738560330314,0.9950072884686318,-0.0549857991896977,-0.075065483310814,11.150785744874533,-0.0694767417697631,-0.0219715901231712,0.9624853320776467,4.572621962991438,-0.9463786888060643,0.2182124475619235,1178.909033813986,1167.1850621970634,1174.694605101534,1174.7875438575288,-165.8137843649,-108.95960883199211,-299.4596289841863,-629.8485892517414,157.54558826860753
0.08,2.385308436755916,-0.7961868020608561,-0.0736932594959675,-0.0400492587388394,0.2303277537163745,0.029252897475436,-0.0021438371584544,0.0002788226510403,-0.0996834421642603,0.9950163186655374,-0.0581664485051241,-0.0712402284882293,11.117009251267744,-0.0701161293918149,-0.0221621349416495,0.9658879271072234,4.5724405077348615,-0.9463884168265528,0.220637068069836,1178.4290705349008,1166.628857951307,1174.20248196159,1173.1848918333908,-218.25349821233408,-359.4061548375063,-129.03074831879155,-700.2299140169265,157.5464494654406
0.0825,2.080636560618716,-0.8962887800791601,-0.0717699726719137,-0.0329374797270077,0.2279592763037623,0.0297460536130383,-0.0021388371703378,0.0005633238024934,-0.0996083780330703,0.9950237193622944,-0.0614593469657428,-0.0670121870412935,11.081723322914208,-0.0707460424455703,-0.0223381729864191,0.969175542697402,4.572261389750145,-0.9464003677142216,0.2230681669354873,1177.8177663229244,1165.3880314228759,1174.04945135994,1171.286394287444,-212.93469835654807,-520.7547234738736,-15.742468464850376,-685.8459420474895,157.54729979830688
0.085,1.7886192050734546,-1.050644913706866,-0.1308390327356554,-0.0279722278338716,0.2265322865360128,0.0299043830074708,-0.0021347721271846,0.0008508267377999,-0.0995517834158466,0.995029176863516,-0.064972747701115,-0.0624590540316635,11.045158771385456,-0.0713755435444395,-0.0224945950764809,0.972343021413524,4.57208360837738,-0.9464146648744604,0.2255046407079798,1177.364397043118,1164.0250843339377,1174.1237696192657,1169.7556621231531,-158.6234601620616,-560.3149543757804,28.409200798114373,-594.5416247226598,157.54785284358024
0.0875,1.4892215295257762,-1.313993699906896,-0.2334355603726493,-0.0240470364149505,0.2256410664302199,0.0296975317390988,-0.0021343078870463,0.0011450437308101,-0.0995100396816387,0.9950330490148188,-0.068811786570119,-0.0577319124854159,11.007559914824077,-0.072014067578566,-0.0226310269193118,0.9753866823485062,4.571905859653619,-0.9464316466080192,0.2279477900772136,1177.024649022114,1162.5864566509968,1174.1914973639307,1168.3136861638309,-119.95442356374063,-541.480875528806,-4.339316042205618,-552.3501650252011,157.5482410991255
0.0899999999999999,1.209937879388414,-1.6766293216302497,-0.3534954808382345,-0.0209124266186108,0.2243309386486863,0.0291269998642679,-0.0021384223504117,0.0014393119112567,-0.0994814393102115,0.9950355091376584,-0.0728498270329532,-0.052934859463999,10.969181991098322,-0.0726505456277826,-0.022742925995123,0.9783057802057348,4.571727396793428,-0.946451089306124,0.2303984043275759,1176.7646249252991,1161.3176799562937,1174.1020730390546,1166.9939112980271,-101.9061991302353,-414.1511198194629,-102.87945133441119,-481.5026158327792,157.54849038561107
0.0924999999999999,0.9857491186052936,-2.137599849915732,-0.4693617543586939,-0.0187683142532322,0.221059402656753,0.0280880203757879,-0.0021466708227087,0.0017354781303748,-0.0994636529702205,0.9950367825838686,-0.0771429078119091,-0.0481695536427753,10.930283996436245,-0.07328998363663,-0.0228257035726463,0.9810996019462404,4.571547527384763,-0.9464723917672414,0.2328559713677153,1176.5151180264627,1160.5157010518997,1173.6771001072586,1165.9061730846668,-139.2957336364815,-198.18556838008567,-289.93874405923606,-404.4745965287799,157.54856948036945
0.095,0.81396747464618,-2.7424223398032272,-0.570387725239619,-0.0169885094499263,0.2139516144191636,0.0263813149034702,-0.0021544382217058,0.0020351720773497,-0.0994526971942971,0.99503727344704,-0.0817435617763388,-0.0434531598286288,10.891125429281995,-0.0739372758838316,-0.0228678027526821,0.9837687669041272,4.571366061510247,-0.946494210603715,0.2353195092699425,1176.0681462571167,1160.3267521143932,1172.6523793187584,1164.9715383153834,-211.46844820764247,71.21103082786243,-470.68250124834736,-273.5696781601289,157.54846452629968
0.0975,0.768248660433362,-3.235219351717984,-0.6001915955606134,-0.0157526154352869,0.2056955966689576,0.0246224163925535,-0.0021565544443394,0.0023425421911601,-0.0994442949689036,0.995037416497,-0.0867523441327562,-0.0387999862214861,10.85196129652476,-0.0746019762320889,-0.0228586385821626,0.9863145930671566,4.5711829746765895,-0.9465153690598532,0.2377882962037148,1175.4577757854247,1160.8717562060388,1171.323687601017,1164.5383246938663,-311.4664816835554,348.3462601393964,-629.5410504382284,-107.45721392368058,157.5482084287311
0.1,0.8318880371224927,-3.662340725289895,-0.550968172131703,-0.0146515553108257,0.1958275279248732,0.0225002209615303,-0.0021532712055323,0.0026539109262396,-0.099439548704543,0.99503711449277,-0.0920818342437574,-0.034324274545498,10.813039789402866,-0.0752768048016798,-0.0227992291971606,0.9887403204938344,4.570998867688678,-0.9465355615346034,0.2402626228073948,1174.5108138486992,1162.0684834150902,1169.5046740665673,1164.434252245765,-436.31486608173833,556.2751843373458,-799.7732109854489,-2.7176090875400383,157.54777492112964
0.1025,0.9830765503071855,-4.011551878624172,-0.426061567385157,-0.0138503601774756,0.1853039420061085,0.0200878538971618,-0.0021503032595381,0.0029634868645559,-0.0994405128329254,0.99503617315225,-0.0975828025607431,-0.0302466263344473,10.774598321132967,-0.0759490924266499,-0.0227028473190768,0.991050138408716,4.570813867174726,-0.9465544335760272,0.2427441395114124,1173.276201455016,1163.6531321277257,1167.3248215460897,1164.5247366484286,-548.4464374695573,675.9827770217283,-937.8429621974664,54.53633725323935,157.54719244432985
0.1049999999999999,1.219017271195312,-4.260752744014857,-0.2130182099864872,-0.0130008061603114,0.1746471442340745,0.017558596961077,-0.0021518254752074,0.0032598913907136,-0.0994443183035359,0.9950349116824044,-0.1029860474436025,-0.026729984217473,10.736861507945974,-0.0765956631317522,-0.0225796315326554,0.993249975960598,4.570628042386538,-0.9465707063483292,0.2452318982381525,1171.7685816613512,1165.4483973001988,1164.81545925558,1164.7069339320312,-688.3681646674644,768.1619748841982,-1143.7929034726515,59.84680484020839,157.5464279141437
0.1074999999999999,1.5414460489482136,-4.455823577638844,0.1100745348114165,-0.0100957943384009,0.1620632103649649,0.0157711054919928,-0.0021589496294062,0.0035335033373441,-0.0994492502172714,0.995033540012744,-0.108064089044627,-0.0238606067200101,10.700037074195585,-0.0771974973700638,-0.0224356357864643,0.9953465123548204,4.57044247914414,-0.9465838594755837,0.2477251620029974,1169.8343606316787,1167.4939420021467,1161.6058570287264,1164.8239706726297,-694.4884217672545,687.6051072728382,-1180.739595563499,-2.61485725618513,157.54529667821237
0.11,1.7806124800342944,-4.545231574369061,0.3876300028126744,-0.005003747492521,0.1515916468018285,0.0165350698654992,-0.002168039892054,0.003770460040174,-0.0994506675157404,0.995032587208993,-0.1125064676065956,-0.0215969653857913,10.664314632380524,-0.077728487203319,-0.0222672916850787,0.9973481837902092,4.570258046825519,-0.946594039437934,0.2502219148018647,1168.2961395525151,1168.886422836563,1158.9117612777625,1164.6938596457503,-560.006375355169,457.47044488607526,-1049.6986403514247,-126.25331770905164,157.54417324729943
0.1125,1.917028414233032,-4.571905808520548,0.6067174185975328,0.0024701190128504,0.1408666737034803,0.0196120657366829,-0.0021734183715586,0.0039634792665221,-0.0994440611416022,0.9950325532543736,-0.1161442002278302,-0.0198496734328996,10.62986145896709,-0.0781762089435046,-0.0220688952584958,0.999263232338385,4.570075555345378,-0.946601164083189,0.2527209007850592,1167.0343287549028,1169.781294226577,1156.3573638269693,1164.1927040840844,-461.2621038033463,266.623980490476,-1063.2592816466504,-324.1939322498635,157.5428589755277
0.115,1.9228645116053356,-4.540686864200715,0.7462564700423333,0.0115648986344089,0.1278102316441735,0.0241874684566062,-0.0021687314479186,0.0041123228713759,-0.0994253438358775,0.9950338746380488,-0.11895432826513,-0.0185102031864872,10.596820851944043,-0.0785425538348298,-0.0218350266543834,1.0010992184732497,4.569895146642619,-0.9466044159106806,0.2552218022524463,1165.9898290334984,1170.2195427390154,1153.5954648695292,1163.0728899845008,-297.7983108749865,64.0686552217175,-948.9371430622205,-499.47263287340274,157.5410572269092
0.1175,1.8107936852240352,-4.466585273027984,0.7480970933205272,0.0173703189489125,0.1169947220126866,0.0275406477813918,-0.002149730719273,0.0042261479640903,-0.0993903069505147,0.9950369585127852,-0.1211014345397626,-0.0175135141506443,10.565310807961197,-0.0788478024944613,-0.0215660111045923,1.0028621199350063,4.5697167373882985,-0.9466038976740841,0.2577247668214511,1165.545337200528,1170.1016375026857,1151.612678111658,1161.6953409197174,-97.42960949383831,-120.31702288522888,-721.2447840696326,-633.2197872698101,157.5393655318784
0.1199999999999999,1.6313507882677387,-4.347389897808734,0.649246021426525,0.02072538144976,0.1064670908231591,0.0297636749139699,-0.0021108819658265,0.0043149089744728,-0.0993392509741018,0.9950417607138676,-0.1227625399858769,-0.0167489433088039,10.535425901586864,-0.0791138825863964,-0.0212596474723972,1.0045573995460324,4.569539052735407,-0.9465999338509468,0.2602305071707677,1165.5026809860292,1169.6179576245893,1149.989240949181,1159.906791048152,35.01914710823264,-228.0320995758761,-593.0748232279268,-767.4494451635853,157.5374728257532
0.1224999999999999,1.441415735000211,-4.194048757040323,0.4946694247261424,0.0225768394208939,0.0963773625989442,0.0311569845412049,-0.002054734021701,0.0043804119814163,-0.0992745727909352,0.995048039166719,-0.123921233059856,-0.0162386037807747,10.507240147703856,-0.0793445605327172,-0.0209273442319029,1.0061909279037948,4.569361364774235,-0.9465945779072356,0.2627410339813314,1165.720432936069,1168.9614770048063,1148.6473039955183,1157.8580936938995,127.75149992485228,-273.99360813392354,-480.27434382092866,-855.191558215528,157.5354113303471
0.125,1.2736128370243647,-4.001684074167859,0.3108966814798458,0.0238134671390501,0.0867443557017825,0.031885092086938,-0.0019885301953321,0.0044270778599913,-0.0992018005857851,0.9950552165367068,-0.1246029903487965,-0.0160892194564759,10.480805369194272,-0.0795475028415668,-0.020589479146238,1.0077673087579002,4.569183282093077,-0.9465894021229913,0.2652580176518375,1166.1414384856535,1168.2479895839197,1147.5878692300764,1155.6308332570743,204.19365525285667,-296.50314430523366,-420.939413815358,-981.2250584185213,157.53314472925803
0.1275,1.1037959248469251,-3.7248230950248096,0.1028685414684091,0.0257797523293481,0.0754744694980289,0.0318118829394394,-0.0019182918995072,0.0044522768461891,-0.0991297351278812,0.9950624228375716,-0.1246869901624817,-0.0163503708741657,10.45615450067534,-0.079716094442829,-0.0202616585470696,1.0092918108018707,4.569005116309844,-0.9465852224060628,0.2677805256155757,1166.7414012123331,1167.47896128328,1146.5426069264415,1152.9519684018069,218.0780140261957,-252.67722359703816,-361.21268361507606,-953.1186142611651,157.5301869288742
0.13,0.9697092947974806,-3.454627987205958,-0.0319529928626729,0.0278538534805436,0.0665058443659358,0.0308812042291003,-0.0018447956203984,0.0044500584014838,-0.0990681973318677,0.9950687089841304,-0.1239946883100304,-0.01694189000186,10.433301816437304,-0.0798377156097753,-0.0199471545623829,1.0107701512283365,4.568826804331553,-0.9465819356682644,0.2703080825152643,1167.2318285557844,1166.9846034659345,1145.781805812001,1150.8652401857685,175.9817598410335,-158.08200876781467,-298.30959968603537,-770.9279587983011,157.52752427786683
0.1325,0.806801645635367,-3.145878840617439,-0.10686402022605,0.0301570378357072,0.0581754353816636,0.0295933521371424,-0.0017704094634882,0.0044248839961493,-0.0990213737106706,0.9950736296736828,-0.1225618274446685,-0.0178271317819244,10.412240982523276,-0.0799201878710584,-0.0196525543293482,1.0122063243899166,4.568648109338881,-0.9465800378018052,0.2728408415382187,1167.6213100115383,1166.688551239441,1145.0510589280116,1149.0973286078151,125.9800351520879,-83.90801932155219,-297.6094967433707,-633.8501155418264,157.52465796228603
0.135,0.5905413742798445,-2.8117362387334275,-0.1308861973162061,0.0326412842377525,0.0506369492697823,0.028466781447627,-0.0016981800643393,0.0043781335745494,-0.0989887401916884,0.995077219673353,-0.1203606326265552,-0.0189688584898934,10.39294965419642,-0.0799648096597215,-0.0193836232811145,1.0136050402486234,4.568468545470108,-0.946579278235758,0.2753782381389621,1167.8617287315449,1166.5650633693267,1144.293758328284,1147.695989608059,44.67034845952181,-10.754476210422572,-317.7226151125976,-456.20995398317024,157.52162488018513
0.1375,0.282013574793952,-2.4609630808265193,-0.1070868834316578,0.0353089802591071,0.044311881821085,0.027944980314708,-0.0016317898110412,0.0043141744646718,-0.0989648660759707,0.9950799894596392,-0.1174275403249504,-0.0203437019241701,10.37538947442966,-0.0799785896314691,-0.0191466693394398,1.0149709319317892,4.568287959335161,-0.9465797603946636,0.2779193009370165,1167.844661753836,1166.6347788583887,1143.4624458524484,1146.8162788378995,-82.14663420221761,67.70492207128876,-384.26800381771466,-259.15711851089304,157.51839434675054
0.14,-0.2054826245390712,-2.0423573124582526,-0.0506261901572895,0.0382164877992584,0.0379843627554503,0.0280338485583851,-0.0015744461810484,0.0042390824069449,-0.0989439450663572,0.995082482692158,-0.1138404395368153,-0.0219199359313176,10.359508020329663,-0.0799718146527582,-0.0189469940747022,1.0163088896584302,4.568106504983476,-0.9465814177036916,0.2804633004880486,1167.4509955605336,1166.9035879796832,1142.3724183091956,1146.4002040155049,-209.5924156654744,123.17633017823924,-405.24707883655503,-50.751816064575856,157.51429523254404
0.1425,-0.6884866873991924,-1.7104900964306256,2.454496637193289e-05,0.0394320948356823,0.033715676088603,0.0284152823418441,-0.0015229514939561,0.0041591299615909,-0.0989227996263339,0.9950849917658114,-0.1097011283927292,-0.0235352284835991,10.345241056649188,-0.0799561603013895,-0.0187772690110232,1.0176244020409464,4.56792443105123,-0.9465837591739508,0.2830080529266751,1166.7966996755088,1167.25066050928,1141.4362104582658,1146.5625197575766,-320.5500182959455,157.2832058520824,-353.07318674099565,152.8282185610358,157.5106982562382
0.1449999999999999,-1.1873703828513011,-1.4107301830020365,0.037271447374999,0.0376258083642605,0.0305035576324373,0.0288868726125949,-0.0014725201912992,0.0040809711505598,-0.0988953953863986,0.995088095105974,-0.1051305887679767,-0.0249983358207005,10.332514809442344,-0.0799443236303325,-0.0186266072776225,1.0189231532886187,4.5677420992749,-0.946585904702162,0.2855504637665204,1165.848245469054,1167.6900040089436,1140.6070523754906,1147.16434510831,-461.3763519533244,203.89879609706531,-293.68394735734137,332.6433095877307,157.50691811466805
0.1474999999999999,-1.7015634787807719,-1.09666290584973,0.0560978042256433,0.0313369821474097,0.0274583845721808,0.0295471765553269,-0.0014206600029675,0.0040040219292121,-0.0988587213537863,0.9950920976432998,-0.1001060521165079,-0.0261560021663025,10.32125003632774,-0.0799335732427466,-0.0184878515012046,1.0202115717527929,4.567560399218147,-0.9465870233734056,0.2880902433036466,1164.489817915742,1168.2701544897654,1139.967790721479,1148.2257363055153,-513.0825279419691,208.49385150654575,-139.24139880919017,415.19290693586265,157.5021750859248
0.1499999999999999,-1.9940472985217368,-0.8722774234937188,0.0488658088342112,0.0240796488873442,0.0252464550226833,0.0301579965465995,-0.0013672990926783,0.0039218814293271,-0.0988121055256647,0.9950970922359392,-0.0944918711268771,-0.0268996869014288,10.311364283265272,-0.0799084758798555,-0.0183579496208684,1.0214957730569572,4.567379907227497,-0.9465861994017644,0.2906292921580956,1163.2828328293442,1168.7324732664763,1139.9108453814447,1149.2403096429891,-474.96493467347096,155.0824592257412,110.08583168013492,394.156840351388,157.4980533524372
0.1524999999999999,-2.1069221272228646,-0.6803820507596994,0.0240679298573524,0.0166400306160392,0.0232678207020889,0.0305971739518772,-0.0013143858903068,0.0038365473498532,-0.098757867500752,0.9951028371415014,-0.088333214992211,-0.027187559538443,10.302772241328968,-0.0798696887812498,-0.018239911015306,1.0227785469446655,4.567199749234079,-0.9465840738341744,0.2931710736978522,1162.1149932423748,1169.045566785894,1140.5182198798796,1150.1965205072722,-449.6489673899301,72.84200263679841,366.1037433173074,345.8510836901948,157.4937593124219
0.1549999999999999,-2.0765619850512578,-0.5103618404271725,-0.0051796399039659,0.0100908596008148,0.0216528958956257,0.0306515043782938,-0.0012643823498812,0.0037547730588898,-0.0986961332432815,0.9951092916402298,-0.0817843936958167,-0.0270067418005148,10.295390102729362,-0.0798270199275097,-0.0181380012154426,1.0240596791183647,4.567018729185435,-0.946581942390772,0.2957199717624992,1161.0345879923943,1169.0966832796603,1141.7413640980312,1150.9695650614403,-407.9729752495492,-84.8401843577448,633.8078645154377,239.48434256640192,157.48932454323173
0.1575,-1.9111437037736647,-0.3629452462394948,-0.0247628680055901,0.0054518253594161,0.020583869623804,0.030100649867228,-0.0012204060538748,0.003682437483863,-0.0986262314041468,0.9951164999722948,-0.0749934552196314,-0.0263662076379764,10.289139843722891,-0.0797879319288812,-0.0180570248746413,1.0253371122528803,4.566836749209805,-0.9465807834474714,0.2982774330669161,1160.075128366127,1168.6213658641054,1143.6872592024567,1151.3939422201042,-398.8675949970453,-386.5905570104129,991.2417522004481,87.81884874706513,157.4847223331006
0.16,-1.6166670804958883,-0.209321556165485,-0.0230770657775329,0.0013784372677117,0.0198558855523139,0.0294460075733758,-0.0011797293752208,0.0036317678582223,-0.0985514327885447,0.995124097550554,-0.0682634124284,-0.0251797984949149,10.283950999775456,-0.0797735379283341,-0.0179913052260688,1.0266065705068759,4.566653029263372,-0.9465800567372048,0.3008431426703495,1159.040250017409,1167.1637304946082,1146.6975728590335,1151.4086593051757,-364.2359756848233,-713.000892149784,1174.413754043552,-76.63667665419773,157.47900862669184
0.1625,-1.327629296064162,-0.0984013834182409,0.0023009811146598,-0.0020819723359789,0.0195927532423927,0.0293111355376934,-0.0011397601180549,0.0036108178777009,-0.0984776684731682,0.9951314719950852,-0.0618241813076294,-0.023368059895631,10.279764198362972,-0.0797961624630193,-0.017934653098205,1.0278639265986085,4.566466447809495,-0.9465794182886093,0.3034158444123284,1158.2539484877027,1165.0563614033565,1149.5593279726747,1151.0107588368332,-299.9205245937898,-1036.3726445727923,1150.4320601163715,-226.0319842721399,157.4740895315152
0.165,-1.027716386674851,-0.0008710343914137,0.0510179649059933,-0.0052905635952987,0.0195540456683243,0.0294077952590786,-0.0011059039260435,0.0036283603413326,-0.0984091707560257,0.9951381674995033,-0.055916109960224,-0.0210292423790697,10.27653136853053,-0.0798681707880879,-0.0178969019888457,1.0291049267055492,4.566276773879351,-0.9465787822692396,0.3059938784613012,1157.5406473944404,1161.9818672717442,1152.449733159615,1150.2784993838147,-271.6698083425397,-1366.0095106738925,1103.2732229127296,-322.3721165531512,157.46900826118303
0.1675,-0.7459939673546817,0.0900036454954993,0.1173102305626417,-0.0071577570111481,0.0196401674807206,0.029474415865974,-0.001080265579608,0.0036863334265716,-0.0983460871888464,0.9951441640095912,-0.0506569019175147,-0.0181931615891258,10.274216884958344,-0.079989266270896,-0.0178790369286905,1.0303271026971048,4.566084271873201,-0.9465794407192926,0.3085752361079683,1156.8955994459902,1158.226313849987,1155.0756940872384,1149.3988982540675,-240.3877460832516,-1599.0220863324323,920.850552549654,-344.28096166898257,157.46379336763792
0.17,-0.5194158386114651,0.1786287221911062,0.2017174175530183,-0.0072941032418036,0.0198573108194653,0.0293743502946503,-0.001062110837821,0.0037802815894031,-0.0982879744210591,0.9951495327481484,-0.0460476999424934,-0.0148320689025225,10.272796570208424,-0.0801475210417445,-0.0178749049202119,1.031529892548644,4.565889247132455,-0.946582016565804,0.3111590495306106,1156.338708664024,1153.986756840082,1157.0539859223636,1148.55709457547,-227.31383461627937,-1857.3316963801049,660.3930250892968,-298.40247707988937,157.458418108326
0.1725,-0.3362250845321875,0.2883967270031094,0.3134672931673528,-0.0061655569716587,0.0202971548400781,0.0295463624429014,-0.0010474427158324,0.0038980947163605,-0.0982343454458666,0.9951543767355476,-0.0419454913931956,-0.0108493176218798,10.272256281029007,-0.0803171318955523,-0.0178704151060451,1.0327148465480378,4.565693371031321,-0.9465854446766174,0.313744226773447,1155.7590302729088,1148.9396553680865,1158.3776592126849,1147.906885868668,-202.41886031408268,-1750.8501023265565,294.5031466146244,-134.09541953169523,157.45178307054968
0.175,-0.2518275287019197,0.3848612503650044,0.4006140485155343,-0.0049844691688706,0.0208461792310541,0.0304920618542368,-0.0010449234790548,0.0040358487495662,-0.0981873518298869,0.99515848157575,-0.0383517794413329,-0.0064363203108606,10.272589118114512,-0.08048782785215,-0.0178801262837753,1.033882566745981,4.565498532712256,-0.9465887202841704,0.3163306937909789,1155.3266143624537,1145.2325063284493,1158.5265016554367,1147.8866174778116,-169.12216321138737,-1286.9751795421112,-119.7622032315854,139.56029395521975,157.4461002276153
0.1774999999999999,-0.1988001384948423,0.4852398053643446,0.4606956539785003,-0.0052998190601886,0.0216359542227702,0.0321326354597589,-0.0010626687959794,0.0041859703509425,-0.0981489686639484,0.9951616640017584,-0.0351938500508914,-0.0017778964548677,10.273794734648355,-0.0806433685713436,-0.0179174047609283,1.0350346639158188,4.565305911567845,-0.9465912561741971,0.3189196678446655,1154.913419456852,1142.504779470376,1157.7788481965267,1148.604687338444,-183.41623499391147,-914.2346974083052,-476.00257915423975,502.3338984174212,157.44025807218415
0.1799999999999999,-0.1035251525060411,0.6032318944211628,0.4846287026861041,-0.0079711554070458,0.0230929360371452,0.0340503310537741,-0.001103190179949,0.0043483133048316,-0.098118056608679,0.9951640235208076,-0.0325578738681469,0.0030294056038232,10.275876241553997,-0.0807853107633452,-0.0179856824269819,1.0361719051475535,4.565115231349048,-0.946593200380807,0.321513570692504,1154.409533187484,1140.6613328414076,1156.1464887596655,1150.3982869698987,-187.04164527193808,-432.6625191205945,-663.3467644038768,799.0559731170371,157.43306365646635
0.1824999999999999,0.0395618198911653,0.6917981626480305,0.4596201707912475,-0.0106787809159587,0.0248501285832468,0.0355065105664086,-0.0011602909028282,0.0045163612412851,-0.0980934196762115,0.99516570294779,-0.0304098782570665,0.0080695094972875,10.278838286049112,-0.0809049138190095,-0.0180695059612487,1.0372966543771196,4.564927157032818,-0.946594741643994,0.3241133819234203,1153.9782112304922,1140.341466874773,1154.4621143745076,1152.599967204029,-169.5337633446796,89.36698896809494,-671.0730507291368,980.3473694412323,157.42691606560024
0.1849999999999999,0.2545837764421146,0.7620349486559596,0.3887502453627577,-0.0121182274452665,0.0269658666878581,0.0368649402265478,-0.0012243131007164,0.0046826189597669,-0.0980732756932523,0.995166918408424,-0.0286923705975042,0.0134896764863235,10.282683865386947,-0.0809929057702465,-0.018146171386841,1.0384122414325452,4.564742134281156,-0.9465960122799044,0.326718188240371,1153.5618643707608,1141.1081677862483,1152.7911235060199,1155.3000238171048,-154.67063090527503,439.461514635968,-622.4287754435403,1108.6812543624535,157.42061271953767
0.1875,0.5046259368769311,0.8145165216518597,0.2847192595627148,-0.0119822656386294,0.0291517497803721,0.0380712132099863,-0.0012840656053453,0.0048382179107871,-0.0980544384333696,0.9951680379801436,-0.0273096886855012,0.0194628808000163,10.287411524479595,-0.0810379810636135,-0.0181893619203334,1.0395233532201484,4.564559586125969,-0.9465968873443094,0.329325968436775,1153.2048580759658,1142.5387744479528,1151.3499704972899,1158.1433734758416,-112.07107782879564,665.6228374439246,-487.71395046924175,1093.3556610964831,157.4141827886376
0.19,0.7472399893447914,0.8476047342566199,0.152330201905778,-0.009906203659972,0.0314021458955447,0.0391966874729899,-0.0013341890384955,0.0049822165840749,-0.0980345859900406,0.9951693006188012,-0.0263017166369075,0.0260192998697195,10.293012757175072,-0.0810441714344293,-0.0181865500669807,1.0406345177921519,4.564378988158081,-0.9465981368681384,0.3319355419642644,1153.0015089816168,1144.4362819734679,1150.3525537536736,1160.7668021225873,-30.479895059443123,862.7398687325687,-322.94160501678533,1001.1514607815107,157.40760442424903
0.1925,0.9653478410993472,0.8729644899196867,-0.014257508029221,-0.0058927848455977,0.0342664834057601,0.0398486536583085,-0.001377137139932,0.0051117141385446,-0.0980165823085488,0.9951704351449872,-0.0256367764738092,0.033026492991311,10.29947053522672,-0.0810096523248572,-0.0181417958161479,1.0417516305575456,4.564199730251404,-0.946599554734502,0.3345461222428897,1153.0524586006686,1146.8524737916157,1149.735262472206,1163.1491307797492,83.12288292013356,862.2781135780762,-138.87475538322167,682.8442756794624,157.39954560304955
0.195,1.0524820188227988,0.8921883475074429,-0.1339815430763807,-0.0025089717776096,0.0366824772146555,0.0391340170638754,-0.0014141193004467,0.0052225399156136,-0.0980049264001831,0.995171019955572,-0.0252428859074356,0.0403739563011538,10.306756774789344,-0.0809299729984325,-0.0180566439127596,1.0428818247722527,4.564021326393972,-0.9466006281846072,0.3371583724766823,1153.4171233962174,1148.7476725413583,1149.6581799767575,1164.1810235009843,224.38437061432504,695.2187011686414,35.224461172356285,168.80826503338525,157.39269855479108
0.1975,1.0204304568825187,0.9266717298851854,-0.20485092034487,-9.222143987498765e-05,0.0387612241129259,0.0373016215439507,-0.0014419310381699,0.0053176578594884,-0.098000446840732,0.995170964480293,-0.0251854844689265,0.0480216658760113,10.314830176178088,-0.08081627844628,-0.0179244434494753,1.0440319240347655,4.563843403116526,-0.9466011668524253,0.3397720608552068,1154.1743804537402,1150.328567297459,1149.9113847780677,1163.993172104916,369.88494836373286,565.7702016044817,133.98381728079573,-282.9516191091441,157.3857235069419
0.2,0.8801953897022275,0.9882373071581156,-0.2255094127704301,0.0017875571548028,0.0406761452012099,0.0354402225670358,-0.0014559385535768,0.0054029178358459,-0.0979990321639897,0.995170652736802,-0.0255742762816554,0.0559482941033792,10.32363579546186,-0.0806859937484115,-0.017735451746477,1.0452088591634099,4.563666609407865,-0.9466014387959768,0.3423862752229591,1155.266548138036,1151.5765235493807,1150.3280990631615,1162.7662654054388,512.2430256150888,419.00261292575993,181.9924829972477,-712.6749837912932,157.37864941132136
0.2025,0.5946363470683275,1.0963123806400834,-0.1949162551901659,0.00382193224125,0.042801701868073,0.0344201177930937,-0.0014534352816211,0.0054832512413319,-0.0979974119106572,0.995170389685082,-0.0264797825801968,0.064091227572127,10.333105693925244,-0.0805540613901934,-0.0174839036173353,1.0464198983324944,4.56349104169952,-0.94660075604929,0.3449985951752189,1156.7355955818157,1152.4235803620877,1150.821347193054,1160.4297971859596,720.3169879495811,299.47168081980607,211.98928736407632,-1212.9391874735109,157.37146511329456
0.205,0.0640951497769162,1.290031112648064,-0.1283583330119756,0.006749529382628,0.0456034647365794,0.0344457226809962,-0.0014345924084811,0.0055631184854547,-0.0979930057951407,0.9951704119028913,-0.0279415845496077,0.0723269144041496,10.343160294055059,-0.0804336444483562,-0.0171700282241071,1.0476719777808012,4.5633162885269805,-0.9465980738998095,0.3476074174467347,1158.868133077784,1153.0738819534797,1151.388045499982,1156.7015694680713,831.2345565467234,199.64099929343303,194.79575932245993,-1453.8164175086408,157.36272907806975
0.2075,-0.5353879039871008,1.505878549678649,-0.0701394542404878,0.0088898314859065,0.0481013671557956,0.0351777466955172,-0.0014043900845059,0.0056411510622603,-0.0979830757234255,0.9951709950132032,-0.0298551825905781,0.0804426950280967,10.353711192198448,-0.08032456281993,-0.0168027488265983,1.048971691489504,4.563142090667752,-0.9465941640468188,0.3502134464513647,1160.8917683645493,1153.4217853585549,1151.7953259896663,1153.1607150984164,843.2549942850568,124.76128049829698,149.07465259730157,-1420.4521384994289,157.35536289498637
0.2099999999999999,-1.262917979328759,1.7679924041859203,-0.0234609455721908,0.0090011381613595,0.0511679074247415,0.035730743169143,-0.0013764132759405,0.0057142401408651,-0.0979671199180217,0.9951721864027572,-0.032050301150521,0.0880511209829221,10.364665150941333,-0.0802209407913561,-0.0164087579069954,1.0503236454499787,4.5629688290397645,-0.946591105835524,0.3528195243497116,1163.0844080492093,1153.6976883559712,1152.1334187629684,1149.599308775574,979.77248568714,123.52727270877097,143.17314878894715,-1476.0769301412506,157.34791921826726
0.2124999999999999,-2.190251307831289,2.1058381141737943,0.0198439600897629,0.0045607125399985,0.0562240759481152,0.0353664767328297,-0.0013598750949898,0.0057828529910656,-0.0979428600825857,0.9951741914691516,-0.0344280099735676,0.0948474162592514,10.375925213243324,-0.0801250829599031,-0.0160060260393496,1.0517291532335111,4.562797002677622,-0.9465896850605102,0.3554292779873057,1165.7906307929848,1154.0394217220987,1152.5111917336108,1145.78033044771,984.9526968243016,130.4203953898194,144.34761077554853,-1262.612969266728,157.33891171189353
0.2149999999999999,-2.919968067273134,2.3752784187343887,0.0482587679132482,-0.0033769527275741,0.0619142280712175,0.0346396646274525,-0.0013628149342642,0.0058488922202019,-0.0979075772652833,0.9951772522766422,-0.0369131257796087,0.1005500617796309,10.387394831205324,-0.0800422222575234,-0.0156104977890165,1.0531862942817631,4.562627087275011,-0.94659058266492,0.3580460816592072,1168.0091715333308,1154.3497903329203,1152.855156816846,1143.2862439292403,855.5456492339536,122.61777095386594,153.16220378253988,-796.0369899368281,157.33135396230995
0.2174999999999999,-3.5121469777944,2.5938169438060954,0.0626016470030418,-0.014063129170217,0.0688774697731496,0.0344218633466627,-0.0013895590193402,0.0059128485588128,-0.0978626190311414,0.9951812212786778,-0.0394047337369159,0.104961730976565,10.39898077687468,-0.079974771602317,-0.015231231437772,1.05469067844472,4.562458420094295,-0.9465939725569628,0.3606720987533095,1170.0683590391548,1154.652510576868,1153.2770027525237,1141.800145498026,781.2035860598819,109.3834920289736,184.12941877868417,-399.3122961940568,157.32375664171465
0.22,-3.950782922460396,2.7494747335260388,0.0529779612634109,-0.0253316474271838,0.0764676472133197,0.034957328030312,-0.0014431784643762,0.0059775969237631,-0.0978037373287624,0.9951864864419732,-0.0418503405963609,0.1079131943307916,10.410596393860969,-0.0799298346856485,-0.014875331957992,1.056235460040554,4.562291279295088,-0.9465993960511864,0.3633090447590864,1171.9151894636302,1154.8967077930652,1153.7758039107396,1141.2896824482702,674.4203065725736,69.68397380660457,216.71989686610664,40.14478583230808,157.31613734680744
0.2225,-4.196772676802952,2.8210378212338023,2.8215742364640084e-06,-0.0362526987559336,0.0842956322124368,0.0362207642373582,-0.001523879521374,0.0060465649063108,-0.0977287988805666,0.9951932290922676,-0.0442169390347242,0.1093039458055942,10.422163355649396,-0.0799153094591856,-0.0145457658308273,1.0578126229010054,4.562126334321468,-0.9466050283469308,0.3659581883130042,1173.4404605720176,1155.000930445901,1154.3606022368542,1142.0008694271876,591.6129641760102,2.883051282333324,275.0602008454732,573.1859787873868,157.30850507746794
0.225,-4.292210528607588,2.822023893123853,-0.1154524286693666,-0.04863246773684,0.0932073582991141,0.0375837249764705,-0.0016269666889088,0.0061235544970649,-0.0976355469273759,0.995201649712156,-0.0464946087495915,0.1091481888902224,10.433612261554869,-0.0799397849233066,-0.0142369344492539,1.0594141919959223,4.561963666396865,-0.9466090827364596,0.3686187021018475,1174.8732542845103,1154.9111230494768,1155.1511049149667,1144.1556123422072,464.753613511311,-65.24443627349677,305.27826408788286,970.1522578256563,157.29934918638855
0.2275,-4.230547031729968,2.773842110874671,-0.2382889227409186,-0.0588612780865429,0.0998870451750836,0.0375904265604327,-0.0017461110890588,0.0062131113383853,-0.0975246253432367,0.9952116662104802,-0.0487021609139308,0.1075098598417345,10.444883574426907,-0.0800123574280025,-0.0139420465620303,1.0610332775002627,4.561802827428651,-0.9466092518561244,0.3712871100311319,1175.764228639574,1154.6747082645336,1155.8869935572936,1146.8516307163159,309.6654577309434,-106.29266549335615,313.0601039087648,1207.8951625933755,157.29173489717036
0.23,-4.0529338394544165,2.7056986817391246,-0.3544253547186629,-0.0698249283622784,0.105694687625047,0.036093887580007,-0.0018770625290048,0.0063210585467485,-0.0973999686025787,0.995222865171806,-0.0508944046785557,0.104427206945736,10.455927775742683,-0.0801428504013639,-0.0136608481657775,1.0626647828252251,4.561643290503755,-0.9466040307904972,0.3739601873147438,1176.4215815731648,1154.37965972201,1156.7164054345108,1150.195088155174,239.87173312611935,-98.7641018687099,348.12519602132824,1400.2151327007584,157.2841530032534
0.2325,-3.8077209973237434,2.639381171038355,-0.4407920261178721,-0.080686987948102,0.1110517075530517,0.0339871732993314,-0.0020227173255783,0.006459220472431,-0.0972719590228316,0.9952341469782532,-0.0532543623759889,0.0997996958521069,10.466704647353186,-0.0803507120342991,-0.0134113458498237,1.0643049328485483,4.561482625968711,-0.9465938127744584,0.3766350323423656,1176.9635873052048,1154.18088775519,1157.6276195374003,1153.8527063798197,205.46512656942448,-11.367350680484368,380.2747854413152,1490.7020304626699,157.27661036992092
0.235,-3.533607368095325,2.583265635721482,-0.476701554517671,-0.0896392713626682,0.1162170153167645,0.0318845247584187,-0.0021816498016547,0.0066283546378558,-0.0971520644979997,0.9952443818490588,-0.055762121661003,0.0936626084266467,10.477179709167036,-0.0806315985011679,-0.0132007383185597,1.0659540463515795,4.561319196904247,-0.9465806672600984,0.3793092937982631,1177.448907206012,1154.3228229686076,1158.617779361717,1157.6485983074874,208.824152032548,198.62066195364588,441.4833848189114,1652.2975126062631,157.2691304873455
0.2375,-3.252932678707636,2.5163966750935214,-0.464024438021208,-0.0972183561593591,0.1227071037207685,0.0297420825027605,-0.0023498832239415,0.0068190778741368,-0.0970451141502998,0.9952531633804624,-0.0582089952681614,0.086149280120538,10.48732309017098,-0.0809593708035862,-0.0130278464087796,1.0676158583516895,4.561152125267002,-0.9465658516138716,0.3819831007285541,1178.0077080653675,1155.1739910649583,1159.8350364614948,1162.1141939428508,192.4262985618052,456.3416834727398,440.0174903904392,1597.2491710881588,157.26024761705983
0.2399999999999999,-3.1067233363380637,2.439657927866151,-0.4207234064865752,-0.1012919188053576,0.1285606826797259,0.0283344720084439,-0.0025180339531049,0.0070140658037174,-0.0969530260690293,0.9952604371266844,-0.0602505115568683,0.0775467264032121,10.497107693650047,-0.0812916588580691,-0.0128779106661111,1.06929650285304,4.560982170357745,-0.9465482924318968,0.3846559551593088,1178.4110386988211,1156.6045313859713,1160.8178668136695,1165.634844162928,118.00688882458472,733.2600285325985,379.58158531919435,1352.9561251220064,157.25293769025964
0.2424999999999999,-3.0616610590881534,2.3085764489719742,-0.368224865358839,-0.1046503815254068,0.1347882014670624,0.0273932302900528,-0.0026740099102882,0.0072022501532683,-0.0968749130257402,0.9952663907103764,-0.0616975275052344,0.0682099864510004,10.50650789324572,-0.0815999877909529,-0.0127311246769486,1.0710014085489312,4.560810657274618,-0.946525743841902,0.3873290152175437,1178.5977425094904,1158.8402912076212,1161.7329443880908,1168.8789745684608,-23.253287568877543,1142.6418429106425,396.9299848403804,1369.9338804153272,157.24574045809928
0.2449999999999999,-3.054756456993083,2.0554978876078,-0.3268570495297676,-0.1111301707341246,0.1425435554301143,0.0270300329859271,-0.0028088345188915,0.007376892150286,-0.096808150999283,0.9952713477598653,-0.0624644560544959,0.0584426030835495,10.51550028998072,-0.0818649994160996,-0.0125744600477185,1.0727348369018774,4.560638835666251,-0.9464969966547268,0.3900036992697474,1178.2947722609767,1162.3177406005243,1162.8025167378714,1172.4845135650048,-242.77254059256825,1362.237671980164,407.4839851699832,1289.5125864273712,157.23725131328862
0.2474999999999999,-2.994160037048557,1.7533853270608235,-0.3301298054933151,-0.1196520220658661,0.1486087835754882,0.0273254706752552,-0.0029235225405936,0.0075399127712149,-0.0967528485976027,0.9952752748141708,-0.0626458604185229,0.0483408629348076,10.524063925717735,-0.0820846042903809,-0.0124174009205031,1.0744985699257628,4.5604677348119855,-0.9464627680500723,0.3926821334471711,1177.3838798065276,1165.651479567522,1163.7703643139407,1175.3265375005979,-541.4382404103885,1349.186027972199,434.333593910696,1121.3174877118936,157.23031099476935
0.25,-2.7582585098689085,1.3658447648869845,-0.382291787067962,-0.1294403088751449,0.153148230209111,0.0276003054751153,-0.0030235125370247,0.007694002448149,-0.0967101096613683,0.9952780246742096,-0.0623600883209546,0.0379221773021648,10.53218005736626,-0.082258593603812,-0.0122776195415729,1.07629299061714,4.560297813449798,-0.946425216495082,0.3953648074677744,1175.5875810589248,1169.0636707403855,1164.974184707425,1178.0911010035643,-876.8689392512433,1315.3044126413977,541.2034187065269,1096.0448951113895,157.22352094909556
0.2525,-2.313694991154432,0.9294393008709037,-0.468077132161103,-0.1385790954110112,0.1561329451173318,0.0273250211691379,-0.0031152945996226,0.0078494656467413,-0.0966848245458898,0.9952790181810852,-0.0618969740607818,0.0271775412762746,10.53983167959385,-0.0824040517431547,-0.01217514053569,1.0781158942270084,4.560128317498737,-0.9463861047150453,0.3980527821394582,1172.9995351102712,1172.228001630729,1166.4763814074731,1180.8067619761548,-1211.0291016364943,1135.0209927316419,684.7332694648679,1057.780331250614,157.21686246659604
0.255,-1.5865203454915306,0.4685355074007253,-0.5717301753793947,-0.1462966554778258,0.157427513323103,0.0260351344329887,-0.0032052908452672,0.0080120480744017,-0.0966778319662957,0.9952781041014184,-0.0614598886408347,0.0161149321628196,10.547005878030683,-0.0825297053158147,-0.0121260076138825,1.0799645743906163,4.559959219957905,-0.9463472491375616,0.4007476733400917,1169.5324355507423,1174.7387757040435,1168.3978510547493,1183.3800026598171,-1673.759799420939,885.8188659999987,935.7614533164898,1058.1977272316626,157.2103693336771
0.2575,-0.4080048070657562,-0.0707953982428487,-0.6815751051899348,-0.1532126547483925,0.1572653880437289,0.0233390300505631,-0.0032972127264508,0.0081867006809073,-0.0966875431327969,0.9952753835949812,-0.061246346247436,0.0048024838463566,10.553694569453436,-0.0826444902702824,-0.0121376334259055,1.081835450393198,4.559790487237898,-0.946310346437814,0.4034502686089333,1164.6307361131667,1176.657095960729,1171.1551886740558,1186.0977506123131,-1860.581137452344,499.1932909498696,1066.3360697521955,903.4414363998159,157.20277526655272
0.26,0.767451823339818,-0.4849759549268248,-0.7409528957089213,-0.1560542810123167,0.1559338459210565,0.0206063008133105,-0.0033926165800328,0.0083777333624951,-0.0967127119977566,0.9952709391131184,-0.0614462998582488,-0.0066477679728604,10.559895896400796,-0.0827577321020884,-0.0122106665369381,1.0837244061785671,4.559620946197584,-0.9462766850453054,0.4061594455171292,1160.2295298634804,1177.234742158793,1173.7295314035102,1187.8972098418164,-1740.1763537637619,31.99990671218981,1049.6511956894656,602.0032323443496,157.1966151161529
0.2625,2.015378260940213,-0.8456729787590052,-0.7582275141474705,-0.1537454555216535,0.1534153433205568,0.0183410174102421,-0.0034950845126227,0.008588041514579,-0.0967508107369119,0.9952649841914396,-0.0622128047648759,-0.0181703110928337,10.565615390599396,-0.0828766834131116,-0.0123480712052247,1.0856272241871143,4.559450738737277,-0.9462464688637692,0.408873620993817,1155.9298543443479,1176.81709549429,1176.4034446525031,1189.1077667740349,-1635.262359448278,-297.2373079638143,1051.3470013684573,390.9253119538331,157.1906336310452
0.265,3.198629210501467,-1.1595036872901767,-0.7440595771810091,-0.1456187972641622,0.1501264206236884,0.0169538940776638,-0.0036035687211603,0.0088137690015569,-0.0967943731192299,0.9952582808535344,-0.0635589116220386,-0.0295989568228878,10.570867042172226,-0.0829965013625735,-0.0125396752688141,1.0875406904648994,4.559281510371912,-0.9462198930961576,0.4115919779628312,1152.0532180662392,1175.748555618974,1178.9862664103523,1189.8518364015856,-1371.9211052668911,-524.2179800738991,966.6540050472568,216.41302479783897,157.18480410093653
0.2675,4.160184256213483,-1.4275196182168688,-0.6964344482794592,-0.1316760135778232,0.1466755799005732,0.0161269256935457,-0.0037162290926659,0.0090559032278153,-0.0968381871181818,0.995251333065346,-0.0655904688245826,-0.0407732999993474,10.575672434568288,-0.0831243479294784,-0.0127745026009244,1.0894606156657267,4.559114733707892,-0.9461970553158012,0.4143156938373964,1149.0702488180132,1174.1960055939203,1181.2367146777394,1190.189831898024,-1026.8386198932594,-712.3303898596524,862.5021948858822,117.5993402880066,157.17916360402816
0.27,4.945612724786695,-1.7213159922430183,-0.5926203978060103,-0.1127810492502517,0.1428943228514106,0.0145244072279617,-0.0038272369046676,0.0093128074447697,-0.0968788454087865,0.995244510288148,-0.0683519180644659,-0.0514578369477487,10.580061602230188,-0.0832637346124553,-0.0130327283800271,1.0913831324600785,4.558950942520394,-0.9461774423681328,0.4170464146285963,1146.919024966773,1172.1869036696755,1183.298777384782,1190.4398331030256,-515.6762144235921,-706.0783226707365,624.2883450769108,114.72705778282932,157.17262260522435
0.2725,5.281588533979401,-1.9588399828456275,-0.4533157420730319,-0.0978044932549389,0.1397647395440026,0.0122759331171519,-0.0039335875278441,0.0095833077248772,-0.0969094499445334,0.995238510897736,-0.0718742134080009,-0.061492846774444,10.58407170472533,-0.0834195078453114,-0.0133007800231154,1.0933043323683396,4.558789641351526,-0.9461599580253712,0.4197859843902831,1146.4918677458954,1170.6656139805668,1184.358156403124,1190.7634671869382,121.21225781238525,-523.7651836765504,277.5276768095407,196.8414045284588,157.16736919691814
0.275,5.337357765501629,-2.191328664573792,-0.2491058955509472,-0.084400871263507,0.135890211335136,0.0094968397089625,-0.004028027908294,0.0098609594893294,-0.0969232674202687,0.995234081986576,-0.0760666221248093,-0.0706335808921398,10.587747049771425,-0.083586475647783,-0.0135556391833882,1.0952217561894,4.558631246610792,-0.9461434321765974,0.4225346288993183,1147.5250862558348,1169.568077751293,1184.6864157688296,1191.424040125668,759.8739499618653,-341.8668587386034,-6.274052703793126,381.4008857498717,157.1623313486461
0.2775,5.175048941592902,-2.4417894855124955,0.0513592466547547,-0.06980444857552,0.1295227404881571,0.0072421400269178,-0.0041145281797817,0.0101403652396642,-0.0969137141403897,0.9952318966188008,-0.0808166692560466,-0.0788887712041577,10.591135124280942,-0.0837595264924222,-0.0138000800216884,1.0971337526744507,4.558476608428116,-0.9461268761474112,0.4252901992986216,1150.2912374957048,1168.9562796868738,1184.326786139605,1192.6704716156876,1221.3977461567072,-88.74171343813933,-227.7394072121749,512.5902074876644,157.156549117531
0.28,4.918663498650059,-2.600057924619904,0.3075609727762418,-0.0585808228379137,0.1226441455230675,0.007818050193875,-0.0041928817416506,0.0104123201899866,-0.0968795688923588,0.9952321637174328,-0.0859187887172553,-0.0861851527685907,10.594286552971738,-0.0839258733062146,-0.0140288964691203,1.0990409055403352,4.558325431507924,-0.9461093889912487,0.4280501590525027,1153.6320749866184,1169.1243691841023,1183.5477187327688,1193.9869911631063,1477.4478056358007,211.37969324663553,-364.3021801207393,531.8598499401555,157.15196090918815
0.2825,4.607024806520845,-2.6790907731262603,0.5089581741833983,-0.0484888541743074,0.114884363216495,0.010972462551695,-0.0042616206526415,0.010665151517379,-0.0968231010549814,0.995234790337555,-0.091096826904336,-0.0924307361023608,10.597252838425348,-0.0840669855952161,-0.0142350569675167,1.1009459141183453,4.558177326974136,-0.9460907776153016,0.4308121758836948,1157.6784765238835,1170.0131781531068,1182.505275239001,1195.3297708653884,1676.469399529149,463.2704265808112,-423.3256709258963,491.1173079242867,157.14762456689675
0.285,4.287819794568076,-2.6862959803463435,0.6329441489439164,-0.0394686892995098,0.1072555777327581,0.0147392491996991,-0.0043165416560603,0.0108909450661957,-0.0967522601569548,0.9952391078640904,-0.0961396396938523,-0.0974954629190428,10.600083432446077,-0.0841721879885432,-0.0144078417837629,1.1028523276201287,4.55803225809942,-0.9460710553125156,0.4335754071044484,1162.014421984264,1171.4407213170064,1181.4310903781393,1196.4425777027277,1739.2443515154791,671.5970117242244,-396.3360778586772,331.18447734509544,157.14350561658117
0.2875,3.982022384062175,-2.6193057452133184,0.659643406599724,-0.0312873745920718,0.1005179262906185,0.0177484733247207,-0.0043579475417564,0.0110841287527525,-0.0966745998723447,0.9952444463117548,-0.1008590397613914,-0.1013605211509443,10.60282286208791,-0.0842338918611644,-0.0145472777303279,1.1047642439497345,4.557890399372387,-0.946050411310734,0.4363408570367625,1166.3746982814612,1173.371163211728,1180.523594849708,1196.9856932521138,1856.5957424154208,915.5570099321361,-318.84322234105053,53.626080227969034,157.1396577220962
0.2899999999999999,3.625590529103776,-2.4836469380284933,0.6113289838976814,-0.0214660448225739,0.0934766026580894,0.0198571821684916,-0.0043823706442453,0.0112421352425116,-0.0965956310723438,0.9952503221327372,-0.1051241955572477,-0.1039444230771277,10.605510142207732,-0.0842506061734805,-0.0146456235630395,1.1066858394027503,4.557751540388213,-0.9460284518974088,0.4391096011808931,1171.2974006963411,1176.0185063666668,1179.836874266434,1196.7107081038675,1715.9635462915223,985.5911438557188,-163.9760189536008,-268.9963912454032,157.13536335317212
0.2924999999999999,3.3144763401064607,-2.347479910629198,0.5395740678329609,-0.0128921722035473,0.0881774831003972,0.0203344377754202,-0.0043871866626847,0.0113651034397042,-0.0965203354890234,0.9952562734160764,-0.1088496501143695,-0.10519917948611,10.608177075499832,-0.0842250390151324,-0.0146973839774066,1.1086210361463,4.557615246834535,-0.946005472428312,0.4418820304917217,1174.9545160129187,1178.2991189310067,1179.70371475494,1195.6407112958868,1336.33182522717,881.2146940970698,49.4037862140885,-582.8241471043833,157.1320598582822
0.2949999999999999,2.955303977757158,-2.207770837102312,0.4713216237710944,-0.0039611507203728,0.0833051555334727,0.0200966538789822,-0.0043741286084266,0.0114573865279021,-0.0964546265665015,0.9952616815504816,-0.1120240949797359,-0.1051874139818775,10.61084684543429,-0.0841664646895898,-0.0147073701960746,1.1105729645984952,4.557480312924239,-0.9459807948157004,0.444656994901455,1177.9790598224768,1180.4245798371524,1180.0838931975045,1193.7965873683456,1085.6373801780128,794.7581632578925,234.45940836636487,-826.6448387186749,157.129047697172
0.2974999999999999,2.5409627281616767,-2.073353593066493,0.418175061845013,0.0046164747840811,0.0786074986458914,0.0201470449835042,-0.0043445858003531,0.0115265321398256,-0.0963981854888092,0.9952664958521816,-0.1147033579096604,-0.1039812252835381,10.613535243674487,-0.0840895542508636,-0.0146788465613296,1.1125439215577848,4.557345336779916,-0.9459547218109025,0.4474336695356456,1180.3827029138088,1182.272909747296,1180.8760117967715,1191.5074871022935,796.8148452767302,648.0456824744118,397.7281921684604,-956.7636187340206,157.1262804043498
0.2999999999999999,2.067514849740199,-1.94728035358648,0.3790799856386681,0.0115273607156288,0.0738674430119367,0.0210060917533575,-0.004300199359449,0.011581461807556,-0.0963513882883843,0.9952705807718601,-0.1169744307752376,-0.1016711129344651,10.616251980850263,-0.0840102155142086,-0.0146152239127678,1.1145352569167106,4.557208269854449,-0.9459278639883174,0.4502120558025518,1181.9631340488606,1183.6648082495244,1182.0725341583468,1189.0127692746755,500.19168277562994,496.93288308426366,577.7666783905255,-1055.987481884721,157.12381109629217
0.3024999999999999,1.4736778974793805,-1.803441674283473,0.3329682316432328,0.0172744816759801,0.0681288856539395,0.0224923867300464,-0.0042467316640354,0.011629474052886,-0.0963095933681862,0.9952742852991056,-0.1188883237636874,-0.0984420532774672,10.619002390137751,-0.083938514766165,-0.0145270836772466,1.1165473695103396,4.5570678880872135,-0.9459017376597672,0.4529943181422054,1182.8836613276867,1184.7575741627174,1183.7648451887244,1186.2275496928698,184.1640393759461,315.4684914875358,622.1607067068356,-930.6787534528205,157.12119490398663
0.3049999999999999,1.002685180508292,-1.689776766494626,0.2860232203673155,0.0199947198356176,0.0635572988896444,0.0236859242691148,-0.0041891748007148,0.0116700575266078,-0.0962700677451894,0.9952778652354148,-0.1203418538719541,-0.0944577068355519,10.621791770965368,-0.0838662865690525,-0.0144210889032315,1.1185804829876576,4.556923551202614,-0.9458763581916234,0.455781980216231,1182.8839542457404,1185.242150706962,1185.1833376918808,1184.3593755074114,-130.19122751156817,137.02313357834998,515.1791542600672,-608.1295415469407,157.11930547566183
0.3074999999999999,0.6123814881284149,-1.5881581112415475,0.226532699282817,0.0206764609394559,0.0595888094654646,0.0247056887319783,-0.0041274462819203,0.0116983587098832,-0.0962308023074998,0.995281576823218,-0.1211620824294565,-0.0897765216536529,10.624627193956377,-0.0837762708073408,-0.0142911257006451,1.120634010614699,4.55677560640452,-0.9458522344393387,0.4585759355386695,1182.232705190129,1185.4426898306092,1186.3407409600247,1183.1869019851351,-380.76043623864246,68.85281095287604,394.4144731623052,-335.9351440866246,157.11771960921487
0.3099999999999999,0.285756048858194,-1.491044261011759,0.1456278499973385,0.0197003459519166,0.0556182426776319,0.0255563582103426,-0.0040649716200385,0.0117074187237795,-0.0961915495250279,0.9952855126584732,-0.1211375352948777,-0.0845374015872592,10.627517512966332,-0.083645769501849,-0.0141382977173961,1.122706152853342,4.556625249953337,-0.9458302870377012,0.4613769623060072,1180.9801520645472,1185.5864147617265,1187.1554100576925,1182.6796997869783,-484.9403868001896,65.57417745893865,179.28695233495074,-44.487013391653775,157.11616948247232
0.3125,0.1448245687234049,-1.436329387950195,0.0788538925274464,0.0183157864547977,0.0525349240528637,0.0256546421079564,-0.0040006468008143,0.0116964294498686,-0.0961496632071241,0.9952899404247574,-0.1202102749379268,-0.0788057370621661,10.630473787141497,-0.0834673790098924,-0.013954522009105,1.1247928316163165,4.556474150767186,-0.9458103667358364,0.4641865481439328,1179.808003256128,1185.770560717904,1187.2371757216995,1182.9644669181769,-428.50229068771984,106.49167531510092,-90.48631331088465,227.89592800604603,157.11517317758856
0.315,0.1235497487905542,-1.4083600096007272,0.0236941214058754,0.0177447317218618,0.0492599051343141,0.0251097158334975,-0.0039330656357367,0.0116671130385173,-0.0961029219133164,0.9952950598140387,-0.1183906530445112,-0.0726539109141293,10.633510425235363,-0.0832403123340172,-0.0137319243576164,1.126888655838156,4.55632343410566,-0.9457916716775184,0.4670056908354655,1178.8376406111083,1186.118873138302,1186.702978491138,1183.8191794270083,-310.74921596427856,167.5902148740532,-290.8778567220904,400.36519011332496,157.11448512877504
0.3175,0.1705430241636543,-1.3984459228639434,-0.0187073719975486,0.0182180688734973,0.0460069439310662,0.0244430670272046,-0.0038625248733812,0.0116236603554926,-0.096051271172814,0.995300827413084,-0.1157514161556601,-0.0662015679960095,10.63664525017278,-0.0829699422687802,-0.0134678686661415,1.1289874913426254,4.556173647138292,-0.945774319098975,0.4698343532913132,1178.2542571763067,1186.608511792274,1185.782786438089,1184.9662928687435,-105.96478580332575,217.5045303333716,-406.4686842360512,481.6603374385518,157.1140538251344
0.32,0.2565591373997335,-1.4032671058596835,-0.0520740858333334,0.0193357108615745,0.042832732625259,0.0242566262696904,-0.0037937849484194,0.0115726996148113,-0.0959990180502903,0.9953067320744908,-0.1124205955069494,-0.0596713805685134,10.639898890562865,-0.0826671297493394,-0.013171739980482,1.1310830919055157,4.556024628313365,-0.9457580393088452,0.4726710715527278,1178.307816682092,1187.2063957899688,1184.6706350699578,1186.2274811142013,181.1056162602652,262.22953019400825,-450.6062896829004,526.5068762254482,157.11393338559793
0.3225,0.3571753923796491,-1.4141252380035656,-0.0967788628747956,0.0209542540312541,0.0385338961344611,0.0248451326041208,-0.0037288074495266,0.0115193114670607,-0.0959523424561387,0.995312111028096,-0.1085108686412398,-0.0532239574689654,10.64329505531426,-0.0823408507750282,-0.0128476355704088,1.133170421750182,4.555876481674995,-0.9457437112308538,0.4755160292544352,1179.159785257608,1187.919659443244,1183.5297549896743,1187.5988272498707,426.1500458457245,239.72077760495247,-332.96114655722675,449.9793908750231,157.11414952625952
0.325,0.4127831011314737,-1.4188665802928344,-0.1447532952618245,0.0227019842034232,0.0345387803205791,0.0256874876169425,-0.0036713575818814,0.0114709580365327,-0.0959153319176943,0.9953164695929996,-0.1041918656309559,-0.047059848956066,10.64685708289727,-0.0820060345615144,-0.012505287411235,1.135245427973836,4.555729846137006,-0.9457322419570392,0.4783685667400929,1180.4385669113203,1188.4049996779936,1183.0058293371717,1188.4773780685764,584.824240211264,147.6215518474872,-84.69101890441372,279.2386107980289,157.11463074008452
0.3275,0.4205395370059497,-1.4158700383297271,-0.1966222204222705,0.0250766314269352,0.0306490183895935,0.0259232210532453,-0.0036199475302119,0.0114344874806423,-0.0958886771640602,0.995319666947634,-0.0996394349867226,-0.0412602084784923,10.650606229115901,-0.0816782379253804,-0.0121436670859497,1.137306018691964,4.555585313725119,-0.9457227744772856,0.4812271495004391,1182.0839064586644,1188.6577672024816,1183.1062998951525,1188.9950203038609,674.9200635602841,47.593791647159335,145.28460678302494,148.21124031095664,157.11542464797995
0.33,0.3886010427962522,-1.411049939420444,-0.2345257378026212,0.0277939662426344,0.0270879215919793,0.0249270867704775,-0.0035662092274888,0.0114104751236409,-0.0958712252666316,0.9953218350148348,-0.0949173583207194,-0.03573676840146,10.65455929346132,-0.0813609043334451,-0.0117465406321891,1.139353238464874,4.5554434229275484,-0.94571319021593,0.4840903151327144,1183.813167229122,1188.6429686362292,1183.7322523710868,1189.2184342701312,657.2499185379451,-82.42294709907574,352.77768522705594,33.722247698051405,157.11647765765494
0.3325,0.3327843955182746,-1.4146624096039728,-0.2336610627212358,0.029719313888908,0.0239576039260673,0.0228869827530587,-0.0035052471982176,0.0113983852884683,-0.0958627749169525,0.9953230140842804,-0.0900643087462171,-0.0304580786068035,10.658723621574609,-0.0810544042711225,-0.0113075386304314,1.1413903270090888,4.555304332379272,-0.94570150872459,0.4869557958007706,1185.370156051354,1188.2456524669863,1184.8701883212875,1189.1636315423511,585.9021922942242,-268.44212874134405,569.831898611164,-58.63462059569424,157.11784244809206
0.335,0.2962121020609553,-1.440982362190853,-0.1801319842989764,0.0299504682272108,0.0205769824534379,0.0210243123516001,-0.0034358965247556,0.0113948669619222,-0.0958612344060001,0.9953234461266246,-0.0850558561669502,-0.025448635361289,10.663094510996135,-0.0807518617437086,-0.0108299042502687,1.1434227513535893,4.555167069061458,-0.9456852390214868,0.4898219128693475,1186.742678190593,1187.3007579925227,1186.5814118641426,1188.9252611671527,392.02068938643566,-421.19383041090214,646.0906256032098,-93.26035851654515,157.11983920345384
0.3375,0.3368685468135561,-1.4839094663969872,-0.1043194155495374,0.0291301031096391,0.0178151439314802,0.020619713785639,-0.0033615504394682,0.0113937577255627,-0.0958632484780942,0.995323511461701,-0.0798018067887193,-0.0208042943709151,10.66765275005404,-0.0804387763169572,-0.0103280937426085,1.1454576808444754,4.555030956485692,-0.9456633789084172,0.492688532734225,1187.3302594982863,1186.1396833149315,1188.1006414493036,1188.6973297497684,107.72769434533974,-533.7734135184287,585.0518821627696,-75.39282993643603,157.12180085909412
0.34,0.4875990461613498,-1.5402151680984508,-0.0205004537281448,0.0286717619145243,0.0147142263010122,0.0211696148967417,-0.0032892360666196,0.0113901662206955,-0.0958663938452976,0.9953234737609444,-0.074234114818231,-0.0166797397910303,10.672362321390375,-0.0801024928394629,-0.009826277002212,1.1475026579447891,4.554895621430906,-0.945635852558842,0.4955547220755599,1187.2813166623196,1184.6318909249303,1189.5066712749565,1188.5482970174703,-154.0877539430765,-734.5330066371382,554.7173291719441,-34.81516236388413,157.12406919702912
0.3425,0.8053320932330603,-1.5998138229294292,0.0678084607565164,0.0290874356439307,0.0103067271199871,0.0222680565313546,-0.0032225206277364,0.0113808301568766,-0.0958707201577027,0.995323351979947,-0.0683286493258569,-0.0131383221859939,10.677169613887765,-0.0797347167415864,-0.0093417080755634,1.1495648204785263,4.554761914412057,-0.9456034677515393,0.4984216607836993,1186.559820728571,1182.467018281746,1190.8742280951635,1188.5232539379488,-349.09944250030065,-847.5213013156908,429.1758502613444,15.05962268702204,157.1271419658117
0.345,1.1722410386463407,-1.6211542408330324,0.1266856110577804,0.0300857469231537,0.0059765899412288,0.0229638201724781,-0.0031614745051826,0.0113631243086165,-0.0958770136147661,0.995323099722254,-0.062083699341482,-0.0101503705435169,10.682003639817427,-0.0793294044180829,-0.0088834040030981,1.1516503159624776,4.5546304808656215,-0.9455664537453892,0.5012909600258753,1185.5358194498183,1180.394284418352,1191.6525505262632,1188.6235951309056,-455.77124356122977,-875.6275647891008,223.8960664981276,50.50562956703284,157.12999108636168
0.3475,1.6096167495626856,-1.5903445722150515,0.1763475192433948,0.0321341517516434,0.0013947989118435,0.0229799125329935,-0.0031038023496077,0.0113388845802149,-0.0958832552748529,0.9953228986308964,-0.0555983461507868,-0.0076278434371364,10.686776690122988,-0.0788913467669601,-0.0084543888618705,1.1537631285467007,4.554501120126951,-0.9455252305856052,0.504163962934124,1184.2809645107648,1178.0888804578003,1191.993708427654,1188.775782085784,-506.66462914873546,-947.2078704719924,62.78457928028723,49.479087945337554,157.13313384858415
0.35,2.061797417478036,-1.5067274168515217,0.2242397949658189,0.0360185936021287,-0.0027893191349824,0.022644913041108,-0.0030477288672987,0.0113153743529963,-0.0958853205497459,0.9953230713926524,-0.049087065984721,-0.0054913807121919,10.691386442850847,-0.0784378016975676,-0.0080580112728793,1.1559046119677832,4.554373723426015,-0.9454805078320644,0.5070428337288291,1183.0024963040746,1175.658245065992,1191.9664734226646,1188.8709905706323,-478.8208717383944,-972.5120406215965,-89.50681863448243,-6.103251382273873,157.13651483192655
0.3524999999999999,2.465694816772611,-1.3568943543860077,0.2682334286379222,0.042789162725996,-0.0063683122577722,0.0225467913867936,-0.0029924228041035,0.0113008231689748,-0.0958803692947312,0.9953238039179064,-0.042784199208823,-0.0036744443307907,10.695719119459827,-0.0779881756002269,-0.0076978928649188,1.158074156191844,4.554248377933828,-0.9454337935532346,0.509929375439327,1181.8868601520728,1173.2263202546926,1191.5461743344815,1188.7452658288728,-410.3484339921621,-1013.8011976145312,-248.21590292463293,-142.6579808955026,157.140175400171
0.3549999999999999,2.81951629723096,-1.1029906569487187,0.2993474942984365,0.0528769579092171,-0.0104446174412104,0.0233061491118427,-0.0029300870742724,0.0112953057431981,-0.0958666727289438,0.9953252863286196,-0.0367656824685188,-0.0019413702654591,10.699652640842627,-0.0775446931532076,-0.0073572488432889,1.1602708345802553,4.554125633029793,-0.9453864834425564,0.5128248886685693,1180.9507541341138,1170.5892390779195,1190.7253939080415,1188.1577006661548,-250.9487485071984,-871.3750657915161,-328.4604108290748,-303.7279604673128,157.1448797138085
0.3574999999999999,2.974759015128228,-0.8357169107033369,0.2892665404262431,0.0612668027175167,-0.0134730593344746,0.0247973178832884,-0.0028566603031807,0.011292085719307,-0.0958425795014834,0.99532776894389,-0.0309550989367872,-0.0001235746372719,10.703059095973988,-0.07709285216986,-0.0070234954873782,1.16249358231077,4.554005035395484,-0.9453400886724413,0.5157292352982539,1180.6321164095368,1168.869444925735,1189.9038722803364,1187.2266260265362,-11.084048747079567,-534.0492832171999,-332.6052756338865,-461.478392572371,157.14904999251803
0.3599999999999999,2.978679393470168,-0.5272481903174279,0.2267044446187583,0.0686828672061937,-0.0155057969920763,0.0268603024416812,-0.0027710366293481,0.0112843594277554,-0.0958108048963537,0.9953310766678508,-0.0252690639580213,0.0018783783790756,10.705806833213911,-0.076616910463237,-0.0066885998912124,1.1647406504586355,4.553885738310729,-0.9452955714739903,0.518641880440666,1180.8953338903784,1167.9189926618335,1189.062367529872,1185.8503087032927,207.88709590992747,-223.13565413887753,-333.0747895385681,-606.6622000437741,157.15346697379908
0.3624999999999999,2.8640308298095607,-0.2041425807019688,0.1231291354866683,0.0754442253182913,-0.0166098858451105,0.0287036785393014,-0.002680776100848,0.0112748202314717,-0.0957753469968984,0.9953347728685356,-0.0198089183864997,0.0039478922720599,10.707763023504292,-0.0761207536459647,-0.0063643898042399,1.1670086133111774,4.553766520878003,-0.9452550065142488,0.5215609265378902,1181.6715518890865,1167.7537666550406,1188.2384983326435,1184.1933150263171,427.6111956724431,137.26775397799415,-334.4480872757228,-698.1047882600245,157.15807876104466
0.3649999999999999,2.6148155163013262,0.1082246030862012,-0.0051085603416304,0.0817732803104136,-0.0165918309470847,0.0291463574588145,-0.0025862192352631,0.0112704176490242,-0.0957390040581929,0.9953385065210508,-0.0147811134597025,0.0060970100032109,10.708796223134724,-0.0756194739921834,-0.0060447523793129,1.1692934427974653,4.55364695928807,-0.9452190580895073,0.5244839840369563,1183.0333898687406,1168.6053314317235,1187.3901270934934,1182.3597847619928,706.9282670454406,597.8884046971865,-406.50822981992826,-806.7509384898124,157.16291434186132
0.3674999999999999,2.16563766740712,0.4335343585773597,-0.1397659116016716,0.0886953240400879,-0.015212649703839,0.0277115825296899,-0.0024897113147108,0.0112829672114634,-0.0957037215934973,0.9953419510071116,-0.0104906654103518,0.0082657386767943,10.708779094266568,-0.0751389281147383,-0.0057278874243697,1.1715903880877891,4.55352648365994,-0.9451885495479388,0.5274105007157821,1185.2061932243137,1170.7432086785263,1186.205957183544,1180.1595603338683,853.4653432386668,941.4413875663731,-484.30773943941807,-785.1687649141688,157.16896258667023
0.3699999999999999,1.6683987929231783,0.6405469138483089,-0.2064160912771806,0.0935951296372628,-0.0132044468258136,0.0257746127984319,-0.0023922641751774,0.0113153166542896,-0.0956717881128387,0.9953448549881252,-0.0070520997144984,0.0104203637014328,10.7075905704253,-0.0746844198189431,-0.0054064330526797,1.173895785452842,4.553404670741171,-0.9451639566388708,0.5303409093164619,1187.300716584934,1173.312538369555,1184.9685883962964,1178.433940937422,846.6407729047197,1138.4110697273163,-564.3986454747387,-654.4924683266794,157.17419868871696
0.3724999999999999,1.0480310745265347,0.7644596850013727,-0.2125845910177402,0.0974296084748781,-0.0106713912920804,0.0241555378521887,-0.0022963885725299,0.0113661586964896,-0.0956445355813475,0.9953471056265444,-0.0044847201962955,0.0124830292027743,10.705117603063725,-0.0742513736149654,-0.005075907158407,1.1762059930111624,4.553279987989984,-0.9451448053327046,0.5332761126971002,1189.4393970888373,1176.4352640271632,1183.38396395617,1176.8870979922349,889.2834444992324,1424.4653968014504,-776.4029155694964,-635.0195808104667,157.17962875543117
0.375,0.1756952144759065,0.8147581402230283,-0.1630785582606548,0.1006349147764726,-0.00722758042928,0.023060524371825,-0.0021959139388516,0.0114227532336298,-0.0956227597454445,0.995348781153298,-0.0025768553724011,0.0145653487623137,10.701256400855035,-0.0738108366444299,-0.0047102064809153,1.1785181805280258,4.553152264934116,-0.9451299999686408,0.5362172372439977,1191.74713380743,1180.4348653535624,1181.0865738184489,1175.2588430333697,762.5217574516676,1447.50867607181,-891.9867065334975,-558.6384638669183,157.18635948382558
0.3775,-0.6342829527429209,0.7859105437383254,-0.0951993041936595,0.101723238284413,-0.0044958261351973,0.0229545512227803,-0.00209583753221,0.0114781464329672,-0.0956051188708812,0.9953500661654806,-0.0012103649633453,0.016512863537307,10.695915212588387,-0.0733457508565387,-0.004312638243694,1.1808277637399283,4.5530227000560055,-0.9451177430001432,0.5391664398930615,1193.2520058760956,1183.6728074075222,1178.9240304235027,1174.0939056729003,479.014772874552,1204.9668915287373,-881.7565973117316,-423.63110282294616,157.1921411227461
0.38,-1.4792047944804387,0.7120607666525854,-0.0264512212486037,0.1000413901827094,-0.0024624728905549,0.0235145217654321,-0.0020012315649251,0.0115282874508093,-0.0955865915684999,0.9953514727031832,-0.0003195982857197,0.0181515899499631,10.6890155373716,-0.0728472700731219,-0.0038898675872774,1.1831289984188178,4.552893982541625,-0.9451063716165083,0.5421247060039779,1194.142207671803,1186.4596998112063,1176.6777908318902,1173.1406875192547,239.07757088322776,993.9426549045485,-879.5247241201188,-340.72951784314654,157.19809555445624
0.3825,-2.2984435498084426,0.6291924954647182,0.0285476347561826,0.0953570955448357,-0.0011274793767379,0.024302707923832,-0.0019174866410645,0.0115729154953314,-0.0955619685391259,0.9953534919747324,9.201681597307068e-05,0.0192873495435428,10.680493373689014,-0.0723171271521789,-0.0034534864538289,1.1854152791324823,4.552769029271275,-0.9450940617887094,0.5450924852000995,1194.4473937305115,1188.6425206820447,1174.526406802902,1172.3902580836843,-21.75565710235785,684.746325277319,-798.102210676779,-241.98656520761665,157.2041889738297
0.385,-3.0152372155466356,0.5692537525620092,0.0609447437437171,0.0877198406004764,-0.000486756843514,0.0249201421103215,-0.0018386608003387,0.0116044779344414,-0.0955314917177087,0.9953561935140914,0.0001651246703469,0.0199832578284521,10.670299072590348,-0.0717440910802796,-0.0029906209614868,1.1876811891746475,4.552650665640734,-0.9450787346358708,0.548068412660473,1194.0334293862911,1189.883431437593,1172.6872797785063,1171.9307546932168,-334.87550611666813,293.031621320051,-698.425926416848,-127.45134219831004,157.2104452361696
0.3875,-3.679826007848815,0.5559961156746753,0.0785123296210173,0.0767507480212835,-0.0001384905323696,0.0251769916391154,-0.0017606745836948,0.0116203201093862,-0.0954961644903434,0.9953595176211812,-4.599240293273396e-05,0.0202581831495359,10.65839865954023,-0.0711292866413344,-0.0024967829030086,1.189921258529392,4.552540333728137,-0.9450584885733484,0.5510501061334989,1192.7730161999284,1190.1076787886452,1171.0342771708179,1171.753001372693,-571.0326132273617,-138.92650311813657,-501.7032898620523,-6.659347581216928,157.2181353651461
0.39,-4.030388683068868,0.603983252946224,0.0828217079382663,0.066414730115098,0.0001400149191819,0.0251789088288151,-0.0016813783632499,0.0116176861698323,-0.095455258393354,0.9953635787685752,-0.0004657544851299,0.0201001050131906,10.644773916508177,-0.0704737289045178,-0.0019739608329372,1.1921309174056611,4.552438533656012,-0.9450322060269136,0.5540350439677482,1191.1782663201543,1189.1887989220022,1170.178763329196,1171.8974579553108,-724.0880724204992,-590.0940692146372,-243.58278475592647,99.03163282942832,157.22469220192144
0.3925,-4.140682580873291,0.7068179695705469,0.083878309500356,0.0544391669433276,0.0008306162614332,0.0251464322322562,-0.0016022108487617,0.01159847815457,-0.0954077245320983,0.995368469968754,-0.0010949300615379,0.0194261531065948,10.629422469153203,-0.0697884633437821,-0.0014349381564889,1.1943057480278572,4.5523436128728685,-0.9450001440860574,0.557023225845515,1189.152575837826,1187.157208442572,1169.8163632470382,1172.24815953684,-860.2550477892228,-976.2905937700898,-88.27678992552129,149.77674707820356,157.23139892846865
0.395,-4.0498739314455205,0.8373520502608885,0.0851299894737774,0.0415188277693391,0.0021616747331022,0.0250718847193412,-0.0015263200694594,0.0115626903709712,-0.0953497589236386,0.9953745710044734,-0.0018756498471851,0.0181388199664531,10.612357413881663,-0.0690787325054005,-0.0008961602604191,1.1964421186513454,4.55225365475828,-0.9449632430086689,0.5600140185379417,1186.876991081208,1184.3073459531515,1169.7373793795684,1172.6463416907015,-943.4997605516392,-1292.4150814108987,-9.735319713035999,134.0428228825657,157.2382271139877
0.3975,-3.754368080283756,0.969065660906151,0.0860933968007317,0.0295537256780676,0.0045239032287366,0.0250440147485788,-0.0014547917507626,0.0115209634834796,-0.0952843477602339,0.9953814779453092,-0.0029669449455295,0.0161848308774419,10.593607051591492,-0.0683743246015314,-0.0003718645506724,1.1985350522965064,4.552165665966797,-0.9449231815254786,0.5630075129688624,1184.4350770350677,1180.6951330355175,1169.767686648473,1172.9183736512528,-1078.2093647545923,-1686.1689499078223,-28.384652427985177,44.44651086832887,157.2451985827225
0.4,-3.267330073154992,1.0846365430755147,0.0812364011250695,0.0193169502163964,0.0085023296691023,0.0253613409783325,-0.0013886815267906,0.0114713197625703,-0.0952170468887109,0.995388670454876,-0.0042503527179431,0.0135588814725461,10.573214772384503,-0.0676735606157604,0.000127490297085,1.2005810648096382,4.5520783631671495,-0.944881548481837,0.5660037936425337,1181.4859442574352,1175.8765012036126,1169.5954561174285,1172.8685742450434,-1062.227194146998,-1779.9768939004464,-140.24421974681889,-106.39352558300732,157.2537261557341
0.4025,-2.8463358432229766,1.1210108628315927,0.0667717976591229,0.0145599065369579,0.0122937862966257,0.0259888222314673,-0.0013328043707232,0.0114234376139107,-0.095155408613079,0.9953952885437816,-0.0058372306673951,0.0101745403317384,10.5512394791911,-0.0670003827101708,0.0005809621157787,1.2025745223822073,4.5519911987733765,-0.9448398964613636,0.5690042100237638,1179.1239410643327,1171.7952485660153,1169.0664655497387,1172.386406023338,-907.2237880742698,-1566.3332619559683,-320.93796978610925,-296.4610028855984,157.26096459512254
0.405,-2.5011251318178145,1.0830891930977269,0.0393687540922923,0.0116302401924582,0.0159054779814682,0.0265715698720212,-0.001287677303043,0.0113887905751858,-0.0951053798148474,0.9954006174497068,-0.0078781665798822,0.0060520886566478,10.527755029013328,-0.0663829460385727,0.0009790426268445,1.2045086737746964,4.551903792350115,-0.9447990337772034,0.5720096594951326,1176.9498253170639,1168.0448348938328,1167.990766268498,1171.3862692306154,-835.0801836423207,-1396.3533537713363,-521.8107329569643,-477.73166194301626,157.26833679513936
0.4075,-2.2487067302703845,0.9881909392161387,0.0054374240942626,0.0085637487367039,0.0190400000420146,0.026776727371523,-0.0012523350702267,0.0113746380670725,-0.0950728004051624,0.995404011381471,-0.0104340809406596,0.001269349211853,10.502850361458336,-0.0658387876610877,0.001318026599161,1.2063763932655804,4.551817081748832,-0.9447585511462756,0.5750208484604115,1174.948540146121,1164.8134817971586,1166.457411884954,1169.9977477136229,-768.4023693389912,-1133.1223572015451,-699.5062766779478,-619.2210212175718,157.27581720414435
0.41,-2.097242519592829,0.8426191263399169,-0.0266981430188541,0.0045619642124853,0.0215100212508582,0.0264947891283322,-0.0012295248915449,0.0113837816687815,-0.0950560286686499,0.9954055903203862,-0.0134641121373804,-0.0041505455658174,10.476629401935268,-0.0653730526016304,0.0015881754902566,1.208170345459055,4.551731794565372,-0.9447185746981798,0.5780389158002524,1173.107813470369,1162.379223107825,1164.4932348851082,1168.2901641245276,-798.7815700554613,-883.0478203742578,-909.6076086162604,-772.3532535025236,157.28342455638983
0.4125,-1.981525925884165,0.6412788343153144,-0.0522793108176428,-0.001171454458306,0.0237313471650401,0.0258659741949812,-0.0012220344566459,0.0114141921047572,-0.0950508084355668,0.9954057841950597,-0.0168299299987539,-0.0101624969724506,10.44921018109342,-0.064978436213936,0.0017819086139264,1.2098832257878271,4.551647274204627,-0.9446789511869154,0.5810657613297562,1170.9546322958436,1160.3982426952873,1161.9093738418728,1166.1359814461102,-802.8351943142745,-595.7634596281417,-938.8921797351933,-770.1960725124529,157.29269518918105
0.415,-1.893782947670476,0.4771146135955766,-0.0597340006302825,-0.0063729869239305,0.0248540144257078,0.0253558019348765,-0.0012267031245599,0.0114546842026394,-0.0950495623015802,0.9954054510148772,-0.0202220815219747,-0.0165695284679152,10.420723774502452,-0.0646260855548428,0.0019092035050591,1.2115087151118342,4.551563315967009,-0.9446398390978148,0.5841020619749943,1169.0936374987975,1159.4004058096843,1159.7987739864323,1164.4391837619653,-780.683602254893,-319.4436794754925,-785.1807874531539,-628.7504809539832,157.30053500549502
0.4174999999999999,-1.7637750753303156,0.3459585272899153,-0.0560900969731569,-0.011667328880624,0.0251481368553113,0.0250712434129366,-0.0012408627639558,0.0114974290934524,-0.0950446110214814,0.9954054215499016,-0.0234114623867651,-0.0231848773954969,10.391312287969267,-0.0642943435091589,0.0019787945048074,1.2130406593885554,4.551478703665819,-0.944601272498998,0.5871457441076767,1167.0512142845691,1158.8010242979099,1157.983469904607,1162.9922290413404,-952.7332744170604,-245.99780492090096,-690.6959277506372,-569.5958736595969,157.30848848129085
0.4199999999999999,-1.5152790788243324,0.2507362096916285,-0.0483542830015431,-0.0176703692938816,0.0250644360246413,0.0249064984081769,-0.0012586829925741,0.0115375480420099,-0.0950291502334172,0.9954064151365156,-0.0262493504531755,-0.0297584478852524,10.36112596416911,-0.0639688961972454,0.0020068535290786,1.2144737291961922,4.551392763574658,-0.9445630533046796,0.5901948921336843,1164.3299711267123,1158.1704167850799,1156.345294347679,1161.591204393667,-1039.1601008844636,-260.74979970780964,-497.5343721568602,-464.2366824314191,157.31815779036523
0.4224999999999999,-1.2136003718737707,0.2301817180357372,-0.0471525369318126,-0.0218404613674483,0.0250885875869666,0.0249331538048846,-0.0012789491292026,0.0115772782726961,-0.0950002592961423,0.9954086897564868,-0.0287383425249935,-0.0361483635550652,10.33031916464443,-0.0636514612931826,0.0019967891557301,1.2158034510500797,4.55130622727992,-0.944524822554271,0.5932487351890542,1161.855413780147,1157.4972752993708,1155.4957980438228,1160.6710456291833,-1012.8901719396245,-326.16368152084726,-234.6815289413824,-331.22616892233026,157.32631496209606
0.4249999999999999,-0.8092668828627422,0.2675546701072315,-0.0598208124999421,-0.0248459118103805,0.025289212033067,0.0252650817281385,-0.0012967498271127,0.0116143287501772,-0.0949582388022656,0.9954122527654888,-0.0308085157245315,-0.0421293255627067,10.299046988566776,-0.0633338837473788,0.0019620083247869,1.2170278027954236,4.5512201379475625,-0.9444866271720012,0.5963061527420584,1159.265520267014,1156.5395983774756,1155.171886702972,1159.9350735490557,-1031.5890253873922,-426.9314734937776,-53.60858796993848,-274.9806018293382,157.3345693525404
0.4274999999999999,-0.3260285539086025,0.3444693561219389,-0.0866278968071026,-0.0270378609855919,0.025613050339516,0.0257023883471682,-0.0013074342274553,0.0116455441800074,-0.0949065034182707,0.9954168265567273,-0.0323861858250806,-0.0474849268218858,10.26746081910976,-0.063006242240165,0.0019155116363263,1.2181469195048236,4.551135071801977,-0.9444475830028402,0.5993654200227658,1156.69746865321,1155.362617931902,1155.227755103973,1159.2961426200363,-990.5130550758705,-498.4173663281576,92.99196485339952,-243.6123617746941,157.34289982913907
0.4299999999999999,0.2338842752204206,0.4525499673499839,-0.1254327469612715,-0.028177545520023,0.0261473260443925,0.0258652900814143,-0.0013055032553564,0.0116620314326313,-0.094848674954232,0.9954221797869998,-0.0332970429351921,-0.051978921695833,10.235704366599304,-0.0626453016716565,0.0018740780982589,1.2191636264209262,4.551052462603137,-0.9444072895656787,0.6024252849617971,1154.3129549916348,1154.0475115458348,1155.6368465272392,1158.7170117401822,-972.394333596184,-567.5873499833409,227.93764578718745,-252.59481797684177,157.35131645444773
0.4324999999999999,0.9518778276665384,0.5886878914301568,-0.1693596603222497,-0.0275054708097274,0.027186087113975,0.0253476944131887,-0.0012942400698786,0.0116641067608134,-0.0947926324808658,0.995427547048207,-0.033552619573118,-0.0555822680513559,10.203907796186343,-0.0622485066033734,0.0018312128432953,1.2200814893059777,4.55097317615249,-0.944365934362362,0.6054851050069077,1151.8354969852292,1152.5246811819852,1156.367443332909,1158.0331685301524,-828.256230148417,-520.6462085750895,279.0713540091017,-254.4158468646399,157.36150859059703
0.4349999999999999,1.5435608959599663,0.679989476252936,-0.1892408534670747,-0.0248077923520742,0.0287440992725426,0.0243419262395746,-0.0012784685857943,0.0116547349555652,-0.094743716149239,0.9954323720416554,-0.033228462610174,-0.0583145041324533,10.172184770408682,-0.0618194942064696,0.001777122329794,1.2209052046200928,4.550897047953969,-0.9443246114668312,0.6085446398747828,1150.1716738408927,1151.4442805029591,1157.0322032972847,1157.444932505859,-575.3564953198288,-370.4395553120772,240.24314122730152,-241.63632147974545,157.37007330064253
0.4375,2.0652810186472763,0.7125920008293593,-0.1800324987970179,-0.0200051747108144,0.0312445002175232,0.0232412392156684,-0.0012603960297905,0.0116407824926889,-0.0947039298331253,0.9954363760237114,-0.0324960964118283,-0.0601641893559079,10.140629908307051,-0.0613718153915148,0.0017087899946082,1.221640033409818,4.550822726867118,-0.944284552011372,0.6116042928984192,1148.95871450863,1150.6724834054248,1157.5686590390455,1156.8249869227536,-413.87136801904455,-252.6515676512188,166.33002467169703,-253.17545284997297,157.3787051100014
0.44,2.4824483535161415,0.6748349809172494,-0.1457745135814013,-0.0135692612304957,0.034253818275345,0.0224318435839155,-0.0012397230334683,0.0116267928329727,-0.0946750325145443,0.9954393360471044,-0.0314951784832104,-0.0610815601291899,10.10931733151926,-0.0609135892600225,0.0016308826383769,1.222292234296174,4.550748489661677,-0.9442465021000838,0.6146626886263,1148.1023170007975,1150.1810226647033,1157.8638534206432,1156.1790552416091,-269.9961111134596,-141.48005917354556,33.61108883564154,-266.07356171821243,157.38738723191648
0.4425,2.728425529348942,0.5427106513544258,-0.0884171524990444,-0.0054778748423796,0.0372937360542204,0.022067986034919,-0.0012139616930147,0.0116203854153132,-0.0946583448109434,0.995441038240858,-0.0304406313423758,-0.0609979461347082,10.078299270410668,-0.0604605239289575,0.0015535984723171,1.2228680315980252,4.55067267208424,-0.9442106169909086,0.6177195368207604,1147.6087339530627,1149.965083109557,1157.7367144832235,1155.4946191141623,-160.71342139198336,-72.21390701783996,-173.8937490716124,-319.43704172522274,157.39612351268275
0.445,2.796376256150486,0.2922276351652578,-0.0065920365534631,0.0049823694731594,0.0401419582250972,0.0220809831908571,-0.0011868575033729,0.011626951349228,-0.0946524750849511,0.995441544005765,-0.0294979517983576,-0.0599864686070506,10.047605552042484,-0.0600212516852317,0.0014733179357552,1.2233739224543398,4.550593944704577,-0.9441763139078764,0.6207745220609739,1147.2987498938376,1149.819953129614,1156.9943846752851,1154.581870032983,-92.52434525596973,-77.67761920135847,-373.4220980895312,-363.66546719359536,157.406661660745
0.4475,2.669935578358533,0.0406951300391192,0.0626980596648565,0.013345660720681,0.0410922516955617,0.0224045508116027,-0.0011605429385502,0.0116501252087967,-0.094653061261259,0.9954412210558886,-0.0288062320038405,-0.0581054015808575,10.017245168902795,-0.0596007150854848,0.0013913197840958,1.2238160110175236,4.55051216143827,-0.944143113338271,0.6238287066059691,1147.1461122267829,1149.5766950135503,1155.869603992776,1153.6762917781944,-73.7534854386012,-177.7868380508151,-544.5120069690342,-413.95327904265247,157.41548350722735
0.45,2.393405825298715,-0.198884969678859,0.1248856361965465,0.0198608910013665,0.0400772688128784,0.0227917732013493,-0.0011331600995209,0.0116888205701286,-0.0946567270799328,0.9954404051499968,-0.0284212861314525,-0.055345178662114,9.9872084278004,-0.059194086427882,0.0013196635414323,1.2241999203652547,4.550427760812769,-0.9441111827605478,0.6268833118471049,1146.9299824666443,1148.93101893936,1154.27182464044,1152.5121036377695,-147.75143678430126,-423.2398507559988,-787.4387677845782,-595.2903873287136,157.42434081861103
0.4525,1.957625050695576,-0.4105211097766923,0.1861187427700621,0.024420465778131,0.0368717486981779,0.0230020069910739,-0.001100537975347,0.0117382164787935,-0.0946603928113565,0.9954394517478826,-0.0283302317756567,-0.051664239684317,9.957469203041088,-0.0587893180284891,0.0012767341850152,1.2245304594610504,4.550342855661483,-0.944081079504802,0.6299384102188283,1146.4073550428611,1147.4604957597703,1151.9324101538532,1150.699839841551,-256.9831207498735,-664.2239027116824,-907.2810231557917,-744.1732174217569,157.435003936792
0.455,1.5510632881202373,-0.4981513591812404,0.2218354016461061,0.0264189298815694,0.0334478259066077,0.0230753509347926,-0.0010636843265411,0.011797678604878,-0.0946603989548193,0.9954387167582112,-0.0285915977578084,-0.0471514867884831,9.927987076387101,-0.0583850853376583,0.0012669708178912,1.2248106767378875,4.550258967499368,-0.944053589979864,0.6329930174184009,1145.6450668628952,1145.6098994258016,1149.7354195246608,1148.7912375506608,-387.47577878689265,-846.0196604833064,-909.5226700417688,-847.712793775826,157.44391391362947
0.4575,1.1188863868943315,-0.4998524834341763,0.2314470195694434,0.0285236644208485,0.0309729044866947,0.0235484236835645,-0.0010297546794428,0.0118646327480979,-0.0946497809765619,0.9954388860500392,-0.0292081479646562,-0.0420305901602743,9.898711516279107,-0.0579757208180828,0.0012798463653271,1.225042460796364,4.550177442385819,-0.9440294306080934,0.6360471933356344,1144.469976148927,1143.2303974573535,1147.3847968036443,1146.4612758726719,-540.8604334220395,-1000.5724472300234,-956.509881427609,-994.2617067096752,157.4528436914865
0.46,0.6577072956398196,-0.4588406125952666,0.2083973458707081,0.0314341583410248,0.0300298365080336,0.0245705513511792,-0.0010042969330689,0.0119402399056188,-0.0946253971615598,0.995440240737886,-0.0302500611104569,-0.0365123659034721,9.869586174085567,-0.0575667860115466,0.0013064730858993,1.2252256260979613,4.550099281378893,-0.944008356782469,0.6391021612295499,1142.9407646957848,1140.6070371896515,1144.9528701175227,1143.8199290171124,-690.7737003478809,-1051.3661004044015,-988.1983847282289,-1112.3906832566709,157.46178623154933
0.4625,0.1497224186774002,-0.4088859193486744,0.1359663507203575,0.0347624118333158,0.030536705936064,0.0260580608299881,-0.0009979569818797,0.0120260092607147,-0.0945882155604964,0.9954426655853926,-0.031772221375689,-0.0309168237408676,9.840552753872217,-0.0571649581155037,0.0013236537717033,1.2253583615733314,4.550025818390285,-0.9439897476485268,0.6421588776297193,1141.0161076471875,1137.9735669553315,1142.4438048800032,1140.8993224563883,-921.1510860083299,-1097.6714743870152,-1119.3399833344747,-1315.1207532477188,157.47073977626354
0.465,-0.4958772193935782,-0.3742707301490568,-0.0046579492363549,0.0371813123706518,0.0311977956663596,0.0274544105947002,-0.0010151464091415,0.0121212889930643,-0.0945417240056865,0.9954458421144188,-0.033784249323038,-0.0254422515960765,9.811555395734228,-0.0567740727294817,0.0013219959208617,1.2254374966584607,4.5499572845331215,-0.9439723650176124,0.6452182755872828,1138.335009265743,1135.1186798177164,1139.3561702008503,1137.244325250874,-1028.2035429359885,-966.771507363318,-1140.639639539494,-1336.8863243176736,157.48149059279837
0.4675,-1.0155527809270024,-0.3705652157218843,-0.149102363629061,0.0360203442086675,0.0306861885428482,0.0273871915051569,-0.0010490076841615,0.0122212465493176,-0.0944858184958429,0.99544985116297,-0.0362194288333076,-0.0200624734222838,9.78254377865123,-0.0563907826932372,0.0013190632760278,1.2254589531465279,4.549893640788396,-0.9439549386561752,0.6482806338176403,1135.8750899325075,1133.1397094185152,1136.7406066823055,1134.2148908348,-1009.442290603646,-697.5716160514361,-1044.6643600433608,-1177.0019262480207,157.49045006712467
0.47,-1.4323194078881076,-0.3814792125478696,-0.2915490156672323,0.0311739259380871,0.0291332342002815,0.0257586789768898,-0.0010945850919849,0.0123268292764106,-0.0944204245920803,0.9954546938390936,-0.0391041002359878,-0.0147998246203025,9.753474547733367,-0.056025320780279,0.0013246319432991,1.2254172087714417,4.549834954074922,-0.9439361921215496,0.65134587747085,1133.287797812725,1131.6308217374592,1134.1328484006335,1131.359315619634,-1041.8363114916692,-532.732213897452,-1031.9798375268865,-1095.3589290093523,157.49940332182211
0.4725,-1.7072601639099083,-0.3968582669114366,-0.4152348958547553,0.0246993060650785,0.0274903031420511,0.0235918110792064,-0.0011385918408546,0.0124263289245226,-0.0943475652855182,0.9954603285864853,-0.0422183052179739,-0.0094885380729049,9.724314471505298,-0.0556584249521395,0.001369969067344,1.225307673437471,4.549780707786422,-0.9439150102331816,0.6544135954425186,1130.6659083750492,1130.476048349028,1131.5807074946713,1128.7380961897532,-1044.142233395086,-397.4610952289364,-997.4292748697272,-978.9997300260429,157.50834581714653
0.475,-1.7777433921701624,-0.4185569795443449,-0.5140281817198193,0.01803592218605,0.0262873551567753,0.0216692105261457,-0.0011721657639582,0.0125027674247668,-0.0942704113543182,0.9954666691112838,-0.0452197015958402,-0.0040344701148238,9.69504111559158,-0.0552560071732898,0.0014754148344959,1.2251264408368787,4.549730206844275,-0.9438903988843496,0.6574834287306462,1128.0670866457497,1129.6435162613143,1129.145702026285,1126.4643169695037,-1126.1661177207307,-325.45811735189966,-1036.6809886263572,-914.8171747487132,157.51726779314748
0.4775,-1.6341690485128104,-0.4619044454992337,-0.6213739618001971,0.0108818245060091,0.0252794502460099,0.0202553987880544,-0.0011890979070955,0.0125476616821981,-0.0941939595693604,0.9954733529443552,-0.0479155073632814,0.0015974526052155,9.665642219501244,-0.0548028848206947,0.0016519576445273,1.2248691495208814,4.549682425249072,-0.9438616380492036,0.6605552411930277,1125.0350777864455,1128.8487577622684,1126.3973025515395,1124.1640103160098,-1090.4256177681075,-280.87373528433375,-976.3596552481075,-775.2348537937075,157.52793966892455
0.4799999999999999,-1.3612158277214084,-0.5198738244030388,-0.7187337352213183,0.0059217777569422,0.0245408884897925,0.0199287616929577,-0.0011907157081795,0.0125643065629995,-0.0941190190049683,0.9954802603127012,-0.0503164282153896,0.0072853338568234,9.63611500868915,-0.0543094685170414,0.0018896267909199,1.2245311213893624,4.549635938643962,-0.943829103300134,0.663628309757126,1122.6149585569092,1128.2391475848929,1124.2639037500446,1122.5881427005352,-938.1326590015856,-253.700591366808,-819.3530433396602,-568.509473558703,157.5367955477229
0.4824999999999999,-0.9997099266861847,-0.6038772642341712,-0.8324203035271924,0.0027495988707354,0.023469884436609,0.019601605293365,-0.0011827385953349,0.0125601571258371,-0.0940483251588581,0.9954870390245668,-0.0524967417400635,0.0128286332245977,9.606465689837174,-0.0537939743193694,0.0021670150904304,1.224108548283669,4.549589958294804,-0.9437933964674098,0.6667016529252858,1120.3444144914376,1127.5802548054344,1122.3005373348412,1121.3214629482163,-954.8918775936264,-311.9549578138046,-823.0172076367119,-497.5041731131564,157.54560197713488
0.4849999999999999,-0.5631729909334485,-0.7310621818995598,-0.9671038105732558,0.001735461910271,0.0216617009497933,0.0176482096954043,-0.0011697957364375,0.0125432878461847,-0.0939864044456689,0.9954931669515112,-0.0545388064444391,0.0180605305625848,9.576707860500942,-0.0532751983927837,0.0024659566393687,1.2235990638589935,4.549544234481729,-0.9437561858666028,0.6697732700658515,1117.840499168941,1126.6793727958238,1120.148817711861,1120.1006218349692,-874.3254951157261,-346.7593573714564,-753.3151885013004,-403.931674040177,157.55610085931397
0.4874999999999999,-0.2647949275683937,-0.8537084182142719,-1.0478876041130212,0.0025864478852946,0.0200083154968931,0.0144882964745869,-0.0011610912796608,0.0125276892535664,-0.0939382786269937,0.9954979886190056,-0.0566264905802734,0.0227296658866681,9.546860323999283,-0.0527842815578218,0.002756879477385,1.223001335058635,4.549498760237163,-0.9437189674420148,0.6728419389840966,1115.972787015859,1125.846458018577,1118.5339613923347,1119.3018045780154,-695.2632188167621,-337.18637158735845,-605.8790222520196,-277.2944515358629,157.56478493278263
0.4899999999999999,-0.0899335367944543,-0.9846566065244632,-1.062024429464091,0.0037589459044816,0.0181650980262019,0.0106552735077922,-0.0011556735652215,0.0125159216799522,-0.0939055362575304,0.9955013123836344,-0.0587437214405412,0.0268103083826691,9.516945511569633,-0.0523259215348701,0.0030390348124919,1.2223165172043449,4.549454493239463,-0.9436825000067134,0.6759067693475158,1114.3641830748572,1124.993440937887,1117.1194226006007,1118.71414957729,-599.0979632058945,-328.38914896915384,-529.0978395400994,-200.65871711103665,157.57339352140875
0.4924999999999999,-0.0367628727845019,-1.1119418523199867,-1.0081034861529738,0.004706547718787,0.0157931847724964,0.0071522764694828,-0.001153369170475,0.0125150143943463,-0.0938890201439713,0.9955029586174694,-0.0609615113722688,0.0302632096060935,9.486986582629584,-0.0519146559556327,0.0033098277051038,1.221546442218277,4.549411609089811,-0.9436473835285654,0.6789681528848635,1112.9772971998295,1124.204512273731,1115.8884721946342,1118.2985109924603,-505.5558109268072,-277.53231833307814,-442.9905473652521,-127.78917735790844,157.58193430905155
0.4949999999999999,-0.1327063546290088,-1.218376784758872,-0.8742772238817902,0.0056704444845631,0.0125335076903671,0.0044261501896371,-0.0011532172739427,0.012531803741835,-0.0938878419572998,0.995502919583989,-0.063354033100215,0.0330722254979651,9.457006087235197,-0.0515637835645013,0.0035695548067491,1.220693788546918,4.549369165354328,-0.9436133431857852,0.6820251773841048,1111.8364040202232,1123.6057793462217,1114.9044698637747,1118.0752036905003,-457.7226054752824,-195.71744999752792,-370.5580377240036,-66.5107113472913,157.5903879591194
0.4974999999999999,-0.4007170654936534,-1.3046932418575792,-0.6381325228535026,0.0068088248624608,0.0079681919488106,0.0020864383003393,-0.0011553634383541,0.0125666341582463,-0.0938993870699494,0.9955014343502832,-0.0658791513725067,0.035218361025877,9.427025699127478,-0.0512696050238848,0.003817974299884,1.2197624249653523,4.5493259319449475,-0.9435804473136084,0.6850772619754165,1110.6886841724531,1123.2259250237437,1114.0356820060142,1117.9659574357236,-395.79659515661626,-75.83651992013067,-265.5604552149723,-31.319816009363397,157.60042577212923
0.5,-0.7175030784523807,-1.3383917936663112,-0.3949297946823149,0.0070779666072659,0.0042710072367359,0.0007149469686805,-0.0011589445334306,0.012612832101671,-0.0939243075113727,0.9954985257174196,-0.0683765695285402,0.0367198002406714,9.397065609795256,-0.0510108892872871,0.0040589316430716,1.21875701733253,4.549280453199112,-0.9435480150138148,0.6881241391972318,1109.85742104444,1123.2265967466208,1113.5766675876998,1117.9186046104537,-318.43287323312853,56.00029857318919,-133.2612265271548,-39.792786254883566,157.60869829823287
0.5025,-1.0642409768609669,-1.3391555865016571,-0.125040534306553,0.005153780060256,0.0010877009220814,-0.0001736564955626,-0.0011601415709245,0.0126586704059161,-0.0939625711133657,0.995494349718736,-0.0706103859865821,0.0376628612284275,9.367144224377313,-0.0507544368686495,0.0043046657678002,1.2176823574052131,4.549232588234311,-0.9435147676385078,0.6911662744735028,1109.0965198062875,1123.5059265166096,1113.3693758733784,1117.7669935044491,-295.7579737884768,134.76043590462712,-50.79840953580965,-103.71906110572118,157.61687136496982
0.505,-1.3731666183428395,-1.3212100478092663,0.1485614257547347,0.0005476867222161,-0.0017650842957632,-0.000417834645649,-0.0011601437810306,0.0126950341044272,-0.0940111390581046,0.9954893083042712,-0.072398940926988,0.038038585495233,9.337278743659494,-0.0504723224703382,0.0045547468576585,1.2165423371581319,4.54918273424227,-0.943480092622552,0.6942035339268807,1108.3786311754975,1123.900398926144,1113.3226755400208,1117.400009304925,-270.36538686625113,140.6860985883212,-1.0545506791459038,-228.33791312968947,157.62495933447903
0.5075,-1.5723965031026554,-1.2882643527703517,0.4004774457421333,-0.0061007775801975,-0.0044760242928706,0.0004933658139256,-0.0011640895274482,0.0127186638439007,-0.0940645237516069,0.9954839565191336,-0.0736756456403822,0.0377579268189633,9.30748561743787,-0.0501504552421763,0.0047978977834296,1.2153392844080164,4.549131401771295,-0.9434444813998184,0.6972365641886105,1107.7446928719562,1124.2093570095512,1113.3641031199827,1116.6253039388007,-241.6419440626212,45.659202140996015,-0.4605569188697696,-462.6978639663317,157.63294146664663
0.51,-1.6514226106898764,-1.2333157048463204,0.6444106269302454,-0.0134377333773494,-0.0076827440476861,0.0030136891690431,-0.0011740979503089,0.0127300644101729,-0.0941158393832673,0.995478938452948,-0.0744597814666885,0.03678536283838,9.277781281117033,-0.0497854806709365,0.0050293170161368,1.2140738045853263,4.549079652166991,-0.9434084114159664,0.7002669649549269,1107.1704214551846,1124.1286949368491,1113.3203727554264,1115.0865199850934,-166.41319755054056,-156.286490432061,-65.16306597345786,-672.171160408712,157.64239339095556
0.5124999999999998,-1.5978118417846607,-1.170465038133282,0.7824906822752236,-0.0178759985536951,-0.0104830976240286,0.0058127969108728,-0.001192969497873,0.0127308714679849,-0.0941614605387684,0.9954745765953428,-0.0747992542847327,0.0350749622846944,9.248184415277809,-0.0493779010335535,0.005241957607798,1.2127450505587491,4.54902811827903,-0.9433726134834436,0.7032959375982987,1106.9126268842035,1123.4279245573907,1113.0382877901154,1113.2644481367574,-52.92341678414226,-458.8972713965628,-201.2374081024971,-827.7598147362816,157.650161234063
0.515,-1.460307458464145,-1.080998590814518,0.8497401797094543,-0.02079000865718,-0.0136249936044084,0.0085295738723678,-0.0012258160714835,0.0127277943574509,-0.0942011922695233,0.9954708009463586,-0.074837563957721,0.0325340491340986,9.218717092662324,-0.048941376986877,0.0054216134250878,1.2113505469311316,4.548977532900572,-0.9433376533152658,0.7063243423885804,1106.905804371264,1121.8342085798663,1112.314185714914,1110.947720911412,35.7777275968601,-926.3621344370212,-448.11387252698256,-1095.5993639970975,157.65781216118307
0.5174999999999998,-1.2427413741361124,-0.9363453879456336,0.8645580306852136,-0.0237553458847822,-0.0172181318033072,0.0112002562847834,-0.0012706711385318,0.0127243153942648,-0.0942337462949617,0.9954676925649104,-0.0746735583223173,0.0292101950444989,9.18940618832118,-0.0484847797594939,0.0055716427260331,1.2098871711277006,4.5489283424904166,-0.9433033373843976,0.7093522366036399,1107.0915155221878,1118.7961138852058,1110.7977184274805,1107.786451316772,69.84819990793761,-1284.8022417645086,-666.9276602939584,-1186.8658577940992,157.66685319087088
0.52,-1.0388656965889709,-0.7872798639984605,0.8401621858058275,-0.0266300970101618,-0.0196877505448656,0.0127357439518629,-0.0013247587089994,0.0127138829197249,-0.0942564518109295,0.9954655878798236,-0.0742246733469006,0.0251870291904442,9.160285984354752,-0.0479943676730709,0.0056991780043286,1.208352335778548,4.548881959481405,-0.9432689314313758,0.7123779451513363,1107.2550453708036,1115.4101973710435,1108.979547413444,1105.0133916224415,19.334169371222725,-1479.9609583664264,-824.2564894138006,-1096.1074286823523,157.67426689021167
0.5224999999999999,-0.8307352370052734,-0.6198329443705606,0.7961924156219107,-0.0294693669698437,-0.0215017439095968,0.0139584951968258,-0.0013873507302016,0.0126938414186866,-0.0942701552743555,0.9954644364817918,-0.0734764199960931,0.0205088664476242,9.131396988780388,-0.0474666726394622,0.0058046672888335,1.2067430474951568,4.548839950177643,-0.9432333543838376,0.7154002705012497,1107.188186369044,1111.3963090933737,1106.6764359804115,1102.30591417336,-100.32297657735388,-1657.74335266551,-975.2482461541139,-1046.7987658986194,157.68155101213077
0.525,-0.6376448371132464,-0.4490904641887516,0.7418750974649063,-0.0311861668829674,-0.0227486860011476,0.0154540830976729,-0.0014558620518352,0.0126638039452484,-0.0942716650378609,0.9954645458306088,-0.0724555285973781,0.0152548763440476,9.102785649539312,-0.0469049350511004,0.0058922443680666,1.2050561973313312,4.548803232462939,-0.9431967269893168,0.7184189055333621,1106.7534304879168,1107.121480607716,1104.1033061826736,1099.7793977929484,-293.14341151211886,-1711.228617006098,-1055.0544615816295,-947.1192311206316,157.688724728455
0.5274999999999999,-0.4888692927705274,-0.2894250650967779,0.6737256496577492,-0.0313324125985036,-0.0232011351969893,0.0171692665889766,-0.0015290725633367,0.0126243727380942,-0.0942550677107325,0.9954664700667252,-0.071199417561228,0.0094831412250745,9.074504084298756,-0.0463147634015529,0.0059623539568217,1.2032888696845168,4.548771774856037,-0.94315962490144,0.7214340106356432,1105.722469311483,1102.8401660083432,1101.4011636725031,1097.570318017757,-604.4905520015612,-1825.1972661766545,-1170.250829040741,-887.1683221505455,157.69576258719647
0.53,-0.3814353210832582,-0.1248901564377833,0.5713154386795902,-0.030658679570028,-0.0230161809998721,0.0192072639353941,-0.0016036333917489,0.012579440694559,-0.0942180305843271,0.9954703893035132,-0.0698031346444425,0.0032908808032254,9.04660826707831,-0.0457099456816565,0.0060193877843365,1.2014382003707147,4.548744213519652,-0.9431218289040264,0.7244464234023735,1103.730977727909,1097.9954942768327,1098.2520520374699,1095.3435561821957,-843.3696611225051,-1703.449722067897,-1110.9831684554129,-746.0371779161497,157.7040485133418
0.5324999999999999,-0.3455993502481715,-0.0129769222824153,0.4669040400609968,-0.0301233934262742,-0.0226177904328963,0.0209231292059544,-0.0016762081073954,0.0125349321967005,-0.0941618114855929,0.9954761229571342,-0.0683916401193307,-0.0032223391390702,9.019156603572,-0.04510840947234,0.0060669787036295,1.1995017893390076,4.548718807002722,-0.9430830168645868,0.727457164817342,1101.5056210058708,1094.3229173980037,1095.8462478302263,1093.8401321281763,-968.5529889145519,-1386.728730450203,-894.9237750558032,-534.9829246898476,157.7108194912057
0.535,-0.333098768995958,0.0801776804007598,0.3460368400884901,-0.0303836357972727,-0.0221950605642038,0.0224173392584808,-0.0017441596585138,0.0124963205659917,-0.0940920780152514,0.9954830790537126,-0.0670736935582603,-0.0099628063322337,8.992207986602049,-0.04452586203474,0.0061070325470638,1.197478328156094,4.548694018717473,-0.9430426586288492,0.7304660650643056,1098.8882127833363,1091.061850624582,1093.7774331621908,1092.6686415587465,-1070.5155924365035,-1243.170046558315,-763.0486076252048,-420.2235548414588,157.71745095106252
0.5374999999999999,-0.302477116117194,0.1693150071455621,0.2203338328957888,-0.0316777931262635,-0.0218630665949442,0.0233330155417741,-0.0017988911104336,0.0124589044528807,-0.0940164397510871,0.995490610681752,-0.0657798464077898,-0.0167079832941836,8.965820269998433,-0.0439540824337519,0.0061581110141177,1.1953687477086055,4.5486695194778655,-0.9430002422267624,0.7334708236856778,1096.1530430436883,1088.107067165212,1092.0310047921002,1091.7390143539687,-1069.4848790312324,-1123.7982438735335,-617.3290358835851,-320.064843861837,157.7239669081729
0.54,-0.2046214959086029,0.2704021357161323,0.1051365739397264,-0.0338704437009432,-0.0217091265923109,0.0234315951378165,-0.0018369579595687,0.0124259723049007,-0.0939427072373209,0.9954979367723572,-0.0645702549773843,-0.0233376950479049,8.940045381736867,-0.0434018876922925,0.0062251087774448,1.1931751360576528,4.548645101237639,-0.9429557587934168,0.7364688250471008,1093.54078838818,1085.4428594052142,1090.6907879827727,1091.0683173394373,-1066.5912697382273,-1128.0726983829472,-497.63731193788726,-241.27709706344808,157.73034451848915
0.5424999999999999,0.0266427351996928,0.4231954871235635,-0.0010347174016092,-0.0362725844329345,-0.0215386978561962,0.0229598808489365,-0.0018573870601306,0.0124005936735487,-0.0938776650991207,0.995504375414992,-0.06349243268194,-0.0297723988635523,8.914927226056305,-0.0428762760413655,0.0063078872110094,1.1909014089282384,4.54862009946462,-0.9429099569225844,0.7394588952070333,1090.8200866949971,1082.4667036732972,1089.5428182324108,1090.5326288686515,-908.0790391491511,-1070.358500086012,-350.41770423917995,-157.00092518541155,157.7378395720969
0.545,0.3162975122416937,0.5819011797648846,-0.0539794697844805,-0.0371581395020951,-0.0211199337277715,0.022400711364225,-0.0018646366821356,0.0123846420134999,-0.0938243836318266,0.995509604595288,-0.0625601555832528,-0.0360248854545777,8.890498930261927,-0.0423796483464243,0.0063948643061399,1.1885531769765807,4.548593921641056,-0.9428641982745452,0.7424396048222667,1089.0003931924343,1080.091066904784,1088.938699461577,1090.2833127135102,-637.0861380765285,-942.8769301509411,-183.48035069029703,-70.78503576972247,157.74395516188437
0.5474999999999999,0.6829818240775704,0.7667579736333366,-0.0682414927809142,-0.0364603653537246,-0.0201354194845346,0.0218355679691346,-0.0018708395411093,0.012378908557907,-0.0937831696899186,0.9955135635204292,-0.0617532743989698,-0.0422401002272298,8.866780288401674,-0.0419099245026356,0.0064577706758874,1.1861373293004087,4.5485664990319465,-0.9428199707484168,0.7454110252285158,1087.6346560046145,1077.7523190225427,1088.625416478959,1090.1787036898031,-525.6008687417302,-1025.6058161491628,-98.76042243677139,-34.598444258153876,157.7499370836893
0.55,1.1652784847925437,0.9960442798146636,-0.0483963744512443,-0.0339146381923212,-0.0180160555631692,0.0212881018773961,-0.0018827666604418,0.0123813869887593,-0.093755062363781,0.99551616915742,-0.0610103749970341,-0.0484620475452318,8.843776900676145,-0.0414598027244157,0.0064825734324071,1.1836613745220137,4.548537826745285,-0.9427786360189804,0.7483734508650882,1086.3723888487257,1074.9630378240383,1088.4448973493932,1090.1103204922194,-430.4148830664413,-1012.9350027221324,-59.9811582558686,-35.06796605997803,157.75696243406279
