t,ang_acc_x,ang_acc_y,ang_acc_z,a_vel_x,a_vel_y,a_vel_z,quat_x,quat_y,quat_z,quat_w,acc_x,acc_y,acc_z,l_vel_x,l_vel_y,l_vel_z,pos_x,pos_y,pos_z,mot_1,mot_2,mot_3,mot_4,dmot_1,dmot_2,dmot_3,dmot_4,vbat
0.0025,-0.9818506599266617,0.7412663467742809,-0.7261323181536218,-0.001446788347494,0.0089705544534026,0.0170881199521272,0.0310672420273658,0.0588864092780156,-0.0131709809831864,0.9976938861523696,-1.211630236114129,0.4471035567854662,9.721036061816616,0.0007047155967016,-0.000488073733615,0.0006638426435854,9.104721712008832,0.0858860530679025,0.2084830623717091,292.6578600467733,310.5145015641342,298.98483304954675,272.1010794042168,-173.81843118582765,525.2935735763913,-104.99358575195856,507.86999529354944,168.66907941755974
0.005,-0.6011422028584054,0.3948081768686757,-0.785045373171627,-0.004136893198876,0.0110652920901558,0.015485822665324,0.0310943770233047,0.0588712830864586,-0.0131861914616287,0.997693754572887,-1.2132048802916,0.4488184679159882,9.72025399004016,0.0007131373079415,-0.0004499982442224,0.0006285658642377,9.104726108405796,0.0858848064422468,0.2084864386856474,292.2233139688088,311.8277354980752,298.72234908516685,273.37075439245064,-149.4634713541473,537.6400076799883,-96.34392083534067,523.0350048475884,168.6387470312445
0.0074999999999999,-0.1678361356284186,0.0126065663281953,-0.8296170749677755,-0.0058979096419345,0.0117634962928116,0.012592000721516,0.0311150022838501,0.0588658100823307,-0.0132011630869507,0.9976932578323678,-1.215161867911222,0.4503327371710746,9.71960907500538,0.0007101410739105,-0.0004045093394614,0.0005898733567834,9.10472765528411,0.0858840963214414,0.2084872087844734,291.9105426900026,313.20270160253415,298.50311344537005,274.7162544284547,-73.88838336415802,462.9751991503326,-61.42526015006524,459.16067531991297,168.6023328963795
0.01,0.1501688841915193,-0.2543928459074481,-0.8353603337463452,-0.0059570604411649,0.01091111242154,0.0096032812174666,0.0311282907773962,0.0588712002621837,-0.0132096618848169,0.9976924336855598,-1.217471101938494,0.4516097241779092,9.71911010807644,0.0006976433983966,-0.0003519784294375,0.0005499896877211,9.104726484214941,0.0858829544488515,0.2084859983716259,291.853872051988,314.14261149382685,298.41522278441647,275.6665577690502,20.24208028295788,333.5425550985746,-14.006140273215802,341.47602560426543,168.57196412528535
0.0125,0.3907198507566127,-0.4439308445935939,-0.8094463152676477,-0.0046253925311457,0.0091806079456934,0.0069526735470141,0.031138767484373,0.0588875355118878,-0.0132122013438411,0.9976911279746872,-1.220086513277881,0.4527115932988358,9.718756943566733,0.0006773431474698,-0.0002927587704741,0.0005109163886735,9.104723760221631,0.0858814019484362,0.2084840787882994,292.0117530914174,314.870414378027,298.433082744004,276.42363455647603,112.53464025880932,278.9553623640132,31.78019435075612,291.1286394081231,168.54155356424488
0.0149999999999999,0.5586436508066313,-0.569162667878984,-0.7603795344558293,-0.0018714475094262,0.0067408046777721,0.0049404766518381,0.031151476673957,0.0589082495894785,-0.01320995050737,0.9976895531558502,-1.2228340935593147,0.453714181409999,9.718559561543604,0.0006504363858777,-0.0002272950108259,0.0004741881321654,9.104720898238142,0.0858796384822214,0.2084817127265911,292.41654525328204,315.53738830564686,298.5741237561703,277.1222009660908,176.2621128480191,217.0975567252867,70.08845013735935,228.2102430296617,168.5049874732618
0.0175,0.5878149021632598,-0.5909328972572315,-0.7215117460542144,0.0009185273619487,0.0047607989192478,0.0040995768317616,0.0311656701247367,0.0589263263031064,-0.0132046207404457,0.997688122428913,-1.2255315351479423,0.4545825644646818,9.718532121168519,0.0006174986682094,-0.0001562094508277,0.0004407785579148,9.10471907969488,0.0858777729827699,0.2084790579693325,292.8930636556575,315.95590216165346,298.7835249946908,277.56468577162434,207.90064615431444,145.7207815635001,99.88607396976477,160.56947070445628,168.4744330223635
0.02,0.5112960820283987,-0.5417543997243576,-0.6955715222962284,0.0033639403243005,0.0030218776289105,0.0032919185854693,0.0311796262826427,0.0589403274042672,-0.0131981228472767,0.9976869486776552,-1.2281066886550158,0.4552644952036911,9.718673343800303,0.0005785537432064,-8.034963127234028e-05,0.0004110845175071,9.104718711651179,0.0858759140172155,0.208476831908391,293.4560484840536,316.2659922134644,299.07355412601913,277.9250483196131,253.729129747751,116.39473835741688,141.71820123481217,155.25578823978785,168.44376358430912
0.0224999999999999,0.3347077389889663,-0.4282425596190214,-0.6732531899411148,0.0049967982611223,0.0012451741271927,0.0013651942668014,0.0311938315328009,0.058953548294478,-0.0131932864578272,0.997685785032826,-1.230582289276392,0.455752547769994,9.718964848065257,0.0005332623465679,-8.137416580873857e-07,0.0003849754477454,9.104719602165284,0.0858742147887984,0.2084756631763433,294.16170930439625,316.53787585344054,299.4921160008648,278.3409647128233,254.3722304063976,85.35728702878485,161.31662422724273,159.49999699396355,168.4067894884614
0.025,0.1545138205233786,-0.3132697336741588,-0.6512540094759591,0.0049551323319363,0.0001981142122541,-0.0009562755437835,0.0312062818883601,0.0589681876778329,-0.0131918753576565,0.9976845433802756,-1.2329600479463438,0.4559968524768255,9.719391132172525,0.0004811258914084,8.104079505013044e-05,0.0003619296216726,9.104721164174634,0.0858729297131742,0.2084759699271496,294.7279096360856,316.69277864860834,299.88013724715535,278.72254830458286,213.03818913715983,49.789287979058365,158.33589470088324,167.2935501158235,168.37580529100464
0.0275,-0.0178675961662793,-0.2108075820817587,-0.6189525352008773,0.0037403984847969,-0.0001097017393123,-0.0031886217392927,0.031213582820923,0.0589838877618333,-0.0131919673794967,0.9976833807879996,-1.2351909208749172,0.4559305812100019,9.71994203563329,0.0004216308910732,0.0001636246939416,0.0003412480903122,9.104723079854189,0.0858721032900074,0.2084777677467107,295.22690025008205,316.78682229333583,300.28379547436924,279.1774324634024,184.3642539701933,30.201552610674312,160.48727492054704,195.22319819985805,168.34460325859212
0.0299999999999999,-0.1644930880442435,-0.1431725245396371,-0.5822105682526635,0.0022364673684494,0.0003542151313495,-0.00473730426952,0.0312128404549724,0.0589978442470459,-0.0131884751621103,0.9976826241645028,-1.237178291774544,0.4555065619947235,9.720610370081724,0.0003543319027721,0.0002451669607892,0.0003223011121075,9.104725501881497,0.0858714793279966,0.2084814248930638,295.64973090593656,316.84378641166165,300.6825736217581,279.6986642955822,149.69673799665767,17.929380680254777,154.89092251058307,219.6510745480168,168.3131895294939
0.0325,-0.2767663165222781,-0.137836869659447,-0.5511199073515083,0.0010425149833018,0.0015394349054699,-0.0051934650819224,0.0312045776611824,0.059008405328833,-0.0131824912737327,0.9976823398632793,-1.2388551760125384,0.4547420224847233,9.72137985540351,0.0002789110790336,0.0003237679767069,0.0003048026043356,9.104728722299468,0.0858715369098501,0.2084870205585178,295.97538394006534,316.8764691967371,301.0582500869221,280.2756878361425,124.30039374399928,14.029258818311506,157.29778770437392,253.82156965601985,168.28148059660856
0.035,-0.3857540592455772,-0.2054034686600344,-0.5257952925951112,0.0003875559191328,0.0028839717493233,-0.0052694469457644,0.0311917257525466,0.0590086468934479,-0.0131756840983625,0.997682820647008,-1.2400556793344644,0.4537073394109235,9.722241548357234,0.0001952781736111,0.0003974526549222,0.0002890857134331,9.104733082359898,0.0858723603570344,0.2084927289894404,296.27123287465656,316.91393270575327,301.46906256027995,280.9677721438623,97.80785929336848,16.39398886366053,143.54178304205342,241.90958080620257,168.24303418113496
0.0374999999999999,-0.4681776594227258,-0.303316822446532,-0.5036413772303421,0.0002857899423622,0.0031350800328816,-0.0058826825090493,0.0311764056328644,0.0589927173076144,-0.0131705398112935,0.9976843111084432,-1.240638847424798,0.4524605528549857,9.723182918780024,0.0001037230056119,0.0004642578335076,0.0002762645697406,9.104738596544621,0.0858740313959984,0.2084969375528923,296.4644232365322,316.9584391410554,301.7759590021324,281.4852357401735,73.4641234205015,22.44999477543389,116.52080477546184,182.34546336553885,168.21062407167335
0.04,-0.5476799070205858,-0.4007839441522577,-0.4517996964728713,-0.0001004728813917,0.0018169903777508,-0.0076137759863454,0.0311600747660669,0.058962381956759,-0.0131694194321953,0.9976866284860026,-1.2406165630317945,0.4510488436219574,9.724172177929091,5.116382028584802e-06,0.0005223305317519,0.0002681596976824,9.104744417680628,0.0858768612458414,0.2084989906885524,296.638553491759,317.02618267963044,302.05166658415726,281.87949946069,79.2800688299166,35.700158282179444,116.47380374865853,137.51539874150455,168.17777626827194
0.0425,-0.6283044365508886,-0.4629256372755858,-0.3220395242982284,-0.0016406502313569,-0.0013633637782703,-0.0105928637507628,0.0311448164823703,0.0589237463352932,-0.0131738306589968,0.9976893265877536,-1.2400903114633663,0.4495347872940268,9.725164639087312,-9.892627245120867e-05,0.0005700482687382,0.0002670210508317,9.10474908115361,0.0858811956450911,0.2084978905944726,296.86082358068177,317.1369399324663,302.35832802087566,282.172812733881,86.49972527002778,45.44441900364975,110.00292927818695,77.65658640036013,168.13778934420085
0.0449999999999999,-0.6681384764312235,-0.4442414877260472,-0.1485908703231272,-0.0038600077473055,-0.0045696849747741,-0.0129241936116611,0.0311296440326155,0.0588863405113248,-0.013184551055355,0.997691862911433,-1.2392333679829348,0.4479231299634848,9.726110131748618,-0.0002060388373719,0.0006061713050093,0.0002751075651958,9.1047509027452,0.0858869878825541,0.2084937656442984,297.0710521181092,317.2534047746487,302.60168123054814,282.26778239269174,88.89738553206148,51.43685986442964,95.86347409720025,12.827283575359168,168.10394402278254
0.0475,-0.6663755954498692,-0.3542639691057417,0.0756989479384968,-0.0066072389100742,-0.0071457229147592,-0.0139287091955975,0.0311146299743373,0.0588570380061087,-0.0132008285643861,0.997693839853472,-1.2381731372699012,0.4462431000929983,9.726963164017004,-0.0003133181646683,0.0006300116567559,0.0002941713298953,9.1047485556792,0.0858938472472998,0.2084869663004778,297.3053105083421,317.39412423178845,302.83764539136166,282.2369491517578,103.87278572339928,66.77615189581724,102.20959908240266,-29.799672661818,168.069496298608
0.05,-0.6199562881612639,-0.2052322093019254,0.3559013224927373,-0.0094195237226979,-0.0081352711174874,-0.0130069450898575,0.0311018009241887,0.058838206995953,-0.01321916913456,0.9976951006506208,-1.236954815739296,0.4445665870449492,9.727687434891257,-0.000417752833053,0.0006415654376127,0.0003249566955547,9.104742255997747,0.0859007590509822,0.208478679619029,297.5904160467262,317.5872855341278,303.1127292259602,282.1187840293827,100.02851841862827,73.19788926110964,99.23493816334033,-44.55942725824118,168.02739093028725
0.0524999999999999,-0.5610105861164488,-0.0895296818492004,0.5590280768741746,-0.0105787021164084,-0.0071094431255264,-0.0107079491820523,0.0310933760751575,0.0588312087548122,-0.0132390898242594,0.9976955016999696,-1.2356127900641796,0.4429642958193958,9.728251223378836,-0.0005167428864841,0.000641551429781,0.0003668268556448,9.104734199830732,0.0859072853252252,0.2084713267441961,297.8054531004352,317.760113678094,303.3338200821784,282.0141520154666,75.04747199008084,67.66860149542711,86.83600969915237,-27.728783210466204,167.9916092665244
0.055,-0.5055369553368538,-0.0231173412430962,0.6960141387580445,-0.0106203837544054,-0.0053046942958101,-0.007631654280104,0.0310894197404542,0.0588352241532451,-0.0132571428577569,0.9976951349222706,-1.2341432127496994,0.4414660764038439,9.728634522716499,-0.0006084572195213,0.0006313733201119,0.0004176788502988,9.10472714054798,0.0859127711195755,0.2084668386891769,297.9656534066766,317.9256285416049,303.546909274456,281.9801401133304,51.32707001899912,60.94132721616455,84.89501583864003,7.47515051197069,167.95504163260293
0.0575,-0.4626517894494355,-0.0074034929858052,0.7695728357050305,-0.0105099133411909,-0.0038195921137736,-0.0046814920813915,0.0310863233048507,0.0588488230643435,-0.0132709214128876,0.9976942306971178,-1.232536240022842,0.4400247473501724,9.728828484138784,-0.0006918989784221,0.0006130131744681,0.0004741984997645,9.104722534107843,0.08591647434418,0.2084657547996102,298.0620884505302,318.0648203141748,303.7582951613716,282.05152776802646,20.859456048424374,44.324467165949976,86.70033031462485,59.68658852179945,167.91777206141293
0.0599999999999999,-0.4281477721283063,-0.0387435607734923,0.7770963491279494,-0.0111332002546505,-0.0033189743098232,-0.002467848535759,0.0310820399455749,0.0588675510862044,-0.0132813123517936,0.9976931072046454,-1.2307308442328935,0.4386156909291358,9.7288355439732,-0.000766686046829,0.0005888545341473,0.0005323312152128,9.104720350138333,0.0859181840062971,0.2084674704357569,298.0699506869188,318.14725087743466,303.9804109260291,282.2785730559394,-17.034863010474062,18.475781972927063,104.35756525266702,134.6045482235809,167.87959458843864
0.0625,-0.372156806779801,-0.0935764563760102,0.7374821976341643,-0.0131605455458383,-0.0040086506413074,-0.0007277712647029,0.0310778491870121,0.058883289491675,-0.0132895451453964,0.9976921891444392,-1.2286003406989614,0.437274609023824,9.728669182975773,-0.0008327088418912,0.0005614546212473,0.0005877857620508,9.104719980075892,0.085918323459668,0.2084713771334522,297.97691413547784,318.15719922403946,304.2800829876349,282.7245505091444,-49.13326075642313,-12.301245791866211,117.91298959319636,185.6802986228784,167.83265224451145
0.065,-0.2978314100680343,-0.1255619078061454,0.6841086710955531,-0.0152760849894905,-0.0053773166917324,0.0001918933019925,0.0310695906279688,0.0588952205218777,-0.013293971603404,0.9976916741483735,-1.2261620300531448,0.4359263515058769,9.72833888395306,-0.000889830814365,0.0005333119367984,0.0006364584167422,9.104720809995316,0.0859172503169543,0.2084778659996431,297.8242843831366,318.08574464847527,304.5699758739951,283.20697454905377,-72.29491738338531,-43.33073091107732,125.32742639060632,202.8020317934418,167.79253420232513
0.0675,-0.1935637459913458,-0.1228318071544736,0.6239015291560795,-0.016764805235031,-0.0069203096228984,0.0009573387223096,0.0310519350227397,0.0589088574543265,-0.0132910991620048,0.9976914475007072,-1.223559427143536,0.4344676811433957,9.727846577177917,-0.0009376790037871,0.0005066893833962,0.0006748168183039,9.104721737717897,0.0859151154443951,0.2084866375663814,297.61543954856086,317.9405455694841,304.906720119588,283.7385606681116,-98.61328974448034,-75.65866851761022,156.9793092723556,227.18519049491283,167.7513093278635
0.07,-0.0555715752996912,-0.0804067439906215,0.543769749243633,-0.0172562774193315,-0.00811562967251,0.0021286260417573,0.0310216721170975,0.0589273678605675,-0.013276473693387,0.997691481784828,-1.2208937972195353,0.4328336291812449,9.72720175733132,-0.0009755518511676,0.0004834731379252,0.0007002768052414,9.104722054666313,0.0859119072853334,0.2084968954890832,297.3312179344142,317.7074513058873,305.35487242035686,284.34290050152833,-105.17403755620782,-90.52313973211328,168.32029982874732,203.9301024988621,167.70047961410796
0.0724999999999999,0.0470507298212069,-0.0273096343737328,0.4618714620739732,-0.0165506622071285,-0.0080806339918696,0.0035105453377212,0.0309803454950727,0.0589509000550118,-0.0132508374118173,0.9976917109483492,-1.2182148679428983,0.431042813158997,9.726418219330148,-0.001002465764228,0.0004650316965376,0.0007114776695048,9.104721212454601,0.0859081746076305,0.2085075753263589,297.0895693607799,317.4879298708235,305.74832161873167,284.7582111806059,-92.67968591141216,-88.09218330767423,156.2954389586028,138.30698533493003,167.65693011201927
0.0749999999999999,0.1145446806844512,0.0215974020292851,0.3520504599876661,-0.0150368346245516,-0.0071944465799898,0.0052601036552225,0.0309351478919444,0.0589749008681016,-0.0132166185894515,0.9976921474934564,-1.2154856304912576,0.429220671165592,9.72551502316275,-0.0010172721466238,0.0004521181786888,0.0007084159222827,9.104719493286598,0.0859043335487568,0.208517719569204,296.86781950485715,317.2669903893489,306.13634961514987,285.034435428203,-82.38403631415842,-86.3769248231619,150.28674154882523,85.65123451370475,167.61207516198607
0.0774999999999999,0.148628901718131,0.0562538615217504,0.2155131097853602,-0.0134363923234515,-0.0061983659105323,0.0069570340731195,0.0308901173933574,0.0589948744189017,-0.0131786391452246,0.9976928678723072,-1.21267304394156,0.4274261927812043,9.724514216111837,-0.0010188004317584,0.0004448029372908,0.0006924212762223,9.10471722206651,0.0859006670826718,0.2085265906603598,296.6776491792091,317.0560452467077,306.49975532647585,285.1864673531744,-65.85667137137528,-81.39868974387801,135.22481685914715,35.01684051351501,167.56608682333703
0.08,0.1567635658072045,0.0741186594291278,0.0559167574171635,-0.0125393782284438,-0.0055853352353616,0.00795196164444,0.0308481885558423,0.059007323925845,-0.0131428211902101,0.997693911981608,-1.2097653438520046,0.4256945720671133,9.72343439609248,-0.0010059583848951,0.0004424806315405,0.0006659956344925,9.10471391368063,0.0858979611676758,0.2085331461278942,296.5385361480003,316.8599969406295,306.8124736994456,285.2095196307705,-47.42564906857747,-83.84831909188499,121.57091486849356,-9.570963154192205,167.5186707842919
0.0825,0.1717219433553275,0.0893082236380196,-0.1343887201404345,-0.0128152852250487,-0.0056395147806858,0.0077453238792804,0.0308150517823492,0.0590076144073405,-0.0131147493208218,0.997695304759306,-1.2067294497967744,0.4241161792206081,9.72228959035466,-0.0009778284354844,0.000443956551256,0.0006325120402088,9.104709256061907,0.0858970708647131,0.2085361467890735,296.44052093386614,316.6368036512483,307.1076099008183,285.13861253740345,-23.929101648002398,-80.64636371176442,92.33169598288659,-34.253269532075564,167.46004270323473
0.085,0.2135193406947033,0.1078937398547906,-0.2673895717587325,-0.0138650694910737,-0.0062659979881599,0.0065012224448261,0.0307895411873734,0.0589958205716757,-0.0130971794292757,0.9976970376270456,-1.2036203730503867,0.4226507635908828,9.721086440994164,-0.0009338069658826,0.0004476152058037,0.000595744840092,9.104703465312111,0.0858981413239912,0.2085355377892923,296.41889063976026,316.4567651220707,307.27413217936004,285.0382532831102,3.438448842030081,-70.45997645175241,47.668658307645686,-39.9385844107314,167.4096886482199
0.0875,0.2977042360708615,0.136693179694135,-0.3517794865114636,-0.0146806443196746,-0.0067825977078287,0.0046746370940092,0.0307705846295188,0.0589744972140388,-0.0130900976159407,0.99769899000175,-1.200538049206155,0.4212647478901078,9.719820707792705,-0.0008737372742778,0.0004516752003763,0.0005593157827172,9.10469691916196,0.0859009965376957,0.2085322908854878,296.45771317807635,316.2845037689895,307.34595319235655,284.93891961534973,29.516409573125255,-71.3370338006031,8.02029272661004,-35.04156899516608,167.35771364149713
0.0899999999999999,0.4309197523344659,0.1703950832458507,-0.3906681996956731,-0.0143149519498244,-0.0064972255966763,0.0027124431463681,0.0307565478747879,0.058948246957013,-0.0130905728530851,0.997700978121438,-1.1976173073909704,0.4199192060950834,9.718479377366634,-0.0007980137611049,0.0004544350575792,0.0005262142847731,9.104690434065862,0.0859048718249582,0.2085279282462875,296.5664726876259,316.1000799530677,307.3142336429931,284.86304543813435,48.59304559317943,-60.61000794799168,-31.170112223935636,-15.758231138374896,167.29339347895944
0.0924999999999999,0.5424800982703861,0.1819168726801789,-0.3793631966932884,-0.0126717577929111,-0.0053383568607156,0.001627108552665,0.0307484281290236,0.0589232884806298,-0.0130967227988842,0.9977026290582646,-1.1950209954898932,0.4186282008828463,9.7170386945122,-0.0007076328888659,0.000454461158405,0.0004985060925966,9.104684279543084,0.0859090880951912,0.2085237617848719,296.70067840604224,315.98145372924955,307.19010263123687,284.8601284596579,60.44879536726734,-35.40391863610918,-67.56203733143587,14.800508400901421,167.2381136851068
0.095,0.6227514842712429,0.1623985586933504,-0.3400677600071617,-0.0101601403348005,-0.0038121081486323,0.0011507473999218,0.0307485091303523,0.0589013024152154,-0.013104952434495,0.997703820682117,-1.1928167107040168,0.4174374926123712,9.715480979465063,-0.000604180900962,0.0004506897379475,0.0004772745162978,9.10467895146583,0.0859128182633856,0.2085206180382266,296.8687166644622,315.9230603598872,306.9764234563359,284.93704798013886,78.8836714038552,-6.951965020834899,-108.72027103006292,52.04588060444161,167.18102687118233
0.0975,0.66280034639115,0.1064120668596195,-0.2784030092742478,-0.0070409522434958,-0.0025124827976667,0.00102650721143,0.0307547735612869,0.0588815034812421,-0.0131135161978524,0.997704685300986,-1.19101670349875,0.4163106950785965,9.713797921623325,-0.0004897949240247,0.0004424157036113,0.000462719952347,9.104674765966807,0.085915710594543,0.2085185265498456,297.0950967630615,315.9466939041454,306.6465012760865,285.12035786268007,84.852623129484,25.8788421941176,-126.87921972526497,78.96387381255174,167.11036203433508
0.1,0.6498777197136943,0.0482318056529296,-0.2207140322556021,-0.0048434653466338,-0.0022114448167776,0.0009735127978397,0.0307664782677666,0.0588633731148253,-0.0131223610383638,0.9977052798520972,-1.1896311157687411,0.4152374881760528,9.711979354722478,-0.0003670796794025,0.0004292240514637,0.0004543270773327,9.104671383287844,0.0859178979781938,0.2085172055659873,297.29297978010965,316.05245457085766,306.3420273577096,285.3318673492016,78.1943263276275,58.492241471049006,-119.1255200843442,89.34741863156422,167.0496235684444
0.1025,0.6037116066029938,0.0039475146999994,-0.1534130038133574,-0.0036160406790694,-0.0027627384490123,0.0005489745331134,0.0307854000830469,0.0588449193578276,-0.0131316216373841,0.9977056675526637,-1.1886325598793668,0.4142598896484294,9.710017404401473,-0.0002390187735483,0.0004108971273399,0.0004510257339392,9.104668541176297,0.0859197075318675,0.2085159151637295,297.48606839469966,316.2391551115006,306.05087367566483,285.56709495583794,74.36989870581115,84.09018086941857,-108.05654338437328,90.71698149632557,166.98690562922684
0.1049999999999999,0.5439690740303148,-0.0120720679803863,-0.0718812156581095,-0.0030336849258456,-0.0038113244917712,-0.0002109207218519,0.0308077753213221,0.0588291055967194,-0.0131437585037807,0.997705756263872,-1.188080092569337,0.4133103135801706,9.70790305775092,-0.0001089177709308,0.0003873356067459,0.0004512814448081,9.104666993388657,0.0859213389267676,0.2085145727252946,297.6648292736387,316.4729054752048,305.80174464078766,285.78545225668324,66.04012016850915,97.92317858584755,-84.35512913099517,73.75693596499119,166.92250466500795
0.1074999999999999,0.4769160635868666,0.0138050113308774,0.0308430973610603,-0.0024964731145971,-0.004883585278983,-0.0011056732528033,0.0308280040078297,0.0588176476203261,-0.0131606997974093,0.9977055915239824,-1.1879972177838622,0.4122886912419286,9.705637231844047,1.970860192840932e-05,0.0003585315659827,0.0004531307823028,9.104667404674121,0.085922927845205,0.2085134194678839,297.8162689955422,316.72877100442986,305.62909803000986,285.9358796356629,58.81768809524596,108.78026111635099,-56.2535886580917,39.78249278414975,166.85602647026712
0.11,0.3855728234127843,0.0827516736148443,0.1702538580098576,-0.0011670535626784,-0.0053953059494475,-0.001908945258186,0.0308427735320971,0.0588091476083608,-0.0131820007331079,0.9977053637577902,-1.1883355488035836,0.4111452931047713,9.703231333114221,0.0001433360241235,0.0003245646173594,0.0004542227677068,9.104670236924946,0.0859241975545567,0.2085128408794613,297.95891771411493,317.01680678078657,305.52047669749726,285.984364720604,45.633884565279416,97.42046665118087,-25.557661677521516,-8.82751567947934,166.7737930757394
0.1125,0.2944160878514947,0.1527685921825348,0.28128717405691,0.0005264363294942,-0.0049221128725781,-0.001914663816987,0.0308493919290823,0.0588055026425736,-0.0132038433504663,0.99770509406036,-1.1890991531480704,0.4098471648222434,9.700695685242275,0.0002586942832152,0.0002855904521222,0.000451921565577,9.104675136959862,0.0859250807172799,0.2085133218271455,298.04443841836854,317.21587333768576,305.50130972162225,285.8917420572655,28.09536706005244,67.7884673201333,0.9212111981696572,-63.79989003120266,166.70317602448088
0.115,0.1885483756537547,0.2103839439892992,0.3528282847321934,0.0022098122322303,-0.0037003582602668,-0.0005988944527203,0.0308491616359959,0.0588054297301359,-0.0132217800203011,0.9977048763491476,-1.1902216477916157,0.408442541023459,9.698050832219604,0.0003630454648281,0.0002418215518325,0.0004434703254689,9.104681664251764,0.0859255379739537,0.2085150797586989,298.0993945494152,317.35574911738723,305.5250827534881,285.665365270448,18.89335281985039,47.63960552717204,10.507330586233357,-120.26278022678969,166.63034679077379
0.1175,0.0663132346196555,0.2459661134001875,0.3538736263278304,0.0032414426082331,-0.0021203138052827,0.0024175075027829,0.0308443964624035,0.0588064199439751,-0.0132336464623334,0.9977048162297346,-1.1916064002134383,0.4069985600347775,9.695326919000237,0.0004543919481826,0.0001935009933838,0.0004262048225847,9.104688651352856,0.0859256909332476,0.2085181730673407,298.13890518246785,317.4540713653216,305.5538463745534,285.29042815613155,11.693065959536872,26.661978469269393,3.342032320961158,-142.39271940803087,166.54034856690743
0.1199999999999999,-0.00371065832464,0.2445586933868979,0.2712178825444507,0.0027059149345296,-0.0010602269018098,0.0053529705167665,0.0308371595875096,0.0588099423103628,-0.0132385089930275,0.9977047754188724,-1.1932282869402495,0.4055760825285744,9.69255326533275,0.0005315596888488,0.000140881624779,0.0003977715818429,9.104694633446627,0.0859256649996249,0.2085217054419088,298.1578598792129,317.4890590097336,305.54179291509286,284.9534016734078,6.951611243721358,9.20774193019726,-19.00275516878768,-123.38091256232268,166.46315101679957
0.1224999999999999,-0.0079360475136213,0.2176649857319352,0.1187173552123558,0.0009838730890578,-0.0003838325783148,0.0074026253057651,0.0308326610949586,0.0588155571768015,-0.013236773453336,0.997704611938097,-1.195021542105438,0.4042973126111258,9.689767260351154,0.0005941190601373,8.421572126491587e-05,0.0003562573155873,9.104698997929903,0.0859254306661052,0.2085250446973208,298.17366323868646,317.5001100749726,305.4588325987095,284.67352359331994,9.43292260042198,6.688309254866447,-56.64426217825844,-93.46105064241775,166.38363999679837
0.125,0.0766184194203954,0.1701436708251471,-0.0861728790949497,-0.0013083737817471,4.418933895534868e-05,0.0072722699419382,0.0308344341761775,0.0588251331583679,-0.0132318122545127,0.997704060243387,-1.1969631517604062,0.4032484675624362,9.687009613452064,0.0006421750723587,2.3740404497384674e-05,0.000300235501749,9.104702693045912,0.0859250362286797,0.2085294852096985,298.20502449221493,317.5225005560079,305.2585716042016,284.48609642019574,16.179896738958618,14.928035746754619,-89.94452785293552,-35.970598883943666,166.28552248321444
0.1275,0.2056666152793078,0.128333371898076,-0.2220817113058066,-0.0024972449858399,0.0001702677041883,0.0047979995233125,0.0308433922135204,0.0588384904641933,-0.0132263228606048,0.997703066951282,-1.1989875621858668,0.4024666675674566,9.684334239034046,0.0006761746181372,-4.033108822682677e-05,0.0002288407769671,9.104706109266816,0.0859246773913447,0.2085352469579296,298.25456272238125,317.5747502537064,305.0091099594448,284.4936705989002,27.59565753661943,32.426418923319005,-113.39358867572844,40.54617708005704,166.20148704697087
0.13,0.347200311787618,0.0938218499589951,-0.2776955660738261,-0.0018443828445792,0.0001636627782096,0.0012120663541965,0.0308556073262919,0.0588530609328579,-0.0132217812001734,0.9977018860256136,-1.2009809001128289,0.4018973315174526,9.681810352138104,0.0006967834551224,-0.0001077902577557,0.0001419340103649,9.104709348333529,0.0859243701527234,0.2085411617661124,298.3430027798981,317.6846326506245,304.691603660823,284.688827305596,43.352742274453206,55.025223530094486,-133.8592361745781,106.7867884556107,166.1150795137149
0.1325,0.4522856870383031,0.0693849933013853,-0.2651674258267706,0.000596740995898,0.000112269626297,-0.0016918722690616,0.0308654188981604,0.0588673641673859,-0.0132192661085638,0.9977007660244092,-1.2028511449252977,0.4014526965365106,9.679509587146017,0.0007048166144249,-0.0001783919667304,4.022276114419915e-05,9.104712321533214,0.0859242995827482,0.2085459858048927,298.4713264337535,317.84987637135686,304.3398137785719,285.0276045411783,61.171761501896015,78.76184786803142,-142.6264071646982,161.25899171737487,166.0266980912926
0.135,0.4681517596462616,0.0580301532892548,-0.2076877505121547,0.004312778340942,6.630366854096036e-05,-0.0024071114925324,0.0308709494590009,0.0588767182652525,-0.0132168889522643,0.997700066066794,-1.204446066644657,0.4011232288715721,9.67750806238256,0.0007012048468332,-0.0002518138066419,-7.478587308784713e-05,9.104715341331875,0.0859244288204864,0.208548597687942,298.6488615874076,318.07844188996467,303.9784716249995,285.4951222641829,86.6007854632243,111.50355491670317,-153.48528470659616,218.46818454596337,165.93593391510842
0.1375,0.3671751541855914,0.0564703590705859,-0.1554663801805545,0.0085098139280206,7.668200322997629e-05,-0.0005168703502746,0.0308713849727565,0.0588791456566089,-0.0132127151116983,0.9976999545293888,-1.2056701271080403,0.4009193343407996,9.675874728433614,0.0006870028276495,-0.0003276123846084,-0.000200979256374,9.104718535095293,0.0859245201114378,0.2085489994139421,298.90433036106964,318.4073941459404,303.57238735503887,286.1199454639081,96.03182894970803,125.44824088976144,-140.24053227254842,226.09918683087903,165.82426677149655
0.14,0.2067830929891162,0.0607235167050185,-0.1627731460680318,0.0104325620544368,0.0001747869021052,0.0021078096982148,0.0308670968517216,0.0588785553031491,-0.0132049955870179,0.9977002131849564,-1.206547496257284,0.4008722581204532,9.674662736464429,0.0006634375821426,-0.0004052032749566,-0.0003359119483341,9.10472118101464,0.0859244243646278,0.2085476102974022,299.1290207321561,318.7056830944135,303.27726896363674,286.6256181983373,84.46646068421153,117.96857922746528,-107.33940837773152,185.57683523581528,165.7289282762248
0.1425,0.0266406192065448,0.0639979765053307,-0.224564755602429,0.0099447498623749,0.0003953531701799,0.0037788896824933,0.0308625337101212,0.0588788656103617,-0.0131932426904528,0.997700480421524,-1.2071102473460256,0.4010905566800263,9.673918644168898,0.0006319164557462,-0.0004838689682759,-0.0004770677915706,9.104722745010038,0.0859241279637133,0.2085449997608698,299.3266626644907,318.9972370420777,303.0356903131502,287.0478296400872,71.4247495445537,118.5970664767984,-96.5253907410333,157.72215159709123,165.63123899879315
0.1449999999999999,-0.1387112871995426,0.0593421028280585,-0.3099792350713748,0.0072891178566292,0.0008014169292643,0.0031716123536027,0.0308608420361533,0.0588848000169274,-0.0131799179156887,0.9977003492477868,-1.2074145177928204,0.4016529937764289,9.673686110344327,0.0005939591365052,-0.0005627693000522,-0.0006220341964057,9.104723944371232,0.0859237318614372,0.2085431294642847,299.4861444798789,319.29866842679746,302.7946420099316,287.41422895632275,40.71164693075408,96.66924622425812,-84.6857780104419,109.27754206011336,165.511325435082
0.1474999999999999,-0.2004713081374715,0.0447276934150365,-0.33682004757456,0.004617050448191,0.0012083997224954,0.0005261508448121,0.0308648747378268,0.0588964084263699,-0.0131684700556971,0.9976996850832393,-1.2074343322773309,0.4026318600814841,9.674016822547864,0.0005511085201058,-0.0006409409608304,-0.0007684976318861,9.10472530478228,0.0859233904169284,0.2085428323604835,299.53022089914447,319.480583273199,302.61226142309806,287.59421735038774,-2.432101073270585,52.398323297018074,-75.68196377370661,47.24139367117455,165.40918853444947
0.1499999999999999,-0.1798073716166505,0.0186517133102046,-0.2683412530680353,0.0027430369730148,0.0015219173657824,-0.0030647870218269,0.030872273541504,0.0589080222799345,-0.0131614154016846,0.9976988626577248,-1.2070400376728407,0.4039996736242403,9.67497824915168,0.0005048973383725,-0.0007172629642897,-0.0009140568109683,9.104727130104008,0.0859226214105166,0.208542939429454,299.47398397451246,319.5606600432825,302.41623219106305,287.6504359246786,-43.949219112937456,6.685289884421757,-95.64022430765807,-0.547113675349919,165.30480298738343
0.1524999999999999,-0.094400076037859,-0.020854916982116,-0.0686180877708057,0.0021434005994158,0.0015056133910019,-0.0065739875766561,0.0308785806798364,0.0589165509752715,-0.0131582287833109,0.9976982089056132,-1.20615955004656,0.4056895768527819,9.67663080855378,0.0004568926239303,-0.000790453000237,-0.001056021613017,9.104729034193785,0.0859210791745463,0.2085422055161643,299.3104748035798,319.5140097226211,302.13406030155977,287.591481782011,-69.70984138673651,-42.71203529153805,-112.79951067925812,-39.054897665926056,165.1770034359202
0.1549999999999999,-0.0091911700410213,-0.055360208036058,0.1631241642712584,0.0030909877941484,0.0011997855458912,-0.0077636968115536,0.0308825303146178,0.0589191978104954,-0.0131560676009147,0.9976979641597566,-1.2047361748663992,0.4076980001232098,9.679026948599953,0.0004087555858402,-0.0008591396302042,-0.0011913714249773,9.104731086521324,0.0859182993054292,0.2085397340657663,299.12543476757884,319.34709986682486,301.85223463766675,287.455161436349,-74.11561338975609,-92.37582908810957,-118.531407706348,-66.16535935927453,165.0684435330958
0.1575,0.0548920380142359,-0.0872047342965349,0.3921594939397829,0.0047858651725816,0.0008420105748127,-0.0064063973827938,0.0308814151056226,0.0589183878090236,-0.0131518199534463,0.9976981070278478,-1.2028248748706571,0.4099906163722278,9.682205376679706,0.0003623243459705,-0.0009219855788141,-0.0013168767241451,9.104733220765352,0.0859143169892391,0.2085353281206948,298.93989673663094,319.0521305771805,301.54140326302803,287.2606549852146,-65.83291308946849,-135.23781009236006,-121.3892469584606,-81.12059292195674,164.9578192723527
0.16,0.0914765731402061,-0.1161657448389922,0.5610204298318454,0.0062554938814041,0.0005441840378593,-0.00305376538618,0.0308738069139613,0.0589140809003106,-0.0131435982331146,0.9976987068979496,-1.2004449282589136,0.4125558227974931,9.686205912739421,0.0003196592479788,-0.0009778614409645,-0.0014293145224153,9.1047343048718,0.0859096550407097,0.2085286449586523,298.7962702021315,318.67091081636306,301.24528840287445,287.0495584717392,-36.739404496393,-163.41475966627272,-100.59083241028466,-79.82964073895566,164.84554627959895
0.1625,0.1047991076338947,-0.1426558174078567,0.6092422617794909,0.0067314284250901,0.0003379834328226,0.0013272773386612,0.0308636988562363,0.0589059188343155,-0.0131309633521512,0.9976996664466792,-1.1976229473421556,0.4154846970360217,9.691060185415875,0.0002830192033437,-0.0010259958164733,-0.0015257310415308,9.104733265312062,0.0859051109571582,0.2085198354535124,298.75619971414903,318.2350567788492,301.0384491009766,286.86150678151984,19.699244024388896,-185.2140052212233,-49.16276875444505,-65.85388685920174,164.73137144217884
0.165,0.1203784033508295,-0.1722126047119409,0.5172611206647917,0.0061783305804744,0.0001359858804847,0.0055810289621555,0.0308569366212498,0.0588966850448425,-0.0131165304363121,0.997700606999408,-1.19446042423912,0.4188989756909308,9.69678854274876,0.0002547071366513,-0.0010660145829212,-0.0016037297197312,9.104730682605224,0.0859013264322323,0.208511365974379,298.89476642225344,317.74484079025694,300.9994745591022,286.7202890374432,90.4629400680277,-157.2084764854365,34.563537683470685,-29.262779927296357,164.59228765300375
0.1675,0.1488381632039375,-0.1932220378161615,0.3445452813728004,0.0052354407039175,-7.62802387380118e-05,0.0072830903666181,0.0308578687359193,0.0588888637457434,-0.0131034035999115,0.9977012084808125,-1.1910647430324444,0.4228898834027071,9.703412637829768,0.0002368359744912,-0.0010978648367294,-0.0016615771328737,9.104728521505406,0.0858985336773945,0.2085062985052109,299.2085144144892,317.449014396422,301.211266789394,286.7151928818833,172.7839886502464,-75.33513232393709,145.13172680423153,30.03637369400846,164.47475707531484
0.17,0.1954815438609643,-0.2047585976042964,0.1301329173753152,0.0046127244342915,-0.0004505991216555,0.0070433555232191,0.0308623664812235,0.0588849141747437,-0.0130925525153187,0.9977014411541038,-1.187551216270035,0.4273845851146577,9.710963998177805,0.0002312270682764,-0.0011216357312552,-0.0016979371461918,9.10472851798246,0.0858963173369544,0.2085054433554651,299.7586863655047,317.36816512863726,301.7251331931234,286.87047090591324,293.58982718159695,28.100351868022216,291.7290546928936,109.79979636354064,164.3556696393121
0.1725,0.2509067367863798,-0.1976539947551977,-0.1094496610474182,0.0050817958607618,-0.0012039012001158,0.0053631187505779,0.0308651212535514,0.0588866205705867,-0.0130840758531602,0.9977013628092072,-1.184032259720719,0.4322866390294866,9.719477672611584,0.0002395184737316,-0.0011374152546039,-0.0017112866779667,9.104730294709992,0.0858942929928503,0.2085075491977415,300.67646355039716,317.58951615576206,302.6699120628584,287.26419186370106,366.5423644291192,133.3809413449443,384.212824591452,174.9316761006638,164.21113341273815
0.175,0.272591617372304,-0.1672706698694691,-0.2619106869134388,0.0066319032398762,-0.0021112050196275,0.0035542334628299,0.0308660966219181,0.058888621533533,-0.0130774977354767,0.9977012949581834,-1.180491944985281,0.4376030940612806,9.72899945655589,0.0002633605417003,-0.0011452043288324,-0.0016993414638147,9.104733664104888,0.0858921182268194,0.2085105412795981,301.59139818765027,318.035069835362,303.64619731608065,287.7451292864165,365.7256598864609,214.2740359000537,391.67593384130623,207.38434665754636,164.0894608894017
0.1774999999999999,0.2468138538264684,-0.1083060193608937,-0.3503980750418664,0.008859416843803,-0.0031781736788062,0.0019825898514159,0.0308679148485954,0.0588868265114376,-0.0130741270407955,0.9977013795142032,-1.17694963963172,0.4433880634749712,9.739570248173914,0.0003046691210758,-0.0011448682709835,-0.0016587342783682,9.104737792725007,0.0858897649224786,0.2085125029232611,302.50509184982945,318.6608863352624,304.6282917320649,288.3011135969888,345.09560841872985,274.5406492760607,370.37096153801656,226.22164697854816,163.96668947427048
0.1799999999999999,0.161968622060655,-0.0135630013925103,-0.3885788528436286,0.0108556714500706,-0.0041440227059847,0.0006069560319214,0.0308736751705028,0.0588806310772591,-0.013075787441071,0.9977015326680808,-1.1735010059283308,0.4497002448538883,9.751224236370657,0.0003657883912127,-0.0011361397189631,-0.0015850121320575,9.104741080515343,0.0858873558452532,0.2085116082083468,303.3168762297439,319.4077730817423,305.4980521237707,288.8762375213093,199.99083964846687,232.1748927196834,215.50708053940727,160.5201104494425,163.8183126634983
0.1824999999999999,0.0666915715505977,0.0688368575564115,-0.3757051221122857,0.0110705530471434,-0.0041868091721777,-0.0001648879345753,0.030890868849968,0.0588709411793891,-0.0130853097809082,0.9977014320763322,-1.17027931538904,0.4566790103281784,9.763989135318264,0.000449490063866,-0.0011186579067226,-0.0014729308884555,9.10474221301267,0.0858852320311225,0.2085071383442242,303.50504604807173,319.8217607988608,305.705827134762,289.103714149236,-84.38053194115574,71.69538899242974,-80.08546180786873,-6.927954917682649,163.69396210123043
0.1849999999999999,-0.020604615508749,0.1288022424215433,-0.3315444550507037,0.0098353463062486,-0.0031540648669961,-0.0007063163756887,0.0309227492405079,0.0588638554305275,-0.0131042093593395,0.997700597439546,-1.1675225355989027,0.4643757589362499,9.777889792702016,0.0005587880217337,-0.0010919488305733,-0.0013169884160944,9.104740576093198,0.0858840476866457,0.2085001470064918,302.89497357003813,319.7662500267044,305.0976248147314,288.8415977467209,-406.16229047257053,-129.40058934618708,-403.89126193622326,-214.86162286209927,163.56910334715457
0.1875,-0.0838525060471978,0.1544331848549051,-0.2700081402986573,0.0082396901125748,-0.0015490898675549,-0.0011674402456724,0.0309676426449636,0.0588667838436501,-0.0131310878770381,0.9976986635790932,-1.1654940179142688,0.4727414406267597,9.792959492247768,0.0006965653601224,-0.0010553737852772,-0.0011119566217866,9.10473601480812,0.0858842802028689,0.208492467109203,301.47423459570894,319.17475785212986,303.68637082508087,288.0294060349255,-763.4896661781673,-376.2674767606196,-751.5109383288057,-470.69909866704575,163.44400086886475
0.19,-0.1175629114040723,0.1351859470707159,-0.1935688955654616,0.0072726649262252,0.0001165283113586,-0.0015800856195685,0.0310184305899846,0.0588810691014128,-0.0131632619124497,0.9976958098386818,-1.1643352310715827,0.4816146936396612,9.809259081453684,0.0008651192835149,-0.0010080060529716,-0.000853253611238,9.104729673213598,0.0858855223588317,0.2084854483871672,299.0775252391473,317.88491264290127,301.34007012308734,286.48810225338565,-1210.129787154425,-692.4381432630861,-1172.8497438269972,-814.2047117328269,163.3188346304568
0.1925,-0.1437204703960974,0.0810813960771775,-0.0885978679490497,0.0072019683677751,0.0015474211734949,-0.0018962058779552,0.0310677100287688,0.0589030684024801,-0.0131974256947029,0.9976925281633084,-1.1640838818322483,0.4908204875089196,9.82687017810359,0.0010657624060309,-0.0009485041794718,-0.0005370876897137,9.10472207213421,0.0858874533481776,0.2084796464709059,295.4235856599368,315.7125671358144,297.8221221059459,283.95838247626136,-1357.8434991132315,-828.8173329691624,-1295.2334376361466,-969.6250977902074,163.16887872229344
0.195,-0.1713597094288552,0.0413315829178701,0.0085020135218803,0.0078543303534533,0.0018122847620141,-0.0018403934130242,0.0311133513718418,0.0589225719488928,-0.0132282374119112,0.997689558460437,-1.1646375718906568,0.5002806240489615,9.845893507958323,0.0012985135659294,-0.00087502102216,-0.0001604672968892,9.10471414085947,0.0858893151511215,0.2084752712825566,292.28830774358113,313.7408259780555,294.8639029349066,281.6399767644346,-1067.0199642518232,-678.2735750071987,-988.4355172623023,-823.1721017548574,163.04436474818877
0.1975,-0.2154571746385441,0.0530203631283396,0.1158691423607168,0.0085821551439666,0.0008633785728591,-0.0015376701092186,0.0311545554690745,0.0589336452316769,-0.013253753123172,0.9976873013764612,-1.165965223812343,0.5099263849932956,9.86643220186676,0.0015619117525077,-0.0007851530382383,0.0002788592478902,9.10470649628776,0.0858905187576071,0.2084722104344804,290.0884858386777,312.3211992607784,292.8799445196344,279.8425219674871,-440.87475239407433,-263.3378743938804,-348.8367486698391,-427.6442450397208,162.92062909029164
0.2,-0.2762078736493961,0.1696745421077463,0.2601062743511937,0.0086249217780145,-0.0010009582365985,-0.001105604842311,0.0311879664952228,0.0589365043130328,-0.0132718636726844,0.997685876809689,-1.1681367575545643,0.5196237290882484,9.888595162251212,0.0018528688080792,-0.0006760152056188,0.0007824704893698,9.104699138109554,0.085890817209436,0.208470186525787,290.08393398161076,312.4241366060861,293.1197191915574,279.501755539236,684.9524201624484,539.6097088588813,762.1075788834438,386.1882077536617,162.7734314093342
0.2025,-0.3123997581050908,0.3636701017646129,0.3961162474303017,0.0076279228530208,-0.0023354053852546,-0.0006928651161765,0.0312131088962345,0.0589326899901342,-0.0132806468368547,0.9976852355197484,-1.1712248923152964,0.5292814122441912,9.912502157192188,0.0021665747903483,-0.0005443801380443,0.0013513076994991,9.104692459008012,0.0858902288733147,0.2084696814566169,293.51324793948993,315.01924780507284,296.6904824140516,281.7734630062554,2358.3084926834636,1807.610315251177,2391.8391574056927,1694.3960499892553,162.6521344594297
0.205,-0.30594394767814,0.6401517754060095,0.5484144743521246,0.005649158633518,-0.0023942810069504,-7.945379376037894e-05,0.0312297177732798,0.0589276288524872,-0.0132791450686605,0.997685080518663,-1.175351904964067,0.5387964372929595,9.93828299378536,0.0024964317973088,-0.0003868315743669,0.001985733488622,9.10468743498144,0.0858888928572448,0.2084723813450837,301.8754764450281,321.462188182342,305.0789149785859,287.9737357891823,5048.269202380397,3983.6502288674824,5024.946601262964,3893.625927468687,162.53263060134907
0.2075,-0.2329765429099824,1.0127438314653316,0.740590079504526,0.0031332930859814,-0.0001245503186667,0.0011685541604637,0.0312391579746967,0.0589244295631144,-0.0132673288398967,0.9976851895906524,-1.1805628405212971,0.5480846114803497,9.966089957629249,0.0028340870036363,-0.0001999035873959,0.0026856918876824,9.104685385499597,0.0858868530888907,0.2084791769086924,318.75459395139194,334.9374989494102,321.8152154203664,301.24159264359884,7404.228630547958,6042.629351713384,7315.981400655755,5968.721391159641,162.39175699849758
0.2099999999999999,-0.1252307391253121,1.3079807000912615,0.8944879021453809,0.0018917155115923,0.0037639580061373,0.0028376823488327,0.0312403890070466,0.0589222928072962,-0.0132450100786528,0.9976856494923207,-1.186787975991504,0.5570022831863262,9.996107332142142,0.0031696354180497,1.976609209209212e-05,0.0034510413086118,9.104688337483216,0.0858837698874345,0.208490500722337,338.89661959776765,351.6753349409088,341.6588219818645,317.81734274498035,9283.148383106864,7938.48633352574,9108.44632312696,7846.813247994432,162.2768226101052
0.2124999999999999,0.0035571998802652,1.5377933581018608,1.018790692962123,0.0020962382302725,0.0087836704880359,0.0053768235606653,0.031234004238841,0.0589200096615321,-0.0132133945817605,0.9976865021056092,-1.1939118219553615,0.5654256233696913,10.028537229094011,0.0034920255921263,0.0002753094245428,0.0042820369505372,9.104697240523954,0.0858793036844284,0.2085066304485733,365.17033586692605,374.6299306170388,367.35744703600096,340.4756588835708,11415.9992779718,10228.476727284979,11113.598442403645,10055.991622549518,162.1648814071328
0.2149999999999999,0.125401885921744,1.6933006743261203,1.1007827849613658,0.0029949569113542,0.0137105098983345,0.0086561215531716,0.0312247022719171,0.058915589341233,-0.0131745613071699,0.9976876938820668,-1.201764411725932,0.5733036230501501,10.063595147564785,0.0037896699671778,0.0005694637253281,0.0051798312434922,9.104711416919097,0.0858733236461018,0.2085263922274815,395.9766159876268,402.81771857733366,397.2268141938828,368.097300857728,13208.452623187406,12487.101364114164,12698.59485732294,12151.104781753156,162.05576631287323
0.2174999999999999,0.217238091158727,1.7550622802907851,1.1179271257188776,0.0036613476188889,0.0179337059966144,0.0124243322673978,0.0312191228422376,0.0589105339099275,-0.0131301532759038,0.9976889061345362,-1.210206238384146,0.5806182784975076,10.101500906594124,0.0040510466361815,0.0009043234449236,0.0061469244749503,9.10472966772212,0.085865920022094,0.2085489253929296,431.2125989828632,437.06543743760966,430.8504213226158,401.2311827923367,16213.474881470787,16329.36985561274,15277.59789032618,15658.563332911965,161.9504914987764
0.22,0.2737704396173458,1.7257401179095844,1.0644239678573124,0.0033165110751015,0.0223355111167356,0.0167514917796504,0.0312259388059107,0.0589067903302023,-0.0130824277344588,0.9976897149789756,-1.2190700965099504,0.587390304515421,10.142482149045811,0.0042652582352956,0.0012810904943034,0.0071873896019376,9.10475104168892,0.0858574014870227,0.2085737530045706,477.0439903949808,484.46456785539755,473.61480364551375,446.39011752228794,17162.970954739634,18284.154913919287,15804.950535827784,17282.07163248108,161.82914326544494
0.2225,0.2575994235002104,1.6158226793152624,0.9737052065899224,0.002497632257837,0.0257857905210472,0.0196080220418676,0.0312458106107071,0.0589077696579529,-0.013033875817994,0.9976898465371674,-1.2281829057100213,0.5934782953401287,10.186783704558316,0.0044224306267833,0.0016996637269672,0.0083069991485808,9.104775233394621,0.0858484904809936,0.2086005216231622,517.0274537565614,528.4862120072062,509.8751740017548,487.6415409547421,16112.658214076188,18340.113323685095,14352.959198131179,17025.52655320016,161.7325226208785
0.225,0.1338459469871396,1.4090653831706197,0.8655155514757199,0.0023792604796066,0.0293313850038015,0.0214129197457516,0.0312744755663469,0.0589102753143238,-0.0129878919876793,0.9976895458018332,-1.237206625435542,0.5986446260258752,10.23467817918163,0.0045141979831052,0.0021583955253403,0.0095131406229771,9.104802498794173,0.0858400005849527,0.208627941946142,557.6072814653618,576.1651344738232,545.3795996361697,531.5177502882888,17754.42371222312,21564.794546042256,15225.572885131063,19655.383367793165,161.6409341737519
0.2275,-0.2087370938299694,1.0332378724765348,0.7510632437279384,0.0038301541045583,0.0335042680070384,0.0225641286590647,0.0313124671076731,0.0589062815608596,-0.0129471570836427,0.9976891868409852,-1.2456784033998771,0.6027594839053745,10.28644315792222,0.0045341276014401,0.002654083736734,0.0108146123598085,9.104833333899474,0.0858327753923037,0.2086551814295814,605.7995723176771,636.3101847374176,586.0030384274102,585.9184577937081,17452.06811280876,22353.708694610217,14481.798166985172,20069.579780297983,161.53718459291068
0.23,-0.7020701337096587,0.605565191007482,0.6849617582607216,0.0057064969690327,0.0361474116793982,0.0230016845223493,0.0313604023805378,0.0588914756362386,-0.0129152594036312,0.9976888936105692,-1.2531924663566787,0.605705060457042,10.342343818126096,0.004478036745485,0.003181908114328,0.0122213563905647,9.10486735102996,0.0858279759249933,0.208682957399541,644.8676220294057,687.9336779468742,617.7885904710956,631.8656491897788,15280.36885684497,20752.28784688534,12270.327080629171,18340.31600421197,161.45605379999208
0.2325,-1.4314764564848277,0.0590337795297105,0.6499665639951566,0.0061990720009393,0.0366180173918781,0.0234582400878209,0.0314097288753611,0.0588681209960503,-0.0128960451473548,0.9976886662102862,-1.2594669669010032,0.6071860660786033,10.402635648831728,0.0043443542904611,0.0037352878433529,0.0137441477326325,9.104903436817306,0.0858265773685853,0.2087126583969435,682.201416601902,740.0716239718444,647.3546738305561,677.620037814768,14578.562400403447,20801.76866522132,11494.298157929405,18177.310388044047,161.3806277455656
0.235,-2.3346735971447865,-0.5834160746483753,0.6260395498109498,0.0042013614985857,0.0348596457206919,0.0243211959612031,0.0314477999583627,0.0588415517752957,-0.0128897396205264,0.9976884828349915,-1.264280567037504,0.6068400991241195,10.467560028311475,0.0041345443671861,0.0043061025686204,0.0153942430021835,9.10494041950674,0.0858289182092067,0.2087459514906943,717.760434031423,791.9425212729809,675.2600812607427,722.7522011299992,13732.542692871732,20540.692918158176,10834.129203212444,17827.672487398882,161.3100190986181
0.2375,-3.3797288629009694,-1.349984178396884,0.5841886170493494,-0.0016430023077486,0.0307612538125818,0.0259789598891581,0.0314642173859933,0.0588159367626362,-0.0128963641087267,0.9976883132401428,-1.2673987993692932,0.6043689806582775,10.537339490907444,0.0038533981065903,0.0048852078557571,0.0171831255388314,9.104976791524026,0.0858350669499944,0.2087844846111587,750.8641300662606,842.7750885626353,701.5253198466183,766.7584002517625,13936.069911398812,21971.4051504768,11274.63287603269,19040.767328914106,161.24527149773436
0.2399999999999999,-4.6789946053141245,-2.454227389296482,0.469710264828671,-0.0138436692197153,0.0234229619831708,0.0286917320054258,0.0314509124717003,0.0587916142444729,-0.0129124458685049,0.9976883257141476,-1.268523415783113,0.5995481456779596,10.61217925146212,0.0035091879875677,0.0054628122703489,0.0191224761277785,9.105011143010005,0.0858444452255669,0.2088300257381693,787.4407835884166,901.7995470253645,731.6332456409059,817.9560377745692,12858.161004875195,21219.150653636993,10862.81367391594,18473.193098144446,161.17435905179482
0.2424999999999999,-5.709398505264168,-3.5818793487462592,0.297596938181549,-0.0281331968159997,0.0152400260010024,0.0310375598278729,0.031399895033439,0.0587679155062566,-0.0129306157231417,0.9976888135148296,-1.26735875808383,0.5921802133026549,10.69225895805987,0.0031134228411505,0.0060287686138936,0.0212244021761183,9.10504212076908,0.0858562504759125,0.2088843058924316,815.1549350906365,948.8708418308198,755.8393882161978,859.1243657424843,10503.50898053622,18295.50837196353,9545.5681192468,16119.231801492044,161.1208975099518
0.2449999999999999,-6.600258533383378,-5.012678562536373,0.0383780460169688,-0.045196772786404,0.0048301228253394,0.0325985584601087,0.0313053977596565,0.058742537780927,-0.0129432031836401,0.9976901448895914,-1.263609626357668,0.5821371897592987,10.77772566751824,0.0026804335548967,0.0065729697472783,0.023501766677941,9.105067796061896,0.0858701409823589,0.2089479396095721,839.9583284910977,993.277088885182,779.3610862371398,898.5521967820295,10273.509223100737,18833.653196420168,10219.385204984532,16881.993486014184,161.07323100021205
0.2474999999999999,-7.454597703669216,-7.194837466375873,-0.3548962669464154,-0.0674080918726325,-0.0102026711265228,0.0328502495239938,0.031168159108495,0.0587053766163235,-0.0129446513056546,0.997692991940463,-1.256855693202884,0.5694541324094168,10.868697040194016,0.002227024195914,0.0070858194511078,0.0259685307604051,9.105087277368211,0.0858860635739613,0.2090204081182594,866.5224812061401,1043.0391078129207,806.9363142411205,943.5343331725552,9261.781887769042,17605.854528298398,10012.965023828307,16037.239319335695,161.0226407778344
0.25,-7.977083027324065,-9.47192901377664,-0.7253894143385147,-0.087132919016871,-0.0254510761852572,0.0318227401738307,0.0309944788216204,0.0586367868864559,-0.0129332982289383,0.997698483445648,-1.2465125344878492,0.554311791343271,10.965261796272486,0.0017718882508065,0.0075585010373097,0.0286401204727602,9.105100902273913,0.0859040540997825,0.20910020132734,886.267237929943,1081.3063615266742,829.4259113562814,978.7383933787081,7499.3222138194305,14593.563017150189,8905.139247016146,13505.366647092216,160.9859043306466
0.2525,-8.316473504964648,-12.257729036466715,-1.1031190553849517,-0.1079523129455745,-0.0454680479575911,0.0296636349576229,0.0307915195191448,0.0585152008483194,-0.0129125063857669,0.9977079566497616,-1.2319935080893114,0.5369332177430147,11.06746295026889,0.0013345241002285,0.0079829913980423,0.0315336692141359,9.10510971483072,0.0859241768954676,0.2091852648919501,904.0190922752371,1116.0069228986715,851.4620104762013,1011.0611664080164,7488.895191102479,14402.877799140912,9611.218129446195,13429.893913676902,160.95466955132073
0.255,-8.556552386895042,-16.11702320452157,-1.518806536040681,-0.132451818081307,-0.0780183708495305,0.0256914337511386,0.030563031634014,0.0583228608766955,-0.0128863210333656,0.9977228530259153,-1.21283176194201,0.5174909796249568,11.175284941444051,0.0009342852060449,0.008351932986801,0.0346679068344976,9.105115483071128,0.0859462912949904,0.2092739168393593,923.7117138854557,1153.3207505223788,877.4820020035124,1045.8878629470923,7055.2890172380485,12939.356523380307,9492.224634839218,12033.797599478306,160.92337192298564
0.2575,-8.661432692358531,-19.62159516762127,-1.8012251017604803,-0.1514550913380125,-0.1148035576598586,0.0212383008011886,0.0303133944518142,0.0580492529811256,-0.0128614694293207,0.9977441692148016,-1.1887633961656399,0.4961909975742114,11.28863544197774,0.0005895629709366,0.008659022285472,0.0380625546865415,9.105119966493357,0.0859700008190836,0.2093661729906359,939.2955373614277,1180.7037055155731,898.9231336503974,1071.230154405408,6167.7669535973055,10164.367218899668,8559.807786584717,9324.600936784593,160.90229596553226
0.26,-8.709972254786274,-23.156734931011517,-1.984219065720876,-0.1698890688409328,-0.1640658241191205,0.0158478444216343,0.0300431036883182,0.0576857622459482,-0.0128418949919494,0.9977723744908537,-1.1596074614199903,0.4731757089911086,11.407361031415517,0.0003179130607829,0.0088987916029321,0.0417376679624897,9.105124418717583,0.0859948551465801,0.2094637528643056,954.5505486534421,1204.1425866168772,920.281040936436,1092.5108676310156,6103.861610148619,8711.281467457222,8556.70240643805,7843.91732743724,160.886221374286
0.2625,-8.720304806652454,-26.46743427987957,-2.0684759287045913,-0.1886787839625318,-0.2239585694712265,0.010098160079794,0.0297492350740492,0.0572251363588949,-0.012828642886875,0.9978074698449144,-1.1252541355293233,0.4485273827679159,11.53124510545168,0.0001360711765327,0.0090666460415283,0.0457129734511463,9.105129669345219,0.0860201514197824,0.2095693480206174,969.8148454121708,1224.2601128528595,941.7066456825877,1110.4497410425943,6143.323793529561,7237.086698713658,8615.702325797261,6426.8935096290015,160.87414382027555
0.265,-8.662537455552323,-29.198581392289967,-2.027320096827769,-0.2079290995516107,-0.2952663786382089,0.0044770446889147,0.0294328223413438,0.0566646847111757,-0.0128188250451981,0.9978493233303026,-1.0857395546668092,0.4224318741524191,11.659991161901852,5.971937499618923e-05,0.009159516345886,0.0500073052725988,9.105135898106216,0.0860445131291545,0.2096850440362162,985.2671676210899,1240.3280201104456,963.3595525654224,1124.6453351791606,6850.0807380888255,6128.678380440755,9602.331565180124,5503.888743592593,160.86670164070836
0.2675,-8.453067962905438,-31.46827948023089,-1.840587633937796,-0.2316226080125614,-0.3905757649776014,-0.0017621221051999,0.0290975116748331,0.0560067652303541,-0.012808104769312,0.9978976632926856,-1.0412619099462879,0.3951451581655425,11.793226626934167,0.0001033087085237,0.0091758401615156,0.0546384399858927,9.105142813731533,0.086066633904336,0.2098121599726556,1004.0652491026148,1254.9035047550633,989.7183035084884,1137.9691847605573,6919.863508721249,4565.593971106633,9727.140618657986,4375.217123065791,160.86288846698665
0.27,-8.10165869017507,-32.35577147781425,-1.5852176449393003,-0.2520618142516987,-0.4743883642205255,-0.0064180032101213,0.0287414446318855,0.0552550425016285,-0.0127950116392361,0.9979519900799512,-0.9920958811607468,0.3667979027223011,11.930523663625147,0.0002802262240327,0.0091145616169703,0.0596232243580001,9.105150343865592,0.0860857798388824,0.2099511617710025,1019.8664851646962,1263.1559899659787,1011.9952556587124,1146.5214207944896,6317.2638923233035,2519.3661724614662,8951.358514382257,3018.870546281229,160.86379700207485
0.2725,-7.495114254007548,-32.12930671370525,-1.2529347405651183,-0.2730628636669001,-0.5577902486626533,-0.0102491226112158,0.0283621736915689,0.0544139086048665,-0.0127831574299339,0.9980115513743244,-0.9385778809615472,0.3375047144891949,12.071397902031483,0.0006027068377851,0.0089752218922472,0.0649774988095276,9.10515911468459,0.0861023785825951,0.2101022208296203,1035.6515685642314,1267.5003356173706,1034.4750960803997,1153.0635374919634,6905.333226061492,1076.116828802241,9881.532228302685,2537.767056810069,160.86873154651133
0.275,-6.422665190207832,-30.636531944076907,-0.8067367154910711,-0.297753199175516,-0.6530347858057652,-0.0134192235706256,0.0279612489651389,0.0534911104413657,-0.0127755131736354,0.9980755477309972,-0.8811651750251803,0.3074765497604459,12.215304834932915,0.0010814298693156,0.008758232839766,0.070715972542097,9.105170105141811,0.086117168770664,0.2102650432929131,1054.3931512950037,1268.53657410999,1061.402916800226,1159.21025607854,6822.072216518148,-237.34606855050492,9810.071135551689,2037.2534962533773,160.87905442426742
0.2775,-5.25086671299086,-28.500140947291072,-0.4302056912020959,-0.316131017063387,-0.725840229659001,-0.0145719342745335,0.0275437028134501,0.0524997751668709,-0.0127733420561422,0.9981429187467984,-0.8204865247254343,0.2770109226586298,12.361646412437844,0.0017249842934233,0.008464813512403,0.0768520840257634,9.105183894267917,0.086130283001561,0.2104397431167641,1069.761929646822,1266.313605274618,1083.525451758158,1163.2498049732303,6094.220028313697,-1402.813633219556,8709.353087497531,1443.8464636516514,160.89113805723855
0.28,-3.8705168451786096,-25.6393907476986,-0.0886826113928304,-0.3296945697030129,-0.789395639549882,-0.0140713984810774,0.027109365629311,0.05145383668154,-0.0127758754986388,0.9982124089794604,-0.7572290101416332,0.2462784166666098,12.509796428048832,0.0025402749407223,0.0080956741129678,0.0833978458330564,9.105199878365827,0.086141852796236,0.2106257486837735,1084.8642514365722,1261.522505943892,1104.9496822377137,1166.4294883967982,6601.849708481126,-2523.289079182676,9184.470535026676,1232.049756369314,160.9066126460914
0.2825,-2.1409424907583983,-21.61623057136352,0.2498831461382598,-0.3389558254520088,-0.8544428369652086,-0.011949592887659,0.0266620930286789,0.050365743774427,-0.0127812158137446,0.9982828187987458,-0.692078731047278,0.2155469053220873,12.659103861431989,0.0035327315202153,0.0076523062150305,0.0903631712606788,9.105216839888264,0.0861519724580265,0.2108222774454147,1102.7711781892278,1253.6971598787047,1129.4478044332916,1169.410053755077,6549.325431833398,-3075.5165605607967,8734.806113402596,962.3276562792387,160.92885079551226
0.285,-0.7849772015540654,-17.93092460953436,0.4689405966734055,-0.3406876804188728,-0.8995501750907527,-0.0098121576756603,0.0262104568210347,0.0492474972313805,-0.0127878643332706,0.9983530388932778,-0.6257398300334499,0.1852027700246272,12.808900874573787,0.0047058833019484,0.0071374022407053,0.0977551328197253,9.105234813507849,0.0861601895787764,0.2110303564383407,1117.6108785957392,1246.144923141088,1148.6237128047267,1171.2411266781944,5935.577054327036,-3072.5055893521103,7381.823550779149,597.0142558049241,160.95026201287453
0.2875,0.3196962694849357,-14.050500970349589,0.6420454235327975,-0.3366277184732349,-0.9356178172885043,-0.0086344413713986,0.025766283200927,0.0481082950700586,-0.0128009152375846,0.9984220752585184,-0.5588655322434435,0.1557211009371306,12.958517159833288,0.0060613997688203,0.0065550797448945,0.1055771093210123,9.105254798513261,0.0861664505752576,0.2112530284248564,1132.449063460863,1238.334631931944,1166.3569221871871,1172.3951250341015,5933.31241759444,-3059.500362072217,6850.702123772659,348.02299798784946,160.97445676677347
0.2899999999999999,1.1325387582534574,-10.093763191521765,0.7997463240960557,-0.329153958574305,-0.964721279715648,-0.0084187847958029,0.0253431044996269,0.0469530393455332,-0.0128230521892097,0.9984892426700832,-0.4920061040072518,0.1276295648177579,13.107291444178076,0.0075992962337528,0.0059107575037718,0.1138280554529473,9.10527814539304,0.0861706572775466,0.2114934634546529,1147.2774406837111,1230.8474213307272,1182.8772234235896,1172.9812416681336,5900.812706587172,-2815.814307956663,6334.158046647163,104.58800986584826,161.00081160884483
0.2924999999999999,1.5703710011508567,-6.135315290233133,0.9538802737847,-0.3204253955869713,-0.9852841275683633,-0.0081142511997912,0.0249470869356497,0.0457878564302431,-0.0128533516945933,0.9985541238524932,-0.42573929582697,0.101264774785214,13.254579857973187,0.0093165779587505,0.0052091512699308,0.1225022372827774,9.10530646713696,0.0861725591190484,0.2117555914302379,1161.9531269937986,1224.2555603921608,1198.0277124204229,1172.9180650834307,6351.534250619938,-2608.946318019068,6392.065167418099,-144.96622762876527,161.02959801256657
0.2949999999999999,1.7413751661605257,-1.5171430868303943,1.1215568459390794,-0.3116157950841203,-0.998233875394923,-0.0060098112880685,0.0245790283917803,0.0446175439056753,-0.0128893018075411,0.9986165795686412,-0.3605970905992882,0.0768132778521702,13.399764940303845,0.0112075392454285,0.0044543146284932,0.1315891143150234,9.105341895543985,0.0861717537398131,0.2120434344697509,1179.0351119368108,1217.8026897406319,1214.83754926068,1172.2564105299898,6106.324985980696,-2096.1471194718774,5968.6157350732565,-294.95234693076753,161.06673655617791
0.2974999999999999,1.708065639344141,2.099620912094847,1.219499163233172,-0.3071063808493762,-0.9980002673322907,-0.0026071394095089,0.0242344038634452,0.0434466539314416,-0.0129283023228831,0.9986766589059008,-0.2970855594976838,0.0543031632223185,13.542261829465764,0.0132635094055785,0.0036492765525325,0.1410737385521672,9.10538618480467,0.0861677581561444,0.2123599824695709,1192.484751923702,1213.7748247948016,1227.8707910957892,1171.443303348777,5130.9060443966655,-1333.8778730448655,5038.753858031073,-305.86751311079723,161.09969531056547
0.2999999999999999,1.6654813534517876,5.315454425273746,1.2406149354467626,-0.3059471284666715,-0.9862131221931714,0.0019402678550342,0.0239073341193518,0.0422823203839426,-0.0129679280345619,0.9987343570115343,-0.2357561434957933,0.0337029126160958,13.681522184063496,0.0154721600488116,0.0027967590428933,0.1509375971828146,9.105440596472928,0.086160427290424,0.2127073476151787,1204.689642158794,1211.1333003754075,1240.0313185508355,1170.7270729644358,5004.304577104763,-873.4924687793401,5153.950010917192,-202.91960290001023,161.13456519798953
0.3024999999999999,1.7780749486974574,8.550895408908897,1.1616599624753223,-0.3063892215018553,-0.9608976771874044,0.0074905385258113,0.0235907596841506,0.0411350267782277,-0.0130036584715134,0.9987895995937314,-0.1772247158391884,0.0149209210766812,13.817041528838587,0.017817304536752,0.001898978491514,0.1611597627690213,9.105505935722505,0.0861495305903953,0.2130863099961062,1217.506274809226,1209.4073624509049,1253.6405411503752,1170.4287053342769,4366.328275101656,-422.0508013033392,4811.417108145629,36.23430221459781,161.17842466468596
0.3049999999999999,2.0837263604802647,10.660150834421612,1.0213839138165988,-0.3059517978941522,-0.9337259253589714,0.0110542609348684,0.0232795670044081,0.040017432655209,-0.0130333114359247,0.9988421544104328,-0.1221377036199484,-0.0021060318306845,13.948364316984438,0.0202793569659279,0.0009587586440509,0.1717180674003743,9.105582647818308,0.0861349792353565,0.2134968012483986,1226.5212835343025,1209.0230463688908,1264.0884040915637,1170.9082444755088,3266.3617927975765,32.17985781407148,3963.257992840905,375.2109005225972,161.2165187844599
0.3074999999999999,2.627036825248556,12.154473638132252,0.8412449335169263,-0.3027699047781371,-0.9041292234736156,0.0128761780145078,0.0229732752272196,0.038938441952457,-0.0130613779254616,0.9988917506210808,-0.0710021716931751,-0.0173276616519608,14.07508671130076,0.022837787892629,-1.896322639599081e-05,0.18258999391698,9.105671158435513,0.0861171786456289,0.213938589052826,1233.8380837732138,1209.5682617399752,1273.4568311145797,1172.3047598368898,2874.265665034997,425.75383770990766,3838.029359933577,821.040909126122,161.2560622761041
0.3099999999999999,3.504857801885,13.299060323466508,0.6283741103496228,-0.2953900850369341,-0.8680368750889096,0.0138976290492088,0.0226761180019364,0.0379009983756956,-0.0130905572400493,0.9989382706785532,-0.0241174170731743,-0.0305793272087695,14.196855025007157,0.0254729148264363,-0.001026916252854,0.1937534579429746,9.10577207023128,0.0860960794477199,0.2144113603717721,1240.8926118594775,1211.1518155574404,1283.2785508912316,1175.0134490211394,2348.4363628859205,720.8940118822732,3349.405324448841,1136.967991030996,161.30502066563764
0.3125,4.363724662482122,13.770054995570252,0.4807172417292228,-0.2867046364624096,-0.8371434201851853,0.0141920161967908,0.0223880121968647,0.0369067377338287,-0.0131183799830495,0.9989818109591844,0.0183023869395033,-0.0418425935963873,14.313364487926288,0.0281652815227525,-0.0020588638542609,0.2051876798264352,9.105885221515603,0.0860710050408724,0.2149151441125435,1245.5802655876435,1213.1727317993866,1290.203857736824,1177.9895997920448,1692.6385138227472,943.4421988094064,2507.3146792179136,1287.2376542283735,161.34695673741862
0.315,5.268433444368768,13.793504770088504,0.3796869324988901,-0.2755672295386235,-0.8043702059363466,0.0140183609755852,0.0221095627682207,0.0359518988819412,-0.0131409438230588,0.9990226728864852,0.0562467628624869,-0.0511025612751728,14.42435307118488,0.0308982353497775,-0.0031077333594668,0.216873473257529,9.106009528556417,0.0860410364026813,0.2154487441853024,1249.3558044285912,1215.8690265514874,1295.8151242873212,1181.4496372922813,1408.1630885271793,1186.9567724387696,2037.665297178726,1418.878455637376,161.38993967607135
0.3175,6.140282766495912,13.475346602135389,0.3151169625833264,-0.2620282591314038,-0.7704457792411,0.0139183764052697,0.0218433855192474,0.0350330840247768,-0.0131557273086358,0.9990610762846374,0.0897462910392116,-0.0583077108684704,14.529597060628223,0.0336565550099654,-0.0041648426551091,0.2287938789145209,9.10614360286281,0.0860054506714006,0.2160112719050446,1252.6210810302791,1219.1075156615805,1300.3921842227176,1185.0839920702315,1241.3165044190907,1424.6361159612193,1605.4592512230543,1441.3830249516636,161.43369578371934
0.32,6.884234330319046,12.7897378405031,0.2759661818357265,-0.245611809685309,-0.7372572034902847,0.0145066966067519,0.0215955159876415,0.0341446113800181,-0.0131619130498648,0.9990972164170416,0.1189462562211759,-0.0633249699878739,14.628905834126748,0.0364281462517082,-0.0052191046075007,0.2409341301662286,9.10628613219371,0.0859642103697489,0.2166015167553488,1255.5623869506867,1222.9922071312935,1303.8424205434364,1188.6565524170396,1289.5204882729547,1853.6623916121227,1293.4388426979683,1495.553048913051,161.47827514744523
0.3225,7.524357940711264,11.632041857164856,0.2253392570655926,-0.2237594415744268,-0.7007169506621239,0.0159608421847462,0.0213688659142673,0.0332871899338013,-0.0131568281911586,0.9991311466121304,0.1438503724398632,-0.0661365342907581,14.722121484144909,0.0392001644787541,-0.0062604935925514,0.2532820681140649,9.106435538762419,0.0859175221378657,0.2172192071246485,1259.068683471644,1228.375827619641,1306.8593784362074,1192.5617573147968,1326.8678729559713,2082.240280885569,942.0431353489213,1333.0588183670886,161.53258833788485
0.325,7.783617862952527,10.476193017601238,0.1596398139715592,-0.204500139011782,-0.6738816219198192,0.0173152989737108,0.0211624993159378,0.0324632069252254,-0.0131364423862645,0.9991629497928118,0.164450543075768,-0.0668616548186642,14.80911382309346,0.0419607661205211,-0.0072810706076161,0.2658275165701293,9.106590399959716,0.0858652744370237,0.2178646788524438,1262.1967263154663,1233.4034085357212,1308.552636220181,1195.321846508875,1337.9198775068276,2091.7016587765806,524.2474763534569,975.3115721594886,161.57843830758165
0.3275,7.699554098413856,9.240616766125465,0.0578538186565778,-0.1841408154325043,-0.6511122690663025,0.0182762409795147,0.0209733113829042,0.0316686132351493,-0.0131004500283963,0.9991929064452678,0.1809645287151327,-0.0656984601088387,14.889772332036594,0.0447033299173936,-0.0082742778226549,0.2785611034279298,9.106749300405891,0.085807669271882,0.2185369026759124,1265.7582828591783,1238.834335913524,1309.4806158179747,1197.4383151755944,1703.089881878985,2421.028547195326,237.0996362326876,774.6593533325715,161.62479477784748
0.33,7.164882688133403,7.800770130228728,-0.1027039097101643,-0.1590799484547717,-0.6280766148182648,0.0187542846922383,0.0207945638242139,0.0308994718103582,-0.0130512217811412,0.9992213198825912,0.1936407147643213,-0.0629706558281739,14.96400567545414,0.0474230902286362,-0.0092364013330466,0.2914740336984462,9.106911733464093,0.0857450057760453,0.2192358284712033,1270.7121757248615,1245.508551271698,1309.7381344013445,1199.195143275538,1943.4835658811132,2415.289600859476,-49.3280895392672,522.266334343703,161.68089341382574
0.3325,6.366203367576105,6.723262386213804,-0.2579278227549707,-0.1393845900283109,-0.6122174669970976,0.0186304202635136,0.0206232042871887,0.030147741797495,-0.0129970811552902,0.9992484540970936,0.2028783920329758,-0.0589010557653139,15.03173658271131,0.0501192542655222,-0.0101623986639601,0.3045570380135004,9.10707824066108,0.0856783310063145,0.2199624162804728,1275.4757006885839,1250.9107839178212,1309.2339753702784,1200.0496468473127,2034.7816465432495,2055.494679147476,-348.6654742182506,237.36804729746817,161.72795540879605
0.335,5.265741569868865,5.8538852549941485,-0.4166091260849426,-0.1235090970244784,-0.5995834987211183,0.0180898508223243,0.02045699680609,0.0294095914742757,-0.012947131472643,0.9992744057937676,0.2089736863241477,-0.0537028144221628,15.092905991970229,0.052789647622513,-0.0110479348927759,0.3178003541520923,9.107249374530735,0.0856091261873798,0.2207179067801059,1280.8860839575775,1255.7860246674354,1307.9948070302532,1200.3819835120253,2498.94698185544,1958.866576599756,-695.8939654983163,57.04593859027222,161.77525288400557
0.3375,3.7291033593819862,5.105266202390233,-0.5832505729749563,-0.1110582527234444,-0.5872376754903958,0.0167094505402861,0.0202902541482046,0.0286844593611316,-0.0129035826883706,0.9992993208195092,0.2121399781137056,-0.0477155768974525,15.147474405993492,0.0554301000934989,-0.0118930691476724,0.3311929861641237,9.107426357055363,0.0855382516475224,0.2215040268659893,1287.970435597861,1260.70511680082,1305.7545055427868,1200.3348765402643,2654.7114321813274,1629.5479950265856,-915.7160152436056,-69.02720756725097,161.83218431694587
0.34,2.377362217868406,4.731549806719063,-0.6796946345120365,-0.1066950439151122,-0.5779307403851176,0.0146975573622956,0.0201170772977084,0.0279709583647915,-0.0128639907496506,0.9993234292594912,0.2126275075058674,-0.0413003430202781,15.195420511894593,0.0580365079850011,-0.0127002115043743,0.344721887627131,9.10761095889842,0.0854654121814517,0.2223231132075386,1294.1596411184844,1263.9337646425683,1303.4162269540352,1200.036847474189,2467.649525363365,1130.7424712457296,-972.8535272267427,-147.541586310126,161.87970540703293
0.3425,1.0521504629619218,4.580231136976769,-0.7091039307097993,-0.1072475727218052,-0.5677652373331451,0.0119175037540857,0.0199322766096288,0.0272699474733632,-0.0128249700182158,0.9993468918893544,0.210628938224519,-0.0348028154882505,15.236744404315676,0.0606027489098557,-0.0134729211645426,0.3583721209400231,9.107804344796174,0.0853897960193088,0.2231782574659071,1300.308683224678,1266.3588291570488,1300.890237906653,1199.5971686087137,2394.846304067412,879.8791045572663,-982.6406223254244,-180.08929942061496,161.9272334105358
0.345,-0.2227294388508842,4.563886271670191,-0.6755324871676663,-0.1096331654164783,-0.5564474735738068,0.0090844013864244,0.0197338964822409,0.0265820477025933,-0.0127841817127643,0.9993697966071016,0.2063518886523723,-0.028467941482679,15.271467691004103,0.0631223894259877,-0.0142135236688548,0.3721268232118339,9.108006418953918,0.0853108221032153,0.2240709992976455,1306.1338726388215,1268.3331601653547,1298.503023842408,1199.136400977086,2180.396011782293,749.1547569753941,-845.2896404878621,-163.0948044736213,161.97471630061187
0.3475,-1.4623807060337937,4.6469911915973565,-0.5741698768681183,-0.1114162399454083,-0.5449950033914399,0.0070731839897033,0.0195214131370038,0.0259095812259181,-0.0127428488112062,0.9993921107803894,0.1999591194329315,-0.0224873526941708,15.299636893500775,0.0655875758039024,-0.0149236193949398,0.3859678509768531,9.108216776843904,0.0852278254267858,0.2250016874118274,1311.2106632835892,1270.1046029419258,1296.6637897042135,1198.7816945863456,1976.1338721778864,808.4885532880882,-597.5407288748552,-92.65271538042717,162.02208874769136
0.35,-2.9675630194522595,4.789355745377341,-0.4004721018666935,-0.1118823476181863,-0.5322903720829943,0.0058207256201119,0.0192925715084053,0.0252567353702198,-0.0127018767811493,0.9994137873087376,0.191560876513213,-0.0170978001815022,15.321326234617416,0.0679887764278242,-0.015606997131633,0.3998763048583044,9.10843522018763,0.0851401022350859,0.2259700775780831,1316.014541999711,1272.3756029317951,1295.5153201980338,1198.6731374001838,1496.0050894079964,885.1166211209238,-202.6413607956804,43.15034572105149,162.07874231331263
0.3524999999999999,-4.241603167703862,4.889509947802048,-0.2342554548884683,-0.1130604329691051,-0.5216469979628467,0.0053665337539957,0.0190486793187069,0.0246231221360412,-0.0126649990531376,0.999434790109329,0.1814090183224242,-0.0124095731510947,15.336634455947792,0.0703201659762169,-0.0162651550892197,0.4138323570317511,9.108662413559136,0.0850482465065243,0.2269750882193731,1318.6906887306293,1274.5301860475304,1295.6505829002351,1198.9974463149508,754.7478879292233,906.8993826726547,300.0830948701181,248.4323725373568,162.125749217857
0.3549999999999999,-5.439859060970257,4.8934775021010335,-0.0681006338986556,-0.1199862500077538,-0.5093698832904722,0.0049556990580046,0.018793962640749,0.0240127114983496,-0.0126382468520243,0.999454886979894,0.1696211299772376,-0.0084270860711963,15.345690360158356,0.0725729264550419,-0.0168976465718814,0.4278168462197187,9.10889882203786,0.0849534782007703,0.2280162828208324,1319.7882814393568,1276.9100998451584,1297.0157356723844,1199.9152992628703,108.27890797850148,1040.9319883812248,866.107044410227,566.2612633458589,162.17249766832373
0.3574999999999999,-6.553069991514722,4.696036341194202,0.1078824833111371,-0.1387743776019089,-0.4923485140962354,0.0045961000633011,0.0185316805597592,0.0234287115744682,-0.0126264832495982,0.9994738968553356,0.1563353310902479,-0.0051680833818978,15.348651724793708,0.0747394510728515,-0.0175057024317273,0.4418107717614345,9.109143974028404,0.0848573108280461,0.2290936690484016,1319.2320832705216,1279.7348459894365,1299.9811181222865,1201.82875263168,-491.7933247071228,970.0865471465012,1268.865194175804,841.760737656431,162.22824972984466
0.3599999999999999,-7.012986446937201,4.320340815186355,0.2148553902595079,-0.1620729331674871,-0.4773827435836215,0.0053551187698786,0.018263983717813,0.022869942552943,-0.0126319795847619,0.9994917993467954,0.1418189306421965,-0.0026661743921989,15.345703869282298,0.0768171095003379,-0.0180926713071185,0.4557949237530125,9.109396497242706,0.0847609660335271,0.2302073932385948,1317.3293148158211,1281.7605325808909,1303.3600616432634,1204.1241029511527,-991.5989125560365,670.0404226126004,1466.7836290206635,1048.7116803434665,162.27439063499568
0.3624999999999999,-6.823525563916477,3.732419193547025,0.2566926413003904,-0.1887237570017541,-0.4644756308182169,0.0074708054589535,0.0179920174911458,0.0223371704221006,-0.0126538627369093,0.9995085858706104,0.1262710450183088,-0.000968428657347,15.33706178702116,0.0788031948101904,-0.0186640265923922,0.4697509877413247,9.109653951086578,0.0846653977936845,0.2313576135921283,1314.2740887077416,1283.0850481024995,1307.3150362673898,1207.0723110333975,-1338.3113189104722,374.1412561596004,1609.2521751361787,1259.5948474668592,162.32016672555287
0.3649999999999999,-6.079063091961207,3.021515465947109,0.2379418398802007,-0.2137404648433065,-0.4547462432645326,0.0098389041070018,0.0177184123260165,0.0218273546021423,-0.0126879452828749,0.9995243427254558,0.1099951771101269,-5.523554632794192e-05,15.322965722203888,0.0807002229442427,-0.0192247534088682,0.4836609665749909,9.109913415480142,0.0845708414716098,0.2325447045098055,1310.6377582212688,1283.6312388616889,1311.4063225189443,1210.422077188487,-1490.5781650477807,14.747957376403052,1582.3916438933325,1385.1090257033763,162.36561702100116
0.3674999999999999,-4.793194651901973,2.2639937547029096,0.1629064903103724,-0.2317653412806549,-0.4487443524736051,0.0112892203695908,0.017449107239129,0.0213272114417367,-0.0127296507976059,0.9995393193697542,0.0935927873716088,0.0002216822308212,15.303677150454192,0.0825227001147962,-0.0197763175182958,0.4975063732837239,9.110173376861017,0.0844766794290549,0.2337686300422409,1306.8211978825027,1283.1587878893815,1315.2269944868565,1213.9978561619143,-1594.8095120152616,-417.7481448521572,1519.6957445236862,1547.8173216004493,162.41064823356538
0.3699999999999999,-2.926598151134378,1.443113516018008,0.0552837600254493,-0.2428021705962861,-0.4457399608539356,0.0115105691444921,0.0171856823872516,0.0208233430598489,-0.0127741295104102,0.9995538401737756,0.0776514789610861,-9.970195416705853e-05,15.279482900423695,0.0842877212964898,-0.0203236604055593,0.5112697208657992,9.110433328300072,0.084381863672219,0.2350289622785903,1302.6637106611927,1281.542498137428,1319.0048012415627,1218.1611637964893,-1383.958592842372,-719.6094964401702,1200.5280080259568,1452.578808704446,162.46416954584427
0.3724999999999999,-1.3576315070243838,0.9214022653755468,-0.0081494364315865,-0.2442744385064656,-0.4466154396202213,0.0106889140749159,0.0169286705608177,0.0203010143984698,-0.0128188635172309,0.9995682417992856,0.062778292005624,-0.0009882327063339,15.2506905291001,0.0860156849423266,-0.0208715297484919,0.5249347085070761,9.110694928055969,0.0842855450846614,0.2363251274990761,1299.9014049182908,1279.5607404071807,1321.2296345269863,1221.2607502054364,-915.19442758672,-845.9658380534157,675.4880565466914,1120.1989757502806,162.50831887665964
0.375,-0.0467300145036594,0.6270569835585914,-0.0038169648803175,-0.2399725649515163,-0.4488636749771154,0.0091926795262854,0.0166762856168304,0.0197520079601853,-0.0128603851702328,0.9995827738083836,0.0493575086280014,-0.0024657824317337,15.217626680989799,0.0877212798937829,-0.0214265224504245,0.5384877390823123,9.110960380002407,0.0841874055862033,0.2376547072014862,1298.087738523259,1277.312668947161,1322.3822415242962,1223.7621586752407,-581.2931381136417,-953.0021340578505,283.74867795905607,947.8344820283827,162.55197497421852
0.3775,1.0143362899773603,0.5234221366894891,0.1018751578998837,-0.2309625751337351,-0.4500457779718445,0.0077093221860661,0.0164225479163441,0.0191814537659669,-0.0128952779018733,0.999597473892746,0.0373447564839732,-0.0046670406025489,15.180633767125787,0.0894048867909089,-0.0219993056778456,0.5519191887836633,9.11123127885347,0.0840874436315084,0.2390157625692332,1296.9949392277226,1274.7957297368914,1322.6483779167816,1225.9999226155785,-251.927386189436,-828.2829830075564,-41.98150421607348,704.620269956876,162.6037655139595
0.38,1.4014107099103752,0.5907515844122367,0.2699493906851418,-0.2222851426582772,-0.4490681267830812,0.0074107515045096,0.0161663432249134,0.01859546691677,-0.012922578243206,0.9996122443165448,0.0266429005555541,-0.0075595069706007,15.14005939378252,0.0910648404443123,-0.0225943392039326,0.5652215849351974,9.111508372467876,0.0839854538281381,0.2404081879871832,1296.828101592312,1273.1712540321232,1322.1723340032158,1227.285260025025,28.202344493183748,-491.24368462389566,-260.89125343978566,423.85387220633635,162.64640862518877
0.3825,1.289808350698873,0.7310306256305483,0.4992767488306573,-0.2143077011654201,-0.4464546883285021,0.0079723418447562,0.0159105920800619,0.0179974269863722,-0.0129418623958774,0.9996269715230384,0.0172153197269688,-0.0109733345115286,15.09625230668574,0.092701799674373,-0.0232104933171989,0.5783886179270631,9.111791330827304,0.0838810164379768,0.2418326710715656,1297.1359509501883,1272.339511313772,1321.3439216495826,1228.11919197661,171.79244836556776,-139.68706327168536,-359.98920904657973,302.8770936898579,162.68849614620729
0.385,0.7107092605559076,0.8908639217022714,0.8081772770644715,-0.207670042073016,-0.4417939883764794,0.0091065119046814,0.0156578133715223,0.0173938210833057,-0.0129536590487189,0.9996414839152028,0.0089113525704261,-0.0147414576852588,15.049561223976278,0.0943126647806743,-0.0238457679201969,0.5914157590150921,9.112079372839743,0.0837736512710074,0.243289809422597,1297.6870638341395,1272.4728187157648,1320.3723879579827,1228.7996454934744,190.63725614946617,248.6960679918864,-303.55316186178214,221.32007958325607,162.73833764983644
0.3875,0.0080844767351332,0.9704554937716596,1.0595898887992983,-0.2066291281663694,-0.4369723654643212,0.0108473273675703,0.015406945846758,0.0167911666583602,-0.0129607798101563,0.999655642728914,0.0015624293775878,-0.0187958380450731,15.000331778726256,0.0958943593603492,-0.0245009626985053,0.6042994379827786,9.112371580944851,0.0836630527646319,0.244779093475305,1298.0891372309359,1273.5829916537311,1319.8261558402735,1229.2257923745265,124.75162017512946,640.1748286196829,-131.5077586533788,161.50258270017716,162.77930532840412
0.39,-0.7170102847660964,0.9774968368451776,1.2552760185644185,-0.211007091219717,-0.4321710176272895,0.0142284297268815,0.0151523003120757,0.0161996156997846,-0.0129637819162438,0.9996693525963054,-0.0051249457895754,-0.0232041284173252,14.948904031003064,0.0974393155153946,-0.0251825862638343,0.6170376056855227,9.112665620607586,0.0835492632738204,0.2462994774186559,1298.3108219350152,1275.6736928588632,1319.714849164716,1229.6071584069753,60.522002238849325,972.3303014079638,30.604155220362344,152.91272572790135,162.81966948626473
0.3925,-1.325904402521701,0.9439690979120592,1.3679886611041383,-0.2181468569810801,-0.4284065589740795,0.018607205290792,0.0148909575869717,0.0156262477130278,-0.0129647574912476,0.9996825103388214,-0.0113682781001987,-0.0279442736124565,14.895606745784699,0.0989435665278879,-0.0258934578180063,0.6296286983326679,9.112959172488177,0.0834329023942423,0.2478500159234448,1298.39174724213,1278.4446431607712,1319.9791766163755,1229.990356003166,16.143999071391576,1220.7938319077573,177.57648079500524,158.28057680719195,162.85952295616235
0.395,-1.6936756852188648,0.9148857975903456,1.350133317678203,-0.226046918014175,-0.4266863253537508,0.0233969439569154,0.01462239612671,0.0150709211580741,-0.0129653069763485,0.9996951018334594,-0.0171859592715714,-0.0329189818514069,14.84075505531124,0.1004120036626384,-0.0266333337192107,0.6420705259150897,9.113250775289133,0.0833148399836652,0.2494295004236718,1298.3915419303723,1281.777662018402,1320.602731568691,1230.3985612910112,6.7438031606798114,1512.9740836583992,312.73216841891525,192.241418836238,162.8987493647487
0.3975,-1.813361908963152,0.9609609922383524,1.1662062790433465,-0.2343834551041877,-0.4267987649040535,0.0292566514290597,0.0143424421759697,0.0145337862033627,-0.0129659869211099,0.9997071772224516,-0.0226190448031949,-0.038141101450321,14.78465074214556,0.1018489141964122,-0.0274067731655202,0.6543610336345369,9.113540275522007,0.0831956262034901,0.2510386166468111,1298.4254662579335,1286.0095135790632,1321.54283745847,1230.9515630973472,28.01372377739424,1526.5296738381935,336.3599921466627,221.16667391778697,162.9450828129133
0.4,-1.6629652051301183,1.1023016763140623,0.8930910385296884,-0.2396677638261736,-0.4277915360216276,0.0337598890393422,0.0140502687893436,0.0140099247576192,-0.0129657658588917,0.9997188353817524,-0.0275735215472334,-0.0435255163035273,14.727578145034633,0.1032642194794282,-0.0282142887764262,0.6664973061237925,9.113830352510604,0.0830747238314828,0.252679977798926,1298.5316105492593,1289.4103103875927,1322.2845315294244,1231.5043946606,51.48404144051705,1270.4572419042495,241.71208572884075,250.66809645231817,162.98306988005388
0.4025,-1.3061316845087578,1.3444243957945905,0.5463376465281878,-0.243234928045158,-0.4279734193701117,0.0363520818000366,0.0137493353563029,0.0134919452883096,-0.0129608924571792,0.9997301857490204,-0.0318969404455668,-0.0488665974066861,14.669802652048286,0.104669929337356,-0.0290509059648056,0.6784761183175808,9.114123338495698,0.0829512790024065,0.2543542956961191,1298.682886465136,1292.3617997885844,1322.7513978871143,1232.2049035796088,44.008403664793114,1154.6521752521119,103.1011303341983,349.2141005212485,163.02039936272007
0.405,-0.7131391713777506,1.675801159727275,0.1340694902112972,-0.2456968484734679,-0.4250586155741998,0.035959404712101,0.0134417501958543,0.0129757957387013,-0.0129481053728268,0.999741303218673,-0.0355437331957549,-0.0540076195640199,14.611570588824668,0.1060725606919213,-0.0299128104975797,0.6902950938328377,9.114420209071545,0.0828245897385935,0.2560609116077068,1298.7516525675833,1295.1835712638535,1322.8000371810951,1233.2504651632064,-28.9870047973636,911.5419691901016,-80.61176684846025,415.1633099405441,163.06442436583413
0.4075,-0.1329413002042849,1.900457691709074,-0.1433054159034863,-0.2466564955875194,-0.4191380063903742,0.0337437872212827,0.0131316984557198,0.0124570948071464,-0.0129268164953416,0.9997522056125304,-0.0384639914624417,-0.0587395671112916,14.553106353711357,0.1074780844311216,-0.0307922676911753,0.701952544463316,9.114721026959431,0.0826946885237492,0.2577982544790768,1298.5379514411493,1296.9195096345347,1322.348339052872,1234.2807201293115,-187.53584709211265,584.0168487103705,-278.9005659601569,432.3710549746007,163.1004631380801
0.41,0.4800655845213211,1.974125389890916,-0.3053951381256843,-0.2465107890508539,-0.4106130684082647,0.0314675074773814,0.012827838579043,0.0119313396698574,-0.0129006692788838,0.9997628010936273,-0.0406069457424373,-0.062733961950046,14.494610164207364,0.1088919633660849,-0.0316737477678486,0.7134479663863185,9.115025459650663,0.0825622197257366,0.2595648503195076,1297.8139733321227,1298.1036555074052,1321.4055343512944,1235.4123204380794,-480.0183810709764,417.23105583814646,-500.8672778409614,498.2302430813429,163.13582109772352
0.4125,1.186402359209083,1.8333912752025852,-0.3539428294919887,-0.2438671919965509,-0.4003745398257541,0.0293289650265676,0.0125408503070951,0.0113956902433136,-0.01287778273415,0.9997728963156916,-0.0419685485154305,-0.0656182978458493,14.436256758501498,0.110316883530927,-0.0325370246218729,0.7247824170510163,9.11533334075966,0.082428252811406,0.2613592523469272,1296.1378595357944,1299.0056649137257,1319.8440026636672,1236.771871344718,-765.1541323511985,251.09660161851912,-611.9694043683916,481.07103120832966,163.1774554859559
0.415,1.70087879897528,1.5408114229607257,-0.2824063314898601,-0.2392646162094601,-0.3937984411713912,0.0279164220957682,0.0122786183709852,0.0108493515126575,-0.0128669891836994,0.9997823046558304,-0.0425978971805202,-0.0671182938432951,14.378194319373163,0.1117520066638861,-0.0333649236807577,0.7359582482531544,9.115645100060528,0.0822936799514809,0.2631798345051139,1293.9882026703667,1299.359138515498,1318.3456873294526,1237.817675594121,-1008.1046439678278,50.73986066831873,-592.5168894734329,382.6987945331933,163.2114825183246
0.4174999999999999,2.091097694931812,1.1393781923960695,-0.1195076898868101,-0.2328970744561725,-0.3900968489705941,0.0267559683058616,0.0120425383438502,0.0102984690257574,-0.0128708160485457,0.999790923768441,-0.0427342512972928,-0.0671667210586218,14.32054334992615,0.1131851362125386,-0.0341508269596957,0.7469797307494173,9.115961111757754,0.0821588082465829,0.2650262498585222,1291.097336315955,1299.2593642170673,1316.8814182163,1238.685365317384,-1250.5989798867304,-127.856175564922,-542.9340175538583,307.7638701637656,163.24480926304773
0.4199999999999999,2.36138941018878,0.722971739957568,0.0922862912517487,-0.2256155647873691,-0.3882566852718902,0.0259026828009968,0.0118325756360266,0.0097482145364384,-0.0128845934625742,0.9997987749135652,-0.0425779811221433,-0.0657527135191912,14.263394040575118,0.1146040337127267,-0.0348917167377887,0.7578513557174039,9.116282420371633,0.0820231556461501,0.2668996219329966,1287.7352077709331,1298.7198576376732,1315.6310172416831,1239.3564949449399,-1399.7763150549404,-333.97045987080645,-411.52027209345727,210.0896317210752,163.27755041619184
0.4224999999999999,2.4955892087304505,0.3807730338484119,0.3193985052182837,-0.2176848801515142,-0.3881193699602648,0.0259110862170691,0.0116456193846303,0.0092002487220759,-0.0129006489070069,0.9998059940955925,-0.0422170772273671,-0.0629655780874075,14.206805461071804,0.1160012266131453,-0.0355896668880351,0.768576890598635,9.116609971218947,0.0818860177989157,0.2688010073421038,1284.0984547406806,1297.5895119177133,1314.8238168558328,1239.7358134759895,-1570.6614305448952,-634.6976944891588,-227.3128827263916,79.452287492495,163.30958003526283
0.4249999999999999,2.5504770522019222,0.1585719620234437,0.5412425656955401,-0.2086418615528373,-0.389972356957986,0.0277102166155903,0.0114689054415936,0.0086615292504929,-0.0129077094324768,0.9998128221680512,-0.0418761268797326,-0.0591828220083254,14.150806461856936,0.1173613117301622,-0.0362626167626314,0.7791608719575613,9.11694268138978,0.0817464023357644,0.2707307338429996,1279.8819006182086,1295.5463691652276,1314.4944528280514,1239.7537563824023,-1453.7959985397706,-852.4310022577531,-17.375487371600666,-88.15105827834476,163.34718706407975
0.4274999999999999,2.570840786809864,0.1820628797147181,0.6337335316861183,-0.2028913402981775,-0.3927520734515442,0.0308165637586081,0.0112920291148165,0.0081386132488506,-0.0128980719052388,0.999819433178166,-0.0417570529067792,-0.0547223134638229,14.095393150276935,0.1186703564402355,-0.0369245835763316,0.789608322949314,9.117278765499218,0.0816040276796735,0.2726878089096427,1276.8294747479815,1293.3273569064245,1314.7369394189748,1239.2950581845976,-1060.789736624337,-972.2347399368563,173.26081957535263,-314.61421434491933,163.37783219461917
0.4299999999999999,2.64945101694854,0.4391625340920398,0.588903297278286,-0.2001199361640724,-0.3951129231685225,0.034903437101195,0.0111068248531338,0.0076376487030212,-0.0128670746762166,0.9998259468325384,-0.0420408502664347,-0.0498475109513649,14.040528953735851,0.1199163331588469,-0.0375857824684432,0.7999249049981725,9.117616266857642,0.0814588076241605,0.2746709668456656,1274.5779519350867,1290.6851954655433,1315.360756925928,1238.1806853106775,-766.2981672373454,-1229.2237239510985,296.3938524270358,-678.0067727915133,163.40775324162396
0.4324999999999999,2.8682539634714583,0.9718647650138674,0.374040655087144,-0.1988845355254171,-0.3949713012396699,0.0394106731638552,0.0109096218485646,0.0071620980402179,-0.0128146152103663,0.9998323967204032,-0.0428269367358949,-0.0447044119134977,13.98614442499951,0.1210930977407388,-0.038248437230908,0.810116593878426,9.117953109000004,0.0813104798633247,0.2766790781969243,1272.997983911795,1287.1812382866688,1316.21890868111,1235.9050243206402,-391.9753132421189,-1315.9933078350139,270.07343497284614,-1006.6612779774904,163.44281780036596
0.4349999999999999,3.132129032294787,1.5365744930868095,0.0959106943007561,-0.1961284854827901,-0.3914338820095605,0.041317326525833,0.010703216479362,0.0067077006583304,-0.0127476460780412,0.9998387082666708,-0.0439970767904707,-0.0392663948225255,13.932137429287256,0.1222089856631105,-0.0389025246626746,0.8201884974754216,9.118287329017033,0.0811593888797502,0.2787100254965683,1272.6180753688764,1284.1052289263682,1316.7111241007924,1233.1473789207903,10.225504455502223,-1231.1715730102594,69.13780555883017,-1279.7362215721012,163.4713353965212
0.4375,3.3710877294597204,2.1404570999654755,-0.2106006324568181,-0.1878630361382667,-0.3853458298982801,0.040153670959099,0.0104897741067362,0.0062722947585624,-0.01267368220964,0.9998447900404268,-0.0454921483748463,-0.0335388884573089,13.878376516406567,0.1232704056413611,-0.0395389215678616,0.8301463451330906,9.118617667038372,0.0810063432334738,0.2807618600783461,1273.0491114340723,1281.0253804216177,1316.564597708904,1229.5063432127797,306.82216081754603,-1316.3851319720368,-295.5925375589684,-1774.7253485199947,163.4991209600431
0.44,3.461791935456365,2.8340310791586876,-0.5217834035847743,-0.1730575721191826,-0.3770281521269698,0.0364353368445222,0.0102729351852258,0.0058511097907393,-0.0125962926117576,0.999850602547652,-0.0471830530698212,-0.0274983244663407,13.824702738513304,0.1242883839753159,-0.0401472147561867,0.8399949957750004,9.118945131717503,0.0808514010661487,0.2828353052618178,1274.152186172964,1277.523303266508,1315.2331614129976,1224.2737521781903,438.42699544852576,-1223.383768019538,-720.4077428193152,-2024.068945269526,163.53161475946055
0.4425,3.2852281130221272,3.3490637522657636,-0.6915263665423682,-0.1603415627905799,-0.3696696004047406,0.0328961468384371,0.0100584702349339,0.0054376807662276,-0.0125178092163624,0.999856110514675,-0.0488979164868489,-0.0210724241470253,13.770932650447927,0.125276831227198,-0.0407139438968081,0.8497381385405227,9.119272068238953,0.0806942445917843,0.2849327868174699,1275.2412464113152,1274.90846158152,1312.9625589948075,1219.385998486432,393.34124854008184,-955.0755430082509,-1158.0700083227373,-2008.739206438848,163.557984361339
0.445,2.815590755902643,3.7635138047132446,-0.7543252751422206,-0.150022288716364,-0.3614096970616668,0.0298345196102762,0.0098475507792444,0.0050314726732092,-0.0124399187939417,0.9998612954704306,-0.050629985331989,-0.01432596029508,13.716864189371346,0.126239366251234,-0.0412341185641884,0.8593793027048489,9.119599687073736,0.0805349483596632,0.2870549589703964,1276.1188924156645,1272.7479255514668,1309.4428113713839,1214.230056145996,264.9866933047176,-776.3646997151674,-1588.8847913073264,-2062.593538157851,163.5836188399207
0.4475,2.128995347167401,4.06716463286553,-0.7401860152652934,-0.1419918398789444,-0.3520037657863246,0.0274104358049324,0.0096406970291297,0.0046325533868892,-0.0123648704281812,0.9998661332114536,-0.0523900640074278,-0.007345624211362,13.662280313137867,0.1271778491979563,-0.041704576100476,0.8689207970217457,9.119928266959905,0.0803745437798563,0.2892009333528083,1276.5661798778387,1271.026638082944,1305.0181350382709,1209.0730307956428,30.102092749848424,-579.852041902995,-1920.7674753319209,-2009.7393070979688,163.6086453605528
0.45,1.2515610818283442,4.203084130695561,-0.6624649586222127,-0.1370636010220646,-0.3411994641467133,0.0257615760857045,0.0094347628465011,0.0042399626833478,-0.0122958694535152,0.9998706287348031,-0.0541603053236466,-0.0003182862299362,13.606955219628796,0.1280952592112574,-0.0421293054197705,0.8783629943307713,9.120257827025153,0.0802140006849901,0.2913698958673263,1276.2694028794135,1269.8486653419518,1299.8389739947243,1204.1813596105062,-331.54313604859425,-404.38969141086966,-2337.2883255371535,-2025.9276112999012,163.6329423529697
0.4525,0.0969996780213034,4.139046725034258,-0.5384516022731966,-0.135812780469038,-0.3274462033383153,0.0244436968852518,0.0092268918997538,0.0038489863985532,-0.0122336722917126,0.999874831186062,-0.0558212727222848,0.0065816993124336,13.550658988938151,0.1290002097390244,-0.0425136127011784,0.887703859183755,9.120588638027426,0.0800531243200599,0.2935616851532926,1274.9084641975955,1269.0046896258896,1293.331693410585,1198.9433927391433,-663.6573135460816,-232.61369803803956,-2342.989297017264,-1775.1357826989063,163.661261882146
0.455,-0.8604595863797867,3.8891139539364494,-0.4381199643511251,-0.1387125747333049,-0.3164690736950768,0.02368971070836,0.0090179009946686,0.0034508330127048,-0.0121797740972322,0.9998787590774598,-0.0571456243925279,0.0132871401341894,13.493162409670743,0.1299081649674728,-0.0428571333245055,0.8969389906183418,9.120921209654899,0.0798917494853825,0.2957765282942702,1272.951116311683,1268.6855968517616,1288.124027509638,1195.3056806970117,-924.1149523440064,-78.08184664736466,-1936.651892533608,-1272.117341283955,163.68417015919536
0.4575,-1.7293729022285005,3.4504383533658505,-0.3685329825847748,-0.1447332822582962,-0.3068015029604171,0.0232315476179133,0.0088046920598956,0.0030432949697775,-0.0121344071484384,0.9998824520261208,-0.0580834833786259,0.0196311156739285,13.43424552362133,0.1308225649990237,-0.0431679484834319,0.9060636097078278,9.121255281071672,0.0797301294323407,0.2980153905386735,1270.2878894358755,1268.6142803926527,1283.648433947917,1192.5828060327235,-1278.80335162631,-15.313430498417787,-1708.1237855158163,-974.284115776708,163.70636948659413
0.46,-2.624597438630043,2.7480677576953942,-0.3427627312603629,-0.1534400400597171,-0.2967696092419115,0.0231011870337519,0.0085872222985517,0.0026285312031743,-0.0120992473328725,0.9998858884194484,-0.058701215018603,0.0255393256533016,13.373701311364815,0.1317385269497536,-0.0434494156761208,0.9150726787117904,9.121590947531805,0.0795690406898506,0.3002788834363369,1266.5570995535516,1268.6090296992695,1279.5834085820588,1190.434260118128,-1413.417257176478,-19.416822775883684,-1232.1847121518647,-608.0034392865849,163.73220067875127
0.4625,-3.2493558727104754,2.060315830503224,-0.3769064985021291,-0.1607739267745728,-0.2900532399329274,0.0231225956541564,0.0083617184585505,0.0022152456366184,-0.0120768220878608,0.9998890478968012,-0.0592340899571503,0.0308490008106803,13.311343950698536,0.1326386671929751,-0.0437125460142137,0.9239610911561096,9.121928652784808,0.079409352877985,0.3025672181509977,1263.2208031499931,1268.5171962787736,1277.4875103871575,1189.5427888362904,-1341.0646236754917,-90.19034367556733,-560.5302642478359,-192.3285714875872,163.7530625318552
0.465,-3.7705467629763154,1.33419546187648,-0.4643301176992113,-0.1678818779009284,-0.2859267000328531,0.0228232091784386,0.0081258746114422,0.001808935312833,-0.0120668680610386,0.9998919394442236,-0.059824529567945,0.0354536177305367,13.24701260781817,0.1335104193819586,-0.0439672558119355,0.9327218759177844,9.122268882003151,0.0792513161799487,0.3048790269148943,1259.8517764351743,1268.1580779808917,1276.7807572608197,1189.47261726069,-1469.2455428689286,-258.24320623592007,-31.39409614714165,121.28925676561254,163.77324634502156
0.4675,-4.29219830457566,0.508066958806522,-0.6090099575439148,-0.1768341262963449,-0.2843783613562073,0.0219733077587685,0.0078854415218086,0.0014075955781643,-0.0120709999610485,0.9998944944634262,-0.0604134977001582,0.0394784186478712,13.180573861389403,0.1343550213208464,-0.0442082321114169,0.9413458471132377,9.122612365567536,0.0790954154923141,0.307213218909243,1255.8745754356487,1267.225980247594,1277.330539906422,1190.1492351201186,-1450.8404794692055,-451.32143074811165,371.8371639790345,343.9357397645378,163.7966963831013
0.47,-4.627229920445539,-0.0826556731456223,-0.7378485645745817,-0.1853604471000229,-0.2855791550806067,0.0208661863250904,0.0076438000195662,0.0010105863670923,-0.012087090259343,0.999896705932872,-0.0609740291697986,0.0429988736646056,13.111930062342251,0.135171353993335,-0.0444354409788865,0.949823119621284,9.122958452025337,0.0789418911794812,0.3095698027924437,1252.5975740378283,1265.9014708271511,1278.6399430807148,1191.1922959595129,-1322.5239904791113,-668.5616303660476,598.3467271857984,480.37972744446006,163.81560576095026
0.4725,-4.807267363103176,-0.5228507420834501,-0.8368979356180762,-0.1958546143848666,-0.2886016682686331,0.0191375020951883,0.0074037797410271,0.000616143622696,-0.0121111251401106,0.999898597075686,-0.0614469828977139,0.0460902194865017,13.041022562751428,0.1359611103307179,-0.044649982495722,0.9581426764309556,9.123305607888165,0.078790521916,0.311947676755721,1249.2619554832531,1263.8831720957637,1280.322273542351,1192.5511337573407,-1362.386293136932,-931.4605425419804,650.5446098155056,571.2266856375204,163.8338704744164
0.475,-4.801128677857076,-0.8263078514388223,-0.8782842501687634,-0.2084888708260901,-0.2924187016745696,0.0166523622615576,0.0071598355880639,0.0002238431080817,-0.0121421753719294,0.9999002162040432,-0.0618054345927434,0.0486230443822674,12.967838032435198,0.1367250618057264,-0.0448676387192904,0.9662923096029856,9.123652570704174,0.0786408289542956,0.3143448806808672,1245.7856425721436,1261.2441681144412,1281.8926661297924,1194.0484293877005,-1440.7065746630892,-1196.6487233319629,508.8285391232598,605.6555535245928,163.85160923028295
0.4775,-4.50397460833038,-0.9841885566638277,-0.8127041437938349,-0.2231177917356286,-0.2959356569576937,0.0130860350340696,0.0069067137138129,-0.0001625692766045,-0.0121808369721415,0.9999015921888328,-0.0621304858835892,0.0504902085105316,12.892407159631558,0.1374571191172508,-0.0451028867244488,0.9742600864561384,9.123997817630228,0.0784925609946081,0.3167618346877317,1242.0584226099377,1257.899928479104,1282.866416237967,1195.579411524964,-1701.551487403293,-1592.0943273563971,205.7604265117355,648.9017113349812,163.86872403475033
0.4799999999999999,-3.77394339203834,-1.0636673908373755,-0.5829992114826179,-0.2404702605915235,-0.2988307823645639,0.0079343833549539,0.0066405327435094,-0.0005369310782207,-0.0122273944197609,0.9999027487561752,-0.0625641780634904,0.0516328888013149,12.814805311583008,0.1381470742295118,-0.0453670009486372,0.9820338910004476,9.124340246205737,0.0783454774885323,0.3192024252203731,1237.2778851351272,1253.2836964776593,1282.921468262351,1197.2929379443751,-1792.507536444482,-1742.0779152287373,-191.87515174690105,583.8881795330112,163.8885534183663
0.4824999999999999,-2.8844272827697766,-1.089708263195862,-0.2752074376464775,-0.2525741173594278,-0.3001946558261316,0.0040080503053398,0.0063573174332447,-0.0008972237889648,-0.0122744095757915,0.9999038001724389,-0.0631388298217006,0.0520020824842045,12.735153176448812,0.1387923418491589,-0.0456725872992,0.9895997468429768,9.124679665738832,0.0781985845372064,0.3216688812724067,1233.0958849277151,1249.1895389029603,1281.9070404792328,1198.4988524226287,-1686.0704611089188,-1617.184223294133,-611.0412431236449,407.40231869012825,163.9044966237608
0.4849999999999999,-1.8107537981355568,-1.124708917309256,0.0964148681018011,-0.2597740636877771,-0.3012769301190856,0.0026946780477294,0.0060598656529301,-0.0012479270321297,-0.0123140932739768,0.9999048126651768,-0.0637250577909859,0.0517304056879751,12.653612587262357,0.1394031591520401,-0.0460177432116895,0.9969424972851872,9.125016309291032,0.07805132408365,0.3241608207099641,1228.8475328295826,1245.1977753611886,1279.8662620467328,1199.329949537826,-1840.4858436304023,-1658.1913211890408,-1068.2928244513269,246.8383058231209,163.919846478588
0.4874999999999999,-0.4941314645339144,-1.2066905495681275,0.5087074113354411,-0.2609034291489324,-0.3030988377673667,0.0053568435510659,0.0057534904905696,-0.0015946806276418,-0.0123430809491454,0.9999057798933592,-0.0641716608034585,0.0510144922317492,12.570385590142383,0.1399925344991363,-0.0463929438985355,1.0040478136395183,9.125350884091969,0.077903472185436,0.326676020610768,1223.893455709563,1240.898582297015,1276.565576356976,1199.7330439517443,-1756.0008181294036,-1459.1444130021487,-1284.0651250180133,28.94508111844513,163.93759081036336
0.4899999999999999,0.4927626850468906,-1.3100618097797798,0.7486378341325657,-0.2564327402828515,-0.3050677333385187,0.0098564120376533,0.0054456705425676,-0.0019460981204169,-0.0123595760521599,0.9999066576216304,-0.0642607123888778,0.0501014947380831,12.485710597650067,0.140579368651664,-0.0467824442857716,1.0109025280157196,9.125684429596722,0.0777550095913342,0.3292112469177163,1220.0675287389356,1237.9020532961779,1273.4459364216427,1199.4746749434182,-1423.9108000969723,-1066.2095031149863,-1240.5338561247831,-241.58798175203603,163.95182168024664
0.4924999999999999,1.2593856491749116,-1.4327892515581435,0.8289635866895467,-0.2498642654609541,-0.3073799952949299,0.0143993075295992,0.0051425406235778,-0.0023094861880992,-0.0123643283796116,0.9999073778224956,-0.063815345700564,0.0491956933398419,12.399858450643809,0.141179921075398,-0.0471712732105973,1.017496052427186,9.126017064932393,0.0776062013227381,0.3317643186785224,1216.7739017090785,1235.56753478144,1270.3629070763523,1198.5251040429844,-1284.6428895604265,-902.5520408503315,-1269.2985245063924,-579.2856885272153,163.9654824972359
0.4949999999999999,1.895607949710272,-1.5615491845241787,0.7398830501695521,-0.242874129815326,-0.3108976940000435,0.0185522237314902,0.0048545263610324,-0.0026941404325667,-0.0123612569157003,0.9999078037124732,-0.0626190956297723,0.0485965982208254,12.313123655236751,0.1418142713882971,-0.0475336996349775,1.0238202575957867,9.126349237271398,0.077457119619416,0.3343331211655117,1213.6443142911335,1233.3892930919262,1267.0994437991108,1196.578246500782,-993.2745919967136,-737.6359787436733,-1087.6373111997955,-838.6641882724225,163.98122334899494
0.4974999999999999,2.2131246180183504,-1.612156024180102,0.5400109367013314,-0.2384831249507267,-0.3147483966667153,0.0206329935792642,0.0045888721388026,-0.003107427209093,-0.0123574374562772,0.9999077793838272,-0.0605107052684532,0.0485090885984348,12.225820130664092,0.1424985086388721,-0.0478486114758478,1.029869863616866,9.126682357600846,0.0773076044219742,0.3369171501556963,1211.807528749095,1231.8793548877215,1264.9247205203533,1194.3317831016222,-576.0136370026424,-606.3506565108122,-741.2382752609112,-1006.7890202126808,163.9938013658137
0.5,2.3510042830757145,-1.549976293893006,0.2615253757248849,-0.2342968186461126,-0.3196117183352682,0.0213261457709675,0.0043462759468406,-0.0035532671594145,-0.0123569150296513,0.9999072298288704,-0.0574159606516991,0.0489630819862884,12.138274770498017,0.1432409933822053,-0.0481086202212687,1.0356424698148607,9.127017394610233,0.0771571957029211,0.3395169840604047,1210.7642461061203,1230.357539809372,1263.393252422806,1191.5443013997187,-304.12964701231067,-660.3454539056122,-512.7238589338442,-1185.632047802832,164.0058232203201
0.5025,2.359990003463133,-1.3604594734397832,-0.0411609071542956,-0.2288507702169239,-0.3248865277749881,0.0210886982757458,0.0041265243852203,-0.004030148379472,-0.0123618180441413,0.9999061277927712,-0.0533941384091285,0.0499537174450473,12.050817245744417,0.1440382693788002,-0.0483086409026844,1.0411397148844663,9.12735483266684,0.0770057831301959,0.3421339269414905,1210.286880514033,1228.5776276181937,1262.361101225684,1188.403622862608,-95.20757161071731,-821.2345668979644,-316.1785716080428,-1320.3557944246757,164.01738576189064
0.505,2.227088537579609,-0.998055754552104,-0.3293809243510268,-0.2220260915738481,-0.329431130171657,0.0199222643751387,0.0039279489498444,-0.0045365411765414,-0.0123722584157029,0.9999044836770372,-0.0485032431012247,0.0514307309958661,11.963772608168895,0.1448865141759819,-0.048447195915315,1.0463659195130166,9.1276944441484,0.0768531937935813,0.3447657963474027,1210.2882082480667,1226.2513669748823,1261.812359564766,1184.9425224275951,40.987927902369805,-1182.3254415927738,-169.00969778648673,-1577.44388415649,164.02839584178295
0.5075,1.9340817562242176,-0.3725642714331823,-0.6145783449319865,-0.2141530210579903,-0.3325660830889075,0.0175627955616502,0.0037449714073951,-0.0050634715947628,-0.0123844062478467,0.9999024110381156,-0.0429750888945626,0.0532399311547902,11.877455235572311,0.1457662479046816,-0.0485326287468012,1.051330210881711,9.128035066690451,0.0766990238657249,0.347407933780325,1210.4918201535452,1222.6660004102296,1261.5160527367516,1180.5164034418256,49.71740572318591,-1448.2476641147955,-77.15626121635061,-1659.8678466517852,164.04096998841015
0.51,1.6214797458659602,0.2818360729203101,-0.7804534032692289,-0.2092619788933924,-0.3329346005364486,0.0149144617203735,0.0035677660456362,-0.00559712291574,-0.0123926829666653,0.9999000946052023,-0.0371485257684812,0.0551202697800524,11.792162838019271,0.1466480868411849,-0.0485836296095775,1.0560456318105964,9.128375359658634,0.0765432091441895,0.3500566854380192,1210.5367952766824,1219.0101286543083,1261.4265782586842,1176.6431831943364,-75.33614258964168,-1579.5453413535024,-34.256679053897464,-1579.3126196248859,164.05091655430732
0.5124999999999998,1.3072540156331562,1.0346542575928774,-0.8618402435275989,-0.2069593337278345,-0.3312088241305459,0.012012602095538,0.0033862418400559,-0.0061205366165423,-0.012393399222033,0.999897720513942,-0.0314287622536568,0.0568023532697816,11.7081695807624,0.1474966403597671,-0.0486202224053386,1.0605284308985004,9.128714019190296,0.0763866111809646,0.3527102383066781,1210.1151394405967,1214.7682737034625,1261.344769341482,1172.6198403437013,-349.634109254566,-1955.0375121997583,-67.72414593638126,-1788.1756357679917,164.06030970511577
0.515,1.0026926031373244,2.004758377140872,-0.8704287909792152,-0.2066520851604443,-0.3267527139951313,0.0091444866866464,0.003200738691309,-0.0066189519087848,-0.0123884603863594,0.999895358040385,-0.026166263617069,0.0582603980059124,11.625717088136009,0.1482818995034139,-0.0486400332031527,1.0647966146936174,9.1290505042579,0.0762305025459476,0.3553688906779828,1208.7886247304095,1209.2349410933095,1261.0879575290023,1167.7023050154964,-638.8524919960213,-2059.1418612535545,-146.52182292852544,-1796.9574198161336,164.07093881160733
0.5174999999999998,0.8377821680711994,2.8359157096778005,-0.8183125931200286,-0.2069958549399588,-0.3209952508602398,0.00745917023258,0.0030097375062089,-0.0070785050418119,-0.0123793925017082,0.9998930909220268,-0.0216841862991839,0.0594223683921814,11.545016746886732,0.1489761231892338,-0.0486459735183943,1.0688680608696752,9.129383714813857,0.0760758497910365,0.3580334044040224,1206.9208769806169,1204.4725643971947,1260.6121602268395,1163.6350532446206,-891.2263620245532,-1881.2289897081407,-280.63892050859045,-1585.90980587487,164.07925782530026
0.52,0.7568761104161357,3.6531649174021767,-0.7221846140645657,-0.2057920128324668,-0.3132981715983866,0.0060779153873494,0.002808052410183,-0.0074914801070008,-0.0123657567484983,0.9998910064697464,-0.0181585644378861,0.0601342533057445,11.46624863562808,0.1495647625416024,-0.0486505131413393,1.0727578791928467,9.129713267525034,0.0759234271072996,0.3607047931037019,1204.3324929202868,1199.8287961447688,1259.6847629264591,1159.772755986122,-1126.3198037580414,-1800.9039694684343,-476.05840674036654,-1482.0990457850698,164.08701313783797
0.5224999999999999,0.7178877640267288,4.4308764436396375,-0.5977480929313507,-0.2028186362996911,-0.30409042890622,0.0046514674250512,0.0025927757836503,-0.0078595185969648,-0.0123513373872372,0.9998890714354086,-0.0155545744260795,0.060301071457366,11.389558422722311,0.1500537215740218,-0.048661035690095,1.076477341152172,9.13003956252211,0.0757741203442021,0.3633844466546444,1201.2892779618267,1195.4680445498525,1258.2318681931376,1156.2245580156953,-1286.0183601668712,-1643.380227110309,-743.0115220611235,-1312.804278170505,164.0942971232932
0.525,0.6997734012412867,5.123582107116814,-0.4444551928771439,-0.1992622634947211,-0.2929023163711771,0.0032530543351782,0.002366837251283,-0.0081912354227773,-0.0123396242007579,0.9998871903551562,-0.0136868195085396,0.0599676073821266,11.315056986688823,0.1504635796363279,-0.0486731426188401,1.0800345311795607,9.130362941928505,0.0756277330791404,0.3660740787216891,1197.9024011194526,1191.6118950092173,1255.9697053161535,1153.2087345952696,-1526.1683484819955,-1556.4905986532708,-1215.0905603436956,-1178.4863840905007,164.10100881569147
0.5274999999999999,0.6948267043992356,5.802363634561855,-0.2343344302459232,-0.196598771507799,-0.2771922965581727,0.0019966639259151,0.0021317438877366,-0.0084943862350575,-0.0123327064718398,0.9998852994182922,-0.0123970733502497,0.0591508692482408,11.242826464126212,0.1508125559687985,-0.0486864319124962,1.0834358727728295,9.130683501195298,0.0754837458091599,0.3687748755385797,1193.6584362194167,1187.685591556586,1252.1564153914192,1150.3321260952428,-1566.6290372424996,-1317.8806506964509,-1589.1992297317743,-926.3681720208288,164.1083976422714
0.53,0.7164801611911304,6.199807525493003,-0.0454800334734481,-0.1962193980026083,-0.2624530611719018,0.0014818139351622,0.0018884522141227,-0.0087756048300907,-0.0123310063645381,0.9998833673660428,-0.0115580695440973,0.0578624695269978,11.17292287701964,0.1511155225900447,-0.0487025136624417,1.0866865013826288,9.131002198544465,0.0753416761269921,0.3714862310583164,1190.06925593324,1185.022491755735,1248.0237091674949,1148.5768937351654,-1436.622047753734,-942.812297606678,-1836.7509656319708,-580.26917275024,164.113999116556
0.5324999999999999,0.7728229894035596,6.378034591524955,0.1447209192672222,-0.1967576063167078,-0.2461315889388898,0.0014594612466124,0.0016432445141868,-0.0090443471322288,-0.0123385216561912,0.9998812815816036,-0.0109869794141447,0.0562414189716963,11.10537655079598,0.1513927154192613,-0.048710459515988,1.0897899598687344,9.131321041558286,0.0752020793562048,0.3742060460697426,1186.475325980648,1182.9715300685527,1242.9726605632593,1147.4307802314916,-1579.1073957858755,-771.1195196506643,-2388.2859075286865,-393.5665131305992,164.11902299378266
0.535,0.8522955633109203,6.30545654961648,0.3560005828213725,-0.1959202165269632,-0.2255855237361972,0.0018033172576549,0.0014012222540195,-0.0093048947592158,-0.0123582060088826,0.999878987312608,-0.0106183376838177,0.0544061535692368,11.040199027701327,0.1516520253468102,-0.0487022409179455,1.0927501378140203,9.131641646740288,0.0750652810767021,0.3769337153488336,1182.1737189543107,1181.1668941574817,1236.0822796298514,1146.6090611695124,-1572.6400959435964,-561.0474331612289,-2615.785881265808,-236.8017165918898,164.1243847135255
0.5374999999999999,0.8826712811925964,6.005166121556783,0.501005992875711,-0.1927517235596072,-0.2087385861108559,0.0025192609292977,0.0011583775337166,-0.0095499591044448,-0.0123918043262463,0.9998765542964004,-0.0106370433723897,0.0522801523992064,10.977390223985488,0.1518752621206773,-0.0486901868253805,1.095572479935635,9.131964179183843,0.0749310569834295,0.379670197237606,1178.61212550093,1180.1662929027464,1229.8937311569302,1146.246771648532,-1412.6032521248803,-308.46413617978186,-2500.132351443105,-110.78083833526752,164.12829863051215
0.54,0.8200912241752145,5.488860987615544,0.5884610591316382,-0.1877638829918676,-0.1935215164925295,0.0039389036416235,0.0009074055355509,-0.0097728965335748,-0.0124366522763425,0.999874101629982,-0.011203609214531,0.0497281475728655,10.916937583618328,0.152044599035785,-0.0486948345863954,1.0982610295802615,9.132288671977951,0.0747987266725029,0.3824169088035938,1175.1107026936863,1179.6245734765828,1223.581617872636,1146.055156977836,-1513.2237637959392,-153.36124982645728,-2725.0427172692503,-74.73535993590296,164.1316403953433
0.5424999999999999,0.6154489728655883,4.696272793077351,0.5956415393200734,-0.1820850021532336,-0.1783491939167261,0.0063854882012357,0.0006494015249428,-0.0099694621499133,-0.0124882434468745,0.9998717335367512,-0.0124201657088854,0.046811369806968,10.858813425259696,0.1521468688144621,-0.0487182866469712,1.1008194196820011,9.132614625095934,0.0746681058073787,0.3851756700080256,1171.0460066819503,1179.3994866536143,1216.268517570584,1145.8730948488524,-1455.8292917959063,-33.71753195929156,-2583.9026988183355,-71.92345107491741,164.1349943816898
0.545,0.362984649390142,3.9618831061506543,0.5023958490553148,-0.1792667257090277,-0.1686836320773261,0.0088331244484249,0.0003877648322842,-0.0101459660520525,-0.0125382565602228,0.999869491178532,-0.0141530014337513,0.0436522367573299,10.802978852968135,0.1521920094862061,-0.048757688571625,1.103248389632585,9.132941042904664,0.0745387479115833,0.3879452203487234,1167.8315562347068,1179.4559858167863,1210.662104378544,1145.6955397224615,-1236.5184294092148,38.83208257498151,-2089.3779897572567,-80.83241696836005,164.13724800218233
0.5474999999999999,0.0953441506732689,3.2322283297867758,0.2994857324239074,-0.1793270875711993,-0.1618425683823385,0.0112645445163023,0.0001292057991264,-0.0103123127025121,-0.0125790531991137,0.9998673714331942,-0.0161900832848441,0.040450934989828,10.749385618326972,0.1521986527829375,-0.0488018214021828,1.1055486865217132,9.133266709754048,0.0744103327054894,0.3907235412695692,1164.8634145349042,1179.5936470664892,1205.8216276217977,1145.4689327640108,-1139.1826595369355,39.9646698613196,-1783.710265054195,-94.64672738727121,164.1389480844445
0.55,-0.1244940112569128,2.5529465584042867,0.0167222494509544,-0.1814647041692979,-0.1567140361870164,0.0130509375262255,-0.00011780462054,-0.0104784350546396,-0.0126059514988443,0.9998653361409544,-0.0183196414829298,0.0374476488805585,10.697978208116554,0.1521866862120568,-0.0488339603809098,1.1077225153692944,9.133590415892717,0.0742826086465777,0.3935071990024908,1162.135642937022,1179.6558091660927,1201.7435530532732,1145.2223060855251,-1030.4598329695173,-21.962015146391405,-1436.9996816672467,-92.2512054456546,164.14019684357507
0.5524999999999999,-0.233989573374747,1.9642813694650847,-0.3275030860083859,-0.1847439662807165,-0.1527211689159801,0.0132034957909902,-0.0003473133016344,-0.0106486118350669,-0.012618326130433,0.9998633534566876,-0.0204504717018899,0.0348271340469745,10.648696634396453,0.1521647889834679,-0.0488412924588159,1.1097750012908605,9.133911215742406,0.0741559242484357,0.3962935191127863,1159.7111153700566,1179.4838369907573,1198.6366292134614,1145.0076767367823,-1002.1442787689912,-146.10766872392543,-1157.5846022994472,-69.27845415821133,164.1409124271215
