t,ang_acc_x,ang_acc_y,ang_acc_z,a_vel_x,a_vel_y,a_vel_z,quat_x,quat_y,quat_z,quat_w,acc_x,acc_y,acc_z,l_vel_x,l_vel_y,l_vel_z,pos_x,pos_y,pos_z,mot_1,mot_2,mot_3,mot_4,dmot_1,dmot_2,dmot_3,dmot_4,vbat
0.0025,-3.355130356900492,1.069684678182188,0.4741988363552641,-0.0295532076977223,-0.0463523932794182,-0.0026956118970047,0.0022000645679991,0.0003974271631783,-0.8351235266067089,-0.5500572232200321,-0.3238387342682778,0.0903582792758591,10.91051197459902,0.0556394516509926,0.0069232004996455,0.8308699277991213,6.367231951140404,1.957713848385893,0.1547510399420765,1210.350075764312,1202.2922954750059,1229.1849148136066,1170.8213148855923,-2368.7598209369758,-446.2146959335769,-1984.2928324487727,317.4075583890953,156.16271322541647
0.005,-3.5225066220740437,0.244508101383233,0.194762010255614,-0.0380359376575186,-0.0433025611116577,-0.002004064697464,0.0021688153004704,0.0005185137589026,-0.835112877542097,-0.5500737232425041,-0.3109005689333619,0.0809051518111903,10.926321135802905,0.0551553877751238,0.0069931760465922,0.8335656919739042,6.367154820054585,1.9578428184112844,0.1568426630098258,1204.4281762119697,1201.176758735172,1224.2241827324847,1171.6148337815653,-2476.622401672376,-426.2166763759524,-1978.4991031309348,371.21791585277606,156.16448102732912
0.0074999999999999,-3.518167582707928,-0.6828149351038121,-0.0289358489936714,-0.0474646519644134,-0.04311389664113,-0.0031748448744508,0.0021280341533478,0.0006421497666535,-0.8351010323086259,-0.5500921094733133,-0.2977044727291361,0.0715107335088155,10.942115058572403,0.0546888940612254,0.0070659401168362,0.8362700214149212,6.367077744958041,1.9579714064458968,0.1589356861353818,1197.9669637559502,1200.161212093126,1219.292419297952,1172.6774044648564,-2836.0195748832666,-454.85840277042365,-2062.9893276545768,549.35458558175,156.16610171492482
0.01,-3.2644272028558943,-1.8333836369636816,-0.1622922444874419,-0.0587983081477807,-0.0471508028386287,-0.0063471515960303,0.0020759480666263,0.0007740482225112,-0.8350866431822725,-0.5501144536008931,-0.284112041987047,0.062092755726404,10.95787312644348,0.0542492087119837,0.0071336520638002,0.8389895114402927,6.367001478707167,1.9580983998345167,0.1610319668602229,1190.2480783375531,1198.9024667213196,1213.9092360942116,1174.361606709474,-2736.6477204413054,-486.4293594033369,-1827.5366071708045,682.7990932667034,156.1678861339279
0.0125,-2.8257102766177535,-2.762288772148263,-0.1357414007585734,-0.067812968342536,-0.0538335058058981,-0.0097815264815634,0.0020074776298621,0.000917318286114,-0.8350697224225847,-0.5501407746175354,-0.2699506745109444,0.0526634350652619,10.97355780721684,0.0538487114716483,0.0071940710613266,0.8417313058774202,6.366926248152193,1.958223268268685,0.1631329455074515,1184.2837251537435,1197.7290652961094,1210.154736262098,1176.09139993119,-2209.84570346368,-505.81576333638634,-1310.5747234887988,738.623341691664,156.1692459239875
0.0149999999999999,-2.15216267136818,-3.601317300434604,0.0178728530778446,-0.0756715692679421,-0.0630461788792813,-0.01239708382689,0.0019207103362582,0.0010694722149693,-0.8350512604215083,-0.5501695911326313,-0.2551724284582468,0.0433083733850004,10.989108317651612,0.0534909929213679,0.0072488737445965,0.8445033888684909,6.366850956318848,1.9583461596813825,0.1652382945632248,1179.1988498202347,1196.3733879046379,1207.3563624767676,1178.0547234179323,-1985.2614087933484,-635.3902159053631,-1006.0779318461751,876.7402023369867,156.17048061668478
0.0175,-1.1122845880310794,-4.46582096763951,0.2729053259150724,-0.0825883232760508,-0.0757120301042801,-0.0120391793267049,0.0018186241934294,0.0012248658838762,-0.8350333743595328,-0.5501976778795262,-0.2398606869698723,0.0341229098024924,11.0044399343241,0.0531704781729397,0.0072986478049889,0.8473142097438501,6.3667741910896805,1.9584671142652417,0.1673469161980536,1174.3574181097767,1194.5521142165824,1205.124346602867,1180.4751009428749,-1556.5005004919835,-690.0094301951411,-653.7740526114247,861.4895844903001,156.17182476643316
0.02,-0.1086536130734049,-5.05695119568128,0.4710760687262323,-0.0853541661377976,-0.0869346335146229,-0.0085130984032368,0.0017034742490842,0.0013785087911127,-0.8350188452179474,-0.5502207730165415,-0.2240847937156569,0.0252105188798651,11.019447460497892,0.052883765788098,0.0073429799976093,0.8501714597877789,6.366696420036567,1.958584784310972,0.169458755523106,1171.416347317775,1192.923340753662,1204.0874922137107,1182.3621713403838,-962.0874411994013,-659.6025491158347,-293.5808419561001,682.9484424371916,156.17283491444644
0.0224999999999999,0.9452883054862872,-5.508316533451916,0.5890703112806142,-0.0844958188946133,-0.098994118895801,-0.0039241637669817,0.0015744240480221,0.0015243749031939,-0.8350102373638101,-0.5502349097093793,-0.2078793981751559,0.0167422381596772,11.034006495510464,0.0526313133823425,0.00738552747422,0.8530813692311989,6.366617458966807,1.958696770239712,0.1715757386883706,1169.54698090378,1191.2541014710034,1203.6564423930863,1183.8898431550608,-604.5021983129117,-730.9018268475028,-117.81715731594883,546.3308506988141,156.1737356464697
0.025,2.1466185247702096,-5.875178059104819,0.6245588717017106,-0.0791938983345745,-0.1150809390093551,-1.552961020560796e-05,0.001428994352591,0.0016581101100464,-0.8350066232956435,-0.5502413566486409,-0.1912397927950446,0.0088868570819975,11.04797525141442,0.0524175235749502,0.0074298700524778,0.856048299145357,6.366536489021818,1.9588021016939268,0.1737006924917064,1168.3938363262105,1189.2688316194246,1203.4984064271307,1185.093825593878,-266.3217806655211,-721.1316880990125,-42.88774324668338,317.8468156612325,156.174694583956
0.0275,3.0095631151808724,-6.020077184317817,0.5917886552931693,-0.0711974865944514,-0.1298175537292977,0.0015813611009034,0.0012676953702015,0.0017795611577179,-0.8350068907565765,-0.5502415624535406,-0.1741773630356313,0.0017092894963465,11.06119590418224,0.0522461425873195,0.0074713734383758,0.8590749490689897,6.366453393657728,1.958902330292965,0.1758348706797924,1168.2153720004524,1187.6484430305084,1203.4420036768531,1185.4790772333668,59.831723212846576,-642.7752455856083,-44.811586538617135,20.68803708539236,156.1753947781058
0.0299999999999999,3.6498253921091353,-5.9829415725328365,0.5415354039811208,-0.0601337970335408,-0.1450974424945696,0.0021140342175259,0.0010917944348314,0.0018963680872105,-0.835008915193823,-0.5502383886221737,-0.1566352040956043,-0.0048719935890552,11.073499005499704,0.0521263781974455,0.0074947289143684,0.8621621237297703,6.366367961108045,1.9589997913645976,0.1779778031780173,1168.6929949422747,1186.0549553914966,1203.2743484944378,1185.1972657793049,276.1806467807218,-637.4644026426721,-100.25947815779544,-216.69417509751835,156.17599476749453
0.0325,4.076720221225476,-5.792738316234299,0.5086752478145258,-0.0478747835836547,-0.1599906145354469,0.0022138583178479,0.0009037341388266,0.0020106824239931,-0.8350108707906291,-0.5502341548089827,-0.1386576925998761,-0.0108470321837923,11.084705812524035,0.0520595759286901,0.0074928037370883,0.8653095666697409,6.366280849924883,1.9590962158608924,0.1801289859366561,1169.596275234356,1184.4611210172948,1202.940706286064,1184.3956063578792,436.0629876970957,-644.9855381193623,-178.3088841778861,-432.1183131858557,156.17651294684904
0.035,4.25762252640215,-5.428826886613066,0.5203987080596093,-0.0360216104971524,-0.1740448106969796,0.0020967505815502,0.0007047865209795,0.0021167378673236,-0.8350121974969977,-0.5502291867525492,-0.1203771403200329,-0.0160433986268583,11.094634583206355,0.0520402284650913,0.0074727327957646,0.8685159604207828,6.366192872747532,1.9591929219460007,0.1822881774101354,1170.87330988076,1182.8300277008996,1202.3828040735484,1183.0366742133756,616.4000214578667,-735.9929792756706,-294.59938553541195,-709.3195258755262,156.17693334835343
0.0374999999999999,4.251532210440477,-4.8200285679194845,0.5917752052130126,-0.0236716902597675,-0.1895709612488501,0.0021286218383944,0.0004972697664502,0.0022108254141852,-0.8350126897132196,-0.5502231836923049,-0.1019328651762614,-0.0203421626562694,11.1031062051502,0.052062363923983,0.0074398807027988,0.8717787340985306,6.366105264019054,1.9592911267905488,0.1844553583241113,1172.6782753416453,1180.7811561209166,1201.467709358387,1180.8490087285015,689.2586013161692,-772.810349262409,-371.4879784970437,-884.5993441094838,156.17732505102128
0.04,4.119030688805485,-4.200189243436352,0.6845145344970365,-0.0151274063288879,-0.2006454821215115,0.0028327206840338,0.0002881031086227,0.00229829439077,-0.8350123303681287,-0.5502154786133848,-0.0834508384407326,-0.0238556658385615,11.109948368993008,0.0521213816097569,0.0073841390015817,0.875094073881151,6.3660194733951325,1.9593916093747905,0.1866298987931473,1174.319602887341,1178.9659759545875,1200.5253641810632,1178.613677492828,671.3020260734078,-753.8145399128546,-405.6783227747016,-967.8232293885219,156.17755705095186
0.0425,3.9125111591401858,-3.508319710145095,0.7769451087800499,-0.0077155433850763,-0.2092185399930569,0.0047242161674893,7.954236514260871e-05,0.0023860697554372,-0.8350116511706479,-0.5502046152769237,-0.0649624598874375,-0.0266795879096993,11.11500217228087,0.0522207939305947,0.007299237132247,0.8784562810288485,6.3659359522493455,1.959494739643216,0.1888112603170068,1176.0347854720123,1177.0120834213524,1199.4393177445136,1176.0098925815591,764.6893650944551,-892.0755491772984,-497.58064665961706,-1210.3417194403398,156.1776897810291
0.0449999999999999,3.60875335173374,-2.6434587784569743,0.8403188950092337,0.0013768803891895,-0.2171235194282286,0.0084032661770798,-0.0001331603507468,0.0024799731349176,-0.8350102589697854,-0.55019072348172,-0.0463927120276611,-0.0288178652676579,11.118126975162056,0.0523735317481859,0.0071888884997029,0.8818574850349435,6.365855596368636,1.9596006326918431,0.1910003581333791,1178.1430497128133,1174.5055982087013,1198.037460947765,1172.5619688956265,780.4741055259914,-939.4990495733967,-519.4620604526338,-1295.2385655562473,156.1777319644906
0.0475,3.305519195601567,-1.920215152105644,0.8281306721964437,0.0096249143944385,-0.2221621460999454,0.0121769930220454,-0.0003563458740626,0.0025842962241276,-0.8350068706091218,-0.5501756451850492,-0.0276650915149208,-0.0302427020491213,11.119203796897777,0.0525940339292602,0.0070618199848359,0.8852880129868815,6.36577872001764,1.959708654642662,0.1931990336204202,1179.9371559996423,1172.3145881734852,1196.8420074422504,1169.533699753778,726.4626238863904,-880.3530062704333,-473.3299698023525,-1210.3461910565316,156.17766756793904
0.05,2.933970036360767,-1.2152525301271528,0.7427207357441222,0.017893327720682,-0.2255002400438893,0.0156452824454638,-0.0005929159808497,0.0027035236364828,-0.8350013411823876,-0.5501600831371545,-0.0087737658430144,-0.0309889243139608,11.118138945137185,0.0528927860571763,0.0069234592425324,0.8887368026014397,6.365705323394876,1.959818131251912,0.1954088543234993,1181.7753628322453,1170.103833177349,1195.6708110987531,1166.5102379403438,741.9107870815882,-869.0988110738549,-461.99155894510136,-1186.8091615081546,156.17749752786943
0.0524999999999999,2.4980530658205766,-0.5358858640898077,0.6136781369988399,0.0253242487018629,-0.227268913790245,0.0180105330724067,-0.000837979754335,0.0028364695619107,-0.83499599088711,-0.5501419045598832,0.010064459757412,-0.0310987927586594,11.11486867755928,0.0532641254074423,0.0067795621964228,0.8921923474248951,6.3656362363473535,1.9599274865662395,0.1976306882148894,1183.6467099350502,1167.969094118116,1194.532049647525,1163.5996539462371,749.3372342287789,-811.3541676660593,-453.7786222936577,-1124.0116543527624,156.17723822827168
0.055,1.988370706241466,0.1054421263597761,0.4701298721964038,0.0312572424474592,-0.2274040649802184,0.0187099118946701,-0.0010900882970057,0.0029804199792418,-0.834994192209425,-0.5501186576457745,0.028671291571514,-0.0305611344494482,11.109363302558881,0.0537066314777985,0.0066408530126405,0.895641882909942,6.3655733514645805,1.960034422313789,0.1998653163144591,1185.5220490033892,1166.0470623390188,1193.401917987285,1160.89017966858,805.1639339548722,-770.0896485617242,-511.5395123061712,-1151.0530410730998,156.17686938570776
0.0575,1.3111661740486151,0.8282901369052363,0.3300911935366337,0.0364458977177207,-0.2262241937866407,0.0181899579931067,-0.0013491656014833,0.003127467467088,-0.8350014221969834,-0.5500864150040211,0.0468258109135909,-0.0292670609562979,11.101629021502054,0.0542160276974981,0.0065258095101152,0.8990723375385063,6.365517995387874,1.9601374110447256,0.2021131355363801,1187.6725296048246,1164.1186458753075,1191.974352085994,1157.8443887408716,747.8530777981636,-631.9904341153236,-547.092404639898,-1100.1594914392176,156.1762977889602
0.0599999999999999,0.7137520119089731,1.3907615666083983,0.2621006519747729,0.0391973266477786,-0.224022010172218,0.0172642233309893,-0.0016163056177366,0.0032742941348288,-0.835020592375067,-0.550047144136685,0.0643840289206828,-0.0271910750494942,11.091706679577849,0.0547935842516093,0.0064460896694477,0.9024705401927242,6.3654682485736975,1.960235842433237,0.2043733038286401,1189.26131439238,1162.887110168442,1190.6664559640856,1155.389382211384,555.7870868050943,-411.20120088317,-551.3540332839514,-992.9235877895741,156.17571234810356
0.0625,0.1132576147409164,1.9062132145965236,0.2451732529573257,0.0405837265403523,-0.2201710454253483,0.0163189906173598,-0.0018869906638811,0.0034186258311912,-0.835053161009858,-0.5500041250992184,0.0811130220209355,-0.0244040035406017,11.079671540153141,0.0554315821640113,0.0064039829324819,0.9058246838669936,6.365420742956369,1.9603301735187375,0.2066449740699286,1190.45146503885,1162.0626398708916,1189.2175819195743,1152.8797708019235,381.68158363769146,-278.677646712458,-651.2152856601908,-1142.0106429044145,156.1750118240447
0.065,-0.5665745032904095,2.458388089574365,0.2507863461535747,0.040894746565166,-0.2138812481610103,0.0157419593758671,-0.0021546657138957,0.0035634486797271,-0.835093894784989,-0.5499599676899344,0.096813496007852,-0.0211028230814006,11.065630805687896,0.0561220240081466,0.0063893154839058,0.9091243192542584,6.365371945826045,1.9604228343227017,0.2089281005492669,1191.1697223105684,1161.4937219348799,1187.4103795357846,1149.6793289968618,110.71947217892549,-153.47952912447894,-643.7835597202587,-1207.7889663723895,156.17403616236493
0.0675,-1.0576187669122887,2.853678185588933,0.2343219390548592,0.0394006526323044,-0.2074607791974759,0.0164328060543389,-0.0024128126354125,0.003710415590097,-0.8351383297366224,-0.5499150844219244,0.1112814963986382,-0.0174590454565324,11.049721816966848,0.0568528355454292,0.0063910019281408,0.9123609406762144,6.3653183711128944,1.9605155412634336,0.2112199479089091,1191.0050623997447,1161.2952422252692,1185.9986641209728,1146.8408259700618,-252.01084098198385,-44.790116176500256,-496.9193803433423,-1149.6753712454383,156.17310922851036
0.07,-1.4106995564378595,3.171662814798583,0.1369075176527825,0.0352631848672597,-0.1997073116987539,0.0185843366658749,-0.0026588874792505,0.0038534298314939,-0.835183443507115,-0.5498698903580628,0.1243077716416539,-0.0134490548363066,11.032109176561804,0.0576073878385798,0.0064115176308984,0.9155281893752188,6.365258063803009,1.960610097387764,0.213518594094308,1189.9096681056585,1161.2697713539972,1184.925782634068,1143.9309521406346,-699.5464836977603,2.4274551905819,-340.3616988245182,-1245.4010599364688,156.1720625850388
0.0724999999999999,-1.6138871054682995,3.4594112765473244,-0.1227301662521091,0.028236931599819,-0.1891373300415722,0.0214506369049348,-0.0028874557056243,0.0039828677111634,-0.8352305370136464,-0.5498197822903415,0.1356066972772092,-0.0090147318337635,11.012980382259027,0.0583587153467506,0.0064538726677789,0.918622315798324,6.365190281030382,1.960707723269256,0.2158230301217255,1187.507329981256,1161.307379501222,1184.2968556268504,1140.6138206703795,-1039.583854341665,8.171921265739018,-96.6979559404992,-1141.100243021221,156.17066662333795
0.0749999999999999,-1.5786708532991092,3.627910159456431,-0.4652195084381882,0.0220303164164913,-0.1800223652883213,0.0230437810739619,-0.0030907910879191,0.0040885104803178,-0.8352797055087654,-0.5497631484121843,0.1448677971573195,-0.0041070819973407,10.992540614196653,0.0590738187532722,0.0065196222142727,0.9216417405923732,6.365115157987964,1.96080879479684,0.2181325878806671,1184.71174883395,1161.310630960326,1184.4422928543654,1138.2254509255283,-1229.2336426408826,-21.046101066485768,196.68364994563473,-825.9293573286407,156.1693856043018
0.0774999999999999,-1.3449870898593204,3.7438733623296447,-0.9085309608230004,0.0165988126152051,-0.1713631723059051,0.0231427102343966,-0.0032637435996143,0.0041645116337317,-0.83532905110154,-0.5497024437248257,0.1519077584157785,0.0012830020856731,10.971005702811327,0.0597269656164357,0.0066071068115587,0.92458591298706,6.3650344806699755,1.960913417845329,0.220447481432602,1181.3611617680515,1161.2021489958895,1185.2802738765783,1136.4841738837363,-1378.2452866175379,-70.42971407672661,425.18717254074505,-561.9992770496078,156.16798126033095
0.08,-0.984513264631872,3.836265699785129,-1.3873126193886651,0.0124347185592463,-0.16310074926207,0.0215661985834496,-0.0034073024479615,0.0042101560868782,-0.8353763558744509,-0.5496411365175752,0.1567446550265635,0.0071534581538822,10.94859605655408,0.0603069738198942,0.0067141407080463,0.9274544695529138,6.364950633334073,1.961021972647654,0.2227678848059272,1177.8205224008625,1160.9584823899424,1186.5682287170691,1135.4154545402805,-1391.8828854087212,-133.25875661407724,569.6223865530551,-253.34178097295967,156.1664738968686
0.0825,-0.5415559668848113,3.9176450715523847,-1.8290091527124213,0.0106629670919365,-0.1548685330992363,0.0173179649066021,-0.0035238531836645,0.0042273401073873,-0.8354193324882712,-0.5495831340464585,0.1594790387791605,0.013478914604391,10.9255337739706,0.0608081991639687,0.0068373561883753,0.9302475071296258,6.364865366540905,1.961134281897136,0.2250935265879119,1174.4017473410079,1160.5358552128191,1188.1283858093439,1135.2174649788715,-1395.5777708699304,-219.76076439841543,666.0059135794194,100.41563131408103,156.16484152298935
0.085,-0.0164984315827537,4.007398103466144,-2.2080362768158937,0.0116393732261377,-0.1443518198089327,0.0088366692847485,-0.003617907201532,0.0042217973651037,-0.8354538269235595,-0.5495353117111677,0.16031982135837,0.0201960953047415,10.902038521226975,0.0612335196664907,0.0069714406580023,0.9329651268682608,6.364779725094723,1.9612492949606497,0.2274249517243363,1170.8426335465128,1159.8596785679504,1189.8982582849662,1135.917532696851,-1172.160601690938,-262.1588442187656,574.1834363220273,383.95501804225165,156.16273735369975
0.0875,0.3520456319454743,4.067202284551919,-2.3376082871220887,0.014249818198117,-0.1349073044103676,-4.542053104303638e-05,-0.0036971166324448,0.0041990943321579,-0.8354767293344074,-0.549502979495986,0.1595512330600089,0.0272855311947054,10.878324975628551,0.0615923920510532,0.0071157141661725,0.935607302167284,6.364694323020298,1.9613655204921103,0.2297629348640017,1168.5409443325532,1159.2250609917255,1190.999302990954,1137.1372400690827,-758.930195559107,-244.71051980099264,310.5044189311235,569.5926775177678,156.16086250387772
0.0899999999999999,0.6046359982146217,4.09437978662012,-2.2495579164539388,0.0173787631043003,-0.1248615043803881,-0.0083481220460271,-0.0037706915092607,0.0041638947127865,-0.8354845775797978,-0.5494919417757752,0.1574914799963947,0.0347632749183893,10.854600492039824,0.0618978110975465,0.0072738509590674,0.9381739874437448,6.364609593177304,1.9614815475860736,0.2321081623254876,1167.047982568717,1158.6361259689454,1191.4507803796218,1138.7654960844395,-476.8774776780911,-217.683726019914,16.824151598484637,745.7246428742577,156.15886189150677
0.0924999999999999,0.7665045208621533,4.070998123457672,-1.9300655072278423,0.0207839543846802,-0.1125689151475334,-0.0157882305345788,-0.0038477729871932,0.0041242906165507,-0.8354756572132547,-0.54950523358011,0.1545109130894127,0.0425791116721692,10.831062175476704,0.0621682760242864,0.007444866320926,0.9406650904731734,6.364525856418737,1.96159720172008,0.2344605143108901,1166.1565569441627,1158.136642361626,1191.0834237489464,1140.865863283454,-201.3262629355721,-128.45805192669093,-288.986248101082,752.6525271838176,156.15631676163667
0.095,0.8005679850053463,3.9973809197562815,-1.5413154337653898,0.0230253774754539,-0.1025265643225918,-0.0197132240884714,-0.0039370766383893,0.0040926996482523,-0.8354501876278962,-0.5495428130997951,0.1510319519338135,0.0505941672435587,10.807894748610224,0.0624280563148839,0.007621093638586,0.9430805696427444,6.364442820449973,1.9617131746067953,0.2368193063848241,1166.0413512540395,1157.993835709312,1190.0058491391164,1142.5287587203588,39.766973990981526,17.052291925892845,-572.5125983738048,612.8808201892292,156.15407671762117
0.0975,0.7629533598774946,3.8665345090414647,-1.099240492837174,0.0245959265633993,-0.092931846892408,-0.0217320065170549,-0.0040433316340795,0.0040793810808966,-0.8354099449101143,-0.549602209048168,0.1473837116364773,0.0586543812459513,10.785270504680083,0.0626947361736935,0.0077945985627912,0.9454212927250832,6.364360131660654,1.9618294143929007,0.2391845869662725,1166.3553918141176,1158.2219038212554,1188.2208607570772,1143.9302673844,180.0785997500496,196.6394859510727,-905.3533623863577,540.5646998297921,156.15171511191002
0.1,0.6738571965120386,3.6491352779780657,-0.5784681725191511,0.0257663246881303,-0.0819769011767326,-0.0226050527973717,-0.0041678696058489,0.0040903488946645,-0.8353600673948613,-0.5496757961482723,0.1437854626810861,0.0666326860251397,10.763346979497149,0.062977849009546,0.0079606089384264,0.9476891856484227,6.3642785820592005,1.9619449572834933,0.2415575546580855,1166.9417442527897,1158.977033139067,1185.4790823271846,1145.2315822195076,214.2590396038484,358.81827960215526,-1065.0340974448216,416.4434182205692,156.14874381228825
0.1025,0.5839273173286795,3.424763880825118,-0.1879330934995787,0.0263505868116298,-0.073512419906679,-0.0224419997440293,-0.0043051586932559,0.0041245208471012,-0.8353071066595023,-0.5497538216688843,0.1402482933261746,0.0744382820555599,10.742265655027284,0.0632700837565891,0.0081187336229843,0.9498879882386476,6.364200428173644,1.9620591702082009,0.2439382627314424,1167.4266870121369,1160.015995219266,1182.8956902698533,1146.012484475503,167.613991657436,495.7908396852426,-1046.717680337226,263.5061525816587,156.14615607911995
0.1049999999999999,0.4886022848362178,3.165525135152263,0.1354960863274962,0.0271247985149382,-0.0658591959363969,-0.0217808309603473,-0.0044464108887118,0.0041740155094093,-0.8352571844143215,-0.5498271987190511,0.136641655207406,0.0820531852303463,10.722148301565262,0.0635527782249579,0.0082764123836966,0.9520231228913472,6.364126209804782,1.962172495411064,0.2463250007418733,1167.7798142110769,1161.4559873374935,1180.2454939254983,1146.549112982416,115.34476364104214,633.0348563019028,-1040.427102698097,188.1871016526478,156.14345644051565
0.1074999999999999,0.3876177970020758,2.883897655517921,0.3985109122515127,0.0283140257050423,-0.0587641183949794,-0.0208592896939116,-0.0045851516489887,0.0042308131959734,-0.835214291159264,-0.549890017284414,0.1328691402123379,0.0894782976654092,10.703092564371657,0.0638112339361275,0.0084441253740821,0.9541008784321992,6.364055412720837,1.9622849447350967,0.2487161780920949,1168.003410830342,1163.1811695007757,1177.6935547563628,1146.9534199837663,67.53024727759106,738.1874021738433,-971.3796155055653,146.7723779413971,156.1406673472528
0.11,0.2755770904351352,2.580778383668868,0.5904979816818008,0.0296349263436345,-0.0524122690971604,-0.0195954752698226,-0.0047140512301301,0.0042873890968503,-0.8351798508155241,-0.54994024072778,0.1288161191508587,0.0966854535372872,10.685171321363596,0.0640299954084916,0.0086306840853182,0.9561287221641148,6.363988244718864,1.9623956326630296,0.2511108518500544,1168.1174654474648,1165.1469243483627,1175.3885958479707,1147.282974872123,43.20033833437261,880.44692672347,-939.3016702188097,147.42349509201617,156.1377746879967
0.1125,0.1299108972661525,2.196723406012957,0.7443074657032925,0.0306242492233271,-0.0456063157452656,-0.017534993783567,-0.004830070710876,0.0043372932261526,-0.8351508582001737,-0.5499824942494554,0.1244456682921726,0.1036695315554626,10.668430212508753,0.064201253517116,0.0088476454486936,0.9581144804773222,6.363923219059234,1.9625053076141696,0.253508471054167,1168.219412522014,1167.583404134393,1172.9970464052687,1147.6905374592263,41.65726165515476,869.4597730824618,-811.0265822698686,163.68752790444873,156.13418960267015
0.115,0.0065031945986818,1.861954545992469,0.8138551064539024,0.0307669751214899,-0.0404419624306359,-0.0153216062407807,-0.0049339678567166,0.0043733665010365,-0.8351252816736925,-0.5500198892173765,0.11976810241326,0.1104751007123998,10.652887473095909,0.0643221237613168,0.0091101778773284,0.9600661927245387,6.363858314843383,1.96261526554706,0.2559087813997176,1168.3257517557406,1169.494223213775,1171.3334629366211,1148.101412511645,49.97010455072082,694.6254406223483,-600.9500100325107,190.96264880186007,156.13111158676077
0.1175,-0.1076875700192815,1.516731067515952,0.8326004836932654,0.0303798360814369,-0.0360388834366602,-0.0127926750842554,-0.0050240816664197,0.0043909222297728,-0.8351037552538514,-0.5500514880762946,0.1147675654949009,0.1170695881480816,10.638535970884927,0.0643880456983628,0.0094248431403569,0.9619923176660444,6.363793039751847,1.9627257654868693,0.2583117945194878,1168.4692630447676,1171.0565313375048,1169.992296355106,1148.6453507032356,65.75103392297036,567.7102156425018,-526.2579003418078,281.00435667775,156.12794528070168
0.1199999999999999,-0.2238936618685843,1.1033157638526792,0.8176532407286579,0.0294873040579024,-0.0322081490792756,-0.009757314025756,-0.0051013210400226,0.004392009432767,-0.835087184414595,-0.5500758646429096,0.1095401327198429,0.1233305033722238,10.625343124623779,0.0644053203996713,0.0097883596378793,0.9639005769093024,6.363726626342372,1.962836089118912,0.2607178665654927,1168.6545069253555,1172.3327742919876,1168.7021734349123,1149.506434295034,64.45225217594283,356.49594304686684,-430.09295356600967,357.17026404140665,156.124050470762
0.1224999999999999,-0.3001804857344668,0.772358274264515,0.7973945601300295,0.0284874682541859,-0.0302563061084692,-0.0075896348367557,-0.0051683411021998,0.0043824825497694,-0.835074570847196,-0.5500944410905267,0.1042440802747655,0.1290921579012271,10.613253469922377,0.0643867926412876,0.0101918576633134,0.9657979216517544,6.3636578826334,1.962944709450618,0.2631273146028065,1168.7915243056473,1172.8390110527391,1167.841831587276,1150.4312020234427,49.780275778084565,97.31027771022119,-313.89227845261274,418.90860173193647,156.1207306496764
0.125,-0.3574653309895441,0.4687394277616163,0.8034911138754613,0.0273058790076752,-0.0292854230062135,-0.0063990995285785,-0.0052237676630161,0.0043660977719756,-0.835064477465365,-0.5501093656678122,0.0989297584148367,0.1341860754847931,10.60219290179971,0.0643363540789621,0.0106241309269507,0.9676912899744164,6.363586002945064,1.9630503190820363,0.2655394178529726,1168.9034083042459,1172.8193256805387,1167.1327120426492,1151.6009773036935,52.843009814705454,-90.75753511660868,-294.08131485274646,572.843460816602,156.11734036750963
0.1275,-0.415196417357788,0.1432092574947587,0.8758259383945156,0.0256897850240244,-0.0288199648747255,-0.0061527439360497,-0.0052650840645014,0.0043442143910146,-0.8350560179042058,-0.5501219878259193,0.0935894285286013,0.1384828528003497,10.5920708875473,0.0642531386789052,0.0110753685395789,0.9695870036794116,6.363511394332751,1.9631528014718975,0.2679538077719593,1169.0557393547208,1172.385223377156,1166.3714250130124,1153.2954193275257,71.63244103617211,-187.9732542564396,-273.3417061300768,665.0445686567758,156.11319809768696
0.13,-0.4679315519694067,-0.0961180640485578,0.9977309598264132,0.0243492094330931,-0.0287744676792808,-0.0062531406985175,-0.0052899578643414,0.0043217248398151,-0.8350501447745223,-0.5501308411389836,0.0882521326003569,0.1418052168719957,10.58278417588216,0.0641398393585023,0.0115291504960713,0.971489954740362,6.363434405014976,1.963252668387844,0.2703703731503515,1169.2615705094267,1171.8794594092565,1165.7660035119989,1154.9262001469776,114.62646441441385,-184.3334986117496,-237.7731853623116,683.54691397767,156.10968974721382
0.1325,-0.5479788980382821,-0.3057732372530065,1.1581227271343053,0.0232790424099916,-0.0289491600035411,-0.0051245603255695,-0.0053020596743082,0.0043069892520724,-0.8350475260556642,-0.5501348098578949,0.0830864243762202,0.1439995230470334,10.574219758458185,0.0640118677949104,0.0119695628839398,0.9734025543462634,6.363355829673092,1.963351238771187,0.2727900859789313,1169.6288716767929,1171.463555884097,1165.1825590862009,1156.713153897414,181.02478706960008,-124.04880906487948,-222.5112621677452,723.1533433308861,156.1061284427275
0.135,-0.6687680417303014,-0.4917881247885542,1.307077905123606,0.0225006752320102,-0.029326176347499,-0.0019138693299272,-0.005305227830453,0.0043049403891418,-0.83504928930721,-0.5501321114671368,0.0782186577545127,0.1449909666324803,10.566260656780328,0.0638805212271715,0.0123862874346207,0.9753254807084684,6.363275323036081,1.9634497389053165,0.2752145893300285,1170.1666944447747,1171.259215363932,1164.65344720116,1158.541966863632,255.53080752310936,-16.76052006660028,-183.50958310511473,712.3321826411022,156.1025270833068
0.1375,-0.8544148090153778,-0.6436681969143381,1.3813672034702098,0.0218587953889331,-0.0300961160957411,0.0035751539480906,-0.0052980347642068,0.004314885102341,-0.8350558157064635,-0.550122191879793,0.0736129332206682,0.144759950073102,10.558791583576928,0.0637417206920108,0.012772805063818,0.9772583063038426,6.363193252313819,1.963548582787128,0.2776454382197053,1170.9065257144084,1171.3797532837643,1164.2650111706753,1160.2748148106195,359.3647064161356,117.57861334122016,-121.19100757536204,695.827299741904,156.09888166743417
0.14,-1.1538599082962264,-0.7677270853341888,1.3329826384352712,0.0205836852975632,-0.0317533207883388,0.0105618064142849,-0.0052865056797497,0.0043320936089341,-0.835064767625139,-0.5501085793336254,0.0693148701767331,0.1434619106664863,10.55170022451591,0.0635984516161343,0.0131380199344002,0.9791979814308556,6.3631093680448085,1.963647713634736,0.2800839406928835,1171.9635179768554,1171.847108430638,1164.047492163283,1162.0211033623416,400.1701457772011,199.96184302440247,-33.78966735490391,553.1453353710726,156.0944612001486
0.1425,-1.4508218914306983,-0.8023842777761073,1.1748945964675768,0.0184685530521162,-0.0339191949489578,0.0152053808903708,-0.0052794318992409,0.0043510453115731,-0.8350749265415697,-0.550093082685531,0.0654091682233346,0.1413148995006353,10.544883078264307,0.0634570612768701,0.0134953014071685,0.981139552277606,6.363023029204535,1.963746868246352,0.2825309766498385,1172.9073764432944,1172.3795624988863,1164.0960628339008,1163.040541487475,368.3202507905224,202.60280234579207,58.44089574457057,290.98136939242204,156.09074243238533
0.1449999999999999,-1.7583824676928308,-0.7414099079616105,0.9260916575777084,0.014706924325396,-0.0368686753767238,0.0179797544235924,-0.0052833960351402,0.0043757948501931,-0.8350838765080226,-0.5500792687663134,0.0620519477216165,0.1383586906678203,10.538251243507716,0.0633304669892344,0.0138407208812941,0.9830767629869284,6.362934210423167,1.9638471005229172,0.2849862458338219,1173.805119230808,1172.8601224423671,1164.339696642006,1163.4760102093037,357.7349122284448,157.4453595398616,126.37169692238844,54.24312291334016,156.08699076935994
0.1474999999999999,-2.084115838921337,-0.5442968098648773,0.579582262261222,0.0081836017283021,-0.0406001458555106,0.0194919556756581,-0.0053005650370049,0.0044086709632409,-0.835091626150109,-0.5500670800667439,0.0593024444702383,0.1346275067283509,10.531732366679972,0.0632228327968887,0.014168499621452,0.9850034101254164,6.362842868482892,1.9639482027429784,0.2874494439742119,1174.6960510044366,1173.1667892965856,1164.7279213185127,1163.3117571020416,277.95471932913614,48.56812803732278,135.4801519450574,-152.35665790150946,156.0824542833804
0.1499999999999999,-2.284303622827258,-0.2858367730037591,0.2905513108466485,0.0015421837297755,-0.0428989920309099,0.0198583947227803,-0.0053274199407247,0.0044487108106437,-0.8351001403020633,-0.5500535729129618,0.0570823555991394,0.1301614705823055,10.52527224183796,0.0631260181021408,0.014472440491082,0.9869140697715744,6.362750196869961,1.964049324824908,0.2899204622567165,1175.1948928274535,1173.1029630825535,1165.0170974017315,1162.714226919796,132.48324584978934,-96.53756414986664,87.6006994888939,-282.68010932838456,156.0786474036355
0.1524999999999999,-2.388120051513495,0.0357784399237979,0.0378642986510895,-0.0054685303660612,-0.0435939401338825,0.0196559357282267,-0.0053600470314751,0.0044982724216415,-0.8351103057086123,-0.5500374194014847,0.0553439498949567,0.1249497579977928,10.518834867299319,0.0630354953190485,0.0147414639688021,0.9888036147398742,6.362656843462958,1.964150851943502,0.2923978611192382,1175.3584672336856,1172.6841014758363,1165.1659248159572,1161.8983565553997,-15.249304859207754,-251.0002824576984,28.23992781422928,-333.8378032809939,156.07481539190292
0.1549999999999999,-2.4055907716020406,0.4368399242702071,-0.1943437038712188,-0.0134434704832663,-0.0424427223284705,0.0187913883058669,-0.0053940525059371,0.0045583692537685,-0.8351260661425145,-0.5500126663321256,0.0540150278389957,0.1190097894555515,10.51240183716962,0.0629455736814198,0.0149663388149758,0.9906677885703165,6.36256346527823,1.9642527992233487,0.294880861813823,1175.1186463031577,1171.8479616702652,1165.1582970408026,1161.0450379033912,-158.63360309231197,-340.28701027987125,-20.77193687614452,-241.31701458154544,156.07019021789878
0.1575,-2.3506001183447665,0.7412371556877762,-0.3152036293254472,-0.0192552803269706,-0.0400080779079876,0.0176127054300883,-0.0054235041613013,0.0046250326197476,-0.8351493044567511,-0.5499765477039877,0.0529354501154284,0.1124363653069164,10.505971381561652,0.0628435079196814,0.0151455319162622,0.9925036947285308,6.3624713938111235,1.9643535000863956,0.2973687484213577,1174.565299218224,1170.9826664244367,1165.0620651315764,1160.691771482492,-279.64780150509773,-348.2445349896804,-24.212321477534694,-26.457712718911328,156.06631501142135
0.16,-2.255634162319692,0.9765283645757356,-0.3537826097421991,-0.0239982472233386,-0.0365572065577569,0.0161733840585343,-0.0054435014244163,0.0046938251949306,-0.8351796561775415,-0.5499297070505846,0.0519537457853818,0.105349672131107,10.499556719069687,0.0627185794017718,0.0152804449829137,0.9943093739982118,6.362381103097213,1.9644505161464485,0.2998613917884431,1173.720407295632,1170.1067389953168,1165.0372354334147,1160.9127493397966,-366.9645485053476,-328.2999362681491,33.50974992940789,195.02617734519828,156.06241949114528
0.1625,-2.1483913757598354,1.1410966836469147,-0.3265236907014146,-0.0279635457733643,-0.0327007351593485,0.0146882064502986,-0.0054558193726348,0.0047651030671311,-0.8352109097151263,-0.5498815499541243,0.0510852845140503,0.0978656302953702,10.493183334681843,0.0625767290740855,0.0153734162848592,0.9960829374368384,6.36229137611305,1.964543626141656,0.3023585443036176,1172.7304764756973,1169.3411667430962,1165.2296138812235,1161.666902369218,-403.5194706867511,-260.2594297118683,164.10647958614376,424.48731748790993,156.05850793814838
0.165,-2.036109509053816,1.2247620897677132,-0.2326185602848668,-0.031518704022383,-0.029017306947772,0.0133060105492422,-0.0054646662561746,0.0048349614520442,-0.8352372429035329,-0.5498409004853049,0.0503346566054366,0.0902037833620841,10.486886952718228,0.0624235831987903,0.0154368528619556,0.9978235104858442,6.362201897243005,1.964633630555364,0.304860721123273,1171.7028099421984,1168.8054418467575,1165.8577678313457,1163.035185927236,-429.18296824623167,-176.87097338257428,401.46368238238176,722.8498294892681,156.05457779923967
0.1675,-1.8814761980649688,1.2580033094474183,-0.0726571307513177,-0.0362540409031577,-0.0253050259162788,0.0125559904878959,-0.0054715459114863,0.0048984172259501,-0.8352562665577905,-0.5498114081574542,0.0496429179757071,0.0825703230416335,10.48071200128623,0.0622591492772413,0.0154817956873159,0.9995317538473676,6.362112652567984,1.964721828536523,0.3073661146260407,1170.584561634466,1168.456811876183,1167.2369322931352,1165.2811515166643,-374.3761699674902,-88.35109489104971,604.6210730919478,904.6543016509978,156.04984105396912
0.17,-1.7105586844757774,1.2558184519999855,0.0714282972385721,-0.0410719166793507,-0.0227069263471029,0.0132713521967178,-0.0054747165493835,0.0049512981468552,-0.835268565622234,-0.549792233648675,0.0488997976447797,0.0751170111422568,10.47470892353078,0.0620786537588858,0.0155142947442131,1.001209799561196,6.362023945863206,1.9648086095834068,0.3098740162165363,1169.8309290923607,1168.3636863723023,1168.8808731968052,1167.5584574354912,-254.16148584185956,-18.49377812272904,723.0893152450784,968.3251933204691,156.04587760531595
0.1725,-1.4638658050779376,1.25130829314692,0.1965840350876073,-0.0465652283930611,-0.020186922311765,0.0148975943274533,-0.0054721013558424,0.0049932573683728,-0.8352742418210807,-0.5497832441185694,0.048029167392659,0.0679201522300384,10.46893101161207,0.0618803367617281,0.0155342003551099,1.002860578145006,6.361936322731585,1.9648944525977583,0.3123843206703946,1169.3137542052568,1168.3643429855697,1170.8523788693608,1170.1227774832666,-171.53683200667714,-8.321976692241142,869.0396822792528,1156.2689493639923,156.0418991765623
0.175,-1.066609950960232,1.2673223544160035,0.3111560570867039,-0.0525042392283888,-0.0172481195079865,0.0166418608812887,-0.0054648887492585,0.0050276806453883,-0.8352737170670596,-0.5497837584438175,0.0470519198998691,0.0610223428316272,10.463431455667052,0.0616713571492011,0.0155389931135476,1.0044871336417003,6.361849447294535,1.9649798531715208,0.3148970826460273,1168.9732449323276,1168.322076488841,1173.2260716082017,1173.3398021823111,-82.73361945266554,-42.377089589399674,809.7814059766771,1169.8760107813596,156.0371106405514
0.1774999999999999,-0.6670949147973392,1.3089608531977313,0.3819554118537305,-0.0557599370248852,-0.0150211861463415,0.0175332145476939,-0.0054583234926175,0.0050599584633844,-0.8352661674402392,-0.5497949322085712,0.0460806842785458,0.054470348756662,10.458261343541686,0.0614671470365793,0.0155277502843403,1.0060923467063727,6.361761965155121,1.9650654452159364,0.3174121070687194,1168.9000861079935,1168.1524575376227,1174.901285899244,1175.9721575371734,3.661157478200056,-111.3951654385806,544.6265623644673,1002.0765834406166,156.03311084371833
0.1799999999999999,-0.2412421083972194,1.3809077864703199,0.4407573064801946,-0.0567480280032472,-0.0126306021864813,0.017910250058265,-0.0054523330380896,0.0050967760918704,-0.8352514703442291,-0.5498168980339676,0.0451494542585424,0.0482187782011529,10.453469179512147,0.0612750987510761,0.0154915465032141,1.0076798255268464,6.361674187861447,1.9651513589338256,0.3199295511921586,1168.9915507197184,1167.765100661648,1175.949204420024,1178.350185099514,52.193518528247246,-194.03069498812312,288.7567812748327,882.0707044872497,156.0291051996219
0.1824999999999999,0.1653117478494899,1.46825309949353,0.496930821317935,-0.0560714709282115,-0.0096468709738583,0.0181748143236064,-0.0054411294729783,0.0051406347060761,-0.8352335597323753,-0.5498437201392467,0.0441455028432444,0.0422207861145916,10.449099897719186,0.0610880908318594,0.0154215464786704,1.0092539128774392,6.3615872614482605,1.9652373561696843,0.3224498598525757,1169.1610537006347,1167.182304062682,1176.3450698056183,1180.3825110596097,68.78128101866417,-270.8220766722204,0.6794047572384437,706.9801246545005,156.02509810512265
0.1849999999999999,0.5053002029915442,1.5531883350899636,0.5478130079090958,-0.0537771169695165,-0.0061059072420855,0.018722874025427,-0.0054198736395791,0.0051913380338261,-0.8352180818400253,-0.5498668834173817,0.0429440321215046,0.0364778180957294,10.445193666812887,0.0608972389177491,0.0153143139308975,1.0108186153102647,6.361501313778764,1.9653231680481569,0.3249734546852072,1169.335457124812,1166.410990278287,1175.95260144381,1181.8850857227867,51.8571616669305,-354.60956940200924,-318.9855142523353,528.8333238943774,156.02109400890356
0.1875,0.8033960915925055,1.6210446755230359,0.5849270289360585,-0.0500045151677064,-0.0017340901377416,0.0198500202337507,-0.0053848070632968,0.0052471508135136,-0.8352102652685144,-0.5498785172963012,0.0414250055061319,0.0310202227560365,10.441785787529248,0.0606933004205002,0.0151703335361583,1.01237740658054,6.361416609536898,1.965408934485236,0.3275008024185087,1169.4203395089692,1165.409256215672,1174.7501422343566,1183.0266776790816,-9.215034460248708,-350.7693517738514,-517.5869374162626,317.8198469006472,156.0162992961905
0.19,0.9575205208663302,1.6247750331331314,0.5749204217570462,-0.0464824669880374,0.0020334206697242,0.021238602577052,-0.0053348230327308,0.0053078831337627,-0.8352107928870183,-0.5498776094641142,0.039537258565088,0.0258708542255343,10.438906602514303,0.0604725365509145,0.0149912052336257,1.013932861077814,6.361332987276104,1.9654947187412948,0.3300324857539926,1169.2893819525107,1164.6571435194176,1173.3646667567289,1183.47418495729,-115.56115588305136,-245.53360703921476,-569.6114029161431,104.58305785750773,156.012317214551
0.1925,1.0357086354461924,1.5425064757591471,0.493953605407961,-0.0431057656917348,0.0062169193716314,0.0231802454456543,-0.0052674802141808,0.0053648596253499,-0.8352213088031928,-0.5498617689455862,0.037115238889233,0.0211748580166326,10.436582874118303,0.0602191274978986,0.0147909895250989,1.0154875720749614,6.361251063987031,1.9655796838898505,0.3325696623707918,1168.842533729554,1164.181588180476,1171.902085219776,1183.549592968369,-286.420632431327,-107.49179782187628,-589.8802878739383,-1.5766623292165591,156.0083550579151
0.195,1.0925452368305808,1.3116863195023996,0.2889916955868833,-0.0401030400416619,0.011689305225397,0.0260176020373563,-0.0051863041388333,0.0054118607114771,-0.8352392211934377,-0.549834946765066,0.0341328789540661,0.0170922872480786,10.4348372039704,0.0599294026359594,0.0145867206343188,1.017042993729011,6.361167982314496,1.9656653981035512,0.3351115095870098,1167.857278790354,1164.1196845303084,1170.4152653173592,1183.4663016456439,-439.1984123392372,78.71418094941866,-459.01622230408026,-18.9696576037022,156.00363025996597
0.1975,1.152835997579224,0.9963662785512412,0.0242742146794355,-0.0386712509034644,0.0160001173888825,0.0283255357110978,-0.0051009507675134,0.0054423748805674,-0.8352635967985534,-0.5497985171393294,0.0306754993734848,0.0138489774612114,10.433688946295316,0.059609600866494,0.0144021445551159,1.0185997125190163,6.361081610808429,1.965752811048072,0.3376571392459623,1166.646541667858,1164.575159085223,1169.6070041082555,1183.4547446803504,-555.0540669966717,289.65549888639515,-203.00992690554247,49.92382702798746,155.99972263723404
0.2,1.268009177865075,0.5602901434946234,-0.3150884302504594,-0.037442302112798,0.0190577116515403,0.0293865584344954,-0.0050209111664188,0.0054557098199158,-0.8352913299712695,-0.5497571000350215,0.0269004928072992,0.0115577812083432,10.4331546297274,0.0592722043300513,0.0142512425290813,1.020158002546547,6.360992852426286,1.965840856639548,0.3402065162625215,1165.0820084553707,1165.5679620247404,1169.4002156828315,1183.7159207807836,-741.7947636498403,542.9697207160184,59.807139742724715,211.06933348555663,155.99585164381224
0.2025,1.4873840803279683,-0.0657747680578038,-0.7474069729381762,-0.0349683816108838,0.020593730644386,0.0278523361629305,-0.0049541201752624,0.0054553156730712,-0.8353198411756088,-0.5497144961388843,0.0229937870425764,0.0102327251747728,10.43324859772019,0.0589322850918974,0.0141392490181373,1.021718040367274,6.360902906949605,1.9659290753796128,0.3427594115346874,1162.9375678496087,1167.2900076888031,1169.9060398069691,1184.5100913477784,-802.9637017797079,698.0469695238747,306.0196409172019,381.96783761572954,155.9912554965826
0.205,1.730598933590645,-0.6328276111094145,-1.0739764093211066,-0.0318428443671403,0.0199112608015983,0.0243919573277183,-0.0049064477390211,0.0054472078222843,-0.8353469154483874,-0.5496739521411651,0.0191425880055092,0.009811171072109,10.433983627756502,0.0586051309790671,0.0140649758828048,1.0232799762322646,6.3608130950271775,1.966017176609578,0.3453151102381817,1161.067189946472,1169.0581968723595,1170.9303138874175,1185.6257599688624,-731.3570618817714,747.3613905683117,516.5914801958475,537.5897402602727,155.9874711260131
0.2075,2.012154766827113,-1.1927074116615133,-1.3118128569861491,-0.0276323450793206,0.0171562068771528,0.0199678480671408,-0.004880803222676,0.005436264111852,-0.8353692731762143,-0.5496403739822856,0.0154768674316474,0.0102083518354256,10.435371657114906,0.0583005646891944,0.0140264494993879,1.024844085516928,6.360725091178487,1.966103567659188,0.347874575907889,1159.2807825401999,1171.0268146416447,1172.4889972079484,1187.1980400490795,-680.0201517254695,799.9367870658754,692.2782744524769,692.6431661125694,155.9837399697936
0.2099999999999999,2.3010120727792924,-1.708471114313057,-1.453691107709524,-0.0224878886678842,0.012716845116941,0.0153087232454386,-0.0048796499177861,0.0054270256544545,-0.835385956375434,-0.5496151486004363,0.0121217041503376,0.0113335304676868,10.437424014737973,0.0580282067144806,0.0140216747515225,1.0264103646256997,6.360639439209647,1.9661868023742957,0.350438323974537,1157.6670891878448,1173.0578808076891,1174.3917052596798,1189.0889757994253,-589.900382971703,804.9293967148552,815.2917779352302,809.8866518212654,155.9800569983976
0.2124999999999999,2.567313226362259,-2.136840512505009,-1.4750333015247015,-0.0163171554429551,0.006646340049692,0.0106850239440465,-0.0049031394816257,0.0054259228668265,-0.8353976129109453,-0.5495972262563663,0.0091898208342495,0.0130305852758808,10.440151477799132,0.0577963907469493,0.0140427052645026,1.0279786605043364,6.360556981002563,1.9662671551245807,0.3530063476860035,1156.3312806253412,1175.0514616252187,1176.5654560976243,1191.247473308186,-520.2119762976504,843.0216933451894,977.4428022180919,973.1930035676659,155.97643670459087
0.2149999999999999,2.824494331576493,-2.5303338531409887,-1.378894595192484,-0.0079891342109287,-0.0015308843722655,0.0059949281128567,-0.0049508238992065,0.0054394995287164,-0.8354059703404271,-0.5495839229870582,0.0067907195083227,0.0151296162163816,10.443564387771907,0.0576125909100828,0.014080472826539,1.0295486115607575,6.360478580590906,1.9663458679117929,0.3555791631226258,1155.0660293063563,1177.272989274415,1179.2789192707703,1193.9549408172636,-412.36612687280245,771.2565469277699,979.2125074533933,980.050376718872,155.97217031040054
0.2174999999999999,2.9663527741009026,-2.762395580803588,-1.221504022979547,-0.0003559583245023,-0.0084888032881929,0.0032235067829621,-0.0050198806204462,0.0054713586441753,-0.8354125406904633,-0.5495729342199748,0.0049644071111302,0.0174809293654825,10.447672491839327,0.0574764031089072,0.0141279061949296,1.0311200768677766,6.3604037812887775,1.9664239397626728,0.3581575533632354,1154.2694499909771,1178.9077443598578,1181.4615186348915,1196.1477251917804,-272.0991567614417,597.6939620061324,814.5921935401923,825.1890561113206,155.9686836751118
0.22,3.0190606446663786,-2.9163089351985527,-1.0137492962548031,0.0076773472904094,-0.015049681940068,0.0014143657438124,-0.0051061429234732,0.0055169987415763,-0.835417472225843,-0.5495641179567281,0.0036396794443041,0.0200583995373254,10.452484462018,0.0573750545608699,0.0141897750965741,1.0326934184755907,6.360332239289962,1.96650181872324,0.3607420203305832,1153.705533522549,1180.2614590844455,1183.3518802384713,1198.0808860978202,-195.7171102294522,526.4331802638021,714.7035196612699,754.4833046822071,155.96527247036894
0.2225,2.9802130337433304,-3.0399140426143294,-0.7283563960872093,0.0168294637218592,-0.0225125729552384,-0.0003900973850316,-0.0052096444507633,0.00556835000926,-0.8354191372718713,-0.5495600277601695,0.0027824537544986,0.0229459239965698,10.4580066273672,0.0572978972268536,0.0142808510953571,1.034268981409648,6.360261826215769,1.9665806214057753,0.3633322548835206,1153.29086443983,1181.5399102611768,1185.0350362331978,1199.9201417151914,-101.72561367921836,412.6685638015712,486.3569119992912,578.7294650116104,155.96127063642052
0.225,2.872960366184494,-3.105323449374763,-0.4665296609214633,0.0238088262541188,-0.0288695568518567,-0.0018951295597404,-0.0053332929117422,0.005611773717551,-0.8354178643006671,-0.54956027088064,0.0023490225044079,0.0263603398127907,10.464241693289605,0.0572321424888673,0.0144269437337369,1.0358476039891615,6.3601892985510045,1.9666611740029047,0.3659274240441515,1153.1969054541532,1182.3248019034536,1185.7836647984675,1200.9745334228783,30.93571825120304,260.83146119399294,134.21319622484577,316.9786866843421,155.9580150923464
0.2275,2.7039015605730645,-3.13191334810284,-0.1825488842668073,0.0304138037051096,-0.0358277406369557,-0.0032902533993765,-0.0054748830101285,0.0056359863135235,-0.8354142154009758,-0.549564125130583,0.0022365361876535,0.030422809375113,10.471186900996099,0.0571582835674668,0.0146424362179848,1.037431400682946,6.360112166654982,1.9667429079746217,0.3685269568022494,1153.445543031086,1182.8440675671468,1185.706102214322,1201.5050351486132,211.76363378085605,174.64899734495688,-234.56799865161864,116.9073382206533,155.95484515649065
0.23,2.4477298083371286,-3.1039933078386204,0.1733565346091606,0.037853926144893,-0.0449529132938051,-0.004314375003297,-0.0056264574212865,0.0056342427768567,-0.835410706736368,-0.5495679085642986,0.0022953811828399,0.0351149628096389,10.478832590669844,0.0570520673151705,0.014925716304089,1.039023848980484,6.36002970379108,1.9668252957663248,0.3711302155148548,1154.2557236230575,1183.1980468901784,1184.6108248052096,1201.5590701139815,396.6872897178743,90.38175422988381,-552.225575746706,-70.98966624594135,155.951143685636
0.2325,2.203325892148176,-3.0177327117346926,0.4643379483869016,0.0434131950501947,-0.0528935969853165,-0.0039082562689514,-0.0057817845964949,0.0056046295158863,-0.8354104003696465,-0.5495670460884235,0.002461436259642,0.0403600297820346,10.487160907674484,0.0568982970047645,0.0152679622221792,1.0406289479563275,6.359941252111361,1.96690808588006,0.3737361376578906,1155.4289794796755,1183.2959763382962,1182.9449743355883,1201.1500868173835,580.85431901768,3.527975584620432,-774.7439379034852,-249.31375639675912,155.94814684109852
0.235,1.9433791487801868,-2.857200381488133,0.7180651096228156,0.0485037413813759,-0.0607311787628371,-0.0015551596469057,-0.0059331260270422,0.0055452912936367,-0.8354163233290107,-0.5495570349155541,0.0026421301103791,0.0460689882550799,10.496144716830951,0.0566803258265484,0.0156585396258649,1.0422516298316893,6.35984782733542,1.9669900949058603,0.3763439502366766,1157.159995218146,1183.2156867681015,1180.7371051156922,1200.3125013319975,780.517616098131,-59.50576438913225,-922.0891662510433,-398.3641613718188,155.94524360608068
0.2375,1.683831297421858,-2.6375525090054137,0.920263593772113,0.0531990139610193,-0.0680070944908036,0.0018274825447748,-0.0060738868162682,0.0054639365856614,-0.8354284975352829,-0.5495378273188452,0.0028694548728565,0.0520028104810456,10.505746729003723,0.056395829127825,0.0160726782405531,1.0438968678728608,6.359751939938479,1.9670703802638876,0.3789541864552641,1159.331567560166,1182.9984475163503,1178.334528504333,1199.1582660105244,952.9788125221827,-120.55753363106362,-942.1404151214164,-524.8485656201435,155.94241975459678
0.2399999999999999,1.4447882097835572,-2.3611936578042534,1.0528663558240114,0.0571263789841557,-0.0740416343098448,0.0050963217757113,-0.0062030764737949,0.0053730660377127,-0.8354453146757381,-0.5495117476224465,0.0033206148610366,0.0579061741053388,10.515919095405664,0.0560594936750333,0.0164851132308425,1.045569100543519,6.35965580963945,1.9671476757532131,0.3815674680658097,1161.9248892807568,1182.612899099946,1176.0264030400851,1197.688258503897,1188.7281354546355,-212.9563215982681,-923.5974171230323,-696.8995625937201,155.9396935741405
0.2424999999999999,1.2129635125520415,-1.9899423959593208,1.1441096530404833,0.0606561215807439,-0.0798949791628697,0.0082632420742268,-0.0063228476063968,0.0052870405332836,-0.8354666281553322,-0.5494788491659494,0.0042388394716166,0.0635294515112156,10.526603324424004,0.0556955794404066,0.0168721313430547,1.0472723999574312,6.359560602225956,1.9672212715027029,0.3841831171797313,1165.2752082374393,1181.9336659083592,1173.716541418718,1195.6737681975555,1220.3527682911488,-287.892397437781,-740.6837832812009,-761.6068634549712,155.93653737099322
0.2449999999999999,1.088676558831296,-1.6648896662531063,1.1790356280497585,0.0622976147529955,-0.0840912426799015,0.0105815738731034,-0.0064428096434016,0.0052155147461405,-0.8354929049853446,-0.5494382126411265,0.0059310531605066,0.0687919542241987,10.537730059312391,0.0553376305695557,0.0172283231128253,1.0490099876884216,6.359467901571397,1.9672914192200637,0.386801700006852,1168.0266531222123,1181.1734371127573,1172.3229841236791,1193.880224186622,1032.3448301898216,-340.4561856056259,-443.5688508046947,-721.8402685630275,155.93400474484977
0.2474999999999999,1.0523055466198863,-1.3397896343146458,1.1858347706919927,0.0627303573895689,-0.0875850582475256,0.0128969230803861,-0.0065684865230281,0.0051652217639185,-0.8355235770153844,-0.5493905702786948,0.0085832156430905,0.073615027930203,10.549220103079648,0.0550098069830444,0.0175504603936812,1.0507852117980458,6.3593794850991605,1.9673576883349393,0.3894235804870337,1170.4369323883884,1180.231384980331,1171.4986971646947,1192.0645668547406,925.8680265093965,-436.3098066006383,-262.6394960394007,-790.2081974994863,155.93157520225947
0.25,1.0953967126176707,-0.9657512018657733,1.1683301966711572,0.0632588579105949,-0.0907515047326324,0.0160022221986025,-0.0066999579560639,0.0051378857814177,-0.8355582463048264,-0.5493365095014145,0.0122102541121986,0.0779417857353861,10.560985747956932,0.0547215475292623,0.0178390946396338,1.052601538833966,6.359296393825023,1.9674209219241412,0.3920485034573465,1172.6559932547596,1178.991888079754,1171.009786643482,1189.9291831991247,679.7406388672238,-448.24908671325784,-133.0934459281251,-770.5058088012257,155.9287818714058
0.2525,1.1628822845990952,-0.6780851032102558,1.1321313750717998,0.0651478959876984,-0.0925733009444677,0.0190022999118008,-0.0068367205971985,0.0051331106472501,-0.8355976755915848,-0.549274883080603,0.0167741999862794,0.0817417760043508,10.572932471403991,0.054478866517768,0.0180984445401748,1.0544616936727265,6.359218902170185,1.9674828329137737,0.3946759273300715,1173.8356355827243,1177.9901395467648,1170.833229935054,1188.2120378107345,335.81917334149665,-361.0130179259155,-67.94512849210145,-667.8694218882805,155.92655892114396
0.255,1.19030807253426,-0.4257953943492395,1.0733624349062352,0.0692600654473803,-0.0936472582518945,0.0219621706202146,-0.0069785110410833,0.0051452816810182,-0.8356389927007772,-0.5492101177244983,0.0221618710854149,0.0850738395478437,10.584960956378977,0.0542814048109577,0.0183429854812659,1.0563674017916247,6.359146157614266,1.9675434980813904,0.3973073049049796,1174.335089121467,1177.1868229901245,1170.6700610010216,1186.589836089683,100.84549558687276,-275.03712558395796,-103.86449446032192,-678.8905489619987,155.92444955633442
0.2575,1.097962145209988,-0.1721080311792645,0.9825548705677029,0.0754784192726879,-0.0941850415828017,0.0248733525325989,-0.007125703519454,0.0051637698053904,-0.8356789118186231,-0.5491473105942813,0.028195486141413,0.0880889319272008,10.596969582528484,0.0541232100837639,0.0185964238005156,1.0583191385583883,6.359076453671018,1.9676025612718584,0.3999448292180116,1174.339863060659,1176.614953918845,1170.3139074627525,1184.8175850659245,-52.441206689718406,-129.88096466515333,-164.79138545005284,-607.0832792497635,155.92205661835993
0.26,0.8855114922300134,-0.0043181137746096,0.8963271294394833,0.0802713305280054,-0.0940903913258487,0.0267452858665146,-0.0072754778784812,0.0051806745914078,-0.8357137400369168,-0.5490921971430789,0.0346565059003002,0.0908498273712496,10.608857929940024,0.0539946702008956,0.0188730945542282,1.0603163644060605,6.359008162095972,1.9676600346009272,0.4025891769679396,1174.0728830880184,1176.5374181667987,1169.8461040737711,1183.5544196934345,-100.23024974288992,55.688338494610385,-210.4766714624018,-444.3606914185689,155.92018380881203
0.2625,0.5359553604093991,0.1197219283394688,0.8033164374993766,0.0833278191318126,-0.0935909768259553,0.0283433815597753,-0.0074201651910267,0.0051888909816512,-0.8357411706193362,-0.5490484609623341,0.0412363802873171,0.093347679231598,10.620529738180842,0.053877225671182,0.0191788296141824,1.0623579965314631,6.358940273902504,1.9677155252860163,0.4052404126286591,1173.8387118119444,1176.893395611318,1169.2615241054405,1182.5957816088317,-42.540989106828384,208.40192485534297,-232.48940561225007,-325.2193413373331,155.91844528357527
0.265,0.099852649779057,0.2127195013754186,0.7028462303538232,0.084612207681054,-0.0928430083679738,0.0298577816791253,-0.0075545478326767,0.0051880656071592,-0.8357587469335523,-0.5490199167596631,0.0477381264892302,0.0954827359523381,10.631894715253871,0.0537630000566703,0.0195089896191305,1.0644417256530603,6.35887176863818,1.9677691082355255,0.4078980910369053,1173.8601781424843,1177.5794277910754,1168.68365704571,1181.9283229867478,113.68018681528144,340.91554040855925,-197.77884340810473,-197.66502343927624,155.91682522747897
0.2675,-0.3935675369816692,0.2798914203743161,0.5858062767887091,0.0839569422579504,-0.0920310496683896,0.0313720851840845,-0.0076805064426055,0.0051837503729084,-0.8357673871370684,-0.5490050866190134,0.054153870159883,0.0971360780178566,10.642869453681564,0.0536623759193247,0.0198548268822885,1.0665637841579911,6.3588015359345835,1.967821918886444,0.4105622248660584,1174.4071127460209,1178.5979733133609,1168.2726298884,1181.6074564916353,392.9766187258789,506.799509474376,-102.31582306219016,-75.87387287780977,155.9153573404128
0.27,-0.99020532712038,0.3509573280060532,0.4138725513398712,0.0812930305211616,-0.0912805797719635,0.0333053415770223,-0.0078011667353943,0.0051804541239194,-0.835769741884295,-0.5489998516818221,0.0604834344370099,0.0982267314887563,10.653379286660355,0.0535855155232487,0.0202094705150805,1.0687199812234311,6.358728561440484,1.9678749110864793,0.4132323147309238,1175.8250612361137,1180.113425338447,1168.1720779303992,1181.5489536223588,647.3781059579773,591.9898620240923,51.40868333801332,15.627547277063044,155.91378319364003
0.2725,-1.452088720429894,0.4176133156016226,0.2382215740480439,0.0776825833981781,-0.090865560121792,0.0349285707021029,-0.0079164756920163,0.0051815761074365,-0.8357680481440518,-0.5490007818592763,0.0666575784640022,0.0986633174491183,10.663360266129638,0.053534455750771,0.0205634809019052,1.0709063198101807,6.3586524123925,1.9679287254483373,0.4159075016155987,1177.6440032758107,1181.557922623481,1168.52967330509,1181.6855942280204,833.8945387913545,598.9477699607045,249.3972292616488,72.1150949037564,155.9126347411663
0.275,-1.841868717227668,0.5050498449479222,0.0320327160560001,0.0729086079634794,-0.0905154173203814,0.0360629865679454,-0.0080262869096668,0.0051896217687275,-0.835762211195269,-0.549008008237276,0.0725978975805699,0.0983784680004411,10.672759557344214,0.0535090489043937,0.020908669135081,1.0731186628862572,6.358573961957335,1.9679835633877147,0.4185876154009289,1179.9945339300705,1183.1081641882508,1169.4190640767074,1181.9095290968776,1098.7839268613689,678.6515803480592,513.6016010297221,103.56451111933885,155.91166311471906
0.2775,-2.2015071615559263,0.6358927219464348,-0.2298058240134106,0.0665675660164946,-0.0898422990308549,0.0361646391159169,-0.0081262864833275,0.0052041912252213,-0.8357545260161207,-0.5490181114935293,0.0781242197801518,0.0973195930339097,10.681536641896543,0.0534980007009997,0.0212364052348097,1.075353165970634,6.358494509138383,1.9680392292090945,0.4212728836262735,1183.1379229101176,1184.9511805252216,1171.0976813102386,1182.2034167836173,1152.337534545676,644.1718580054834,706.2354273250996,111.2665608442966,155.91070834733017
0.28,-2.4018506451262414,0.7569159413664382,-0.4366975348691305,0.0610919334872994,-0.0887799797287537,0.0350901049843355,-0.0082122218677798,0.0052244911381965,-0.8357503799813085,-0.5490229676323978,0.0830617214090387,0.0954551803507055,10.689662612970459,0.0534897459835241,0.0215380831040573,1.0776056699210352,6.358414952328715,1.9680949577262272,0.4239643766886826,1185.7562216027989,1186.3290234782783,1172.950241213333,1182.465861901099,980.1485636809039,478.03344356807384,811.7163083993539,120.26530692278344,155.91009250477683
0.2825,-2.4918302565676065,0.8673771169076303,-0.6038873111913642,0.0552357579393372,-0.0868769601807802,0.0331935394830679,-0.0082850180859991,0.0052532905483797,-0.8357535868989971,-0.5490167372646177,0.0873798729953263,0.0927651035061423,10.697118476725619,0.0534862127685719,0.0218047621215213,1.0798710491433898,6.358335208053944,1.9681495891000949,0.4266627505228209,1188.038665728522,1187.341347743062,1175.1562628522352,1182.8047433182312,859.4375020148609,321.21350078346006,1015.3389831092215,189.19271598811048,155.90966650913907
0.285,-2.4639914059826564,0.9545513578422126,-0.7359564085048035,0.0477445504550261,-0.0834908952834538,0.0305497689672294,-0.0083469907424149,0.0052927068184907,-0.8357656825462247,-0.5489970350021804,0.0910771526125929,0.0892725086813403,10.703894742885844,0.0534910599491287,0.0220303641808833,1.082143882553677,6.358256165497261,1.968202067863072,0.4293697170856463,1190.0534091128732,1187.9350909821956,1178.026936128879,1183.4118254810396,583.5946992134717,101.57684083833364,1059.4786658876264,270.2769224610163,155.90937686708065
0.2875,-2.3238589022019114,0.9694225791261508,-0.7809643858754503,0.0414165072099806,-0.0800387619381606,0.028190405696628,-0.0084007840161385,0.0053382135888139,-0.8357826244306741,-0.5489700164787576,0.0940925145559189,0.0851391267499681,10.709990361288853,0.0535002064063216,0.0222217938111528,1.0844190249339503,6.358177338653562,1.9682520001935488,0.4320858448116857,1190.9566392245895,1187.8492319472537,1180.4536561816735,1184.1561279305363,183.15359519265445,-142.03738354799643,944.424112055604,352.24489222592086,155.9093205614602
0.2899999999999999,-2.0654970315837655,0.9156265205690166,-0.7586311296563998,0.0352994287304534,-0.0767540130496278,0.0257563277802533,-0.008452488079832,0.0053850406365573,-0.8358001532148455,-0.5489421151857147,0.0964386878590727,0.0805877196105978,10.715410133749616,0.053515229167954,0.0223903247350829,1.0866915849762524,6.358097340571588,1.96829992747262,0.4348114556127386,1190.9691770888364,1187.2249040644556,1182.7490566891568,1185.1730499421692,-135.2746767483509,-309.152839738957,879.3627457419096,443.6781247362933,155.90945577397832
0.2924999999999999,-1.7205477066339303,0.8122440228983803,-0.6877607484259495,0.029859454542883,-0.0739961778267797,0.0234702670198402,-0.0085068004110005,0.0054305174661112,-0.8358172616597517,-0.5489148136523461,0.0981445637276824,0.0758022634292879,10.720163261399092,0.0535375123945047,0.0225411920263846,1.0889579779935987,6.358014721373748,1.9683465248123235,0.4375457870253019,1190.2802658408475,1186.303467748559,1184.850469910383,1186.3745185542175,-412.3191317565212,-388.2678959068013,788.8931639994091,502.4510002562688,155.90974869225354
0.2949999999999999,-1.2983067283313923,0.6710178594347367,-0.5758000778090901,0.0260402438449215,-0.0720039602201053,0.0217306898617939,-0.0085646512590873,0.0054694070399502,-0.835833861183581,-0.548888278174471,0.099157635025725,0.0709817646281137,10.724261307069195,0.0535580954754512,0.022679874719462,1.0912168026208047,6.357928399409272,1.9683920746471368,0.4402864911829087,1188.9075814300538,1185.2835645849216,1186.693522509154,1187.6853049434503,-698.0955821730726,-402.7169603005856,765.6962603153254,565.0908053996313,155.91022963663477
0.2974999999999999,-0.7475650827432486,0.4944995609448599,-0.4237348875913121,0.0234827810775271,-0.0705704103083081,0.0204455770924566,-0.0086286291150436,0.0054972968258695,-0.8358503251209932,-0.5488619383182514,0.0994810609868396,0.0663410292532212,10.727714044643086,0.0535716247621959,0.0228129196133362,1.0934684213901522,6.357838314908546,1.96843732035308,0.4430311812912707,1186.7897879299824,1184.289882947056,1188.6789512119597,1189.199972581216,-801.0190112202956,-288.2655820598754,710.837980177984,519.6156217516541,155.91102035044597
0.2999999999999999,-0.2844550079862883,0.3685779392364652,-0.3047879677043521,0.0225754057325478,-0.0700501830641363,0.0199761499774204,-0.0087012486083936,0.0055111751593142,-0.835867576613863,-0.5488343751995391,0.099149094274677,0.0620769393470545,10.730527055195507,0.0535741277052627,0.0229452899848543,1.0957150707494792,6.3577451820569095,1.96848325860749,0.4457775756938202,1184.9024863739523,1183.842236674622,1190.247712410044,1190.2833830522088,-720.0897754235024,-83.45824748012083,634.3734343525733,371.7291290761292,155.91185375698888
0.3024999999999999,0.1500694225610225,0.2908222425728426,-0.2162196170202695,0.0225505284136633,-0.069985279956908,0.0199720103218313,-0.0087847531497166,0.005509259010788,-0.8358852868546885,-0.5488060695386605,0.098220535529002,0.0583655718190647,10.732699492437824,0.0535626139236184,0.0230811131733109,1.097960458593083,6.357650028421142,1.9685311553695068,0.4485240943102787,1183.1893390528649,1183.8725917096551,1191.8508183837223,1191.0586182265963,-662.1927051019151,103.0451661825281,725.9389281597117,251.26668328125535,155.91286320980652
0.3049999999999999,0.6051815202269604,0.2705688252727396,-0.1601329799676699,0.0237677468079024,-0.07012554921097,0.0203080123609522,-0.0088816333603662,0.0054928385459909,-0.8359020322908061,-0.5487791352658364,0.096808525390872,0.0553311286872835,10.734222278507,0.0535386815443369,0.0232211134892038,1.1002089523452865,6.357553664240041,1.9685813948185251,0.4512706284952288,1181.5915228484428,1184.3574625055348,1193.8774070508423,1191.539716468615,-489.5487747791317,217.01137042127792,751.2163047166716,94.2694803388803,155.91427110262936
0.3074999999999999,0.9062143568787562,0.3167929554753357,-0.1568575543541259,0.0259369770221886,-0.0701978457543218,0.0207257852953747,-0.0089920672515777,0.0054645963798574,-0.8359157042357883,-0.5487567531912365,0.0950130238083507,0.0530416099309498,10.735078082890052,0.0535022844152573,0.0233625900660477,1.102465064257634,6.357457412462537,1.968633008038832,0.4540181246754784,1180.7415951789692,1184.9576485617615,1195.606899907306,1191.5299656282907,-236.8392887718526,228.9758987170442,666.8801443444403,-88.95710032807065,155.91560233617247
0.3099999999999999,1.102788765104961,0.418319896243243,-0.1879301452914306,0.0291310618494086,-0.0699400295690884,0.0210715203996318,-0.0091176494274666,0.0054288599615079,-0.8359246003483772,-0.5487414457462118,0.0929884731665554,0.0515439776053105,10.735240964651094,0.0534593348386197,0.0235032069903924,1.104732236161154,6.357363444581808,1.9686841616414723,0.4567688411126731,1180.4073264045835,1185.50234199912,1197.2118077725647,1191.0949309669747,-57.84318882342627,173.27114345207505,585.0309605224533,-235.89292753936184,155.9170899723074
0.3125,1.2023272944399535,0.5493106762064232,-0.2296675963783942,0.0329887507750054,-0.0691827338699597,0.0211281398070399,-0.0092541958540936,0.0053896365373755,-0.8359278873309314,-0.5487345085395386,0.0907889162034873,0.0508106851242227,10.734679149601796,0.0534061572193142,0.0236356203375044,1.1070131567773016,6.357273676555887,1.9687338716330671,0.459524575866642,1180.452379234852,1185.824004279022,1198.532054709918,1190.350500990594,89.6575039983417,45.65148384508571,415.42153034138175,-351.1716289091052,155.9187012694629
0.315,1.1864807500866243,0.688523092247061,-0.2529350865969585,0.0370010942938922,-0.0675685547379121,0.0204356372390009,-0.0093945101032437,0.0053514573369724,-0.8359251907785261,-0.5487365854338031,0.0884249544727006,0.0507536237227893,10.733356444966162,0.0533352982125648,0.0237489087053212,1.1093091669003867,6.357188529722662,1.9687822300176048,0.4622862806799812,1180.8556139245752,1185.7305994183455,1199.2889154242716,1189.3390728224292,231.72862584788143,-151.2929406917918,164.56486500815103,-470.2773514152792,155.92045395509578
0.3175,1.058056536731026,0.828170452354753,-0.2158613511573193,0.0406322213860563,-0.064481920763704,0.0182736522464235,-0.0095298646998419,0.0053183661163598,-0.8359163153266387,-0.5487480810986057,0.0858759669039556,0.0512568862600842,10.731234645855288,0.0532366391491339,0.0238317776596883,1.1116200538591747,6.357107076032995,1.968829122158808,0.4650541407128551,1181.6110223640915,1185.0675395755632,1199.354879034959,1187.9991142335175,303.15635821225413,-327.00775119005783,-122.8011653095108,-483.9479289786591,155.92271009554076
0.32,0.8877707955340156,0.9010945563003016,-0.1085109025304146,0.0421732897928043,-0.061144192600119,0.0156652972019809,-0.0096564543053986,0.0052934208434851,-0.8359007355446924,-0.5487698299273195,0.0831978095972173,0.0522595800132231,10.728275383004112,0.0531084111379694,0.0238809976213722,1.1139433691336316,6.357027986857027,1.9688749097400111,0.467829393522583,1182.3713957156365,1184.0955606623952,1198.674909597724,1186.919333177536,313.02441216780574,-446.061824546086,-407.1638722139593,-393.87913880696,155.92470955081467
0.3225,0.6810287352213416,0.9214973869697932,0.0760168180657266,0.0426719998406936,-0.057830885934449,0.0137552026830396,-0.0097749972912266,0.0052784739813592,-0.835879624038651,-0.5488000156456211,0.0805110554780475,0.0537539166386197,10.724443148431295,0.0529561991017163,0.0239007946604332,1.1162746616976686,6.356951353171628,1.96891962309534,0.4706144457311158,1183.1761444249305,1182.8372304528327,1197.3190596738891,1186.0297185394827,347.97955069411694,-566.1520049994574,-710.8951845658787,-322.7574216231912,155.92682273445712
0.325,0.4020768263821697,0.9019743766287712,0.3414575860088154,0.0432277361359519,-0.0548113039613576,0.0138322387247771,-0.0098888217226322,0.0052740206634975,-0.8358561688447779,-0.548833722146824,0.0779631088063559,0.0557649270953606,10.719708265613152,0.0527891122039292,0.0239006105815067,1.1186081290803032,6.356876391737052,1.9689631167838089,0.4734096262057074,1184.111293469107,1181.264800637398,1195.1204336748947,1185.30554606942,327.75933767670693,-542.8854507843421,-865.480588546233,-200.92150355667383,155.92947764848196
0.3275,0.1365906605205887,0.8715580822449237,0.5501784315389173,0.0443088326391789,-0.0531038219025545,0.0158984673109965,-0.0099973329170276,0.0052766290968734,-0.8358339985921756,-0.5488654713578353,0.0755794970716516,0.0583196496489297,10.714050217808865,0.0526041500940196,0.0238920406781029,1.120938012300539,6.356802480499376,1.9690051142770204,0.4762134332404378,1184.814941113314,1180.122803198911,1192.991656731158,1185.0251110216996,255.92028780065425,-376.3041414252253,-873.0777254625982,-52.27278820066199,155.93177997386294
0.33,-0.1755224917065063,0.8526224663242638,0.6926424848896532,0.0459285130521463,-0.0518276662837267,0.019483079344363,-0.0100976418187612,0.0052831034126963,-0.8358159025215222,-0.5488911061025341,0.0733411753390929,0.0613924181044211,10.707458671637019,0.0523940688636607,0.0238831705802134,1.1232588552075626,6.3567295153621055,1.9690462505866817,0.479023873140527,1185.3908949081103,1179.3832799302716,1190.7550450475817,1185.0441821284167,216.619192869666,-204.4269189835175,-972.5330670138183,48.16835948354306,155.93416482254776
0.3325,-0.5962958823792655,0.8610403349352642,0.7578388582571984,0.0469440570402149,-0.0504697950802461,0.0239111997326793,-0.010184115040275,0.0052905301254515,-0.8358052320763305,-0.548905662104081,0.0711764170915513,0.0649006423451525,10.699934651999145,0.0521466297495229,0.0238776694917803,1.1255658241734092,6.356657417581141,1.9690875575454148,0.4818388301582208,1185.8980370776624,1179.1006686039934,1188.1289913960888,1185.2659528191173,153.7138915656213,-5.388134408940455,-933.9451669499786,81.94017136611357,155.9371108490013
0.335,-0.9553761422793552,0.8951389688867971,0.7313873395548066,0.045789113789547,-0.0491912332735997,0.026273578287157,-0.0102548503492083,0.0053007261112578,-0.835803395742937,-0.5489070177099216,0.0691282607645471,0.0687033590334697,10.69149000297215,0.0518621437340231,0.0238746667652037,1.1278538738359347,6.356586649363231,1.9691297212374976,0.484657476866183,1186.1594643659384,1179.356339258227,1186.0853192128316,1185.4538829852472,73.60250095812255,175.3501983749173,-771.2435394080323,33.359729947142085,155.93962884151435
0.3375,-1.2669204436724888,0.9443280164415168,0.6512159195644462,0.0423927464838736,-0.0473446053809623,0.0271478008121936,-0.0103114552719212,0.0053154694773962,-0.8358127741995863,-0.5488915074073673,0.0672937619595257,0.07268736210779,10.682147846137363,0.0515476589258489,0.0238768757317799,1.130117649200432,6.356518746616869,1.9691717284601375,0.487481325126736,1186.2660495824528,1179.977419595868,1184.2727736990487,1185.4327514688528,21.179593982287752,274.74183989570497,-678.1558691848198,-68.52617913377793,155.9422047369291
0.34,-1.496289144952882,0.9886896922184756,0.5487759795230627,0.0376296577932236,-0.0447984404135273,0.0276449468813659,-0.0103589537455731,0.0053358596451885,-0.835833058455621,-0.5488595023875036,0.0658138349559306,0.0767801601253672,10.671942235597788,0.0512158380914751,0.0238919581782416,1.1323513536488374,6.356454876950476,1.9692126519782611,0.4903120197966668,1186.2653623358499,1180.7300484577056,1182.6945398669077,1185.1112520895783,-19.7074575449278,288.3403692935187,-568.6235038339869,-213.0049492297983,155.94482391943583
0.3425,-1.591525792581424,1.0056319210629154,0.4337816054981511,0.0317850993057738,-0.0414744125290717,0.0283471835226666,-0.0104012617337759,0.0053562743859158,-0.8358653327572376,-0.548809334910187,0.0647214783379647,0.0810090734249983,10.660918027423786,0.0508691414839042,0.0239374044957528,1.1345494171000443,6.356395592569454,1.9692523592239857,0.4931510230771662,1186.1675122947283,1181.4191214423356,1181.4296561798787,1184.367726722704,-58.02514821411928,241.9111431735471,-483.74329347793673,-408.840826131927,155.94749058751898
0.345,-1.5418105427446724,0.9788672787538066,0.2865257995587912,0.024587784628168,-0.0373978587221912,0.0295049077957744,-0.0104445292014324,0.0053672342986001,-0.8359075907218853,-0.5487440365029344,0.0640346195106358,0.0854920824755131,10.64912875758829,0.0505090880675132,0.0240394782123758,1.1367063683055838,6.356338382832082,1.9692905644666308,0.4959986240361687,1185.9752365947793,1181.9396041735731,1180.275823399518,1183.0670479589187,-79.72289087570054,120.36760342521109,-368.8127639391947,-512.6804185630131,155.9507406678254
0.3475,-1.3882089679092215,0.9200911157899933,0.1573597858512071,0.0194012496449925,-0.0346406838006875,0.0305132164481298,-0.0104889169140162,0.0053647280534963,-0.8359544506326096,-0.5486718360661541,0.0637184283152192,0.0901795885692366,10.636636191189712,0.0501320514538307,0.0242049180547032,1.13881802829173,6.356280018497607,1.96932695196819,0.4988535475191393,1185.7688978403498,1182.0209594594617,1179.5855923601828,1181.8043246298887,-91.36635496561203,-41.52450524334196,-234.7874086464797,-490.9650723714999,155.95348817349918
0.35,-1.180052920438171,0.8395541201854843,0.0276699934346976,0.0161379668751881,-0.0326907794534473,0.0308605185521299,-0.0105348820240686,0.0053519448074812,-0.8359984336726634,-0.5486040799146952,0.0638172953178949,0.0949023275951388,10.62350745939256,0.049743422942089,0.0244251385163855,1.1408811791121418,6.356217568244079,1.96936207126766,0.5017146951645975,1185.5184048199512,1181.7319816473566,1179.1018863562856,1180.6122225970612,-121.58993608204706,-186.323947492294,-188.30119315271267,-454.7887076214057,155.9562739271236
0.3524999999999999,-0.9584789939837374,0.7402485928774094,-0.115319556068901,0.01494509528355,-0.0307534794097506,0.0301243449454396,-0.0105819568239038,0.0053324791925886,-0.8360355703532246,-0.5485467828400427,0.0643542693987475,0.0994834288853152,10.609812957832704,0.0493474309518851,0.0246872232083909,1.14289404591992,6.356149728363239,1.9693962823979796,0.5045810398390788,1185.1609481599396,1181.0893397220002,1178.6440863944192,1179.530381091782,-140.78848997874192,-253.3008429596092,-164.39862591346522,-316.73378748301144,155.95965877681584
0.3549999999999999,-0.8544037090300559,0.6688407704497549,-0.2170213166115386,0.0154038602984715,-0.0292048330615997,0.0290625121666357,-0.0106272415457252,0.0053097266147365,-0.8360644718829349,-0.5485020807033172,0.0652975260805373,0.103734684991362,10.595624086864255,0.0489437278175028,0.0249739952118289,1.1448565623940183,6.356075908683925,1.9694294109398371,0.5074521453827623,1184.8144623700575,1180.4654774325586,1178.2798932267183,1179.028553659646,-146.52447223525073,-227.05785135913155,-156.82368660654888,-119.31261094164246,155.96251294377439
0.3574999999999999,-0.8667461133296509,0.6219801534009303,-0.3023546405085526,0.0158003036765406,-0.0276886121179587,0.0281569540339768,-0.0106713895456083,0.0052888942187233,-0.8360861413169446,-0.5484683817864526,0.0666901266890017,0.1074927510734717,10.58100969790361,0.0485417359330263,0.0252685147676523,1.1467696858950922,6.3559963415375,1.969459998768072,0.5103275976704279,1184.4283257987631,1179.9540504652043,1177.8599679613865,1178.9338180370737,-173.72605995092255,-162.74001226811365,-202.1103447880249,19.991826921841476,155.96540023209786
0.3599999999999999,-1.0009396100577739,0.6072801981974673,-0.3977688958680094,0.014938127212323,-0.0260379347925009,0.0273717524308237,-0.0107171548954427,0.0052758012595638,-0.8361033713143177,-0.5484413250680616,0.0686099439770814,0.1106243979016343,10.566033966235066,0.0481566538668424,0.0255555129141116,1.1486355067837417,6.355913604930353,1.9694867753493592,0.5132057985030902,1183.945832070303,1179.651777371218,1177.269341502778,1179.1285127942551,-176.9744615947273,-47.892784652913136,-224.32469905515953,87.52797329912019,155.96890161049947
0.3624999999999999,-1.17344155935252,0.6386273623238455,-0.4808204532190863,0.0126796064522281,-0.0249356860004219,0.0267218369225296,-0.0107659663266493,0.0052747957235186,-0.8361166941105255,-0.5484200383460092,0.0710841205122763,0.1130228649621279,10.5507550726603,0.047799936256141,0.0258223240576855,1.1504574379100188,6.355831556448321,1.9695097722247383,0.5160851785527509,1183.5434534907895,1179.71458654194,1176.7383444661107,1179.3714579035693,-163.40414942706033,80.15295494142259,-201.49676653754776,70.69495782334337,155.97184886806335
0.3649999999999999,-1.3476820010863348,0.7222380490794243,-0.573894654905366,0.008980895252536,-0.0238851561079041,0.0257408004924849,-0.0108096529583665,0.0052888117670647,-0.836125970056506,-0.5484048728300803,0.0739448660982198,0.114510824672737,10.535225725567807,0.0474632499781904,0.0260484527842178,1.1522406708486015,6.355752481393657,1.96952920814698,0.5189635470895921,1183.1288113231676,1180.0525421459251,1176.2618576700904,1179.481987583372,-176.212583951701,156.51166613442896,-161.27165955122095,-3.564186385665377,155.97482552751887
0.3674999999999999,-1.4792307418018709,0.8486525161211208,-0.6757498490643442,0.0044961191098314,-0.0226215999406404,0.0244410509927832,-0.0108416782881866,0.005318362513158,-0.8361319703195537,-0.5483947853683877,0.0770180092158812,0.1149874282107184,10.519490379645172,0.0471384276627074,0.0262213955559381,1.1539902792712706,6.355676565427254,1.9695452926054675,0.5218406724277515,1182.6623905710312,1180.497144872612,1175.9319861683543,1179.3536369716408,-213.88551307763896,162.3044117269727,-69.7941623179758,-126.0491437420568,155.97782579626755
0.3699999999999999,-1.5197184458752555,1.0172317351648104,-0.7851666915058493,-0.0006882679039563,-0.0209977281720866,0.0228885983064256,-0.010864788832623,0.0053611864359953,-0.8361363494948619,-0.5483872302085535,0.0802545752958454,0.1145205241073336,10.503583676036476,0.0468313214875428,0.0263468058710029,1.1557095911211253,6.355603247056502,1.9695590722405496,0.5247187926340882,1182.0593837577794,1180.86406420456,1175.9128868585003,1178.8517418646616,-311.9562763818064,93.4031933359619,91.4521702264664,-307.9312685717011,155.9808536998764
0.3724999999999999,-1.4392572112235456,1.2443945939332903,-0.9175580303884028,-0.0070739967439264,-0.0183252474186439,0.0208765639801298,-0.0108806239497452,0.0054128152513204,-0.8361408482141415,-0.5483795799628443,0.0835555577304487,0.1132140360813091,10.487533643096238,0.0465420409841796,0.0264341395468499,1.1574006471887908,6.3555313457687355,1.9695714460330689,0.5276001494706887,1181.102609189122,1180.964160839292,1176.389247019487,1177.8139806287825,-391.1504402585703,-41.918225786002914,266.9824764212078,-438.3384469417247,155.984518164878
0.375,-1.2712997869217335,1.4293956572628943,-1.0192692325600248,-0.0115200630781786,-0.0151875312832333,0.0189586568175422,-0.0108862181106735,0.0054680799995887,-0.8361462192204867,-0.5483708175737085,0.0867300911495817,0.1111393113931608,10.471364167694851,0.0462597110149468,0.026489190981634,1.1590642245695884,6.355460836498676,1.9695823692661985,0.5304866382704828,1180.1036315564863,1180.65447307563,1177.2477992406064,1176.6600496299532,-428.53210762855224,-206.13983926805287,431.2317477389111,-488.5598446483068,155.98759706607748
0.3775,-1.0314084358335807,1.5760527135536246,-1.0945555957133055,-0.0141874205228751,-0.0109609799861353,0.0165230920853996,-0.0108814741878889,0.0055209605503575,-0.8361508339819492,-0.5483635129496143,0.0896271513024258,0.108422064125176,10.455095104910335,0.0459764718812976,0.0265238420799724,1.16069902809177,6.355390284046287,1.9695930146676968,0.5333796386596195,1178.9599486509794,1179.9334616429517,1178.5454057581815,1175.3711814055407,-507.9270127204377,-384.9045052788821,640.0896856906905,-548.4280129433952,155.9907014124441
0.38,-0.7102093577545084,1.6748181213885192,-1.1292050788737307,-0.0155940532601053,-0.0051674751213294,0.0128901858441501,-0.0108683123152891,0.0055640206147114,-0.8361538370695175,-0.5483590362593528,0.0921170800259988,0.1052411890582105,10.438744198558043,0.0456854351580161,0.026555629589564,1.1623020406319042,6.355319512653892,1.9696045562337523,0.5362802495965697,1177.5639964928844,1178.7299505492356,1180.44824766906,1173.917909565236,-493.07208380619113,-467.99761760739744,721.3890766800425,-481.7229377367307,155.99445531198447
0.3825,-0.4441873082503103,1.679922360859302,-1.0952690371996907,-0.0159464208309964,-0.0003013717335502,0.0095612656198334,-0.0108484628494933,0.0055922235093725,-0.8361555590189501,-0.548356931318134,0.0940990733905569,0.1017355223986398,10.422329088267608,0.0453815087081651,0.0265974052238311,1.1638691980844462,6.355249762007386,1.9696175481921607,0.5391895960316258,1176.4945882319485,1177.5934735549147,1182.1523511415817,1172.9625667168573,-388.1817450189825,-447.66235229849326,661.3712319317068,-299.24231789118465,155.99760696381972
0.385,-0.1981909002115034,1.6048412244277763,-0.985315271378146,-0.0158535268358003,0.0043559903137295,0.0064299571523636,-0.0108234338613589,0.0055994402270462,-0.8361590567793477,-0.5483525961974814,0.0954630121389837,0.0980638847421201,10.405868210876744,0.0450573081739748,0.0266637211632201,1.1653960502069316,6.355181495692214,1.9696316945344143,0.5421080280325609,1175.6230877677895,1176.491638787743,1183.7551038287183,1172.4216979757803,-328.44887870915016,-447.7153458089557,632.5957689812179,-134.58335933896694,156.0007823348696
0.3875,0.0725667737994753,1.439070532015576,-0.7668757861148902,-0.0154993682665798,0.009469764508941,0.0032058814788807,-0.0107960177269809,0.0055842493581114,-0.8361670124841635,-0.5483419170227691,0.0961831942849018,0.0943205515330501,10.389380724754124,0.0447134986803686,0.0267615138354129,1.166878322439248,6.355114526214326,1.9696471337213848,0.5450342590871144,1174.8523438384027,1175.35489682587,1185.3153299864875,1172.2896499201624,-238.45421416885964,-374.0730563417852,482.050212340027,23.165265746365527,156.00461955365952
0.39,0.2860045454695534,1.260005759574545,-0.5225221397665734,-0.0154239808003154,0.0128419968178202,0.0011803577109888,-0.0107685058530998,0.0055506823981723,-0.8361806331881724,-0.5483229652713569,0.096296739126714,0.0905023639060012,10.372886472319712,0.0443564447173116,0.0268861230161377,1.1683127995393348,6.355048466934152,1.9696630409380833,0.547966026821802,1174.4308166969452,1174.621273506034,1186.1653548904187,1172.537524304512,-132.03113059716986,-243.81968769334864,223.79085188813383,137.43908838882805,156.00783907232275
0.3925,0.4975543289122861,1.0711607431529568,-0.2338126300688062,-0.0153833959106324,0.0149391196421261,3.966272218755383e-05,-0.0107433569569425,0.0055081760662448,-0.8362002076174577,-0.5482951202822488,0.0959156558464992,0.0865181437774571,10.356404885903672,0.0439997192181414,0.0270218662542833,1.1696977264724606,6.354982294873984,1.9696783368631328,0.5509014409392802,1174.1921881854169,1174.1357983874032,1186.4342842459284,1172.9768453621064,-77.03884904262841,-153.33511857024843,6.312252794941736,174.09634008840823,156.01108067310076
0.395,0.7081445989006525,0.8958310237724553,0.0718510048026824,-0.0146884558861481,0.0163345216293392,-0.0003342274647652,-0.0107180277702698,0.005461015258672,-0.8362253755817488,-0.5482588472384021,0.0950182258114651,0.0823136412237853,10.339955264190309,0.0436405481477499,0.0271559125324171,1.1710335508794627,6.3549156628590815,1.9696920077658464,0.5538388006360166,1174.045622451732,1173.8545979131827,1186.1969161543934,1173.408006004954,-58.30693039133616,-66.62446723121315,-207.10237295515964,132.8492428879598,156.0143401275259
0.3975,0.9061972373836176,0.750786450841815,0.3708581141720513,-0.0127392750527156,0.0175479421836667,0.0002358786030566,-0.0106961755808583,0.0054142770096477,-0.8362529496807092,-0.5482187240590922,0.0937113844524949,0.0778955214434685,10.323553000884091,0.0432890996888051,0.0272813321890782,1.172321640164018,6.3548486903481365,1.9697037734267948,0.5567761102454744,1173.90065353346,1173.802676051247,1185.3987723811526,1173.6410915765464,-100.50233160350209,23.54826183614021,-452.1215571650824,21.73634415917148,156.01762051605337
0.4,1.108553819343381,0.6134114771576674,0.6859236153480932,-0.0091157697060722,0.0189149228314875,0.0020590888058779,-0.0106818460150539,0.0053739201287325,-0.8362795207747029,-0.548179567886719,0.0921313441590658,0.0732639029991487,10.307209881726404,0.0429573951179309,0.0273893287357985,1.1735645260501388,6.354780200593903,1.9697142352156396,0.5597122333215756,1173.5431107937145,1173.9723392223636,1183.936308368568,1173.51668772575,-190.5333842212711,95.51248377360926,-594.5474261442081,-124.7362566153696,156.02158034595533
0.4025,1.2369379141759564,0.5221717244458975,0.8875695562792252,-0.0055285188342489,0.0199290438672555,0.0045112959128699,-0.0106707970709488,0.0053400594461938,-0.8363040988033102,-0.5481426214219886,0.0902183622714334,0.0684303291049665,10.29093541532131,0.0426337786812388,0.027471228616904,1.1747662114520028,6.354709202811561,1.9697238803386088,0.5626465722847824,1172.9479866123538,1174.2802384701151,1182.4260352504316,1173.0174102934695,-326.36976387807374,151.27168880385383,-638.670160267065,-277.2758855997379,156.0248990011534
0.405,1.3225245762556144,0.4394172716132562,1.0039352884377772,-0.002103096862447,0.0208940975928234,0.0076696309974458,-0.0106563434315841,0.0053136298068096,-0.8363280604650268,-0.5481054490933062,0.0878933254583868,0.0633685272630513,10.274734924420938,0.0423029546077587,0.0275132531402464,1.1759308415969418,6.354635216147862,1.9697331619153389,0.5655791784580955,1171.911261974324,1174.728697666383,1180.7429575672327,1172.1303082977513,-567.5423014542498,219.4397582975396,-766.9316853309277,-451.79814800226234,156.02823627694573
0.4075,1.3866528877355406,0.326365773934885,1.035002316771093,0.0014332711875378,0.0221026937158889,0.0117191678822773,-0.0106369684041249,0.005293282014205,-0.8363534558923273,-0.5480644049218693,0.0851527007955698,0.0581525338796552,10.258608504910825,0.0419569725979388,0.0275130260238944,1.1770612167344283,6.354558170571679,1.9697423537271257,0.5685116641503891,1170.1102751050823,1175.3774372616028,1178.5913768237767,1170.7584195534582,-741.6307000527916,242.89767269178788,-814.0014482741655,-520.9855038884593,156.03226137314985
0.41,1.4163887116531908,0.2029699740626876,0.9758930260335386,0.0041250936358034,0.0231205333157755,0.014866514690665,-0.0106143914445305,0.0052765252537679,-0.8363791889186193,-0.5480205065250726,0.0820465667622252,0.0529128223675856,10.242552234475808,0.041592815349178,0.02747571012735,1.1781584216007503,6.3544783238531215,1.9697509518250729,0.571446279739381,1168.20310847406,1175.9431860298419,1176.6729503258618,1169.5253807783088,-814.2188671970409,205.26136373787247,-807.8415082695294,-463.0529246519014,156.03563164517877
0.4125,1.4237186844838328,0.0320272005236952,0.8489817050595851,0.0071833797886139,0.0239190054285205,0.0173287789840934,-0.0105925313252374,0.0052569984370171,-0.8364042725415363,-0.5479745609820919,0.0786287150094713,0.0478694323198136,10.226559683096792,0.0412073813223935,0.0274181806780209,1.179221653640263,6.354396622111345,1.9697579212593284,0.5743853389893882,1166.0391807690971,1176.403744080292,1174.5521692824293,1168.4431549301987,-875.6809395894371,140.46731841585813,-894.1363629015988,-371.2257681024308,156.0390172910232
0.415,1.4077607054297816,-0.1856928217340211,0.6878681338492036,0.0107217985778665,0.0244030695767965,0.0190560825612916,-0.0105757138778205,0.0052302136406313,-0.8364251815109589,-0.54793126280257,0.0749886710487198,0.0432106999651612,10.210622880060848,0.0408012465259788,0.027356054823853,1.1802485074449187,6.354315598841473,1.9697638824660813,0.5773319192561888,1163.8247037761128,1176.6455226219211,1172.2022685113539,1167.6692519377968,-860.9962690719472,9.800674395000994,-1001.9719242631812,-201.8839098125248,156.04241463617828
0.4174999999999999,1.3567118481733065,-0.4597807235944376,0.5133661529678346,0.0144871602675013,0.0243555183252264,0.0199891390573962,-0.0105659593483802,0.0051940890502972,-0.8364380911482437,-0.547895967329851,0.0712092076543246,0.0390521962662392,10.194733333522096,0.0403742172052418,0.0272990360018617,1.1812357515123835,6.354238396611787,1.969769669493812,0.5802871014011526,1161.7341994237377,1176.4527474522672,1169.5423096611134,1167.433735381136,-858.9936743178982,-221.17320459260776,-1230.353951263727,36.43701996038581,156.04582467361027
0.4199999999999999,1.2523879136297715,-0.8401349635639265,0.3179790388794216,0.0186920677082049,0.023445388761839,0.0204656571323963,-0.0105645009148579,0.0051532962996671,-0.8364410208781823,-0.5478715379318653,0.0674384356280728,0.0353786018621526,10.178881653684996,0.0399340888288951,0.0272437903754498,1.1821800060798004,6.3541676972167105,1.9697758666647704,0.583250742928342,1159.5297354045235,1175.539656598958,1166.0504987550353,1167.8514370375988,-749.5288680926016,-460.5332655987236,-1304.747981721356,256.57573911967097,156.04992935957412
0.4224999999999999,1.1337859279222366,-1.179191640746169,0.1807445908464865,0.0217963849681707,0.0216953305029245,0.0205329997682733,-0.0105746241181377,0.0051144852410712,-0.8364349242423744,-0.5478569299413644,0.0638818896803319,0.0321563119930582,10.163057427837543,0.0394960635006537,0.027186281562075,1.1830783782949512,6.354103697917165,1.969783278712856,0.5862202858484291,1157.9865550832747,1174.1500811242736,1163.0185697525067,1168.7166140767345,-564.0530984700031,-676.0644316387237,-1192.1553004696295,409.4915215524449,156.05335882418612
0.4249999999999999,0.9926850862934448,-1.5047092755257607,0.0771174098219341,0.0245196624946441,0.0185496905229846,0.0204488051945108,-0.0106005485199069,0.0050808485607413,-0.8364219865605472,-0.5478501814127469,0.0607203540626807,0.0294122857647271,10.147249328538779,0.0390732202277605,0.0271304007857535,1.1839292838292987,6.354044156972852,1.9697923188678963,0.5891920195614935,1156.7094699121735,1172.1593344407645,1160.0897222526871,1169.8988946453608,-523.6439352474913,-970.3863643215744,-1205.7397895824113,518.3215649733479,156.05679535812527
0.4274999999999999,0.8141496498424312,-1.8301034479385068,-0.0099175573287233,0.0271805724678268,0.0131135926059932,0.0203074582904372,-0.0106421520229677,0.0050523118000025,-0.836405847154976,-0.5478485226733991,0.0580204122481444,0.0271714807426441,10.131444746755006,0.0386663134591307,0.0270799918603158,1.1847332234833812,6.353986071787591,1.9698024749179788,0.5921630397645731,1155.3683354070372,1169.2981493026657,1156.9898708045946,1171.3082219016012,-478.3876790076188,-1079.3276049011629,-1031.4452871289168,455.69377123779265,156.06092462400716
0.4299999999999999,0.6718721438289325,-2.0139587869179234,-0.0564721044137539,0.0287153631543645,0.0074572378639226,0.0202046918019547,-0.0106889941953291,0.0050250467002169,-0.8363907884760658,-0.5478501411030033,0.0556266316697989,0.0253988169467736,10.115629247335928,0.0382512977206031,0.0270317143977901,1.1854931242367783,6.35392711051517,1.9698124807709163,0.5951312443301421,1154.3175315171354,1166.7626964162587,1154.9324958170423,1172.17736350155,-420.8360678156165,-980.8003750886191,-690.424079024296,222.46180217007327,156.0643683951483
0.4324999999999999,0.5516763926461902,-2.08161775932782,-0.0839444827531773,0.0295947200400045,0.0013781139128639,0.0201324171181761,-0.010730542691671,0.0049933107769786,-0.8363818619251934,-0.5478541646023891,0.0533544037915969,0.0240822563356169,10.099784545574968,0.0378021252997618,0.026984630039533,1.1862127977857626,6.3538670466252976,1.9698201951429313,0.5980966766322549,1153.264155067959,1164.3941474272226,1153.5377504094731,1172.4205309124516,-464.15889529230253,-936.9098207905143,-465.24954373394354,-82.95237267957411,156.06781416245508
0.4349999999999999,0.4421359562940975,-2.022713545690438,-0.1031601963938265,0.0301927235463054,-0.0057224461823992,0.0200620088382031,-0.0107638700893607,0.0049478905107668,-0.8363832757547603,-0.5478600759470234,0.0511014381183109,0.0233446565144402,10.083887711211684,0.0373040623392775,0.0269535971405429,1.1868955336908316,6.353806648746287,1.9698230344814132,0.6010610751724407,1151.996737040674,1162.078147312306,1152.6062480983728,1171.762601638152,-454.7869660037573,-729.2391862295054,-240.8830721444699,-409.3213144156831,156.07195271678356
0.4375,0.377667552149586,-1.8680439560114164,-0.1118548217158684,0.0305766797171485,-0.0110976263676874,0.0199883394129438,-0.0107973659326997,0.0048913690505114,-0.836392023920123,-0.5478668438132449,0.0490781514230152,0.0232270302104886,10.067909800483964,0.0367807525332927,0.0269443352267103,1.187543301988054,6.353745293994796,1.9698211234221428,0.6040264597947101,1150.9902202379403,1160.747951496075,1152.3333350487508,1170.3739243403732,-372.0497113978123,-398.21456760755575,-46.203681505585294,-714.051348088605,156.07540703315627
0.44,0.3278187633159157,-1.6313611899655431,-0.1149152743005087,0.0311385597797935,-0.0153943907454826,0.0198565327379073,-0.0108379502051682,0.0048290954187571,-0.8364058095184158,-0.5478711103005678,0.0474877914649429,0.0237013160651789,10.051818327820914,0.0362568754931658,0.0269548561044794,1.1881576660687756,6.3536824462401205,1.9698156075832725,0.6069932597710818,1150.1364884836848,1160.0870744742683,1152.375229690845,1168.192344897709,-299.29939438256923,-171.1980844439948,35.72475157297956,-975.7407674183913,156.0788718495673
0.4425,0.2745190225903168,-1.3530155983058088,-0.1126847167305078,0.0320106449652779,-0.0186018481653208,0.0196463308470979,-0.010889222491463,0.0047685764329885,-0.8364236119696787,-0.5478697358555996,0.0464876066015848,0.0246609098053615,10.035578346636868,0.0357532209352884,0.0269748096619272,1.1887398619504668,6.353618317732756,1.9698080409030048,0.6099609932663477,1149.4937232660275,1159.891961073855,1152.5119588066157,1165.4952205032812,-189.1196782408313,-14.436461767718344,44.35402241942934,-1157.5236273894905,156.0823502659202
0.445,0.1974141296738834,-1.0543923886358335,-0.1017920433251438,0.0333064501777464,-0.0206915687391638,0.0193244552387797,-0.0109487340489858,0.0047181851736748,-0.8364445154273955,-0.5478612408849234,0.0461291116095293,0.0259129770421316,10.019153984674576,0.0352793636120032,0.0269849731378038,1.1892909603968624,6.353554413306488,1.9698001778558736,0.6129292458181934,1149.1908900924807,1160.0148921654295,1152.596999802942,1162.4047267607616,-43.97363126167871,45.47065037663737,-0.1942422906722638,-1388.2461954122834,156.08585259981
0.4475,0.0615239825334562,-0.6996675648061094,-0.0759648868191011,0.0350776029878632,-0.0223821543642695,0.0188482602570598,-0.0110117672703116,0.0046857887324998,-0.8364688525244334,-0.5478436327928444,0.046407072176373,0.0272440204345149,10.002509800816352,0.0348395388649071,0.0269649899030394,1.1898114022867667,6.353492528559329,1.969791878345193,0.6158987774982999,1149.273855109719,1160.1193143257383,1152.5109875951623,1158.5539895262195,100.09182677113122,-27.668277778866443,-67.43653038170117,-1392.3974591396916,156.0900947400233
0.45,-0.0859267116897725,-0.4166865744690882,-0.0435718993512742,0.0361746097639208,-0.0233873027318613,0.0184802888074715,-0.0110757740059952,0.0046736450479323,-0.8364967034716958,-0.5478162606356913,0.0472788967396048,0.0285537667686708,9.985612487024621,0.0344347625872214,0.0269093728493684,1.190300501075512,6.353433642371196,1.9697828248533311,0.6188702187820031,1149.6913492263363,1159.8765507765352,1152.2598171510335,1155.4427394650631,216.52738180291612,-216.6831444734269,-130.2774507126286,-1179.4845566067568,156.09367215528417
0.4525,-0.2476193774281186,-0.1495016855969399,-0.0029586523141752,0.035943024346002,-0.0240160636573987,0.0183841648774282,-0.0111336185908913,0.0046780091844669,-0.8365265648059607,-0.5477816607803966,0.0485488780771387,0.0297870612331701,9.968433020044529,0.0340487174533116,0.0268193333712285,1.190757061783178,6.3533792907858295,1.9697729576261032,0.6218437883138626,1150.3564920187337,1159.0358986033712,1151.8596003415992,1152.656566743186,305.35168512833445,-532.2522212287818,-196.17602166890703,-1112.0040170465463,156.0973046610558
0.455,-0.4200561735981612,0.1537986801308905,0.049008711458818,0.0340675573329231,-0.0240042128575721,0.0186652870952035,-0.0111832697594411,0.0046916607299773,-0.8365536519359803,-0.5477476821168205,0.0500597327250466,0.0309974511814427,9.950947275079104,0.0336700938790541,0.0267100852789098,1.1911786741967605,6.353329271354835,1.9697625272359032,0.6248196698856667,1151.218107651978,1157.2152896703915,1151.2789370426888,1149.8827193798304,287.9940439291201,-797.6420762952778,-222.0311740114537,-905.8345207117773,156.10173931904663
0.4575,-0.5222399047829772,0.3929205166017948,0.0914638458682907,0.0318796958887226,-0.0232855474934723,0.0190251036789267,-0.0112242802041876,0.0047046647369756,-0.8365756201416947,-0.5477186210620612,0.0516428524128472,0.0322976748336715,9.933137514164024,0.0332869548229894,0.0266038290520049,1.1915621975970183,6.353282002070036,1.9697521516379344,0.6277972319659881,1151.7964622383793,1155.0476882218948,1150.749444471542,1148.127394139627,159.03441479886155,-975.8843233848429,-219.2832689037912,-584.4923123419898,156.10550590906027
0.46,-0.5688553623729616,0.6195720839596619,0.1320193475190397,0.029716909125203,-0.0221097976629728,0.0193461837813369,-0.0112541232789192,0.0047100107291571,-0.8365923630261488,-0.5476954286258313,0.0531206792365946,0.033727048912215,9.91499326042536,0.032886732813179,0.0265133300032349,1.191904269899213,6.353236612873305,1.9697422699395248,0.6307763201162535,1152.0132797259723,1152.3358680534673,1150.18252069817,1146.9602578181205,-23.460070974442694,-1274.387816803527,-262.9786872234488,-397.4495096886127,156.1093549034411
0.4625,-0.5663415722842438,0.8793013946361696,0.1798925396190331,0.0275767245123571,-0.0202842459940897,0.0196579880285978,-0.0112673239970468,0.0047047233045806,-0.8366055865293012,-0.547676279250466,0.0543064852717358,0.0352258196054386,9.896511921935247,0.0324559841052011,0.026438302473071,1.1922014993927508,6.35319172707811,1.9697320956993252,0.6337571209355595,1151.679161883507,1148.6757491378771,1149.4345510354246,1146.140146591184,-232.6389260692393,-1373.8609512411574,-290.1605819291487,-230.9456837368541,156.11407788511417
0.465,-0.5287606815612554,1.084771876006491,0.2197130166379087,0.0263224614834627,-0.018284033361071,0.0199089187154431,-0.0112609025354123,0.0046879193629609,-0.8366174660140627,-0.5476584831214847,0.0550757367320296,0.036728643401947,9.877698574705228,0.0319887181514715,0.026376366684201,1.192450119490806,6.353145705586288,1.9697206613365537,0.6367399804070732,1150.850085095626,1145.4665632972615,1148.7317177885243,1145.805529399436,-441.6561655299116,-1275.5752818939516,-299.814327291642,-102.18396351519904,156.11810627247607
0.4675,-0.4730302294546441,1.2730173713151556,0.2573467842734893,0.0257004220949396,-0.0155845826228854,0.0202612865533166,-0.0112331574469824,0.0046615146043668,-0.8366318558822711,-0.547636635145664,0.0553552860646163,0.0381420353123542,9.858565650930387,0.0314850809673461,0.0263200919983996,1.1926462897248835,6.353099187713028,1.9697061874084076,0.6397253014499906,1149.4708810558575,1142.2978727284071,1147.9354793989664,1145.629226773608,-629.4281275699171,-1233.899172073369,-331.2585067870256,-75.28665769850697,156.12223668190717
0.47,-0.4126246716565217,1.4396401611807275,0.2888118530943904,0.0254043350425526,-0.0123194770286648,0.0207897869375277,-0.0111859678218684,0.0046261207388752,-0.8366525308698798,-0.5476052788460551,0.0551191638381321,0.0394385099638493,9.8391321472674,0.030950346751882,0.0262685651244455,1.1927861374945454,6.353053814798858,1.9696876243777257,0.6427129156331924,1147.7029444577763,1139.2970674368946,1147.0754252545892,1145.4290961109436,-777.7898586769418,-1134.0561514493847,-350.8777828195886,-116.03551863131533,156.1264554907289
0.4725,-0.3490841882374713,1.570610803596961,0.3050300959822609,0.024989469467157,-0.0086054499749866,0.0216058778783584,-0.0111303696924626,0.0045801939248443,-0.8366800839811919,-0.547563541695184,0.0544733450214612,0.0407309631301321,9.819421800077725,0.0304043595476902,0.0262367670917108,1.1928656103272028,6.353009211079815,1.9696660918889657,0.6457018055542064,1145.5819317624728,1136.6275919711604,1146.1810904848685,1145.0490491804514,-983.4295924585593,-1074.9142791614295,-387.54842443554446,-231.25837759121148,156.1307849060559
0.475,-0.2604829548880499,1.6758220933978667,0.2969397120373363,0.0241177585326437,-0.0037721084295281,0.0228868027805601,-0.0110770408734708,0.0045283110831277,-0.8367130618223251,-0.547513547559421,0.0535896428771108,0.0420349656265177,9.799461904744303,0.0298730884251354,0.0262266460995763,1.1928815851356844,6.352964765705436,1.9696427677321369,0.6486912970606643,1142.7857964954835,1133.9224960410875,1145.1376831324114,1144.2728042229876,-1045.9281298626584,-900.5871023704451,-370.0160589040021,-340.6738174811832,156.13611260936548
0.4775,-0.1665359467275045,1.7142209037175364,0.2631899969976609,0.0231491188858087,0.000422882687534,0.0241172485049483,-0.0110328641185552,0.0044771925042965,-0.8367490042556197,-0.5474589521026476,0.0526085740796541,0.0432991485906108,9.779282085605212,0.0293764272229345,0.0262305989388726,1.192832217673083,6.352919292164279,1.969619067123069,0.6516796855229194,1140.3522911131595,1132.124656459308,1144.3310101903485,1143.3456800930455,-972.5608887678034,-625.4859273375649,-309.02730241364543,-418.0559530821981,156.14066553200675
0.4799999999999999,-0.0437725342790075,1.6969748540071896,0.2041780273085576,0.0221424501429906,0.0048091550675441,0.0253055643293483,-0.0110021549581788,0.0044309228701818,-0.8367875419435766,-0.5474002396828656,0.0516107826591736,0.044498219542059,9.758912348817875,0.0289246568640388,0.0262425987727849,1.1927167291441991,6.352871708725138,1.9695956505515095,0.6546662183716279,1137.9229920516448,1130.7950664043997,1143.5925466203432,1142.1825244575766,-1043.8956329065256,-489.618958791521,-320.5155913671693,-543.1814614041797,156.1453387187701
0.4824999999999999,0.1332450184706264,1.6118458698046991,0.1198416422051136,0.021322498032833,0.0102216049733821,0.0260209618882509,-0.0109894381509352,0.0043906326409853,-0.8368253697706988,-0.5473423679044531,0.0506618793503505,0.0456665234027309,9.738380575963834,0.0285233387142118,0.0262629757977416,1.1925349892370238,6.35282216173551,1.969573098477472,0.6576514916847714,1135.132812948627,1129.6765616653506,1142.7284322335126,1140.6297727860247,-984.2585388169474,-344.41096655377777,-326.29035647046265,-577.6347695823,156.15108806250836
0.4849999999999999,0.2918789598605515,1.493367723672972,0.0557177895622267,0.0212885202175135,0.0143841909602668,0.0256288002359429,-0.0109975904324613,0.0043562134536551,-0.8368579230898671,-0.5472922445852868,0.0498020500067525,0.0468496329500129,9.717710421808992,0.0281723125460458,0.0262927186719886,1.1922874870507096,6.352770734052031,1.9695517072032207,0.6606364385106454,1133.00169935756,1129.0730115716308,1141.961094837991,1139.2943506096651,-790.0322806642628,-191.07065047619452,-331.6989606443255,-525.4890233955844,156.155998404952
0.4874999999999999,0.4348169931417531,1.3413038472414331,0.0154577511493834,0.0221706903276967,0.017647272638271,0.024595566418922,-0.0110299402708511,0.0043268815072672,-0.8368809907062658,-0.5472562262803707,0.0490871967308333,0.0481167766595322,9.696919004191244,0.0278711490523057,0.02633523208944,1.1919751197222455,6.352717503322547,1.969531757515386,0.6636223858911932,1131.1826515453056,1128.7212084129696,1141.069937430291,1138.0023276690467,-706.2331221129164,-116.3668705172312,-430.1711553330729,-545.9349592470057,156.16103340593867
0.4899999999999999,0.5511656206477041,1.1417639965382012,-0.0029789250590934,0.0243167210757775,0.0206222408403231,0.0236747260957145,-0.0110850523837736,0.0043008371763328,-0.8368915670583861,-0.5472389272548777,0.048500836136445,0.0495096842386183,9.676015562162377,0.0276087848305038,0.0263903699183014,1.1915997076048668,6.352663265353312,1.9695126515936168,0.6666093480359668,1129.4705337469954,1128.4911772190446,1139.8102390613255,1136.56467581343,-540.6800521848704,-64.76473686766434,-493.1820009938288,-504.27155225656816,156.16722000506903
0.4924999999999999,0.5793827997846737,0.9729777962714942,-0.0050786490213277,0.0268206838409906,0.0226486431432256,0.0235951649997605,-0.0111566635798125,0.004275230128083,-0.8368910408573224,-0.5472383466999214,0.0479527736537726,0.0510418048198791,9.654999847966199,0.0273640050426438,0.0264544195595184,1.1911642294362987,6.352609361881902,1.9694937400163413,0.6695964031813507,1128.4792512843812,1128.397384728631,1138.6040274253219,1135.480969907764,-309.5935490883673,-27.609881899206783,-506.821677931111,-410.74802844918815,156.17249632278228
0.4949999999999999,0.5239213763430626,0.8071660414382381,-0.0143717057222908,0.0295545923228024,0.0245433695660091,0.0242174135831298,-0.011236241474103,0.0042475896805702,-0.8368830978314369,-0.5472490207403896,0.0473351302391336,0.05270023310362,9.633860583602608,0.0271124989502272,0.0265207582393055,1.1906728456467968,6.352556079448092,1.969475234160552,0.672581181266915,1127.9225660015536,1128.3531278095484,1137.27613067167,1134.510935671184,-164.60995237903248,-12.871192366492313,-541.2617599867185,-374.3102063984676,156.1778985590982
0.4974999999999999,0.405821912374142,0.643226162255975,-0.0422181161988068,0.0317913418433183,0.0263513897274049,0.0250580405061812,-0.01131443310614,0.004216529763011,-0.8368745332693633,-0.5472607451720369,0.0465513680912986,0.0544481167644166,9.612574591410723,0.0268309139146968,0.0265802654463156,1.190130779747669,6.352503979010203,1.9694572210956771,0.6755615445748469,1127.656201522486,1128.3330287667989,1135.8977186253883,1133.6094188757716,-64.66564695524534,-1.1640068191354647,-548.9052898414225,-355.2240560508377,156.18340568504263
0.5,0.2393177640562635,0.4796667773101712,-0.0960471127768134,0.0328107308412787,0.0278761808552991,0.0255889797576659,-0.0113799627523974,0.0041794477543052,-0.8368694986791112,-0.547267411043524,0.0454721054444693,0.0562470642228722,9.591106954112455,0.0264913019834728,0.0266246321277481,1.1895440461089306,6.352454601043052,1.969438921278124,0.6785361627712501,1127.5992377667772,1128.3473077754527,1134.5316042224629,1132.73481539093,-18.32421337762731,19.60902814621453,-580.1999121027551,-396.8274106926353,156.1890399463254
0.5025,0.0308328328434852,0.2842147669710713,-0.1799434271185463,0.0325419315186605,0.029158994984846,0.0254433298153544,-0.0114289701114296,0.0041389363131173,-0.836865749334674,-0.5472724901115743,0.0441494028497481,0.0580495229872021,9.569410652959615,0.026087802332434,0.0266456776934935,1.1889182954116135,6.352406671549899,1.9694204637592931,0.6815043359569888,1127.564580455598,1128.43107390753,1132.9967190648745,1131.6252818223084,-33.30738480699435,45.73619233942732,-536.6027068158469,-429.6770924692733,156.19594895800265
0.505,-0.1176885260325867,0.1248866877341435,-0.2517132906573489,0.0313267405308586,0.0296938628894109,0.0246282700760029,-0.0114607599825039,0.004100425198304,-0.8368606597656028,-0.547279954883617,0.0427186450564709,0.0597917512724066,9.547428844040557,0.0256255811885727,0.0266340038440723,1.1882583994753484,6.35235897939188,1.969401797032716,0.6844660202388526,1127.4327008427424,1128.57598873715,1131.8485906883836,1130.5864299285836,-91.73729706644727,73.23291802563281,-431.67402442340926,-448.7413360984188,156.20183042073094
0.5075,-0.2154758090348713,-0.025729455193479,-0.309354518597925,0.0297015043377557,0.0297014306748607,0.0233881806515343,-0.0114712029266532,0.0040683530754361,-0.8368539009540688,-0.5472903532912105,0.0412489344816235,0.0613854432582371,9.525098223008131,0.0251029860506584,0.0265778405585005,1.187568115873378,6.3523116398080655,1.96938247963386,0.6874213203069703,1127.1058939702657,1128.797238497658,1130.8383489427574,1129.3815751418163,-189.99572191300996,102.52351880289999,-427.8384135869597,-567.0399750056728,156.20784140006583
0.51,-0.2703401336636238,-0.1911916048633955,-0.3526656766903392,0.0280257470806684,0.0292040811057817,0.0219632559683985,-0.0114581057233308,0.0040438802379547,-0.83684685550845,-0.5473016072779294,0.0398020414230687,0.0628090789705171,9.502351760705649,0.0245192811524284,0.0264746270205255,1.1868489320821078,6.352265365927745,1.9693619263366235,0.6903722885647215,1126.4827222331771,1129.0886063311643,1129.7093986204488,1127.7512300535552,-260.18698515104563,92.45110854690408,-420.6182957921645,-619.0546513707109,156.21520528941912
0.5124999999999998,-0.2754717948567493,-0.3142764070249097,-0.367031371415073,0.0271359099705512,0.0284856307460592,0.0210892677705708,-0.0114236510733915,0.0040236739447196,-0.8368427732645357,-0.5473087269711748,0.0384552167922205,0.0641509963818458,9.479122192660542,0.0238779075664902,0.0263365743665904,1.1860993625388987,6.352221297881036,1.9693388675133665,0.6933228949531244,1125.8049590445105,1129.2594940403926,1128.7352574637966,1126.2863018849628,-296.4322424585586,21.772949685100663,-428.61670742099665,-591.4538693745266,156.22146814272128
0.515,-0.260911781377165,-0.4218589507669938,-0.3620502679624265,0.0267201765658932,0.0276328950281489,0.0205817799955822,-0.0113712063246587,0.0040020534174242,-0.8368406842927218,-0.5473131637647224,0.0372695547893487,0.0655390410939412,9.455346235380345,0.0231822628785294,0.0261823982333499,1.1853151632760248,6.352178578196245,1.9693138839474595,0.6962761798502548,1125.0005610208843,1129.19747107959,1127.5663150833439,1124.7939607066824,-383.6382886051976,-123.41826110164207,-599.3613972358611,-645.7708410714524,156.2278628210341
0.5174999999999998,-0.246899534077437,-0.5338125611980039,-0.3337226559010242,0.0264636578456471,0.0263702153297119,0.0202441872335279,-0.0113073786414893,0.0039751682794289,-0.8368419320039284,-0.5473127512773067,0.0363628577333487,0.0670966920219794,9.430968097495565,0.0224455750451557,0.0260313628522507,1.1844897250861144,6.352137022098406,1.9692878299420375,0.699233343754995,1123.8867676014845,1128.6424027348844,1125.738450477617,1123.0574476796055,-440.6544248529368,-312.88589332575583,-766.5562173500795,-620.6983098806171,156.23568959084298
0.52,-0.2528962978510628,-0.6124319736306564,-0.2849872721330826,0.0262683065570721,0.0249707062444164,0.0200107803893362,-0.0112404602602421,0.0039447720133581,-0.8368487013711446,-0.5473039649846724,0.0359209568243807,0.06886745861836,9.40594286670861,0.0216924851407129,0.0258937968290591,1.1836150648008095,6.352097744032508,1.9692612291282263,0.7021940209705754,1122.7972888966199,1127.6330416129613,1123.7335339965935,1121.6904691572795,-482.6505304098641,-543.5386770608598,-920.3398514538995,-529.7176418242539,156.24233997643913
0.5224999999999999,-0.2882799238998841,-0.6748591181161568,-0.1934188128475977,0.0258068339827602,0.0233924109200302,0.0195793969072766,-0.0111740814877998,0.0039145401595829,-0.8368624330328792,-0.5472845064767806,0.036057484684501,0.0708086540030528,9.380239560559327,0.0209415144397053,0.0257700868247627,1.1826830636968684,6.352062702724926,1.9692330025460152,0.7051570056124071,1121.4735149494352,1125.92470934958,1121.1367512203478,1120.4088594704842,-576.6459759046023,-807.8172609977621,-1136.8947786808794,-503.4535197830787,156.2491236868666
0.525,-0.3524569785031825,-0.723608749931402,-0.0494200683236786,0.0249911565595144,0.0218897669463815,0.0188024862472004,-0.0111097165960819,0.0038847422135914,-0.8368843377838361,-0.5472525018313081,0.0367983340920555,0.0729027355688682,9.353842273168844,0.0202030411222654,0.0256641340032598,1.1816859670610687,6.352032937452663,1.9692013526265273,0.7081205253592319,1119.9140590170969,1123.5939553079725,1118.049060103189,1119.173201558364,-682.2633687264891,-1074.5638623031473,-1334.2053258664223,-494.5470996152376,156.25601811281692
0.5274999999999999,-0.4557353288565242,-0.7545125320130067,0.1755468690298726,0.0240016680452417,0.0204564538368022,0.0175795132317016,-0.0110527245126266,0.0038579473763102,-0.8369106484968708,-0.5472135901645736,0.0382349340280616,0.0751298413464787,9.326750057375396,0.0194978645515691,0.0255795224531131,1.1806167176145808,6.352006825785926,1.9691655177340457,0.71108285238307,1118.0621981058027,1120.5518900380644,1114.4657245910155,1117.936123972408,-870.2469145580827,-1468.466312833378,-1645.4826122246216,-563.7777636818096,156.26304604355337
0.53,-0.6312590689119278,-0.7641987259295586,0.5427241841160386,0.0229880937653313,0.0185076736818978,0.0162341217619297,-0.0110088478289413,0.0038359195577576,-0.836938588961846,-0.5471718978760949,0.0404377631245116,0.0774836620499515,9.298976848427971,0.0188461459556629,0.0255206034128767,1.179469475993843,6.351982723038487,1.969125280426525,0.7140419824114353,1115.5628244443064,1116.2516237438056,1109.821647042066,1116.354312739955,-944.6743706974748,-1645.3412261447725,-1717.8165364158288,-610.2224248295892,156.2716334939883
0.5324999999999999,-0.8221872827371555,-0.7407729839922819,0.9086206424292004,0.0222168598017114,0.0164305310202662,0.0162345608090919,-0.0109792750288309,0.0038161326358121,-0.8369683880883255,-0.547127084584051,0.0433461643161236,0.0799774209831847,9.270550921354658,0.018252742587805,0.0254928499623518,1.1782399238536743,6.3519591659207855,1.969080252689152,0.7169967899675918,1113.3388262523151,1112.3251839073405,1105.8766419089363,1114.88501184826,-891.5660019712496,-1584.4450484944432,-1542.0523910492634,-630.1764271147471,156.27891704035423
0.535,-1.049934575002017,-0.6751072151687718,1.281010322003029,0.0210261048769084,0.0137657791258352,0.0186225657467738,-0.0109620118571386,0.0037928638167504,-0.8370015098192136,-0.5470770161198112,0.0468048507304077,0.0826417852900184,9.241513333486836,0.0177107134976597,0.025502630563795,1.1769250709184589,6.3519344501467145,1.9690310419798271,0.7199470865758077,1111.10499443445,1108.3293985013331,1102.1113850868196,1113.2034306043813,-953.4811377170618,-1706.5824959002823,-1564.9648553930533,-787.5354996127945,156.28633053601197
0.5374999999999999,-1.3338913595709998,-0.5498423854988216,1.6505824677016343,0.018245984636788,0.0103808792863195,0.024277696749713,-0.0109524519234981,0.0037647936869281,-0.8370389767609305,-0.5470202615417287,0.0506536693492841,0.0854142420965419,9.211916312638326,0.017211735845032,0.0255433215510666,1.1755232047028308,6.35190740076334,1.9689793663414343,0.7228933370537532,1108.57142056373,1103.792271427839,1098.0518176319713,1110.947334350196,-886.1729431489939,-1578.1290771678855,-1386.4463603751108,-853.4716064590604,156.29537290652019
0.54,-1.544946839322726,-0.425060699231871,1.8390999530277972,0.0144292776189902,0.0083153624671063,0.0303989506487401,-0.010950353154345,0.0037377570166638,-0.8370787195330428,-0.5469599838490766,0.0548656736185649,0.088169105625678,9.181820434158697,0.0167629630158766,0.0255994034708945,1.1740334367399234,6.35187710443475,1.9689272418671973,0.7258361299676329,1106.6741297187052,1100.438753115494,1095.179153284944,1108.936072572086,-702.8710038656294,-1217.1763933506995,-1027.51568275953,-801.8162838111031,156.30302606107827
0.5424999999999999,-1.6874658934721103,-0.3197955470784259,1.8649230311725105,0.0093223423298969,0.0079701037345352,0.0369671786570178,-0.0109569208280036,0.0037210072902186,-0.8371171709897627,-0.5469015881661106,0.0594662919627624,0.0907476840609307,9.15129283740517,0.0163766410317657,0.0256505539202376,1.1724557463203775,6.351842554219613,1.968876400885264,0.7287743370858517,1105.057065544402,1097.7063894610856,1092.9142392181736,1106.9382529311404,-601.0178254105989,-977.6280981628579,-803.8365246570713,-768.1765222486312,156.31079557603132
0.545,-1.7514789146448428,-0.2643795195137215,1.7526010599736244,0.0037952354781112,0.0090235395461193,0.0431652595230419,-0.0109716001890089,0.0037220857943238,-0.8371516167574428,-0.5468492197065639,0.0644357149696744,0.0930057755541953,9.120405682184833,0.0160578058867955,0.0256781166430693,1.17079094158098,6.351803174235661,1.9688280475519635,0.7317058324588817,1103.6690405916522,1095.5506126246796,1091.1599706616587,1105.0951899608428,-511.69610554461497,-725.777938737064,-586.3358232383229,-666.5969556554495,156.31865619230743
0.5474999999999999,-1.7146999113934283,-0.292508019939227,1.5000344439268691,-0.0015087352636548,0.0107576912875182,0.0480181069051319,-0.0109914060560573,0.0037394000577889,-0.8371822479904235,-0.5468026710809775,0.0696288628033182,0.0949195631294841,9.089234519652761,0.0157943262417722,0.0256792788902332,1.1690402111325264,6.351760122495891,1.9687818318763948,0.7346298227303384,1102.4985850166788,1094.0774997674002,1089.982560101982,1103.6052681528631,-489.0904125176799,-511.38415919117455,-401.6142605986712,-545.9779449638513,156.32661897147645
0.55,-1.5711760708771052,-0.4119191333771933,1.0954209479200143,-0.0071012611798392,0.011766327833817,0.0517374772418041,-0.0110102332127589,0.0037695546192707,-0.8372121419411767,-0.546757370571156,0.07484227774372,0.0964645692427744,9.057857266536175,0.0155657114678187,0.0256521987735594,1.16720489493117,6.351716476128304,1.9687366351581133,0.7375471778140533,1101.2235885290638,1092.9936918287235,1089.151899358665,1102.3653002360236,-465.3741948867714,-307.7421930964644,-221.64898697687912,-360.29011295968263,156.33628113729168
