t,ang_acc_x,ang_acc_y,ang_acc_z,a_vel_x,a_vel_y,a_vel_z,quat_x,quat_y,quat_z,quat_w,acc_x,acc_y,acc_z,l_vel_x,l_vel_y,l_vel_z,pos_x,pos_y,pos_z,mot_1,mot_2,mot_3,mot_4,dmot_1,dmot_2,dmot_3,dmot_4,vbat
0.0025,3.552445603091954,-10.35314785834706,-1.532857068238344,0.0181421092921373,0.3884169023854069,-0.0615353879832132,0.000167539029867,-0.0187183829261418,0.0188869876763939,0.999646143061274,0.2848634419205157,0.3588714087306194,12.279159140798631,-0.0593624169896214,-0.0100695165923981,0.4078680680334043,-1.9033120887174697,1.861677058129754,0.1234051635784763,1174.5313157713629,1255.6181318814372,1190.353851453856,1209.3615645611424,3017.66212372886,2087.776498439598,-1018.005420863119,867.0793914063324,161.0923527925829
0.005,1.6151054373845324,-9.506069950317933,-0.2776688337387963,0.027564378021673,0.3620219803185559,-0.0694395928163898,5.397346261397792e-05,-0.0184758822275786,0.0187648899715946,0.9996527547748378,0.2763689334840918,0.3384666339581852,12.338420740773012,-0.0599409407249981,-0.009281207989987,0.4139507919666472,-1.9034973642433832,1.8616401264988849,0.1244753636137346,1182.075471080685,1260.837573127536,1187.808837901698,1211.5292630396584,2582.0087356667505,1654.6550866220516,-988.8943441139872,840.6417877095009,161.155031502748
0.0074999999999999,0.0895163026436244,-8.871773273276998,0.952606927094429,0.0294633106312067,0.3400911451825919,-0.0706210166437388,-6.5105202988576e-05,-0.0182304809530742,0.0186434871012685,0.9996593957717662,0.2677382924308798,0.3178401146998329,12.397673456783693,-0.0605272457328402,-0.0085029178204762,0.4200667362062077,-1.9036853897239316,1.861605131928668,0.1255438380938694,1187.4413594496966,1263.8914073145475,1185.409379733286,1213.56477349969,1934.5336283566207,897.0920655210193,-904.1842842489133,753.6542083608765,161.20681569109263
0.01,-1.1794396675370793,-8.240394100477262,2.1273068503885435,0.0234433398011595,0.3183059393186914,-0.0636841812786306,-0.0001841568033851,-0.017977018105908,0.0185309058482391,0.9996659998908456,0.2588390483382988,0.2970890465856152,12.456875783819976,-0.0611249906628677,-0.0077316675491257,0.4262422396246791,-1.9038768259430143,1.86157119371098,0.1266123545949314,1191.748139222468,1265.3230334551413,1183.2879164804535,1215.2975340814628,1557.063381259786,304.6873166332716,-732.1294195298377,583.1235651567112,161.25808546189688
0.0125,-2.140768906328288,-7.565090090146568,3.076291730087947,0.0129494070772918,0.2970160248680939,-0.0509409563345141,-0.0003059511262906,-0.0177179332364123,0.0184290094066972,0.9996724711613536,0.2497163443801265,0.2761005655251987,12.515941924834264,-0.0617316568503723,-0.0069734396060184,0.4325082553077064,-1.9040717999686705,1.8615389700045464,0.127682495584881,1195.2266763559956,1265.4148438977138,1181.7487326356368,1216.4803913254736,1232.7690353439723,-231.0954500710068,-425.31495244543294,310.0007709154398,161.30889489217603
0.0149999999999999,-2.7013408708495006,-6.809426462959925,3.6102434142560647,0.0013962446156834,0.2769865528785989,-0.0356648997001097,-0.000426389209747,-0.0174553950054753,0.0183403736998187,0.999678704350126,0.2404131071400611,0.2549382352354879,12.574723449021228,-0.0623452370110057,-0.0062294314160956,0.4388974180811173,-1.904268995643476,1.8615101443948652,0.1287553742431136,1197.911984399188,1264.1675562047863,1181.1613417182264,1216.84753793604,1073.128734157535,-733.0655013111027,-27.52188404479056,-9.646632558133204,161.35911229661608
0.0175,-2.9920387356581424,-5.826729896449506,3.7241809210404506,-0.0098190127490027,0.2563841689997883,-0.0188050115301711,-0.0005428273206423,-0.0171900817380703,0.0182626774327519,0.9996847129473724,0.2309336897815526,0.2336411593364187,12.633009508734,-0.0629656735187409,-0.0055037221963595,0.4454416213206424,-1.9044679290099145,1.86148396242446,0.1298328693032047,1200.5923200267832,1261.7495163911583,1181.6111232154128,1216.4321581626828,948.5514129284179,-928.8073260214329,330.65867047439485,-250.16372839572793,161.41864606602627
0.02,-3.033217472442812,-4.992740284496134,3.4340966202437606,-0.0160636740287704,0.2434859120094187,-0.0074009285766729,-0.0006479389675662,-0.0169212479337895,0.0181973144751949,0.9996904734720908,0.2212544893801867,0.2123839032202406,12.690522170772715,-0.0635950256225917,-0.0047964947354785,0.4521701731170156,-1.904667358787817,1.8614606044013764,0.1309159863834923,1202.65474146383,1259.523519574679,1182.8146350705983,1215.5967192940611,841.292526802636,-807.7739627945452,597.1662044853476,-364.6382400072527,161.467623956791
0.0224999999999999,-3.0176516361045107,-4.216870977718212,2.8759778704851984,-0.0200341690285678,0.2347014318640743,0.0004104672890616,-0.0007373064826992,-0.0166473868069478,0.0181476652235984,0.999695943627028,0.2113365969118467,0.1912888543268395,12.746924394574567,-0.0642370103512999,-0.0041107551392041,0.4591079807133013,-1.9048665762567905,1.861440905760312,0.1320057380441427,1204.7987826607964,1257.7106465771856,1184.5969542378396,1214.6089669626467,990.9246756415084,-599.8467841877299,851.6631300183687,-390.3714645518903,161.51591511089683
0.025,-3.0640400912255443,-3.414452514504036,2.0814959380512086,-0.024435812153678,0.2269242565991947,0.0054294708460294,-0.0008112516737513,-0.0163632157620081,0.0181202596213063,0.9997010900247288,0.2010487927573855,0.1703816894007824,12.801829263248203,-0.0648997171609284,-0.0034537504623323,0.4662734901749941,-1.9050652556606344,1.86142714764333,0.133104399623356,1207.6093648420376,1256.5242856537404,1187.07295072069,1213.644861971302,1068.33561687622,-241.97258849953863,933.1723380033505,-271.7624147176138,161.57304145362693
0.0275,-3.2027725161424083,-2.863663236179633,1.4397169859628682,-0.0290559757143597,0.2214652383603763,0.0062256282244697,-0.00087597030519,-0.0160678379271388,0.0181183663005108,0.9997058655762148,0.1903726831237732,0.149556204380467,12.85480917731421,-0.0655878595914456,-0.0028389574095319,0.4736782926643031,-1.9052639416821988,1.8614208512009245,0.1342171822054445,1210.1404607451775,1256.5007836346879,1189.2628159278563,1213.2501548890586,1027.0188414790487,164.1910648052545,897.894103033605,-39.915052141395805,161.6199425203693
0.0299999999999999,-3.444754626224109,-2.407683908224204,0.9219131357978068,-0.0352715399427952,0.2161529446683346,0.0049512704649646,-0.0009370965528131,-0.015767345107076,0.018139345746301,0.99971022068457,0.1794755012170447,0.1287353352909332,12.9054075429831,-0.066299576591837,-0.0022800839843616,0.4813266149639326,-1.9054636300125367,1.8614213919069929,0.1353505316575194,1212.7444590494329,1257.3452409777667,1191.5624212358582,1213.4452867105947,1024.403261250836,424.37938006087273,957.7269768821222,185.39319054148103,161.66609393575436
0.0325,-3.7414292384040726,-1.9894824125076396,0.5359909284529955,-0.0427747176688295,0.2104916611804213,0.0036185857493338,-0.0009980793467442,-0.015473997443686,0.0181753217161256,0.9997141081613992,0.1686944854501053,0.1079123149686115,12.953156465182808,-0.0670264665873602,-0.0017885959887208,0.4892150614052762,-1.9056646666228576,1.861426642410705,0.1365091763731939,1215.2624770514317,1258.6226805349922,1194.0514508122667,1214.177120841766,947.2459219378371,522.7498344199826,1078.9800227014427,416.0731227934771,161.7116119482505
0.035,-4.044636472741091,-1.563197656597355,0.2896501683390004,-0.0517139516418224,0.2045434930358268,0.0037221284039393,-0.0010618986485867,-0.0152034320249902,0.0182148693917452,0.9997174975644928,0.1584669935017783,0.0871059807230138,12.997596737553655,-0.0677557177795075,-0.0013743762116564,0.4973327946855378,-1.9058664938830057,1.8614338554205332,0.1376956154361001,1217.480688659122,1259.9589901498666,1196.9573213493654,1215.5256523245623,863.7690907179153,485.2244075258116,1414.4313767818408,706.0284664797113,161.7563539543046
0.0374999999999999,-4.325875929340459,-0.995986373184568,0.0941609386953213,-0.0644818103063446,0.1980198271341202,0.005704528886498,-0.0011364010496142,-0.0149686999929454,0.0182430141701842,0.9997204617744372,0.1491727096489895,0.0662212430047144,13.038297960011263,-0.068475728097564,-0.0010507125449231,0.505661734134904,-1.9060692438242353,1.86143993614038,0.1389115718091811,1219.5813225050213,1261.0488025726213,1201.123607696176,1217.7072631741646,658.1597882196096,248.7541117458478,1646.0595322711931,857.6629255814173,161.80913273339985
0.04,-4.427011971358192,-0.4726175192348172,-0.0271482459520139,-0.0767959097480852,0.1936129807504812,0.0078453140579417,-0.0012312107437467,-0.0147750705057514,0.0182490259381251,0.9997231139379557,0.1409976250986571,0.0451284440779367,13.074873819424727,-0.0691813628879784,-0.000830382799453,0.5141771120614609,-1.9062732411635808,1.861443759831947,0.1401576965711316,1220.77148760022,1261.2027607085959,1205.1876190107212,1219.8139669524692,357.38690045836813,-138.04780656660103,1714.1915407488325,848.2823027195982,161.85234533809515
0.0425,-4.3339077548689176,0.0662506665524808,-0.1271298008029158,-0.0897296790347904,0.1914236896383452,0.0088190219996733,-0.0013593560817542,-0.0146128987824071,0.0182296879990992,0.9997256428294556,0.1337403164559307,0.0236212099004695,13.106996511723688,-0.069881895809238,-0.0007272232661621,0.5228477844389758,-1.9064789503378623,1.861445207867908,0.1414341222795685,1221.368257007313,1260.3585635397883,1209.6945653999203,1221.9486746877626,151.9520758424279,-508.3872321292804,1821.0682564890255,815.9629417589263,161.89474748644597
0.0449999999999999,-4.064712474256106,0.5617122345324569,-0.2044454369588456,-0.1022869987054633,0.1922574987955253,0.0083058632892749,-0.0015245568702164,-0.0144658749631083,0.0181895440545393,0.9997282027713832,0.1270263617003387,0.0017425731337999,13.134404683593049,-0.0705931881224113,-0.0007434757903293,0.5316386972829734,-1.9066867496766295,1.861444040150816,0.142739947881298,1221.5312479794322,1258.6608245479495,1214.2929602931663,1223.893781661264,-15.94764941796712,-863.3809237594963,1773.0919800289491,688.1656832073535,161.93646914062217
0.0475,-3.6027142118804334,0.924723767004332,-0.2401085040889525,-0.1134597460956509,0.1967727063128212,0.0067547843495776,-0.0017252926124841,-0.0143197077794621,0.0181398727105106,0.9997308062687906,0.1205304206784264,-0.0203270883500133,13.156912841475917,-0.0713289486737776,-0.0008741073008075,0.540513310536951,-1.9068960806475104,1.8614402142186777,0.1440743653539716,1221.2885187602233,1256.0416589209908,1218.560025300065,1225.3895031037991,-169.35065619077236,-1312.0969389712616,1689.955768830121,518.0996158634111,161.97736008024316
0.05,-2.894034652081268,1.1347519235650116,-0.2284637120848683,-0.1233298751012583,0.2040097100377764,0.0050112150343798,-0.0019557809324164,-0.0141702795051988,0.0180982970798071,0.9997332104577996,0.1141890817982668,-0.0423024526447053,13.174417061088985,-0.0720916191457213,-0.0011080199003602,0.5494359068169037,-1.9071083535101847,1.861435633617412,0.1454380860492177,1220.6844946984784,1252.1003398530931,1222.7427391373171,1226.484279740581,-255.68109368277885,-1526.8365496023312,1319.3257157529847,279.3690622499072,162.0254555928624
0.0524999999999999,-2.242517110873546,1.113430928182016,-0.1822308932804536,-0.1278430058096085,0.2093560676131739,0.0040507904232934,-0.0022002428371309,-0.0140222454075602,0.0180778544190741,0.999735147215014,0.1081662772663472,-0.0636477021155805,13.186898758171315,-0.072872970625725,-0.0014232175666926,0.5583725925061434,-1.9073243667039788,1.8614328548442765,0.1468320094488363,1220.0101132918091,1248.4074761729792,1225.15665387883,1226.786348415049,-292.3318355308768,-1492.1631890958004,717.1446466444198,17.06935832894488,162.06471399338827
0.055,-1.5972675951393596,0.930797476724352,-0.1200455942360169,-0.1297085067818838,0.2123338632914237,0.0036409886195786,-0.0024362583705225,-0.0138830583245824,0.0180896185832111,0.9997363626984797,0.1026944001523827,-0.0836653704544642,13.19442556421553,-0.0736603133389781,-0.0017891299822325,0.5672916782599186,-1.9075447261654797,1.861432823656452,0.1482558855642684,1219.222835520824,1244.639523907614,1226.3284623705392,1226.5696265322258,-366.3561769591521,-1590.2177469167768,252.4946987435212,-151.44386455026492,162.1031087728008
0.0575,-0.8641506091774476,0.6079473589879238,-0.0579303594795104,-0.1305357802228972,0.2128508146272867,0.0039305980045487,-0.0026427999539938,-0.013755819122306,0.0181350397892069,0.9997368350522972,0.0978813282206499,-0.1017122345112624,13.197146624420988,-0.0744448761889265,-0.002176048992109,0.5761638163981375,-1.9077689741175532,1.861436083877137,0.1497081635505917,1218.1783324070136,1240.4563874383953,1226.4191273725476,1226.0291290922976,-399.39905541195935,-1417.0347198575207,-143.8273754016337,-178.16271412202704,162.14817333725298
0.0599999999999999,-0.2771246305268864,0.3063607961657498,-0.0363194106194257,-0.1307570828952057,0.2110904566348235,0.0049735102749153,-0.0028130834673608,-0.0136281365197735,0.0182074871067349,0.999736858086808,0.0934105434457883,-0.1175382680788581,13.195281802731447,-0.0752357378568479,-0.0025693838094247,0.584961266956945,-1.907997151773681,1.861441276686013,0.1511870882783601,1217.225840243764,1237.5543503083263,1225.609325493531,1225.6788129616157,-404.3215805855655,-977.0978366038894,-447.49293739173504,-29.524430370292986,162.1848800427731
0.0625,0.3265865327307589,-0.0018086612166037,-0.0558646893664958,-0.1318862224451173,0.2086772891946193,0.0063471364613729,-0.002950392245461,-0.0134811528230453,0.0182918594916993,0.99973693956563,0.0887827538870621,-0.1311847393445494,13.189107820868964,-0.076050622316934,-0.002965879144697,0.5936599549163287,-1.908229576389337,1.861445806908797,0.1526897884172145,1216.1567245040856,1235.5708982553758,1224.181662685589,1225.881506940446,-459.04383476736217,-608.940518514964,-632.7328694799229,231.72276951913753,162.22070203106284
0.065,0.976767106189654,-0.3314091875150369,-0.1002688544456949,-0.1336952234607275,0.2072125020365779,0.0070330173850539,-0.0030617701319995,-0.0133014591294324,0.0183782841882363,0.9997374100908702,0.0836338084606722,-0.1428213206914324,13.178944802536437,-0.0769022520157431,-0.0033647736135132,0.6022417696810731,-1.9084664127341004,1.8614469033515115,0.1542137312784924,1214.9306210699272,1234.5096477157515,1222.4456611461314,1226.8374268092111,-551.2160368245072,-191.69128893718133,-732.5759264531818,601.0920530404286,162.2557876220511
0.0675,1.6878716419102433,-0.7355417129135866,-0.1457771561840553,-0.1334812176521079,0.2071279520385733,0.0062337947654949,-0.0031554563008387,-0.0130838305696121,0.018461994914085,0.9997383975485044,0.0778085936731781,-0.1526802996020934,13.165143011133372,-0.0777947920108776,-0.0037652487159489,0.610695163417616,-1.9087068085602428,1.8614439522577104,0.1557561299841714,1213.4006443199632,1234.61244181069,1220.5187830533227,1228.8869672056483,-773.6708446151162,283.2018997473367,-861.3322783772666,1137.6037256070495,162.2899833983878
0.07,2.555404995854747,-1.3655578024718282,-0.1624362550754136,-0.1283053466205014,0.206984490501577,0.0042895997821885,-0.0032408399862679,-0.0128295406288584,0.0185386013698234,0.9997399386489576,0.0713177086748187,-0.1610555850515084,13.148069209656352,-0.0787255205473914,-0.004167650162024,0.6190147035660984,-1.9089500466767615,1.8614374766760236,0.1573152899831328,1211.0622668468516,1235.9256572144884,1218.138999754245,1232.5254454372466,-953.7681508785245,626.474042648216,-868.0444035751876,1470.6359755212843,162.32998899962803
0.0724999999999999,3.222144538026535,-2.028751735010435,-0.1286364004227813,-0.1201699894700991,0.2054001498264004,0.0027013488462357,-0.0033254937617347,-0.0125508705740622,0.0185979293577699,0.9997420385906908,0.064459013085664,-0.1682274837610045,13.128093915758235,-0.0796787450769994,-0.004571537439296,0.6272013552949822,-1.9091954871791363,1.86142565856946,0.1588913143834321,1208.6318035655706,1237.7448120239308,1216.178561035447,1236.2401470832547,-1064.5969441042344,789.8289174077959,-761.3832184043546,1516.4738359611904,162.36246988761482
0.0749999999999999,3.7542637145558575,-2.815449074545725,-0.0474331986776501,-0.1089526613761613,0.2010091545039455,0.0016886053421917,-0.003411960028718,-0.0122611798124674,0.0186336646296285,0.9997446369507164,0.0575568318845892,-0.1743685638464745,13.105580277497957,-0.0806376113560991,-0.004970169001683,0.6352604294111729,-1.9094425676880968,1.8614067532623289,0.1604841316188376,1205.7392821263306,1239.8748018015272,1214.332083662223,1240.1078146170523,-1334.3209575029039,898.5429718932202,-762.8211358618493,1591.6650618942626,162.39406307110397
0.0774999999999999,4.192577789556426,-3.837885968510341,0.0804736671363344,-0.0931840813664354,0.1919158054413633,0.0012721466160387,-0.0034988829862154,-0.0119674173318572,0.0186421484985736,0.9997477242898384,0.0507668199743499,-0.1795673985104597,13.080872293168508,-0.0815937519653244,-0.0053523675011834,0.6431997771644089,-1.9096904711309133,1.8613806339004408,0.1620926686964586,1201.960198778056,1242.237526883397,1212.3644553561376,1244.198472392726,-1380.831098185398,764.0628051140532,-663.1248875021805,1310.846889798812,162.43095217337853
0.08,4.4044610556332735,-4.695125268028193,0.1861437276094003,-0.0798845630604181,0.1816645016447833,0.001490246664308,-0.003574942165518,-0.0116751535408656,0.0186258769888321,0.99975123346499,0.0442129142241113,-0.1836677806968688,13.054286447582172,-0.0825410965882156,-0.0056947533488131,0.6510300032709065,-1.9099382101634448,1.86134852244152,0.1637146719019632,1198.8351266354036,1243.6951158270977,1211.0164592247124,1246.6620490660466,-1159.9240329357588,419.1629119884961,-461.3696798704037,697.3544624638629,162.46084414859317
0.0825,4.529608138625777,-5.484245383311245,0.2555569569073485,-0.0684793593433244,0.1694910018847916,0.0022429628688883,-0.003622133118541,-0.0113961383625041,0.0185895858466053,0.9997550122765644,0.0381855710806171,-0.1863562314231007,13.026103135976289,-0.0834659235071207,-0.0059670356672562,0.658764829017849,-1.9101856200921927,1.8613133322526871,0.165348277045749,1196.1605786133773,1244.3333414433396,1210.0576069567855,1247.6852447050453,-929.0891826911312,98.06959213551629,-309.9526199169756,123.98772241504037,162.48985962735176
0.085,4.66234412373414,-6.162248166955449,0.2690502183221945,-0.0589250896177151,0.1556953270085767,0.003680100631393,-0.0036262210039482,-0.0111474975872118,0.0185408574725332,0.999758786763537,0.0331155604433828,-0.1874288221303782,12.996557878974684,-0.0843474648050361,-0.0061458835574909,0.6664197466438442,-1.910432489712856,1.8612786581169645,0.1669932933560841,1194.189680721948,1244.1854637877752,1209.4666961251276,1247.2819876781218,-552.7931495802927,-253.0826661128683,-144.17747708616827,-532.4061136403993,162.51815219905873
0.0875,4.894520360051282,-6.639027802923744,0.1920504117015985,-0.0510895149169316,0.1397856340353652,0.0060121781000746,-0.0035838156458327,-0.0109445942653826,0.0184869727302477,0.9997622733413944,0.0293857848983241,-0.1869646211438471,12.965835162351109,-0.0851669777449327,-0.0062252763298707,0.6740094995709879,-1.9106788381579471,1.8612472721110969,0.1686519361021777,1193.3966128654758,1243.0679281127752,1209.3367195713547,1245.0232141368433,-28.117616218651214,-704.6517891315048,39.570331612048975,-1418.8057812318702,162.5455782173657
0.0899999999999999,5.351326040248317,-6.896779537422013,-0.0079841651609503,-0.0427390773801089,0.1185554856270372,0.0086784109946077,-0.0034996207727308,-0.0107903952191874,0.0184340772471609,0.999765317170536,0.0270591729106382,-0.1852400059339566,12.934067327069927,-0.0859219634112067,-0.0062131590756638,0.681545240745634,-1.910924965339524,1.861220183204907,0.1703277598457342,1194.0490926408547,1240.6622048421175,1209.6645477831876,1240.1879587719625,508.09301809376944,-1044.1435051876415,181.5543052725392,-2095.424020903333,162.57749469488647
0.0924999999999999,5.862666720789815,-6.803787289664688,-0.2394745751957327,-0.0346824493926825,0.0996590895918239,0.0093078683984411,-0.0033777276069905,-0.0106769035597768,0.0183888915676761,0.9997678722094216,0.0259237895663987,-0.1824957702171257,12.901338421923471,-0.0866245731320807,-0.0061191661154907,0.6890342438103947,-1.9111713570288975,1.86119943097439,0.1720225797321305,1195.9370779559447,1237.847210586837,1210.2444910977176,1234.5460940323267,993.9817025679976,-1268.3167847922948,260.65845902626256,-2523.711697070164,162.6032681298292
0.095,6.398553949459914,-6.369681250044261,-0.4840169693921539,-0.0218556815176502,0.0809594824355215,0.0074369365824099,-0.0032303890130107,-0.0105979151610208,0.0183498422009986,0.9997699903364105,0.025822247899945,-0.1791672533921382,12.867685744395885,-0.0872845075290495,-0.0059679205704096,0.6964817677678232,-1.911418975838468,1.86118609998545,0.17373698436235,1199.0190011536947,1234.3206209181562,1210.967840078319,1227.5694002866117,1540.3831158073883,-1673.1873826921385,306.34016683229646,-3274.735366657703,162.62819316401126
0.0975,6.865047763522222,-5.486744768651712,-0.7307051548192625,0.0003102262712003,0.0611060298786709,0.0035178599442014,-0.0030663780621052,-0.0105470957474911,0.0183157823641508,0.9997717281401304,0.0266048054390167,-0.1755751407623206,12.833108522243876,-0.0879111561075891,-0.0057805693800099,0.7038910265199542,-1.9116689581346005,1.861179410056916,0.1754719379765931,1203.6389935349816,1229.4812736733763,1211.776191931879,1218.172417199038,1762.8393103957007,-1834.4740518683905,260.3590463217185,-3535.369195889368,162.6571302629346
0.1,6.962260908410471,-4.510198461520768,-0.8722629618139677,0.0223534054219965,0.0480984861030008,0.0002495943256735,-0.0028939488805763,-0.0105145351541285,0.0182866055588069,0.9997731656551064,0.0280385234266649,-0.1719982158329307,12.797572989770435,-0.0885185276896532,-0.0055774476388272,0.711262761711742,-1.91192156394545,1.861177142550216,0.1772263336359541,1207.8331977056732,1225.1482506588143,1212.2696353099277,1209.8925543071648,1647.133957742834,-1739.0094446216135,146.71951744899147,-3313.88034007459,162.6804397145747
0.1025,6.653786953345027,-3.3832373197925625,-0.9446424320739336,0.0448889932937973,0.0395951401645247,-0.0022026569037947,-0.0027212012500446,-0.0104889611043702,0.0182623446753594,0.9997743978674763,0.0298636433689345,-0.1686833188350864,12.761019470177228,-0.0891223952401827,-0.0053779274463016,0.7185958283201862,-1.9121773848575143,1.8611770993327057,0.1789988515733485,1211.8746633236958,1220.7862264502683,1212.509789519124,1201.6030154986652,1528.4081935874867,-1708.216963496628,59.68447232139636,-3258.2204035116383,162.70292111933736
0.1049999999999999,6.005872587856786,-2.207443207481687,-0.968793520315908,0.0654484935769818,0.0345390566251099,-0.0040805925328546,-0.0025538898280295,-0.0104610443231061,0.0182409835779342,0.9997755447040118,0.0318781203696497,-0.1657923036035823,12.723370759802439,-0.0897356624407573,-0.0051971947708575,0.7258878725442591,-1.9124359682238783,1.86117807381612,0.1807882317953122,1215.4752386736106,1216.6071658413312,1212.5680576715347,1193.6014522896066,1286.6663602279484,-1587.0372650142172,-0.0360083958639734,-3072.8280675487044,162.7247213639425
0.1074999999999999,5.033465978549816,-1.04460311167472,-0.9448777027414744,0.0812323615139703,0.0323928321207185,-0.0057878918679545,-0.0023921931120309,-0.010425693423886,0.0182195024208263,0.9997767143974324,0.0339948075405358,-0.1633230749564123,12.68454095267372,-0.0903649323443678,-0.0050409482363527,0.7331356819153678,-1.9126969104479548,1.8611778219530748,0.1825939775604585,1218.3079951248355,1212.8510401251972,1212.5096094771447,1186.2388751609217,1048.717486474833,-1520.5795442413075,-22.799468002631308,-3034.4997186762585,162.74570684790527
0.11,3.6757245923690784,0.2767690977740429,-0.8635378815132324,0.0929026262087449,0.0323161726387845,-0.0084406504794088,-0.0022366078685657,-0.0103782251055157,0.0181954539913947,0.9997780003296842,0.0361382971103203,-0.1612607466008442,12.64444168159744,-0.0910161532834181,-0.0049133088161154,0.7403342060326306,-1.9129602498446396,1.861174413969236,0.184416893101498,1220.7188261059848,1209.0042681201246,1212.4540603315215,1178.428953696225,729.6387891138686,-1288.3363032586647,-3.8365112279279825,-2666.083639108226,162.7699559146429
0.1125,2.533256331277872,1.2906807198622083,-0.7500502772344987,0.0965458840156746,0.0345558981457286,-0.0112974498619197,-0.0020875987968081,-0.0103142043602954,0.0181677267721312,0.999779469810492,0.0382391916996325,-0.1595712147592334,12.602990321449065,-0.0916949209721003,-0.0048164584624896,0.7474763439401302,-1.913225846485488,1.8611669410858704,0.1862580595007222,1221.956189070405,1206.4093586089039,1212.490426921005,1172.9084569653803,365.9478951815341,-910.3208281012022,29.60155158307313,-1993.1262823776688,162.78939151401707
0.115,1.5159055222222864,2.194685812588627,-0.5948513875581,0.0960944021562119,0.0393355289954363,-0.0140275313642777,-0.0019470962705924,-0.0102289893530792,0.0181334744977865,0.9997812213781379,0.040221024904939,-0.1582425501778331,12.560117378804854,-0.0924072511643772,-0.0047539935595242,0.7545527977582656,-1.9134932229832544,1.8611552467653467,0.1881185634582701,1222.5485655818925,1204.4526639796184,1212.602068089437,1168.4633222843368,156.36896901614804,-727.4409157091661,35.590472064632166,-1724.585458630825,162.8080329462264
0.1175,0.5011309186631822,3.1403430650306374,-0.3885066617859493,0.0947004122295797,0.0474436566461548,-0.0159528442900847,-0.0018210603006036,-0.0101188034952983,0.0180908591004464,0.9997833182824404,0.0420241356074571,-0.1573511878191897,12.51577309461585,-0.0931580838901454,-0.0047349949168232,0.7615523829970743,-1.9137619555343417,1.8611403924516596,0.1899995169155536,1222.7380339154856,1202.772154030358,1212.6683792813283,1164.2855296722264,12.816103463819696,-524.4982515984258,-25.740403986219512,-1367.0818948178771,162.8294937412892
0.1199999999999999,-0.190499402103882,3.809566825114521,-0.2313923587617464,0.0943378017096922,0.0558625385358063,-0.0160711287526572,-0.0017174788676343,-0.0099842280199571,0.0180366547850082,0.9997858002627448,0.0436925639904748,-0.1570153248586724,12.469934321618013,-0.0939457540156902,-0.004772303841596,0.7684630517794019,-1.9140322185945884,1.8611247079953943,0.1919020139289089,1222.6126460992116,1201.8301727216265,1212.4733660695058,1161.6279128102476,-83.33688721663763,-314.8228877688331,-185.03927342389977,-932.8736949967624,162.8466280174554
0.1224999999999999,-0.780279701388675,4.356062105601852,-0.1254090955709679,0.0944565510986871,0.065498745262669,-0.0148208731049155,-0.0016410633390404,-0.0098268046761543,0.0179707694408124,0.9997886462478612,0.0452879335145029,-0.1572619591442704,12.422610813233309,-0.0947667784827678,-0.0048736649209528,0.775271866615333,-1.9143043704194835,1.8611103773087447,0.1938253261052278,1222.3213494794024,1201.1980395915139,1211.7431829142088,1159.6211611972424,-136.69734606023655,-231.59229004991155,-417.5515388946674,-722.0036996090578,162.86299444777745
0.125,-1.3270701321371787,4.801125811341708,-0.0746271113162659,0.0941790124450741,0.0756112314464962,-0.0130756144049248,-0.0015874677221352,-0.0096516115097642,0.0178955144381519,0.99979176831071,0.0469541753159115,-0.1578893760823398,12.37385047219392,-0.0956115595547512,-0.0050325651195284,0.7819661451454436,-1.914578407502436,1.8610982677153916,0.1957677262161447,1221.9291593689104,1200.672211271377,1210.3856083750325,1158.0178943122023,-188.84951629756847,-222.77239695345068,-718.0939412059608,-563.7652984363737,162.87873264749643
0.1275,-1.8448509900765937,5.116231567379391,-0.0781708496562207,0.0928021588470226,0.0867160164706687,-0.012167256266464,-0.0015529031175771,-0.0094607832286819,0.0178171440510655,0.999795034285284,0.0487502104686964,-0.1587079570812204,12.323739105696651,-0.0964746394274465,-0.0052419282721559,0.7885325729104645,-1.9148540297358096,1.861086909886468,0.1977280458895889,1221.3771018979144,1200.0841776067466,1208.1527132081787,1156.8023347050607,-306.9590984964631,-315.15867651082743,-1177.203735925376,-450.8817773874849,162.8937244338898
0.13,-2.415020402716132,5.318110446597787,-0.1001942407686284,0.089261585744172,0.1021467420125549,-0.0129524836759664,-0.001531636777968,-0.0092580334656162,0.017741885227607,0.9997983008804509,0.0507633491471302,-0.1594845007900101,12.272401921266328,-0.0973475973946842,-0.0054908211930233,0.7949583842453185,-1.9151309360320845,1.8610747611928575,0.1997058357914285,1220.394363876428,1199.0964178888228,1204.4995896954056,1155.763485425265,-439.54783665894826,-427.59177990587847,-1468.182914236921,-304.8801302773424,162.91086704973196
0.1325,-2.8010549343964457,5.3169965341574175,-0.0960808681924272,0.08424355382042,0.1168276848168032,-0.014615167388653,-0.0015204869668667,-0.0090438156850165,0.0176757173713396,0.999801456889961,0.0529876154561318,-0.160053745144324,12.220001445391556,-0.0982267921690024,-0.0057713331658194,0.801230575481446,-1.9154092704257348,1.861061264470144,0.2017010467331721,1219.1793627146199,1197.9462187072172,1200.8117986369944,1155.277934053674,-596.1689280108652,-527.9801057787604,-1543.769841109723,-105.6429001419018,162.92445822129395
0.135,-3.010543507807312,5.1325090224159,-0.0402778032658751,0.07662578180291,0.1319970995140474,-0.0162386396788964,-0.0015145814517897,-0.008821336551901,0.0176233901635317,0.9998043917982576,0.0554735222460346,-0.1602193053402393,12.166736202580092,-0.0991036835126529,-0.0060723330282674,0.807337338646434,-1.9156885578622287,1.8610462563687609,0.2037134783523832,1217.4135192363735,1196.4565173599287,1196.7807404898567,1155.2352709245552,-921.6149611974282,-703.6082072790117,-1764.666713777022,85.57306113725637,162.93734375307173
0.1375,-2.954483540166246,4.738842671138985,0.0885726114131192,0.06444142881696,0.1479013009910034,-0.0173641237400305,-0.0015107775409822,-0.0085936842450893,0.0175878838814171,0.9998070272578604,0.0582557341966311,-0.1598385710223,12.112835685348584,-0.0999693689239637,-0.0063850876404991,0.8132677170742059,-1.9159693808373803,1.8610293722365008,0.2057437384719206,1214.5712879086327,1194.428177670822,1191.9884650681092,1155.7057993593603,-1159.4311687369996,-745.149083047408,-1690.5926806557984,249.1325985558885,162.95200932940986
0.14,-2.6017668230455793,4.325335293321334,0.2315296805967966,0.0530110393836144,0.1579055048124582,-0.0174713370289883,-0.0015055822192361,-0.0083665095716947,0.0175677549889623,0.9998093420966988,0.0614197447824849,-0.1587752762196527,12.058555211353433,-0.1008100895737906,-0.0067007941058965,0.8190125371019559,-1.9162527721366405,1.8610098772154056,0.2077933696901232,1211.6163633926888,1192.730771944692,1188.327777086578,1156.4809339173348,-1276.801163708659,-625.5437533567141,-1345.2505327574715,361.8596771508688,162.96358097894145
0.1425,-1.937431868779388,3.8967715833808407,0.3800128979312495,0.0429091634498452,0.165236757489319,-0.0166604717810252,-0.001491538177771,-0.0081441747337382,0.0175638809780251,0.9998112926183522,0.0650090871777753,-0.1568114999394729,12.004169690062536,-0.101613511837164,-0.0070032940941478,0.8245642868932819,-1.9165405154518504,1.860988208354536,0.2098625524123845,1208.1872820900894,1191.3004589040384,1185.2622124043219,1157.5150977451146,-1412.5597052064288,-490.7219993869171,-1111.0993128369098,427.231629279506,162.97449666688337
0.1449999999999999,-1.0790554780667432,3.4904503591608367,0.5065663360357061,0.0358873924145783,0.1717983063320132,-0.0148706809193371,-0.0014605661503551,-0.0079310507151876,0.0175790401757319,0.9998128051700454,0.0690573291592941,-0.1537318488488871,11.949964249411577,-0.1023670821237405,-0.0072747407752971,0.8299180689477272,-1.916833653466846,1.860965748604248,0.2119499549759242,1204.5535648666566,1190.2771619477571,1182.7722805223934,1158.6170920637323,-1440.112504349788,-283.80152634763493,-863.1511778422503,417.79782693256686,162.98488279047913
0.1474999999999999,-0.1255346885058089,3.1166028808024575,0.5810613764227952,0.0343783629425313,0.1787264669781896,-0.0120275677235659,-0.0014070270140544,-0.0077306638131413,0.0176163527761113,0.9998138049185116,0.0735691869084635,-0.1493976641090263,11.896223897307328,-0.1030600788990551,-0.0075010861178321,0.8350721079353757,-1.9171325190922188,1.8609439389914395,0.2140536369591869,1200.9867195683405,1189.8814512723004,1180.9464565151106,1159.6040868797775,-1464.3849447976647,-25.00051055803849,-683.8957246247895,361.037198594158,162.99464851857599
0.1499999999999999,0.9195534214408688,2.6823243534820316,0.600551805498803,0.0390249113581414,0.18781979817762,-0.0087686241539013,-0.001323977022587,-0.0075438979011354,0.0176755881023208,0.999814299453209,0.0784837477559706,-0.1436574814511331,11.843224232623623,-0.1036871795014264,-0.007666594216309,0.8400280266139579,-1.9174358416506456,1.8609224101545605,0.2161725320604909,1197.2316401426683,1190.1521593949672,1179.3528018992695,1160.4222780567031,-1229.7885816385576,204.1758700294848,-521.341164398063,213.10218112384956,163.00567465133588
0.1524999999999999,1.5751728397140514,2.313385851692889,0.5717273416848199,0.0465556528332823,0.1952186726374232,-0.0071599411763877,-0.0012108907170719,-0.0073710658565863,0.0177516158670662,0.9998143772387807,0.0837251339059574,-0.1365309495220116,11.79121919068163,-0.1042458971726731,-0.0077670595432747,0.8447915480008378,-1.9177421589277628,1.8609005843348692,0.2183051422015213,1194.8377766601477,1190.9023306224478,1178.3397506931203,1160.6695977853967,-754.9695303819128,368.0285210321923,-386.9838261080528,-7.384869840689128,163.0143043636106
0.1549999999999999,1.913318451676312,1.93169115814252,0.5245311174995698,0.0550565116831694,0.2006717535912913,-0.0067938864302775,-0.0010778968132446,-0.0072094561198632,0.0178357675224981,0.9998141941959529,0.0891466758959636,-0.1283034365739764,11.74043064569182,-0.1047413472567354,-0.0078168134836451,0.8493721757172331,-1.918049564251028,1.860877967145432,0.2204488007852906,1193.4567924907587,1191.992302000128,1177.4178827687292,1160.3853537074997,-353.50436747503375,505.24855482235535,-432.85900888035894,-245.25573105465787,163.02237677173372
0.1575,1.937595338936504,1.471154749143578,0.4717797509604729,0.0640570966690071,0.2041886281295274,-0.0067111291212791,-0.0009382665246569,-0.0070490280060732,0.0179149955038486,0.999814032189045,0.0944385056535118,-0.1193429794094936,11.691041920055152,-0.1051936888347495,-0.0078363816379995,0.8537824471852699,-1.9183560095391832,1.860854231338736,0.2225995889478025,1193.0702548227723,1193.4285733965596,1176.1754556487183,1159.4433191301234,56.45421337735565,516.1535192833976,-504.3131062339394,-430.87542727166647,163.03144491298977
0.16,1.67992699861976,1.088803397945728,0.4344864971904294,0.0695379943431673,0.2058029026983992,-0.0060821326184974,-0.0008069351576214,-0.006874281254497,0.017976894652832,0.9998141990765484,0.0991775197058983,-0.1100642586705582,11.643190930796832,-0.1056351556352071,-0.0078490110791981,0.8580379275502222,-1.9186592950257615,1.8608284756103104,0.2247529059572963,1193.7390635576455,1194.573069596545,1174.8963172375595,1158.2309765711411,424.3086375378876,424.00631887262495,-578.552396778786,-545.8215537993051,163.03850358750663
0.1625,1.214329102555176,0.6896263569065418,0.3945654127069559,0.0719828028699575,0.2078863144226732,-0.0047736116448861,-0.0006940216998699,-0.0066732705866013,0.0180127764457966,0.9998149151397052,0.103043870357977,-0.1007808418699838,11.596964985095733,-0.1060941752117136,-0.0078692572311267,0.8621582610526953,-1.9189580802341624,1.8608003260242172,0.2269062002556396,1195.191798010462,1195.5486049909227,1173.2826936648244,1156.714211361127,653.8262795967051,357.6089598417635,-699.9269070729946,-631.8693028118099,163.0450647456818
0.165,0.638447314802973,0.2523216565956198,0.3438102765712851,0.0722188850469446,0.2105110037414796,-0.0034267928872939,-0.0006020459844076,-0.0064368677837075,0.0180221265831963,0.9998162392561564,0.1058048213748018,-0.0916420436103938,11.55239730524619,-0.1065958263223528,-0.0078971719957465,0.8661656457749841,-1.9192518742764428,1.8607689491130968,0.2290589636796083,1197.008194955629,1196.361114395754,1171.3966827021943,1155.0716300570823,730.8377647852005,291.6278403782596,-801.679075300853,-653.7630143084692,163.05122680100024
0.1675,-0.0184722366685776,-0.2491206838058333,0.2752313809342111,0.0716356744709033,0.2128283914948654,-0.002471034116818,-0.000527685803577,-0.0061588463010016,0.0180069186606733,0.9998181718223852,0.1073164163868455,-0.0826759308831624,11.509465672367138,-0.107160781917653,-0.007922676520722,0.8700831700475187,-1.9195400743444393,1.860734747680336,0.231211013501895,1198.845986834388,1197.006744192814,1169.2742982883203,1153.4453962895843,709.2674639893169,255.52867368096463,-945.6412784496471,-667.4282270178985,163.05692248088587
0.17,-0.8654779815629549,-0.9095376854570638,0.1726141898973842,0.0715293651116614,0.2136491649446688,-0.0018192954613441,-0.0004722784538386,-0.0058377174768687,0.0179688702139508,0.9998206870889392,0.1075598459545449,-0.0740311429469627,11.468093584925414,-0.1078014404842227,-0.0079447574171955,0.8739333234746144,-1.919822882982052,1.860698820846712,0.2333628569523776,1200.5545322755756,1197.6387577641588,1166.6684763099463,1151.7344889219928,485.5480485029598,206.29683876400105,-925.5432110043322,-557.6231982682198,163.06323554679764
0.1725,-1.5967943916904124,-1.465688414354717,0.0719303523535912,0.0712175297515918,0.2115231139351473,-0.0015059563201785,-0.0004340564918206,-0.005484147647894,0.0179132393563764,0.9998236238951822,0.1068104160374345,-0.0657973070136122,11.428156356624124,-0.1085076893228506,-0.007957739744082,0.8777381673085077,-1.9201013582463424,1.860661930873792,0.2355162544251019,1201.2737270769028,1198.038228386634,1164.6465822332987,1150.6572802982434,107.97232280729067,110.19262993404472,-730.3954531186711,-332.76597934755017,163.0680730282098
0.175,-2.2966936102031297,-1.953203749125036,-0.042320145705441,0.0686089623059726,0.2062489611572282,-0.0013062377437731,-0.0004087905571369,-0.0051177991088524,0.0178488301765122,0.9998267113245008,0.1055582423643256,-0.0580160659198137,11.38949001449621,-0.1092512833760253,-0.0079523798504794,0.8815173333927854,-1.9203781361396273,1.8606254872566064,0.2376750805607984,1201.094393889612,1198.1897209138288,1163.0164990443527,1150.070659025255,-275.94138239837906,-45.289571260628,-586.4561475175406,-135.1921806660363,163.0724830917385
0.1774999999999999,-2.9839641639635635,-2.3770848412503938,-0.1904656773837679,0.0605746122904767,0.1978301263857303,-0.0010208435649136,-0.000386704222492,-0.0047580854563064,0.0177840704485552,0.9998296959020284,0.1042932810427038,-0.0506044133980455,11.351903266891153,-0.1100012275056875,-0.0079109280560513,0.8852851881845515,-1.9206562926830208,1.8605904842899823,0.2398430274657457,1199.894020164911,1197.811780530331,1161.7143014957107,1149.9813193949133,-570.0802797848181,-281.45869840209474,-356.9763981774957,59.250869711195534,163.07729347134563
0.1799999999999999,-3.331825420637148,-2.557284464511775,-0.3147631722671742,0.0497047376051373,0.1902655212113671,-0.0008862366175158,-0.0003624127192994,-0.0044160939096636,0.0177247521146276,0.9998324190606684,0.1033146919835024,-0.0435744326421575,11.315190063413539,-0.1107383118562563,-0.0078246966010753,0.8890484673150533,-1.9209372321604268,1.8605573252622656,0.242022252861832,1198.243992490688,1196.7824274218185,1161.2316170534655,1150.366913373811,-737.3396470260097,-612.5992626986312,-79.44750081492195,216.20905156337335,163.08090882655597
0.1824999999999999,-3.36094917287566,-2.54128876730224,-0.4193665232904445,0.0369735370296052,0.1828099216819874,-0.0013150629756105,-0.0003374864584414,-0.0040962291317574,0.0176731551094584,0.999834822429917,0.102765433133333,-0.0370863461341848,11.279142662826144,-0.1114527539042867,-0.0076988168988382,0.8928066159982251,-1.9212211745615055,1.8605260154976175,0.2442153018466083,1196.2073219297808,1194.7487842168375,1161.3170639916364,1151.06236465273,-834.5643334891057,-1000.475630640084,103.90165540193256,291.7046296750411,163.0841244264258
0.1849999999999999,-3.1118522208498534,-2.3695070820945903,-0.4844868034049443,0.0247948529038643,0.1758280711750521,-0.002493484291695,-0.0003190285324107,-0.0038035762510313,0.0176285558613424,0.9998369031055644,0.1027961151238001,-0.0314133898552297,11.2435642020493,-0.1121315615042825,-0.0075498121924536,0.8965538922385035,-1.921509073339208,1.8604961238293567,0.2464241373758544,1194.0711708232425,1191.780049268618,1161.7511253304751,1151.8254365221862,-835.6017090586184,-1400.4714920154115,219.75460212142917,268.5971425758905,163.08701392744425
0.1875,-2.5798548878807965,-2.0366814114134275,-0.4713914057769346,0.0149809094342198,0.1699434219832739,-0.0047348383753657,-0.0003093210673013,-0.0035444758139119,0.0175897693077362,0.9998386669653404,0.1035774547822509,-0.026704723170141,11.208280640942892,-0.1127576169363565,-0.0073863871336856,0.9002804902754697,-1.921799983550568,1.8604669263290892,0.2486483068686804,1192.0293133844875,1187.7464267567607,1162.4158370022435,1152.4053503656096,-843.3714537455662,-1950.9849516194645,302.9297370614128,150.3723971001817,163.08951559761056
0.19,-1.753685952406406,-1.5017975174639853,-0.3389203234545096,0.0074058723759614,0.164411708638976,-0.0084024998897866,-0.0003126406374975,-0.0033189579588708,0.0175549948446625,0.9998401563663576,0.1051244867221452,-0.0231334990595108,11.173151509178709,-0.1133239676328923,-0.0072212160632407,0.9039716253288737,-1.9220941286339213,1.8604383401912248,0.2508881211563365,1189.8543135545146,1182.0251245105208,1163.265774015782,1152.5772985076871,-744.462377387071,-2160.687218405836,300.85965659341093,-55.53887389473852,163.09207475834447
0.1925,-1.0397269182674171,-0.987030301093232,-0.1346918454798576,0.0047300272510699,0.1612825156058255,-0.0115167922536506,-0.0003321493145722,-0.0031186122307386,0.0175254135407331,0.999841390930662,0.1072499793538789,-0.0208236283626499,11.138078267047828,-0.1138382973268584,-0.007064399029221,0.9076080226208564,-1.9223916067279363,1.8604099802201208,0.2531438077796302,1188.3070014975524,1176.9429906647315,1163.9201352852103,1152.127655996136,-572.8743689407106,-1978.5681185433968,242.78700947247648,-314.9682917905008,163.09384134086164
0.195,-0.4576394109249301,-0.4563948455133245,0.1238774998548079,0.0062551745021082,0.1600792041671595,-0.013015315681336,-0.0003644223629118,-0.0029376433025336,0.0175047671009352,0.999842335366825,0.1098133611006912,-0.019730948585527,11.103008807879863,-0.1143033278022458,-0.0069138775807436,0.911169500771915,-1.9226920162256071,1.8603811073279128,0.2554158197698836,1186.989941709811,1172.1322839178035,1164.4797090631444,1151.0024570487346,-505.2909104145324,-1793.5681067656317,210.08008682047128,-551.7498716991663,163.09523055561291
0.1975,-0.0795516788655542,0.0478873761279411,0.3689346009204665,0.0106932026975305,0.16037690903552,-0.0120576661976428,-0.0004091810067506,-0.002768122703266,0.0174971051219505,0.9998429514499584,0.1126102437281912,-0.019857301571561,11.067940961696996,-0.1147260934764651,-0.0067734497690946,0.9146348011406968,-1.9229950305963897,1.860350750155641,0.2577045248040167,1185.7805469454795,1167.975150130903,1164.9705357193127,1149.36890663764,-485.340547922669,-1428.3333023859527,183.3366144367572,-745.6490009061774,163.09630871019235
0.2,0.0021202967522404,0.4827327299593305,0.5187157102870751,0.015351082711406,0.1620518580523677,-0.0083409998115727,-0.0004648188199425,-0.002605744978767,0.0175021340013831,0.9998432648704216,0.1155022713631628,-0.0211513751305504,11.032921739004728,-0.1151076147034011,-0.0066461631873294,0.9179841615666537,-1.92330042018056,1.8603188083438127,0.260010381780235,1184.5632389701975,1164.990617405874,1165.3963921353284,1147.2742120442035,-574.6748308057245,-995.8755518808621,168.45319882258977,-976.7669500995897,163.097014726381
0.2025,-0.2110189918849996,0.893905262041725,0.519148018750974,0.0178769196224474,0.1650019224977532,-0.0027598583105488,-0.0005299820409882,-0.0024494505789859,0.0175158413754607,0.9998433566908138,0.1184086263385746,-0.0235427453879154,10.998044245517804,-0.1154438814580615,-0.006537323801465,0.921200479044424,-1.9236088234325148,1.8602860927594689,0.2623325911273715,1182.907172791451,1162.995772371499,1165.8128017134259,1144.485071887142,-661.5942900781641,-476.066440845852,124.0507502569925,-1028.6482803231129,163.0974365524504
0.205,-0.5750823937648843,1.1349214626138366,0.3626917539794486,0.0172010123005004,0.1678073598546564,0.0012745836425867,-0.0006016398628844,-0.0023023152766941,0.017532402540766,0.999843329161321,0.1213279573264842,-0.026899571025347,10.96344159697202,-0.1157244572518495,-0.0064507523411769,0.924270814704332,-1.9239203791764807,1.8602551540516516,0.2646685053818881,1181.2552675198067,1162.6102852016447,1166.016645886613,1142.130970642588,-729.1213831625092,53.77088177110631,25.97204225430685,-904.6733218539421,163.09743782885704
0.2075,-1.0249815855650393,1.2692733684336743,0.0885351873790372,0.0141576124543487,0.1708705799245405,0.0032608897384944,-0.0006769658532808,-0.0021659926129905,0.0175461108059859,0.9998432862506444,0.1242184518315561,-0.0310688189227501,10.92927932268768,-0.1159431815168191,-0.0063915748653192,0.9271861389495633,-1.9242342614740535,1.8602275449054373,0.267015649277153,1179.2615658756383,1163.2646267803543,1165.9426619246974,1139.9617052778724,-946.2558548639252,419.4507217032898,-129.80208047865804,-874.8391797626523,163.09708148303685
0.2099999999999999,-1.5487264027782133,1.3118493337881398,-0.2771526466981705,0.0083495542692202,0.175079464726902,0.0026080952475208,-0.000755551961575,-0.0020345432075339,0.0175503408205712,0.999843361531612,0.1268672785868799,-0.0359235675724152,10.895746082089733,-0.1161101422377974,-0.0063700597693683,0.92994059664499,-1.9245490549212196,1.860205954855088,0.2693717873095963,1176.523988245487,1164.7075388101612,1165.36763548422,1137.7567747437747,-1037.72319057171,545.6046116239602,-308.3444832354431,-726.8648615056042,163.09624837099167
0.2124999999999999,-1.9082138471681611,1.255772035188338,-0.531936741921255,0.0024892751942289,0.1790677380692189,3.354173194540055e-05,-0.0008415387470176,-0.0018866901027968,0.0175396718958705,0.9998436857418154,0.1287286969552376,-0.0414084813256368,10.863043368983169,-0.1162666350459101,-0.006404225939187,0.9325300804964964,-1.924862523371864,1.860192748852021,0.271733732285833,1174.07294992278,1165.9926498384743,1164.40093950852,1136.3273809703444,-972.8328369108558,424.03862536953017,-487.6380366395546,-482.53864293706056,163.09522271008322
0.2149999999999999,-2.1422810344697423,1.1242620359961433,-0.6558248367957872,-0.003638154558767,0.1829957017177451,-0.0038322789977941,-0.0009305161744872,-0.0017022437708528,0.0175148823304626,0.999844278920589,0.1292940860390459,-0.0472656019100771,10.83137146748322,-0.1164543728681139,-0.0064938187209564,0.9349563030537508,-1.9251718081858584,1.8601869266727291,0.2740979045626323,1171.659824060933,1166.8277319370088,1162.9294453010223,1135.3440815290896,-922.5782760941904,195.7998814909386,-653.0747772817443,-323.49915259933334,163.0938615675169
0.2174999999999999,-2.2579118097529367,0.9573042549829496,-0.6373348278660104,-0.0097945924337595,0.1861824022731576,-0.0081404969082096,-0.0010170557876211,-0.001474567244437,0.0174802713978769,0.999845070302329,0.1283614645349049,-0.0532095991024832,10.8009157241646,-0.1166918475229496,-0.0066341587796354,0.9372291724370884,-1.9254762983585068,1.8601864189909791,0.2764609190459971,1169.460058542309,1166.971649245929,1161.1355656221115,1134.7098852073475,-790.8771237739068,-151.85527404532863,-750.3654089645798,-178.11320108371527,163.09222871414678
0.22,-2.22991614955724,0.7936525872083504,-0.4460866753420151,-0.0159155275000355,0.1881236540300614,-0.0119283188986298,-0.0011024221373958,-0.0012099419329884,0.0174375772301495,0.9998460017465488,0.1260180963856173,-0.059099328794427,10.771835254315686,-0.1169747445184399,-0.0068311329683377,0.9393656662062018,-1.9257763998140127,1.8601880376759847,0.2788206988868507,1167.7054384420635,1166.068455566782,1159.1776182561991,1134.453515523671,-643.5088951067422,-640.8945824625329,-825.8046416442531,-35.281109678453475,163.0902757430964
0.2225,-2.045038512776516,0.6647615127318676,-0.0669561786212808,-0.02290496915275,0.1891732203630269,-0.0144979851841746,-0.0011878998226992,-0.0009192968728215,0.0173936695249427,0.9998469219506468,0.1224643172599702,-0.0647969434824122,10.744255109402667,-0.1172904874346457,-0.0070861557178284,0.9413868279567148,-1.9260730482063284,1.8601893711212871,0.2811773112012668,1166.2425140667751,1163.7671763336164,1157.0065424138902,1134.5334796589555,-433.0387999833416,-1008.4723884633594,-714.2764714559228,88.81624339210238,163.08757133223872
0.225,-1.7857340903518413,0.6529347905673205,0.3085198804565518,-0.0283043739785373,0.1893244420334882,-0.0144390380699932,-0.001274435424491,-0.0006154877312476,0.0173562281471276,0.9998476706783128,0.117956419310339,-0.0701658919957177,10.71825993985048,-0.1176227442628489,-0.0073962581270417,0.94331583478566,-1.926367583051085,1.8601891915548487,0.2835322271948134,1165.5402444421468,1161.0260936244651,1155.6062358989195,1134.8975967406316,-203.92621672476687,-1184.0511669129671,-432.7650681046176,202.48634869740252,163.08502334938183
0.2275,-1.4542512414142739,0.7677640354232529,0.6539624874893286,-0.032846959716576,0.189259443158559,-0.0120542478903197,-0.0013543574466839,-0.0003109394883162,0.0173291681353556,0.999848164495487,0.1127607463938475,-0.0748995847408127,10.69389068130177,-0.1179552191651705,-0.0077395505022114,0.9451764286964502,-1.9266606265912811,1.8601852068948148,0.2858865509400339,1165.2228829831515,1157.8469204990515,1154.842717073367,1135.5459114024425,-106.683746182125,-1377.8380843744333,-179.02582916303783,345.50714641632084,163.0821771431686
0.23,-1.0312756458447487,1.0496314305663568,0.9384453650519728,-0.0360552934505756,0.1896615016767198,-0.0067491780259488,-0.0014182324074725,-1.3361613190461211e-06,0.0173184956804266,0.999848292505204,0.106803875005168,-0.078670659723659,10.67114397771706,-0.1183026720414398,-0.0080864990655088,0.9469879746119498,-1.9269516081427556,1.8601754316686931,0.2882400417280107,1165.006825711236,1154.1369032025932,1154.7111067531043,1136.6251324727132,-95.12075878114948,-1254.0108293719175,61.51111696203765,442.26369781131285,163.07842491037903
0.2325,-0.7030872288819193,1.3772134446548367,1.0240778360199114,-0.036198357933433,0.1910039129762352,-0.0010750793165098,-0.0014576738244421,0.0003310966193712,0.017331464048674,0.999847925354366,0.0997451711271661,-0.0811973573245296,10.649971075462828,-0.1187048998930024,-0.0084062084578389,0.948765235723992,-1.9272390620100197,1.8601578416962503,0.2905918053974843,1164.7472791892455,1151.576866352192,1155.1502726581773,1137.757229891499,-162.44333109129897,-827.3875930750813,238.68093831165405,496.42422512006254,163.07502292446867
0.235,-0.4349202916058909,1.740116891829944,0.9507436533473514,-0.0350605399984165,0.1941454280337774,0.0040434272761112,-0.0014694396895307,0.0006939407385205,0.0173701986459631,0.9998470173716236,0.0914800484072093,-0.0823420341685244,10.63027730579828,-0.1191817581910478,-0.0086774883687283,0.9505229186873728,-1.9275234917739048,1.8601311887404888,0.2929429672229211,1164.1946090557797,1149.9999652372176,1155.9045114446628,1139.1072535983135,-287.9771266068926,-428.23524108239286,305.4931503675104,569.957687493024,163.07134178719127
0.2375,-0.214596006184632,2.072527368250016,0.7833707397877068,-0.0345862569986387,0.1992177078092121,0.0073658498520898,-0.0014520264252019,0.0010809714155293,0.0174318728236347,0.999845613910243,0.0822140010118277,-0.0820412813264573,10.611927562486304,-0.1197256320393509,-0.0088837361407983,0.9522757671539024,-1.9278072745235209,1.8600959495694969,0.2952970913273637,1163.3073935562113,1149.43569014678,1156.6777384100149,1140.607018328964,-438.1947169350517,29.09004407015359,255.22397686277264,621.2766411149488,163.06743428808184
0.2399999999999999,-0.0215129790968046,2.2955965058766745,0.5783599655362758,-0.0357029385312749,0.2065892070975265,0.0077696887765116,-0.0014098034297449,0.0014799268818975,0.0175129910855835,0.9998437729998482,0.072291402557746,-0.0803911348242723,10.594754036450812,-0.1203160703147789,-0.0090208345470174,0.9540361669272874,-1.9280931582505436,1.8600537077166817,0.2976584922737677,1162.0036354711044,1150.1454154575683,1157.1806313289767,1142.2136368038882,-650.2679991213912,574.9208651992403,97.27722926613795,701.8543843764779,163.0632608650467
0.2424999999999999,0.2193312870244279,2.371553117456441,0.3834109329195556,-0.0379678190915075,0.2168409640097078,0.0056543508229396,-0.001355851124199,0.0018813356804799,0.0176020297357244,0.9998416805577268,0.0620046845785431,-0.0777012199023297,10.57856489403003,-0.1209367358602248,-0.0091052427211747,0.9558120393856032,-1.9283819654267595,1.8600061488483537,0.3000292384224809,1160.0560535606044,1152.310294472776,1157.1641245563455,1144.1162902508463,-751.5694770657766,963.0548554958286,-136.14954127292535,666.4037878287667,163.0579555496109
0.2449999999999999,0.4358190628432221,2.26360231724496,0.3028163570253887,-0.0391448430015738,0.2251080420518446,0.0035459644752975,-0.0013038860436445,0.0022770651449318,0.0176871270657036,0.9998395354485352,0.051625070910915,-0.0743212540566329,10.563153991597543,-0.1215729579595079,-0.0091577563357906,0.9576078767419284,-1.9286724532787167,1.859956822390998,0.3024086326648509,1158.2457880857755,1154.9606897350477,1156.499883622612,1145.545655743032,-725.4054152848759,1157.9388358426957,-405.43151345213994,506.7028318130265,163.05329501611615
0.2474999999999999,0.6437364876036427,2.0120799112894527,0.3042172487380664,-0.0379888813804293,0.2315721974088383,0.003353610848743,-0.0012636426655339,0.0026598450793496,0.0177576379980487,0.9998375288043913,0.0414115312491713,-0.070539709055981,10.548310460347672,-0.1222111124553575,-0.0091947465725656,0.959425596068684,-1.9289627611477176,1.8599092960004904,0.3047949795454746,1156.42902648418,1158.0999886519896,1155.1369669890848,1146.6498044099117,-758.6064877657003,1397.410660339982,-734.194742201543,381.2142143543948,163.04839664987736
0.25,0.8321764705492612,1.6270639790275727,0.3563803760745063,-0.0341319929885545,0.2365564377264667,0.0053612436523187,-0.0012400246416971,0.0030252237921105,0.0178049105039595,0.9998358235889672,0.0315671106455217,-0.0665606807825359,10.533827527886558,-0.1228425425752402,-0.0092261403812636,0.9612645544328918,-1.9292515242385828,1.8598662369459185,0.3071866702480804,1154.452755646947,1161.9477430367476,1152.8289099116043,1147.451726814804,-664.1403288109808,1358.9325832432212,-923.9711997272926,196.7095168944068,163.0422572989858
0.2525,0.9102820652711856,1.305402935710774,0.4096579677068366,-0.0302544933161564,0.2386802850994992,0.0075320333348015,-0.001236208439493,0.0033700335785362,0.0178269450319496,0.999834468063764,0.0222674425816123,-0.0625647825386598,10.519510607199715,-0.1234607466850503,-0.0092597276068859,0.9631220702582444,-1.9295388010753545,1.8598290390602823,0.3095826117777058,1153.108324840125,1164.8946515682055,1150.5171109904484,1147.6333519943837,-450.1144775178087,1061.7656625983718,-958.4500442385424,-23.253231449461943,163.03693424577816
0.255,0.900666572790028,1.050401694968787,0.453352353744338,-0.0271261560667586,0.2395449352677321,0.0092086408155592,-0.001249616919074,0.0036922769171646,0.0178254612355857,0.999833449200661,0.0136622688329215,-0.0586190225799644,10.50518536444045,-0.1240607844257699,-0.0092932490008862,0.9649935708326252,-1.929825054581496,1.8597973695301373,0.3119837742481715,1152.202183259358,1167.2565713497395,1148.0366596904116,1147.3354606575567,-277.56700250210974,816.1721483122157,-987.9970412202957,-183.22548135993185,163.03141017740094
0.2575,0.8320263142668338,0.880142042235417,0.4868969379121443,-0.0250126835445768,0.2400059725931481,0.0104137871990208,-0.0012758519645217,0.0039961358741837,0.0178055434664767,0.9998326750706724,0.0057663206167011,-0.0547530361538912,10.490703935362673,-0.124648913345511,-0.0093209255072176,0.966871266495234,-1.9301111006330969,1.8597697146132823,0.3143914798192247,1151.7204898276143,1168.9755123097668,1145.577125784347,1146.717224587584,-86.57614213338995,517.0686185024347,-948.7785231759054,-297.6429889027256,163.02572954814676
0.26,0.7163196198734993,0.8185621836782243,0.5113045340612702,-0.0239732380206037,0.2405926218603038,0.0112820414121348,-0.0013070907641984,0.0042871652839713,0.0177747154700761,0.999832008905838,-0.0014411394802748,-0.0509231145871545,10.47595138144362,-0.1252332050742761,-0.0093299565765558,0.9687455079620648,-1.930396906308279,1.8597448832799517,0.3168062089694236,1151.769302548691,1169.8419144422517,1143.292767074532,1145.847245713043,130.8772760810369,194.16971570622064,-937.0316579188504,-404.41535056447685,163.01987120571286
0.2625,0.545344602140988,0.8467649076872868,0.5311379457916638,-0.0231599948060641,0.2421876340662329,0.0125105356084391,-0.0013377526963116,0.0045739611770623,0.0177418370272724,0.9998312726899936,-0.0080556366425468,-0.0471270567885829,10.460850356665999,-0.1258269259359283,-0.0093111362028266,0.9706045121569064,-1.930682541670252,1.8597214410337883,0.319228098628118,1152.3748762080195,1169.946360888298,1140.8919674947526,1144.6951478347617,290.50042091334916,-91.04819882240909,-807.9978172035219,-417.03420776202574,163.0126484852615
0.265,0.380457109805155,0.9233242077193066,0.5366679964963861,-0.0222470439175522,0.2447050135529355,0.0137494581114739,-0.0013702951878705,0.0048609374457536,0.01771290744861,0.99983034182019,-0.0141005514175165,-0.0435249292345136,10.445365931356632,-0.1264346334608419,-0.0092711389812659,0.972436368811397,-1.9309683130072215,1.8596978175918657,0.3216566572426655,1153.2218046532575,1169.3866734481396,1139.2527779885145,1143.7620746742327,371.51862907985526,-311.4110015959338,-562.151415435937,-347.7615981662436,163.00647722890344
0.2675,0.1883685206293561,1.0149511014146544,0.5247001472649894,-0.0210798434078157,0.2483590628664236,0.0148700759439979,-0.0014088092242795,0.0051504803263323,0.0176928523440916,0.9998291149541776,-0.0195723284296871,-0.0403011715811588,10.42950847752662,-0.1270560983590423,-0.0092196108331476,0.9742289945642926,-1.931255038347426,1.8596732230331592,0.3240919053523566,1154.2324693534188,1168.3893058803183,1138.0812104175727,1142.9563398439304,432.38274577356566,-480.65884500365377,-383.9958332289367,-315.27102412419447,163.0001564300599
0.27,-0.0752233414894115,1.1145181395947599,0.4808832138029289,-0.0200097513272603,0.2527739142036756,0.0161160590733696,-0.0014574176262433,0.0054490938504296,0.0176854424480194,0.9998274891735734,-0.0245697064044813,-0.0376268780565753,10.41333375294516,-0.1276982916401035,-0.0091659916532999,0.9759689321507532,-1.931543880753596,1.8596470202644448,0.3265344898991859,1155.3837183821256,1166.9833792231211,1137.3327988223696,1142.185719553612,377.31594168703816,-511.8386642542641,-150.05882882692262,-251.1032053392225,162.9924068263452
0.2725,-0.3147052473783267,1.186262463627357,0.410675058249922,-0.019855006068449,0.2557081857034813,0.0173870524833024,-0.0015180141246493,0.0057607763489006,0.0176892405433188,0.9998254679774004,-0.0291555437799344,-0.0356139458289448,10.39694315055328,-0.1283626015090961,-0.0091165564242673,0.977643449857681,-1.9318359546163624,1.8596185600878687,0.3289853381734395,1156.119049061854,1165.8301125590467,1137.3309162734383,1141.7008238172343,214.1638432693524,-422.0131454055259,134.91958837512345,-167.89433159319728,162.98581653054154
0.275,-0.5541069450729589,1.2545991268634276,0.2946752488795484,-0.0208960353252685,0.257853672064311,0.0188284340516729,-0.0015917574273334,0.0060891128997568,0.0177022216280645,0.9998230694007822,-0.0334014239002041,-0.0343441674235177,10.380480940209043,-0.1290494151063866,-0.0090764484752075,0.979240488344923,-1.9321314613095013,1.859587543656415,0.3314450169180689,1156.4545375984724,1164.8733134960935,1138.0073967642454,1141.346247895646,50.403476558039934,-332.06772047815286,374.4598893241797,-123.19449046644864,162.9790935812735
0.2775,-0.7736467719002569,1.3232770366713411,0.1373840191874476,-0.0228588080055573,0.2598129116632871,0.0201183269922387,-0.001673697919711,0.0064312501239848,0.017720035629453,0.9998203981603344,-0.0372603668316114,-0.0337592047737418,10.364131366203916,-0.1297465801985919,-0.0090401569290086,0.9807509752083564,-1.932429598700064,1.8595553329522008,0.333913414270503,1156.3710664446444,1164.169773956656,1139.2032157200592,1141.084851364902,-145.5611758402027,-208.4489749169732,573.7898551229132,-75.74850634196073,162.9722636699833
0.28,-0.9480105737945748,1.3818393097111223,-0.0633247284166496,-0.0254053711301128,0.2623585512423227,0.0209479365837202,-0.0017599624423133,0.006782541733933,0.0177395571196548,0.9998175487501177,-0.0406652471302843,-0.033807480821928,10.348112191802077,-0.1304392079538548,-0.0090048369446641,0.9821681805617936,-1.9327296661549869,1.8595236671125293,0.3363893720292596,1155.7267317192711,1163.8310686215088,1140.87634603986,1140.967505363936,-412.71861284103545,-60.647251194904975,786.3075121359082,6.591461337302456,162.96530873748318
0.2825,-1.0861762666852939,1.4093566126236379,-0.3311904613946092,-0.0286580750409306,0.2666604979385739,0.0210875188071431,-0.0018550658731435,0.0071311190297852,0.0177557464792886,0.9998146809174536,-0.0434176143416657,-0.0345966913272835,10.332668698128918,-0.1310995495655734,-0.0089858074154993,0.9834896028940424,-1.9330304652083867,1.85949386013502,0.3388711053339742,1154.3074733804392,1163.8665377006816,1143.1347532807388,1141.1178086715884,-615.364776245587,83.44718158305106,815.2553891863128,130.4575847264458,162.95682402482612
0.285,-1.1334462095005169,1.3707223472763264,-0.5503715293730966,-0.0315578448196968,0.2709415364279698,0.0203580091373257,-0.0019599799050271,0.0074652197682362,0.0177670432945163,0.9998119016508012,-0.0453327765358329,-0.0361432257727506,10.318064024949784,-0.1317012353836251,-0.0089914495722017,0.9847157942569464,-1.933330998517324,1.8594666745326207,0.3413568828194034,1152.6499078380434,1164.248304529424,1144.9526229857915,1141.6197932875684,-731.6425751471335,218.656652420759,645.5569024836217,310.92736175419276,162.94964243418113
0.2875,-1.104189105690424,1.2472440345330835,-0.7261874341818221,-0.0346705887901121,0.2749287318161937,0.018673107004909,-0.002069755840745,0.0077740325919087,0.017776628980087,0.999809243908406,-0.0462530766880764,-0.0383239056891158,10.30456975001382,-0.1322209546153754,-0.009017830420619,0.9858503922458804,-1.9336304754679143,1.8594438090189704,0.343845179799638,1150.6492605047035,1164.9598209627854,1146.362537793157,1142.6724454803596,-911.0557391080968,382.51703865171686,458.54817957738766,614.6139111389465,162.94235179225433
0.2899999999999999,-0.9807138674718474,0.9956452151909811,-0.8399053568576836,-0.0382309895721926,0.2785389141472239,0.0154644351562426,-0.0021757031118361,0.0080519730297237,0.0177909074550381,0.9998066537180548,-0.0461331917381708,-0.0409214191519587,10.292455306981449,-0.1326468939205143,-0.0090526785946455,0.9868989227444148,-1.933927913843184,1.8594273351185395,0.3463348326817973,1148.0946291425028,1166.1608897226827,1147.2453638836785,1144.6928628432631,-924.3525807462087,497.21819942379216,158.29067658273905,871.2130178375535,162.93348488811836
0.2924999999999999,-0.8105524857279373,0.7041031826798819,-0.8257618429967629,-0.0408423100039181,0.280472259994194,0.0119288917387696,-0.0022734728344975,0.0083035646116543,0.0178114199302516,0.9998040740659352,-0.0451395668637318,-0.0437914316989279,10.281977101005504,-0.1329884134771358,-0.0090924550859281,0.9878671441935358,-1.9342238199602844,1.8594168536581708,0.3488268171812257,1146.0274976009723,1167.4459119599044,1147.1539911760703,1147.0285105695473,-776.2111265662945,576.6877138451486,-213.48878344042512,1057.7013529882142,162.92600370094382
0.2949999999999999,-0.5856803922214368,0.3339651589278413,-0.685043940544307,-0.0428441917670086,0.2814249226959356,0.0081600547649192,-0.0023583791389455,0.0085366078544913,0.0178378686446188,0.999801457338994,-0.0435040312680257,-0.0467707250759374,10.27337071810454,-0.1332622921110731,-0.0091317994833662,0.988762828832796,-1.934518975456176,1.8594105993961807,0.3513227336031769,1144.2135735096715,1169.0443282919084,1146.1779199664763,1149.9813696082042,-667.8399622711362,695.3184668273019,-516.7842632205969,1263.6438936771344,162.9184351164437
0.2974999999999999,-0.3318273519182388,-0.0991135501840284,-0.4511748335324512,-0.0439540701695046,0.281654334298066,0.0049903845237451,-0.0024238807374685,0.0087664426659944,0.0178703449171007,0.9997986888930742,-0.0416078136315868,-0.049647364056744,10.266841568684894,-0.1335010122815551,-0.0091591097405637,0.9895947166120286,-1.9348127144311504,1.8594059493895447,0.3538207029733582,1142.6882977896169,1170.922504294041,1144.5700698599676,1153.3467300379327,-541.409415867201,819.9872012567987,-748.1310789958109,1411.995298158898,162.91080046547071
0.2999999999999999,-0.0652174925680249,-0.6082455259071573,-0.1478226671584632,-0.0440101582034599,0.2809611279805767,0.0034056933703614,-0.0024707514621488,0.009012883757935,0.0179042802887788,0.9997956770283656,-0.0399196811422681,-0.0523534416968484,10.262557635000292,-0.1337468680463298,-0.0091757069707925,0.9903731377638088,-1.9351040151138488,1.8593989174928145,0.3563167457150482,1141.5065264303355,1173.1442642981924,1142.4372645714973,1157.0413460989987,-463.59696736158145,1049.6305870907227,-984.8714114345048,1651.0663956820267,162.90309390534077
0.3024999999999999,0.2454172860617764,-1.3061900914809343,0.2160551952747111,-0.0432689055963768,0.2787628419517412,0.00386592975972,-0.0025000085445526,0.0092880472684112,0.0179389862433266,0.9997923253661563,-0.0387422397178879,-0.0548272212424396,10.260645709168871,-0.1340275202391132,-0.0091802808727072,0.9911130942764588,-1.9353924202810076,1.8593862703644473,0.3588090197660469,1140.3703129528087,1176.1706572294945,1139.645712802795,1161.602062016343,-393.8037260971665,1157.049848128462,-1007.2536377185306,1654.8523536014259,162.89377284274246
0.3049999999999999,0.4846739743456709,-1.9551011225309955,0.4562363026824565,-0.0421873087932245,0.2754916747608105,0.0061817785937655,-0.0025122686801121,0.0095982933008702,0.0179760166060534,0.9997885532089312,-0.0382513369466189,-0.0570025551812557,10.261186220029952,-0.1343594538208273,-0.0091685675568739,0.9918330175163564,-1.935678282853948,1.8593671739948547,0.3612953215505494,1139.5375077998497,1178.9295135388347,1137.4009963829046,1165.3156078670058,-332.40476387791176,1129.3547987622778,-822.4451916170431,1424.7306778755033,162.88595152090366
0.3074999999999999,0.6949320886181858,-2.6592217926149697,0.5717302206525042,-0.040561691466603,0.2705360934894176,0.0098984693215503,-0.0025089656466044,0.0099393822689942,0.0180126444718119,0.9997844558277892,-0.0383968915316621,-0.0588382773219774,10.264211410595308,-0.1347380008659493,-0.0091384808426713,0.9925549745632016,-1.9359625389872075,1.859342464809316,0.3637740579427064,1138.7082891334192,1181.817431223306,1135.5334868447098,1168.7257154057206,-368.5609400481095,1264.5889848748072,-679.6146088882318,1391.8303527267642,162.8780830019626
0.3099999999999999,0.9083260886654289,-3.5382077608116047,0.540232869946752,-0.0379025578454474,0.2626813203141569,0.0143788466083287,-0.0024936412190811,0.0102981446885691,0.0180439266659935,0.9997802550809688,-0.0389372515003176,-0.0603458518311296,10.26970458920216,-0.1351404706700879,-0.0090930411803169,0.993302900112858,-1.9362456322464092,1.8593130913498683,0.3662466196457479,1137.6947030996091,1185.2524584632088,1134.0029233384635,1172.2747596306397,-360.6753745778857,1225.0172359327269,-413.068951038667,1193.1349988313727,162.86859624988912
0.3125,1.053295296543424,-4.26654716347536,0.3880380251677151,-0.0353555454909346,0.2542016826811706,0.0168424669022134,-0.0024723125664507,0.0106502399935505,0.018061516672575,0.9997763441414824,-0.0393927270884158,-0.0615988655079342,10.277602585515831,-0.135521521933987,-0.0090423006444718,0.9941019092187984,-1.9365272721979525,1.8592805901432468,0.3687164822295737,1136.90491226053,1187.9425174029695,1133.4681420895165,1174.6913903998775,-273.8932303613635,1006.6680659349904,-39.85331315780055,846.4011862030466,162.8606608906833
0.315,1.1678882747208623,-4.937904079314164,0.1553021007291521,-0.032773499528984,0.2430164020944896,0.017088918423937,-0.0024512865658176,0.0109690316400876,0.0180613236253872,0.9997730676316976,-0.0392265551636101,-0.0626854716481231,10.287798245688895,-0.135830656802661,-0.0089973641615791,0.9949750021484856,-1.9368074107604991,1.8592473370958724,0.3711880070726084,1136.3252369478023,1190.2857987928835,1133.8036567726745,1176.506765561655,-172.8837204976115,859.637489314263,280.0477503679756,628.7248787973107,162.85270355203187
0.3175,1.2610322706551762,-5.517645277012966,-0.0995249202925614,-0.0302177347477466,0.2295901972022632,0.0156437830974566,-0.0024356358467879,0.0112405842883832,0.0180430249905959,0.999770572027116,-0.0381532117866753,-0.063671364869271,10.300143236373664,-0.136041870585949,-0.0089672280722891,0.995938558616339,-1.9370864176401044,1.8592150871526048,0.3736628592723368,1136.040493658042,1192.2407048495409,1134.8683808413564,1177.835014793864,-24.44844596734581,673.1133285761183,585.4765656256852,422.65378302190544,162.84473456638753
0.32,1.3294806454864023,-5.941327741092831,-0.3415852853098826,-0.0274633216781084,0.2144378789913072,0.0134732367084668,-0.0024270770855754,0.0114597872570495,0.0180060123178916,0.9997689262954356,-0.0360599977829522,-0.0645566608020139,10.314455906213576,-0.1361457985094078,-0.0089556908721198,0.997003347850359,-1.9373650480248048,1.8591850163500545,0.37614137853534,1136.2029947179656,1193.6513654357643,1136.731039600803,1178.6200344767644,175.259840362787,487.87384076658736,961.581185675276,233.23784077660983,162.8367590441733
0.3225,1.377629780079435,-6.23412192374345,-0.5979412218110971,-0.0235682202287761,0.1956094878199333,0.0113907802311669,-0.0024278929726341,0.0116295963260422,0.0179534916474053,0.9997680421620768,-0.0329957665905142,-0.0653562055484512,10.330529167887876,-0.13614846952808,-0.0089679259843694,0.9981747318986458,-1.9376437827802904,1.8591587690603553,0.3786227025351546,1136.9167928598558,1194.6800740533738,1139.6762867697328,1179.001203997747,331.530830961901,269.410017073096,1155.34632786448,55.04596842370115,162.827189816127
0.325,1.3828792339234663,-6.2902216716007135,-0.784866750012191,-0.0196707788936985,0.1799378070157152,0.0103247182591575,-0.0024355767507283,0.0117565328053903,0.0178932635589405,0.9997677217523258,-0.0290792076112929,-0.0659901987121646,10.348140314407912,-0.1360622942910583,-0.0089992818753726,0.9994540666178304,-1.9379220979687115,1.8591379541894488,0.3811062134691183,1137.860648872775,1194.9984155211298,1142.5077712401253,1178.8952643188827,417.3788606620743,26.438150354488215,1153.6479593558383,-120.9754724543926,162.8192226461175
0.3275,1.3491380558613246,-6.156306892409157,-0.9463637897190442,-0.01536018148537,0.1645396771947875,0.0095970520186862,-0.0024443186735953,0.0118513924785244,0.0178371706823416,0.9997676534886298,-0.0245169936160412,-0.0663139370073411,10.367059491640862,-0.1359076630142285,-0.0090376311620435,1.000838440193538,-1.9381998345171907,1.8591224090994387,0.3835936307272779,1139.0036871631662,1194.8122648051462,1145.444526566512,1178.3963266354751,464.4876494967771,-144.85741465923624,1152.1483117056039,-256.9357475770628,162.81126955021324
0.33,1.2910313924423775,-5.876058375874195,-1.0767324992852683,-0.0113764633571018,0.1495345719661598,0.0082375210094482,-0.0024474320389184,0.011924121933383,0.0177949542565863,0.9997675745104926,-0.0195011071453537,-0.0661694172151076,10.387058716281656,-0.1357027935303616,-0.0090691121696796,1.0023220301824871,-1.9384765828119244,1.8591112258023237,0.3860871261209202,1140.1830871202587,1194.2741284478336,1148.268512798653,1177.6105855809976,458.7528213763104,-277.2904776230914,1065.6692315247246,-370.7161674279174,162.80333267641626
0.3325,1.2269141278507032,-5.440954587573683,-1.1392731447091295,-0.0089932980826698,0.135519797315303,0.0052517884046397,-0.0024444601476953,0.0119877385296604,0.0177714523691629,0.9997672536251488,-0.0142947563902561,-0.0655319493943891,10.407918140086307,-0.1354718355201831,-0.0090922236847181,1.0038951421181568,-1.938752820333541,1.8591018278965408,0.3885897678088008,1141.2974512700475,1193.4258124170308,1150.7728727241356,1176.5427457983355,469.19233119037887,-406.4341734317619,1001.1737390404496,-512.9600118584672,162.79542044774337
0.335,1.1731569784930906,-4.77779353161302,-1.0911824627410556,-0.0080676580265555,0.120706116224653,0.0002158331685816,-0.0024377916030024,0.0120531449674877,0.0177637635723491,0.999766611428698,-0.0091252021299498,-0.0644433155349338,10.429433396841258,-0.1352343875292666,-0.0091115140593426,1.0055463001727885,-1.9390284879045088,1.85909183057222,0.3911030919611472,1142.5290487762109,1192.2419575806748,1153.2743814938556,1175.0457855217053,446.66112415761705,-429.3911193235995,828.9962856451431,-564.5567215225577,162.78596031902495
0.3375,1.149823900781984,-4.1393985646900315,-0.9289418539562802,-0.007239387447546,0.1101620231940777,-0.0040800968637737,-0.0024314159460981,0.0121301868462343,0.0177684923808036,0.999765584499669,-0.0042064181650922,-0.0629878317931702,10.451420211395591,-0.1350077473793565,-0.0091331741144987,1.0072628818887628,-1.9393034881401363,1.8590793184586147,0.3936270067203859,1143.5307568908358,1191.2788568204128,1154.917854152361,1173.7199621907228,423.946217906359,-343.9867213833165,576.2937390953078,-518.0218866659284,162.778109861878
0.34,1.1166186420236413,-3.448665755503205,-0.6452702877996036,-0.0046117789461604,0.1013941982991827,-0.007392709810528,-0.0024308558942928,0.0122242784887348,0.0177838862726443,0.9997641284358324,0.0003309762390326,-0.061294146425008,10.473717812811701,-0.1348002212622824,-0.0091647530806669,1.0090330020322336,-1.939577784960028,1.8590631763345489,0.396160306973516,1144.6487798657427,1190.5220239737582,1156.155850189332,1172.4556760883756,552.4133879251161,-256.9848568301493,477.2094837209802,-504.48006516116897,162.7702988668069
0.3425,1.0068066709391472,-2.5969558149342054,-0.2060336883966042,0.0007083563426078,0.0928789624536758,-0.0100078154088487,-0.0024398571380321,0.0123349638038153,0.0178077113100285,0.9997622815737658,0.0044718752837505,-0.0594674505166327,10.496190391101338,-0.1346081008754286,-0.0092095248279334,1.0108468363547012,-1.939851980479768,1.8590428266162276,0.3987021381199511,1146.2928238304614,1189.993932536262,1157.3039015709662,1171.197561864917,668.0610024981883,-124.22613021549284,388.9118246513586,-389.8295675746336,162.76097797345324
0.345,0.8271266684727874,-1.8928099404236167,0.1934567855502244,0.0060354642623635,0.087281631078273,-0.0107207097961102,-0.0024603251523705,0.0124563130351477,0.0178371949522859,0.9997601624432356,0.0083098999417349,-0.0575880655737221,10.518726395423249,-0.1344165163904646,-0.0092669225909759,1.0126972061160016,-1.9401269625950297,1.8590182063479617,0.4012515937302186,1147.9890848782336,1189.9008933226808,1158.100409312589,1170.5065282505025,745.0340812332335,23.773591760209435,314.76318809222875,-172.62479381593025,162.75325946890575
0.3475,0.5626996550363383,-1.2238684038888668,0.5543398760859553,0.0099097921079639,0.0832923323230497,-0.0090605831233039,-0.0024892646504654,0.0125804662134451,0.017867956366145,0.9997579536182204,0.0119758042769179,-0.0556447981449785,10.541236228892325,-0.1342066512108448,-0.0093270411287185,1.014579224423144,-1.9404023288645889,1.8589909276210848,0.4038074781617729,1150.0179942366276,1190.112800495063,1158.8777175114271,1170.3344378958373,850.1033623482718,117.64546069839515,325.94520025158965,31.370924193470245,162.7455986162352
0.35,0.2676914652392826,-0.6090455618159608,0.8279235257221836,0.0111906550878292,0.0809510072046938,-0.0053471902368232,-0.0025199464159319,0.0127014988679547,0.017896265077626,0.9997558115832886,0.0155569992146805,-0.05355644561035,10.563648565876166,-0.1339639199544018,-0.0093727360010715,1.0164895891575256,-1.9406774539065927,1.858962473620608,0.4063687373245715,1152.2396016899747,1190.4891206261727,1159.7301353138469,1170.6633828714698,898.5264085026848,167.4399502477189,371.1108070779612,254.30785766016277,162.73799114637987
0.3524999999999999,0.002664776515612,-0.0927089283015921,0.9510482116350142,0.0096705363097701,0.0807786236461236,-0.0003515807268526,-0.0025457406938365,0.0128178496387028,0.0179170180019608,0.9997538628910684,0.019045896578087,-0.0512492364513718,10.585905921878716,-0.1336832874004951,-0.009388077603059,1.0184260254062587,-1.9409521441228224,1.8589333365302407,0.4089348253641285,1154.5106262791408,1190.9500002463017,1160.7332715468172,1171.605977184138,952.0083680925025,202.2602592312544,474.6297631762948,537.0123205436412,162.7304553729767
0.3549999999999999,-0.2123936442661319,0.3759331146191791,0.916041607170448,0.0067036374556299,0.0825126177578042,0.0048073130749889,-0.0025596059093046,0.0129327513288041,0.0179295707273287,0.999752095010073,0.022331995912267,-0.0486447811313121,10.607960130889627,-0.1333704697461555,-0.009356047695921,1.0203872360745203,-1.94122617184251,1.8589035689872755,0.4115052984157639,1156.9996435304374,1191.5004219223288,1162.1032841297283,1173.348444474188,831.5115099007918,195.99071049069593,516.9223401973791,712.4711116824976,162.72150556919843
0.3574999999999999,-0.2846666814980129,0.6255883891547342,0.7629506649050398,0.0044903552833516,0.0847917929273349,0.0075503812915387,-0.0025541098409961,0.0130550826197864,0.0179364380324326,0.9997503686494338,0.025185021871109,-0.045657457750657,10.629767552286376,-0.1330438840615564,-0.0092589824634094,1.0223726210818775,-1.9414984780240605,1.8588740293688628,0.4140785301151891,1158.6681838286447,1191.9299537987552,1163.317883247804,1175.1683327425503,547.7489330042768,168.53664406980883,475.6586425804467,760.1274722922875,162.71413294673195
0.3599999999999999,-0.2533904228395938,0.7294381619032445,0.5382082099424293,0.0030723159872215,0.0871900013136127,0.0086163635003299,-0.0025268414651455,0.0131915942174405,0.0179429188681923,0.9997485102108048,0.0274196499887443,-0.0423097380053522,10.651284823741072,-0.1327190609877274,-0.0090901084144888,1.0243839915914728,-1.9417679340086924,1.8588457181692264,0.4166527927872443,1159.7383881954588,1192.343105142678,1164.4815773426303,1177.1490818356494,323.5559339860171,188.44275101505428,466.68102009302817,854.5674053777011,162.70685875771423
0.3624999999999999,-0.1305523754705161,0.7054579233128254,0.2542358948657268,0.002099385032394,0.0895947549242823,0.0083593213013923,-0.0024856702412701,0.0133401232101854,0.0179516394503855,0.9997464804447184,0.029040976835028,-0.0388439819556496,10.672465015794806,-0.1323946720811912,-0.0088659607140225,1.026426777250581,-1.9420337259962688,1.8588186734203904,0.4192281005285279,1160.285963498575,1192.8721675538304,1165.6512883482692,1179.441169769439,97.1009596885323,209.80148296302997,369.2512296206584,791.7341826460862,162.69825462878043
0.3649999999999999,0.0099370520899672,0.5832624818847044,0.0438137582965571,0.0016841938383489,0.0910021092821927,0.0075585719415092,-0.0024404521772687,0.0134916739833973,0.0179599002309021,0.9997444206582112,0.0302069587653175,-0.035542784376458,10.693254349366136,-0.132056043277562,-0.0086099220097102,1.0285090722013868,-1.9422961030285713,1.8587932400806408,0.4218058924354641,1160.2238929939015,1193.3921125574932,1166.3278334907338,1181.1077527488799,-83.79447339138999,238.5952722351701,191.40053983210217,587.1311939988567,162.6911966527351
0.3674999999999999,0.1460430849068799,0.3813906182874751,-0.1140747547858715,0.002220586113722,0.0917979989122836,0.0068614769824139,-0.0023998116451703,0.0136363219650725,0.0179635630311393,0.999742516553282,0.031106322044312,-0.0326561187468618,10.713589446586104,-0.1316868329551555,-0.008344298048885,1.0306396247518819,-1.942555897785672,1.8587704558226548,0.4243866690551664,1159.866991131618,1194.0651439150063,1166.6082910474297,1182.3768257394331,-145.26050360768735,305.78714497792106,42.910040603646806,431.20260485229613,162.68426464645407
0.3699999999999999,0.2458250338261105,0.1299486819397606,-0.2212497913833701,0.0039750289478575,0.0922186971807099,0.006205177149575,-0.0023681594892765,0.013765125969281,0.0179560600250691,0.9997409966520352,0.0319200862950316,-0.0303335596163679,10.733395821635458,-0.1312726283585656,-0.0080840355239072,1.0328269829956656,-1.9428139958576491,1.85875002992585,0.4269703251064082,1159.497590475863,1194.9210482823828,1166.542383693752,1183.2637657731411,-98.72028687382216,398.1395122011687,-101.14976171093976,263.24609726193535,162.67744426157583
0.3724999999999999,0.2750184273654134,-0.1657685148021513,-0.2654892668091051,0.0064149773514793,0.0921912383225842,0.0052305597194512,-0.0023511420481864,0.0138730270374675,0.0179326249302998,0.9997400025595242,0.032757981261129,-0.0287383739855001,10.752587417506012,-0.1308071252491102,-0.0078465427159719,1.0350782287416849,-1.943070525461992,1.8587307508249105,0.4295567740303412,1159.3733896972487,1196.055841476012,1166.102542238875,1183.693056225743,45.07393578696788,571.3441893664817,-252.61334336378215,99.04565101574,162.6707671730414
0.375,0.2251290900850835,-0.5534084321566239,-0.24989569041688,0.0084527405081418,0.091487319577064,0.0039176617341116,-0.002349199047635,0.0139597882029685,0.0178921692261532,0.9997395557457364,0.0336404797894686,-0.0279075387275388,10.771067431383488,-0.1302939266426221,-0.0076376907307867,1.0373984696722671,-1.9433251523578992,1.858712123127764,0.4321467016182914,1159.7229601547979,1197.7777692292152,1165.2793169769332,1183.75899402822,218.05222836428564,688.3905819027399,-321.45677964663236,-30.72858974010157,162.6629316331116
0.3775,0.1310178793926258,-0.888190778880058,-0.1887158044825273,0.0089898477898809,0.090225392767938,0.0030595069643147,-0.0023584461678188,0.0140238371182299,0.0178387782202633,0.9997396137999984,0.0346304303025039,-0.027771561272522,10.788730593323068,-0.1297338812402935,-0.0074533754077964,1.039792047488804,-1.9435775587499355,1.8586946008623553,0.4347409535585594,1160.4636508390704,1199.4977943855258,1164.4952583406418,1183.5394132770425,369.08328006948034,732.4432155870902,-291.62699216544723,-116.96131639064323,162.65655762321072
0.38,0.0141522034596829,-1.2107558228627615,-0.0950134144120326,0.0087635400413973,0.088002525756108,0.0025415711290483,-0.0023762439717821,0.014066704082226,0.0177796410410073,0.9997400329237016,0.0357344461423104,-0.028271421965078,10.805465974383369,-0.1291344215627022,-0.0072913227949938,1.042260970229057,-1.9438266052260993,1.8586790195304967,0.4373399326819646,1161.5683765551453,1201.4399853071507,1163.821182016106,1183.1741874462668,522.3242243014734,877.6397240094858,-221.2854971460727,-165.6065091996878,162.65035388177859
0.3825,-0.1186294880213068,-1.5475012883425414,0.0293883444605417,0.0077259698040452,0.0839226935729054,0.0024748581312701,-0.002402901931749,0.0140946997150966,0.0177199222517394,0.9997406316513472,0.0368638628378979,-0.029393855072018,10.821160774522845,-0.1285129818301373,-0.0071556677175288,1.0448042310081662,-1.944070792685496,1.8586663258321932,0.4399430471758641,1163.0752719605775,1203.8859930055733,1163.3888308549115,1182.711380731044,543.085307799674,891.2411931312355,-64.9876032444808,-159.73709304371354,162.6431145066559
0.385,-0.2065114605176389,-1.758052299865475,0.1231493607915937,0.0063759680860127,0.079399232165095,0.0030650414007979,-0.0024380365476453,0.0141150448896511,0.0176642662091711,0.9997412279849835,0.0379175735088714,-0.0310954267972731,10.83570491523946,-0.1278885465142858,-0.0070489250615479,1.047418642986254,-1.9443097926788135,1.8586562869275984,0.4425505054685787,1164.2838030941437,1205.8961912728068,1163.4962439998835,1182.3755019810483,433.5282651507892,767.7070183702647,163.0678864165928,-117.54865088132637,162.6372573719486
0.3875,-0.2656489847631415,-1.867969537565376,0.1867554182900752,0.0050806167142353,0.0743164624603693,0.0042347076176719,-0.0024794450041818,0.0141326565907275,0.0176163284949037,0.9997416954915088,0.0388498322352658,-0.0332803000007735,10.84899593928342,-0.1272743912187123,-0.0069695226910782,1.050099393164904,-1.9445432231709927,1.858648169979,0.4451632014868059,1165.2429132863317,1207.7245280974244,1164.2041702869944,1182.1236374766374,323.92676861063563,680.6179879750283,385.7780493543484,-88.93566253445888,162.6315867600946
0.39,-0.3080995800883331,-1.8817282658507704,0.2179470308253468,0.0041740042650441,0.0691743949581541,0.0055172237988783,-0.0025200015163324,0.0141518791838862,0.0175803176951395,0.999741918201906,0.0396315776703153,-0.0357340649949676,10.860943799428371,-0.1266810219717147,-0.0069045421713318,1.0528394230317355,-1.9447718240366847,1.858641291265686,0.4477833853629268,1165.9034369371968,1209.299281212682,1165.4251342466553,1181.930823668376,188.34169405549784,549.9611593081677,596.5697246299436,-71.1579078547856,162.62607284576282
0.3925,-0.346233705823817,-1.7746880623362515,0.2131548724609104,0.0039269781837334,0.0640358272208471,0.0063525252668488,-0.0025545861300273,0.0141796733537522,0.017562756585036,0.9997416980797564,0.0401756443912452,-0.038275291640009,10.871475319160291,-0.1261226685452265,-0.0068435706878775,1.0556284858065517,-1.944998009833112,1.858634828460609,0.4504137804034682,1166.1846217566092,1210.4743338939654,1167.187018910144,1181.7678479373635,54.72067052132837,410.0523059747953,859.4542573106983,-77.8385477820847,162.6207490280661
0.395,-0.4032464866253874,-1.514323781182168,0.1801486225416382,0.0040095492779105,0.0581504938778685,0.0064817391979035,-0.0025798117708505,0.0142270746363157,0.0175674995516163,0.9997408238408364,0.0403017460478889,-0.0407505070117117,10.880538029576288,-0.1256201415470667,-0.0067791849268143,1.0584531163176014,-1.9452248021919096,1.8586279957983984,0.4530559928931064,1166.1770402898035,1211.349542742556,1169.7224055332088,1181.5416309294656,-33.065756396899786,227.805630001694,961.3947247179557,-95.92935266132365,162.61458006644196
0.3975,-0.4611350193499406,-1.2053112671826602,0.1399211181967612,0.0036845574952176,0.0541071216410969,0.0063008998697352,-0.0025944610840152,0.0143070096625591,0.0175941775786647,0.999739126796264,0.039780986778458,-0.0430469410368221,10.888103122992169,-0.1251964820228806,-0.0067083933393941,1.0612978019792416,-1.9454554332806828,1.858619603456584,0.455711643823135,1166.0192929746247,1211.613362043974,1171.993992533734,1181.288201174057,-55.300418871183815,11.764180918908083,896.6669158854521,-119.60587609009951,162.60962121828902
0.4,-0.5168196867628698,-0.8364192821132896,0.0902806895221685,0.0021363980253522,0.0515584444396026,0.0064217581589045,-0.0026015665148352,0.0144220290666368,0.0176328009549359,0.9997367379528632,0.0386002711093513,-0.0451438772734649,10.894167475469423,-0.1248515593615763,-0.006638944537138,1.0641488391125604,-1.945690580554457,1.85860896237207,0.4583810425113503,1165.9005381954476,1211.4083636471505,1174.205740112636,1180.943601549015,-4.079024733982801,-184.28263273954127,920.7541880350157,-172.3748020560832,162.60484971641884
0.4025,-0.5626708722022941,-0.3751263194942477,0.0165410071745428,-0.0007265068500214,0.0502957656565762,0.0066995406414819,-0.0026035139403723,0.0145635848866577,0.0176719623144858,0.9997339720018164,0.0369796903507604,-0.0470113251628121,10.898754141184618,-0.124561028019281,-0.0065774902403339,1.066995526861485,-1.9459298723145229,1.8585966229330857,0.461064211929523,1165.9988978509548,1210.691948880276,1176.597763473909,1180.4263271637765,92.46176549690963,-322.50402273016306,817.8471572826759,-204.8627558556744,162.59933915992593
0.405,-0.5805318037495554,-0.0101800806632915,-0.0594420227841421,-0.0031201514227395,0.0505948098192581,0.0067183835075276,-0.0026082054419135,0.0147167678465278,0.0176997310477332,0.9997312299808194,0.0352667428727423,-0.0487452159386071,10.901911087790868,-0.1242873314959834,-0.0065427105681428,1.0698298362822651,-1.9461720310447683,1.8585835213355768,0.4637595078230689,1166.362847022932,1209.7958435334997,1178.2949758990494,1179.9192877697367,205.36655230889647,-389.3269644604967,612.2439541633406,-216.7213928627914,162.59492576725643
0.4075,-0.5918092137983291,0.3032178023598575,-0.1522111918754127,-0.0044549441045089,0.0520512146801497,0.0068088793752522,-0.0026192575903468,0.0148682852430056,0.0177051547436887,0.9997288858096912,0.0337663668693531,-0.0503533735342765,10.90370887688868,-0.1239970976941227,-0.0065439780686449,1.0726454424505427,-1.946414996035784,1.858570866098138,0.4664642236116751,1167.0257306124993,1208.7453140579737,1179.6589832447255,1179.3427201994623,304.2751159119686,-418.0759834272972,493.32675985879126,-241.77510884105664,162.5906975768098
0.41,-0.6153994720935058,0.5621912382661821,-0.2577456609138579,-0.0044354700639423,0.0542072204216884,0.007071440754761,-0.0026386119207068,0.0150075128126265,0.017679495004005,0.9997272438342696,0.0327177282619872,-0.0518142186476895,10.904237100730509,-0.1236641173383751,-0.006586581343774,1.0754379619029644,-1.9466569741037651,1.8585596761383556,0.4691759338473295,1167.884222602492,1207.7054636163632,1180.7616096983431,1178.7104122255312,371.03846079426114,-380.611273278964,384.9331593093208,-266.12740941295647,162.58662306484544
0.4125,-0.6634560944376868,0.7584259489916259,-0.3688967710906139,-0.0038054808013638,0.0566423945884295,0.0069294390416413,-0.0026658898250757,0.015130153687332,0.0176228942549161,0.999726363899858,0.032216121760973,-0.0530650422263225,10.903599938567432,-0.1232776093783471,-0.0066685837189052,1.0782042484487104,-1.9468965298780256,1.8585506960797944,0.4718932168765133,1168.8809229164704,1206.8422576915789,1181.5836490412723,1178.0120831523975,445.72502816072256,-307.97537799762694,304.52452312365466,-321.44613605905727,162.5827344004884
0.415,-0.7252929584441644,0.9440060241247212,-0.4829603714901995,-0.0048433950600387,0.0589519152239055,0.0054094740670619,-0.0026982280132764,0.0152350203325302,0.017546566105176,0.9997260690912618,0.0322850280264968,-0.0540023027042612,10.90191168915936,-0.1228354604359493,-0.0067798384174086,1.0809430934546012,-1.9471317005284303,1.8585443012460456,0.4746139700400974,1170.1128477432956,1206.165586726375,1182.2842323139616,1177.103181545236,443.86973570163264,-179.7490615701936,212.0968542871218,-343.3706589721204,162.5782840691279
0.4174999999999999,-0.7415732263030255,1.0785812552733478,-0.5404973970879496,-0.0076188557078744,0.0603250968969981,0.0032527795612255,-0.0027325235744351,0.0153244615949651,0.0174613282990046,0.9997261386958592,0.0328678646114352,-0.0545293466879108,10.899292063332503,-0.1223449615951538,-0.0069089311406266,1.0836547205484448,-1.9473601633605369,1.8585399940401608,0.4773367591918521,1171.1002715949787,1205.943512383728,1182.644133312708,1176.2952298575372,377.0952826507748,-28.93237812941181,98.06684163836609,-328.3228876706322,162.57475674307057
0.4199999999999999,-0.6769065267007204,1.2080943683277912,-0.5436776274734267,-0.0110170295896024,0.0620699552281657,0.0009453265524763,-0.0027681587689044,0.0154056028975683,0.0173746350915129,0.9997263331664352,0.0338018592458531,-0.0546163990565572,10.895861769704743,-0.1218251016110491,-0.0070493675528683,1.0863398529726935,-1.9475815418501743,1.8585363855529529,0.4800613275676949,1171.9983241565494,1206.020924835728,1182.7745665221535,1175.4615671068827,370.23066184997293,65.16888575520164,5.24757281950769,-356.78460869371486,162.5714190992062
0.4224999999999999,-0.4828451814343472,1.3543311187209452,-0.487383425834888,-0.0143081589887636,0.0652982726311134,-0.0014428182543368,-0.002801982028241,0.0154844390563549,0.0172920324707927,0.9997264723909542,0.0349502078040756,-0.0541953915229217,10.89173946166519,-0.1212928883474349,-0.0071884249976335,1.089000561688732,-1.9477967749964047,1.8585317081366095,0.4827888566909969,1172.9514249042284,1206.269356812504,1182.6703711768055,1174.5113068140683,327.60901180308764,79.64013034134035,-77.50074178111383,-319.47680421426384,162.56763463203495
0.4249999999999999,-0.2289843041494521,1.4562097269333651,-0.404909004956556,-0.0161349403915025,0.0687674922077257,-0.0028101836220593,-0.0028314663544963,0.0155666551751071,0.0172192301983732,0.9997263786717288,0.0361836848415967,-0.0532301951071243,10.887038689152554,-0.120764524241159,-0.0073135670147272,1.09163936996324,-1.9480075114686353,1.8585245858719757,0.4855203886754568,1173.6363692155649,1206.4191254874347,1182.387062813248,1173.8641830858116,248.8700055507704,7.130649524924586,-142.2703545238163,-196.01515936528796,162.56466560235333
0.4274999999999999,0.0952815661469094,1.5203523601907345,-0.3115077886248392,-0.0171854457849811,0.0724936642435578,-0.003173992485513,-0.0028521949486652,0.0156563614120394,0.017165435373579,0.9997258446694524,0.0374091769054404,-0.0516638482307464,10.881866006575004,-0.1202520321960474,-0.0074065760464527,1.094259108100197,-1.9482147414243107,1.8585149010387128,0.4882558082761835,1174.1957749319824,1206.3050100601283,1181.9590194041864,1173.531231017242,199.45456331583935,-106.36021686832454,-181.23359772744132,-55.44664636363445,162.5618889065077
0.4299999999999999,0.4471691187790762,1.5420777944325903,-0.2277482504016674,-0.0172964773442111,0.0761691270273101,-0.0028954397442389,-0.0028595588673539,0.0157589518733517,0.0171399239476618,0.9997246426318536,0.0385061619154036,-0.0494532661614727,10.876319484208036,-0.1197691846711201,-0.0074482259680528,1.0968617729644112,-1.948419169356334,1.8585026511889104,0.4909955410108067,1174.633642032144,1205.887324403093,1181.4808948246107,1173.5869498539935,140.94290073444415,-236.1338293384049,-183.03075500257347,140.74055427013252,162.55927197220467
0.4324999999999999,0.7829495095538674,1.5004540604252794,-0.1674199360502942,-0.0152795705773568,0.0799480327998093,-0.0025181032806073,-0.00285159464789,0.015873356659882,0.0171456647728649,0.9997227441976572,0.0394929513231034,-0.046630696752981,10.870488372148994,-0.1193143531171872,-0.0074265276183704,1.0994499635917843,-1.9486216507653475,1.8584872833157065,0.4937413162321837,1174.9004894356547,1205.1243409134363,1181.0438656291735,1174.2349337885928,74.19452727749551,-381.54634188654165,-159.17598410919695,438.9504891444172,162.55684778601926
0.4349999999999999,1.103104722531362,1.3631120498576603,-0.1198646245595225,-0.0102462737916738,0.0848226193830897,-0.0024906321670205,-0.0028308995258279,0.0159978423989689,0.0171779948690928,0.9997202483657937,0.0403979751786433,-0.0433403399932517,10.864452867918253,-0.1188831339869573,-0.0073414952364046,1.1020252452904713,-1.9488237174480665,1.858467727980908,0.4964952124086453,1175.0046146685315,1203.9795926936604,1180.6850149040647,1175.7817022997156,3.926830778027576,-420.5708367921939,-93.41101063205305,694.0259073565352,162.55416143045022
0.4375,1.2717484383048299,1.1709904480715039,-0.0906616002386096,-0.0051050600997448,0.0887450066734975,-0.0029178654138342,-0.0028030724589766,0.0161299791708304,0.0172263817018554,0.9997173571637992,0.041259346307168,-0.0398015660615773,10.85828473515996,-0.1184683658372534,-0.007201979464025,1.1045882566701657,-1.9490262692601927,1.8584449387417603,0.4992574741343795,1174.9201235895448,1203.0214867294756,1180.5768105760133,1177.7050633253755,-59.575897137528905,-337.1911233087755,-1.5143231685215128,880.3062073345693,162.55210805653735
0.44,1.339872530385245,0.9051153001039544,-0.0584354437122384,-0.0007574763301137,0.0919609781009054,-0.0036030115604691,-0.0027729721397964,0.0162675798283491,0.0172850826349798,0.999714188675689,0.0421047257058554,-0.0362265218622667,10.852048061179715,-0.1180624759067487,-0.0070158186654578,1.107138803722573,-1.9492293306792323,1.8584197692984687,0.5020278267455055,1174.7067351828439,1202.2936370771165,1180.677443288222,1180.1832333363884,-102.6338675165788,-222.62998499436412,84.82406079433524,1168.315213615732,162.55024659801154
0.4425,1.3441304118077035,0.5258920274492429,-0.0075173272021627,0.0025968016231512,0.0945319493432116,-0.0044322638359994,-0.0027412168763897,0.0164038327268771,0.0173537807608472,0.9997108531178132,0.0430574047203143,-0.0327417696875623,10.845800060089436,-0.1176469489150394,-0.0067825974918917,1.109677331693442,-1.949432596459662,1.858393553528516,0.5048059023192804,1174.406954251962,1201.9083368045035,1181.0009308799847,1183.546639393454,-97.7353244827099,-39.27957849978153,143.65446000529107,1246.1059893879324,162.54823450359203
0.445,1.3167957083122324,0.1864396237387766,0.0434929277719395,0.004081289598237,0.0952505004511677,-0.0049417908860852,-0.0027090080663404,0.0165339639684967,0.0174321112505739,0.999707428522044,0.0441891195455584,-0.0294838296782411,10.839591223971263,-0.1172075385626609,-0.0065054490174091,1.112203482288619,-1.9496356004951771,1.8583675866728384,0.5075917794371749,1174.2180585604303,1202.0972391846176,1181.3957155882483,1186.413763283328,-40.20729108083284,190.9207677535504,173.2874311277099,1088.7065295361472,162.54674249309934
0.4475,1.2792302431585207,-0.1434620669256891,0.0916515399640824,0.0053990174441751,0.0944748088784189,-0.0048304759998971,-0.0026792751693696,0.0166547560807638,0.0175168208043915,0.9997040154801962,0.0455300003055309,-0.0266178675304745,10.833465702974461,-0.1167335896771203,-0.0061943402960487,1.1147164235433547,-1.9498377327726768,1.8583420983104009,0.5103865709949692,1174.2059177965575,1202.8629406432715,1181.8673680356235,1188.9901720411349,36.388343444741594,399.4979845156191,194.33042958357856,931.8362433457417,162.54544247981607
0.45,1.2272228366268363,-0.4458787939830313,0.1244434151930532,0.0074202549245889,0.0928544722637027,-0.0041362755666122,-0.0026552411544878,0.0167672412708412,0.0176029652929764,0.999700675494386,0.0470114524729186,-0.024300659446235,10.82746134911552,-0.1162243079277563,-0.0058625798126028,1.117214580781976,-1.9500390883893877,1.858317480136625,0.5131912639757025,1174.400000277654,1204.0947291071957,1182.3673677361664,1191.0729445000568,130.51012694090775,594.9190774999346,198.98373397400047,671.5900298523133,162.54430203898593
0.4525,1.1294025659583267,-0.7047726323475838,0.1258510634671025,0.0106245670260115,0.0907047806328819,-0.0031874916615878,-0.0026388271428518,0.0168740683082848,0.0176822575181824,0.9996975079370513,0.048524960460514,-0.0226417205780725,10.821609630537907,-0.1156831275626964,-0.0055236102796438,1.11969674360788,-1.950240158005026,1.8582965948180483,0.5160047433589211,1174.8584684312623,1205.8375360307712,1182.8622867054935,1192.3481221903965,250.27523226294736,867.2334205683446,206.18621101225452,357.84215176172404,162.54335466581395
0.455,0.9180971786327116,-0.9682145443539664,0.0856459265471089,0.0151595675375933,0.0877986564170852,-0.0023327056049842,-0.002630524104811,0.0169746439207787,0.0177468174320037,0.9996946661169204,0.050029131719758,-0.0216998201878645,10.815935371886855,-0.1151071192029248,-0.005189851333773,1.1221636294009556,-1.9504407501479444,1.8582823144881189,0.5188249033832166,1175.6513764389688,1208.4308962100374,1183.3982987912275,1192.8621552588654,312.1773553694763,1018.1988741569502,178.7312637685316,36.98262564212197,162.5424421268689
0.4575,0.6460591039769499,-1.1589040083010884,0.0209454130328082,0.0186443836270959,0.0852532812349751,-0.0019611402519733,-0.0026283273763344,0.0170625311344745,0.0177875428064587,0.9996924316400853,0.051608009927387,-0.0214577802445187,10.810456326673767,-0.1144812414731319,-0.0048700044252343,1.1246186862787924,-1.95063960902967,1.858276563615325,0.5216493058217399,1176.4193552081097,1210.928530401556,1183.755943024336,1192.533035318607,301.4879305731935,1040.3857574574877,114.78922650012454,-240.16208185385017,162.54186954940738
0.46,0.2780553415897668,-1.3356849598918652,-0.0658209381274015,0.0211582815867246,0.0828790629792261,-0.0017382839902033,-0.0026297481795255,0.0171346246156986,0.0177991907755315,0.9996909627336578,0.053274218486312,-0.0218630422351457,10.80518278136206,-0.113799103849894,-0.0045711671068728,1.127065826041325,-1.950836132969996,1.8582795127758196,0.5244759759471528,1177.1588160918348,1213.6328249973249,1183.9722449237283,1191.661344849596,289.0481268131222,1185.8178445692363,53.76395967527964,-438.0697882676937,162.541492896908
0.4625,-0.2379587411846949,-1.5436223009925671,-0.1777103007888624,0.0225509642826992,0.0799124648199074,-0.0014336783983563,-0.0026374709830196,0.0171988307720459,0.0177792113061971,0.9996901655282724,0.0548031267400475,-0.0229467782153445,10.80011776412615,-0.1130805813549183,-0.0043103846987349,1.129507203085518,-1.9510292052259293,1.8582891340949688,0.527303398314963,1177.8645958421753,1216.857619624402,1184.0247628227123,1190.3426863772684,213.1095426610498,1127.3726060401705,-16.73655772169694,-481.9028684134987,162.54126780329872
0.465,-0.6850838635012733,-1.710359922106382,-0.2584510472452778,0.021903753288104,0.0766506221968057,-0.0016909086245464,-0.0026546713930754,0.0172624864415349,0.0177283331896741,0.9996898978668964,0.0559872194218092,-0.0247290550002662,10.795257742725086,-0.1123454974584323,-0.0041035156586032,1.1319452726447148,-1.9512173499210763,1.8583026935393927,0.5301305180547635,1178.22436380514,1219.2696880275255,1183.8885621351199,1189.2518305075287,86.51828730921798,836.1598641294669,-83.59474425533328,-395.4033256886756,162.5412691213037
0.4675,-1.083781475727458,-1.8529265266660444,-0.2968753708310077,0.0188593452949503,0.0724355131578224,-0.0033703105594515,-0.0026856447479114,0.0173237277041917,0.0176539362907477,0.9996900516944166,0.0568238466559398,-0.0272400776466688,10.790593701216688,-0.1115937129493321,-0.0039657370685996,1.1343838474188452,-1.9514003129541424,1.85831844396826,0.5329587296405386,1178.2971872787211,1221.0384189450494,1183.6067891014359,1188.3656697488252,-20.997120815582075,549.9172954425826,-122.13849745498908,-306.265434716897,162.54146575479172
0.47,-1.3949484769954898,-1.9576602288422935,-0.2821963646063612,0.0140088981628484,0.0676237172262058,-0.0058202349409844,-0.0027301653567816,0.0173837514754493,0.0175682352662089,0.9996903919852156,0.0572533450785456,-0.0303972755265543,10.786112497898264,-0.1108320911468783,-0.0038982514255016,1.1368245470312923,-1.951577689035296,1.8583350997000945,0.5357899450331775,1178.119378201062,1222.0192745047386,1183.277869647845,1187.720503333944,-130.10568411505108,159.89317110279427,-118.38828364398059,-198.59536762737645,162.5418233508052
0.4725,-1.5646637594701243,-1.996680189172986,-0.2025347369607372,0.0082458038201696,0.0621871257881192,-0.0076087899378989,-0.0027802960881767,0.0174398791387846,0.0174821650475835,0.9996907963292108,0.0573101111166749,-0.0339417829448963,10.781798973503973,-0.1100581541719691,-0.0038822015631991,1.139267780460472,-1.951750038842422,1.8583509064409067,0.5386266173685571,1177.646658858146,1221.8378848005634,1183.014847683216,1187.3726929106883,-268.22781603641465,-362.3047040774505,-70.75131245928782,-95.45034689458579,162.54237328099015
0.475,-1.5992527391103708,-1.9515188601907825,-0.0592631774720061,0.0021137886871339,0.0554498457604702,-0.0081431802991333,-0.0028229761869745,0.0174884221406148,0.0174068447528069,0.9996911704011684,0.0570599088286508,-0.0374988060702856,10.777638191045035,-0.1092662079268992,-0.0038841139956497,1.141711802750646,-1.951917460255176,1.8583642718294688,0.5414713852956172,1176.77823912088,1220.2077509843512,1182.9241130855485,1187.2432515994713,-357.9410228232515,-808.5441547300427,17.14253436084617,-12.055547988938986,162.54325256926217
0.4775,-1.50796051719838,-1.836826896102916,0.0704195387167835,-0.001587082603148,0.0503267336118212,-0.0074939071472277,-0.0028549114715289,0.0175343612943692,0.0173488499851427,0.9996913144666179,0.0563853726660864,-0.0408978702911965,10.773617013740738,-0.1084696994560829,-0.0038906880093528,1.1441505834936183,-1.952081957250684,1.8583732885444788,0.5443281371288755,1175.8569537440299,1217.7951640269132,1183.1005603550202,1187.3124151707436,-391.42797130207725,-1117.2544343313916,122.44440163040179,48.12692773020948,162.54416549785887
0.4799999999999999,-1.3272747359497332,-1.6539316672728397,0.1802482670001635,-0.0038774744519976,0.0461903701432125,-0.0063394204928954,-0.0028760774357816,0.0175820652061341,0.0173124094440854,0.9996910736549376,0.0551887121587359,-0.0440410143125867,10.76972494075316,-0.1076797314592162,-0.0038946600956161,1.1465765750811248,-1.9522457214396327,1.8583767928730728,0.5471991387010431,1174.8210992643696,1214.6214788126945,1183.5363350937005,1187.4838862381223,-417.1257507784546,-1327.3476314264508,205.13080986684355,73.89973620015628,162.5452624260427
0.4824999999999999,-1.0922885955823192,-1.4271197814835,0.2601765357185865,-0.0060647397347163,0.0428043495720501,-0.005272408119334,-0.0028840591516399,0.0176353056907587,0.01729843798764,0.9996903717718624,0.0533931804976377,-0.0467838228336997,10.765954188685912,-0.1069050053827232,-0.0038828045994306,1.1489818105617915,-1.9524097945597825,1.8583742938557215,0.5500839399866195,1173.7713249901376,1211.158425869781,1184.1262144043544,1187.6819138517444,-402.82339250097687,-1367.2694706054688,248.62650956392804,73.32640607323803,162.54651026410568
0.4849999999999999,-0.8022674808088741,-1.1600641692486744,0.2984293467643325,-0.009057530437908,0.0397633737297892,-0.0043649059631168,-0.0028792560142049,0.0176973926416529,0.0173005580353345,0.9996892604762164,0.0509379494086962,-0.049048404322475,10.762298489970084,-0.1061527130566733,-0.0038494337823894,1.1513589976436147,-1.9525744809554884,1.8583663531479369,0.5529814204891254,1172.8069823018648,1207.7851314596671,1184.77946764152,1187.8505182684885,-379.7334186444911,-1367.432960970608,267.9738921264286,53.95491947574551,162.54793893430855
0.4874999999999999,-0.4057373789684796,-0.8062210481603167,0.2963051862493282,-0.012379539105139,0.0362921687586141,-0.0030671515293697,-0.0028667600930161,0.0177701105666839,0.0173121773650481,0.999687809599727,0.0478004858141255,-0.0508681030563404,10.758750797864236,-0.1054266701483454,-0.0038004790640005,1.1537028165818555,-1.9527398753769916,1.8583540024606993,0.555889686248002,1171.8726578969151,1204.321261064928,1185.4660838649863,1187.9516884491231,-290.5328019551686,-1128.2480195504822,216.09873743773255,11.423400685680452,162.5498621573358
0.4899999999999999,-0.0607206627171136,-0.4968495977380664,0.2589265204629623,-0.0137623341721244,0.0341066830751198,-0.0019221323468025,-0.0028472091673196,0.0178494537362766,0.0173277666594687,0.9996861843015544,0.0440917977481193,-0.0521930531440439,10.755300691909383,-0.1047175798264599,-0.0037331394995247,1.15601176584488,-1.9529047949190772,1.8583398648223215,0.5588052937695533,1171.3543182920887,1202.1438913619147,1185.8599613287088,1187.907635271917,-143.3973984881958,-710.2099864006952,110.8494641105607,-54.36669806163077,162.55163959263777
0.4924999999999999,0.2506781395863953,-0.1979318959930044,0.1969534598624046,-0.0131676845550166,0.0332235285748239,-0.0010904786825228,-0.0028229677926958,0.0179345587285601,0.0173443118297232,0.9996844454734992,0.0398621993386917,-0.0530199241210587,10.75193044419988,-0.1040242625319219,-0.0036500032159086,1.158286665789661,-1.9530683281339485,1.8583262708870891,0.5617249054497845,1171.155670904474,1200.7702111329245,1186.0203311855391,1187.6798549588148,-17.026588804992556,-451.2570184279408,23.923762343292744,-152.19315357076067,162.55360036045553
0.4949999999999999,0.5243000010466615,0.1120162961596608,0.1165364640431424,-0.0102332378093597,0.0336426910539571,-0.0006282597040516,-0.0027972414230331,0.0180215849189981,0.017357969704278,0.999682721324092,0.0352337295597684,-0.0533728716939751,10.748611449344747,-0.1033397233945227,-0.0035579690800483,1.1605319561457579,-1.953229024376376,1.8583151688531625,0.564646567060273,1171.269185348064,1199.887606269775,1185.9795801404252,1187.146669504063,86.56877693993003,-243.0849096380823,-40.46661905804282,-241.11499060622893,162.55616883111267
0.4974999999999999,0.6374323450533695,0.305472660505184,0.0629420075190314,-0.0068042666055536,0.0348180293992829,-0.0006866191450845,-0.0027770093317421,0.0181050786767311,0.0173628777231824,0.999681194472218,0.0303700947390199,-0.053364424461224,10.74530070426365,-0.1026544116888945,-0.0034750271187145,1.1627549903016277,-1.9533861793647092,1.8583076221570396,0.5675695869516184,1171.5885147891738,1199.554786584734,1185.8179980902491,1186.4742800057838,147.9739128411437,-116.65070081603506,-74.34005159493601,-309.3554669850616,162.55849227357976
0.5,0.6240012457479843,0.4123641617604039,0.0429497093179256,-0.0036991636092726,0.0361721075370557,-0.001109235490967,-0.0027640963894232,0.0181761739350412,0.0173588866190961,0.9996800232902509,0.0255189270794873,-0.0530057159885658,10.741938711218735,-0.101951497877478,-0.0034078915913483,1.1649659096143454,-1.9535390230031369,1.8583044377006013,0.5704933788536878,1172.0090549122697,1199.3043527656948,1185.6078798824503,1185.5998921691375,162.56068667202985,-132.89669818995955,-84.4929370929539,-370.0232864622605,162.5610101930298
0.5025,0.5235023180071117,0.4405747394911827,0.0604805759746831,-0.001366658780541,0.0375923692564424,-0.001688400840884,-0.0027543013496544,0.0182309588194403,0.0173491198399466,0.9996792356853468,0.0208321281465521,-0.0521830254513104,10.738447446650312,-0.1012259936990836,-0.0033493626308341,1.1671752383584475,-1.953686217127272,1.8583064606535789,0.5734167433578296,1172.401318222534,1198.8903030937843,1185.3955334047844,1184.6241635734723,127.07244252560474,-244.45133935373607,-86.73530952282809,-392.4175516237025,162.56369261759187
0.505,0.3590972716139737,0.3724622210465201,0.1253843356794946,-9.577699654978605e-05,0.0393839513488273,-0.0021379409795883,-0.0027427961489554,0.0182717820782996,0.0173323058674474,0.999678823153138,0.0163352079398257,-0.0507706738385927,10.734729523459636,-0.1004876626295143,-0.0032913231453941,1.1693927766220007,-1.9538270954561807,1.8583139363022183,0.5763385526717338,1172.6444171248977,1198.082096068926,1185.1742033348364,1183.6378044110193,54.60067461681314,-466.17444345015383,-114.72270514032051,-407.2950920772652,162.56657707495532
0.5075,0.151464596030882,0.1898915515991652,0.2473462992804544,0.0002656100904587,0.0415990533567912,-0.0019245498411193,-0.0027286446946485,0.018301458977035,0.0173103148807652,0.9996787037194252,0.0120489519010229,-0.0487330488717045,10.730669597955487,-0.0997471562502544,-0.0032335863671137,1.1716277918384324,-1.9539618178785527,1.8583257448320796,0.5792588382327999,1172.674321595618,1196.5594308765335,1184.8219198790828,1182.587688113086,-35.88651181767088,-638.7811375180712,-161.79663344037166,-345.6365467753582,162.5702763860043
0.51,0.0155342237475159,-0.0244295059477329,0.3712327541061949,-0.0003340013967048,0.0426616743035498,-0.0008512288989535,-0.0027144128723989,0.0183196506621235,0.0172834098253278,0.9996788721303652,0.0080652721746065,-0.0461170078013342,10.726137792109473,-0.0990068520144694,-0.0031832875203215,1.173888716601743,-1.954092059517116,1.8583396767788425,0.5821797620603637,1172.4649845658091,1194.8881903813356,1184.3652201676343,1181.9096216771425,-125.85260043156536,-709.8517579845217,-240.43383707603937,-217.4100927777136,162.57356040063576
0.5124999999999998,-0.037127530805504,-0.2603821552241648,0.501730505013477,-0.0018052443417464,0.0420801107980177,0.0008577702760719,-0.0027031251932741,0.0183276701994722,0.0172559017483294,0.999679222689231,0.0044427750443649,-0.0429879217578872,10.72099401563566,-0.0982714602960186,-0.0031462665827702,1.1761813295226335,-1.9542199439791303,1.858353507201744,0.5851033674452686,1172.0450585934602,1193.0101720866107,1183.6197506937024,1181.5006376491976,-216.60078743720968,-802.2293538190289,-416.39944454432185,-112.4070733949792,162.57705652561953
0.515,0.0234811514772322,-0.5124919976147178,0.6573517207919956,-0.0042623680417656,0.0395567990074324,0.0027619126346106,-0.002693547487739,0.0183296357118337,0.0172335886275152,0.9996795855258952,0.0011810277610244,-0.0393291146653437,10.715093752808796,-0.0975503578047769,-0.0031161861500823,1.1785079659049669,-1.9543469443117365,1.8583653764426544,0.5880305950950454,1171.3819806286233,1190.8770436122406,1182.2832229449127,1181.3475863101676,-255.0165457089404,-706.3078876989488,-570.7413091253325,-1.6248364451257644,162.5815004256131
0.5174999999999998,0.1724926704447778,-0.6659142857794365,0.7860604203144238,-0.0060056163512518,0.0366204973729646,0.0038605639264955,-0.0026863737209043,0.0183292835049897,0.0172209728344029,0.9996798166569538,-0.0017163786430323,-0.0351768093814606,10.708294988194968,-0.096850431201418,-0.0030897953473023,1.180867692173498,-1.954474361199687,1.8583733494216168,0.590963126814037,1170.7699758649155,1189.4786326481162,1180.766044148076,1181.492513466972,-242.2790625584637,-423.9663222937903,-685.8544164720564,106.91469029047757,162.58541296970662
0.52,0.3845468544758724,-0.7470689934336007,0.9100929228601577,-0.005963875520653,0.0336118719453686,0.00491738043854,-0.002681868066619,0.0183278408947252,0.0172167173151299,0.9996799188514084,-0.0041986416603126,-0.030570748130617,10.700465923892803,-0.096171226607877,-0.0030625919292453,1.1832565373107595,-1.9546036106060376,1.858376695018648,0.5939033123909415,1170.1705853158307,1188.7572120007717,1178.8539508625527,1181.88215976162,-230.8910446465232,-148.72374767987807,-816.8183440340266,187.6819889042052,162.5895448692876
0.5224999999999999,0.6021426132458345,-0.7765434049490814,1.0175979223995135,-0.0040839230766524,0.0309749429515572,0.0066342789104283,-0.0026768365095313,0.0183264534165462,0.0172245772356443,0.9996798159098604,-0.0062209706759175,-0.0254926433267633,10.69149207822736,-0.0955110184088881,-0.0030205067843444,1.185667127476858,-1.9547345567530676,1.8583758888377064,0.5968530979686477,1169.615520641683,1188.7350139097168,1176.6819524279056,1182.430923411493,-207.73220905393808,168.91439152800544,-905.098091576928,244.63974221457624,162.593859710703
0.525,0.7704982127852958,-0.7698885635062429,1.078164894273285,-0.0008305380360376,0.0291508924020058,0.0096924987340135,-0.0026660543730148,0.0183218899087873,0.01724424044897,0.9996795868102364,-0.007656057343722,-0.0198965073631467,10.681283656741032,-0.0948572227742141,-0.0029454278639588,1.1880898654104335,-1.9548655373714912,1.8583725909500393,0.5998134852216545,1169.1319242705613,1189.6017839584115,1174.328460404668,1183.1053584726928,-192.49733219844512,565.1052447031357,-1036.7127701202198,306.35062538894965,162.59839566850658
0.5274999999999999,0.867459320423352,-0.7605405452703754,1.0627148074433856,0.0032696720703411,0.0278292859904329,0.0145454251794096,-0.0026462469514772,0.0183118351750418,0.0172725595150694,0.999679338333698,-0.0084108565075456,-0.0137920021056817,10.6697809002722,-0.09419950311219,-0.0028247306948104,1.1905124688830222,-1.9549949309346353,1.8583687834462368,0.6027844006199043,1168.6530339806907,1191.5605401332325,1171.4983885773047,1183.9626765384376,-153.1372614930659,832.9631760936073,-1009.5214044342346,307.65294574393886,162.60409413587863
0.53,0.8472567013649809,-0.7755621326645328,0.9661371713542688,0.0060734709324828,0.0270368547596349,0.0186605379705767,-0.0026228365466693,0.0182913597136701,0.0173004991442474,0.9996792996642248,-0.0083555709304735,-0.0073875761119733,10.656959655395402,-0.0935218598652551,-0.0026682869271196,1.192921271154402,-1.9551216757172531,1.8583650529095548,0.6057658944579165,1168.366237963096,1193.7665998388795,1169.2808533824968,1184.6436232014123,-79.10459172212533,936.7140684739288,-830.1898413184965,250.37260583899277,162.6090546783327
0.5324999999999999,0.72489564189731,-0.8275908633862205,0.7972473407141618,0.0082686887749657,0.0260640681516631,0.0218691306718429,-0.0025997051559922,0.0182596602535181,0.017322516099893,0.9996795675220024,-0.0074639254096359,-0.0008696092395167,10.64283350873986,-0.0928182703118113,-0.0024826288555434,1.1953007753167086,-1.9552453759050128,1.8583612808017251,0.6087585272816841,1168.25751102208,1196.244110475602,1167.3474393707122,1185.2145395676328,12.908767227600025,1068.7936545525636,-767.13434483513,216.0895412990156,162.61423309300355
0.535,0.4747544315116132,-0.9269470940954576,0.5574069891238908,0.0108331818841264,0.024247401716469,0.0239420755766605,-0.0025782485724317,0.0182227831340922,0.0173415407964558,0.9996799718564306,-0.0058697144137756,0.0056196600759981,10.627454598781291,-0.0920991430576357,-0.0022679170907598,1.1976339647727232,-1.9553657827228632,1.858357392582625,0.6117625766014889,1168.430781799234,1199.1105681116424,1165.4451816583212,1185.7240709079076,127.0969302153843,976.948201029926,-625.0293443918957,157.20057721573525,162.620695697519
0.5374999999999999,0.1982386791319078,-1.0252896106453244,0.3691040772316675,0.0126564322585064,0.0221826321854491,0.024107214286527,-0.0025576636825651,0.0181863376933753,0.0173635695745008,0.9996803053392784,-0.0037112701160705,0.0119770651278503,10.610913946823954,-0.0913738174320989,-0.0020197620324161,1.1999044975973432,-1.955483312780932,1.858354103234468,0.6147762333070578,1168.8929956731567,1201.1288514807516,1164.2222926487527,1186.0005424537114,257.1166795492897,678.5127942843241,-420.6815097749764,85.23501991880941,162.6262851138827
0.54,-0.1134218222595507,-1.114528119736364,0.2361038953252256,0.0132031455462007,0.0196324327934238,0.0232974792555174,-0.0025371217650122,0.0181556684315995,0.0173969246021926,0.9996803277414072,-0.0011353031951315,0.0180952573388919,10.593339042581372,-0.0906508818525464,-0.0017345578484708,1.2020973740969438,-1.9555990319919407,1.8583523476169015,0.6177974587192397,1169.7163651969804,1202.5031320830642,1163.3417741094463,1186.1502460075017,383.7369157935424,418.0369460733341,-305.15195839998313,43.600429096431945,162.63208172176869
0.5424999999999999,-0.4181617310635073,-1.1753528719966326,0.165928162436829,0.0123413232120556,0.0166000024734288,0.0223789213928365,-0.0025169521419416,0.0181334960996203,0.0174445091711882,0.9996799389885012,0.0017523719430487,0.0238419172997794,10.574889923922555,-0.0899324732349202,-0.0014134480695661,1.2041998427031915,-1.9557141141153425,1.858351981379908,0.6208261213724093,1170.8116802521247,1203.2190362111185,1162.6965328567528,1186.2185445991936,485.2994226180267,113.67601618812832,-214.55862302013864,8.764087442432348,162.63804660563673
0.545,-0.6694196931436635,-1.1789578542880368,0.1696993634165408,0.0099731019652715,0.0129471299774484,0.021897592206088,-0.002499137013214,0.0181212284834826,0.0175070250050427,0.999679099626911,0.00486008884549,0.0290524193025105,10.555753108770997,-0.0892174970362313,-0.001062911779071,1.2062015071279553,-1.9558294797129916,1.8583525436999924,0.6238625617113897,1172.1428623100703,1203.0715121640048,1162.2689809943456,1186.1940664447138,607.7336329689837,-264.4586567023905,-152.8609715754554,-42.137862602748974,162.64421000899196
0.5474999999999999,-0.8646450596084913,-1.0993343301601852,0.2355302333002046,0.0061259712089849,0.0082876876326591,0.0221724456104379,-0.0024848145160994,0.0181163444457723,0.0175797755359996,0.9996779383723652,0.0081672754233547,0.033585904175164,10.536134161396454,-0.0884954547413068,-0.0006892072852043,1.2080951775702573,-1.955945978246569,1.8583539154243052,0.6269073522863999,1173.8503484169696,1201.8967429276065,1161.9322279988755,1186.0078552861798,619.1047306311697,-585.8263527203229,-102.69753289262545,-110.70610484202906,162.65182974162605
