t,ang_acc_x,ang_acc_y,ang_acc_z,a_vel_x,a_vel_y,a_vel_z,quat_x,quat_y,quat_z,quat_w,acc_x,acc_y,acc_z,l_vel_x,l_vel_y,l_vel_z,pos_x,pos_y,pos_z,mot_1,mot_2,mot_3,mot_4,dmot_1,dmot_2,dmot_3,dmot_4,vbat
43.8275,-0.937646707940412,0.9485841773823038,-0.3337962460291091,0.0094994272945123,0.019875080311935,0.0064116447977004,-0.0003309479252904,-0.0042399934128955,0.1441415472422531,0.9895476750948132,0.070958100714898,0.0238161472124936,9.7833905810005,-0.0030911407152648,0.0016257916117589,0.072360765716549,8.453904305455108,0.6088480031358388,5.034508616133785,1127.2869468986419,1145.5047184493465,1126.2599648074927,1121.0010891413394,-731.852565353103,-433.00294753374413,-97.563767595691,-581.9748949283457,154.0667232671494
43.83,-0.9186017155834724,0.852773962657924,-0.274913899086874,0.0070320490316787,0.0216348325560647,0.0041798599476066,-0.0003252680765889,-0.0042016059090786,0.1441385208146883,0.989548308147184,0.0686085542422687,0.0245252149920779,9.77029137840737,-0.0033013251055537,0.0018474636429622,0.0723264842547266,8.453896847319044,0.6088498005107833,5.034692077767842,1125.367578714557,1144.7749801378427,1126.0798407159186,1119.3329156090424,-820.4853469262058,-206.4483295864501,-87.97609820080697,-785.0890977891216,154.06727857701773
43.8325,-0.8734132454779145,0.7501244272171974,-0.1413845156699321,0.0046663423953987,0.0228803029909414,0.0022710356566015,-0.0003242743093693,-0.0041645102997612,0.1441483247875228,0.989547049280556,0.0664495808990794,0.0248318161620447,9.757005955287235,-0.0035178684571352,0.0020696672613636,0.0722545774390888,8.453888748252421,0.6088503630227495,5.034875024651985,1123.1845201640087,1144.4724768014137,1125.8200843164884,1117.0756436523918,-958.2765920333359,-65.72327136055995,-160.63174555025367,-1088.8572461016224,154.06778220689588
43.835,-0.805955764932419,0.6364784836040809,0.0908643653226655,0.0021040200660056,0.0243162471736609,0.0010091804425749,-0.0003299978288893,-0.0041219061749467,0.1441675631160086,0.9895444221549444,0.064348841980959,0.0247268609685056,9.743556271392137,-0.0037398703375096,0.0022915920482636,0.0721433401895952,8.453879275851621,0.6088500786675781,5.035058874161818,1120.5761957543882,1144.44636378104,1125.2766819881667,1113.8886293785315,-905.8452973405165,16.61947352978734,-246.69901149595412,-1205.4839179854803,154.06833645133543
43.8375,-0.7535465266506568,0.5543443806268552,0.316809891976432,0.0002697596122493,0.0257314869200915,0.0010250395065629,-0.0003430536505788,-0.004075107470292,0.14419401504594,0.989540744757211,0.0623302757580471,0.0242113095252535,9.729970356958532,-0.0039649521289108,0.0025120343493859,0.0719915788490906,8.453867780822078,0.6088492935199759,5.035243191783534,1118.6552936773103,1144.5555741690623,1124.5865892590095,1111.04822406247,-662.4705539278942,32.63622463048854,-320.40885083421904,-1114.5383878770851,154.06876231663895
43.84,-0.7234523270688764,0.4866324153102004,0.531417088912289,-0.0010689823706224,0.0272252524632039,0.0022313444645362,-0.0003607871674807,-0.0040276253818389,0.144225138274088,0.9895363759881628,0.0604641675769527,0.0233482826433494,9.716281226445496,-0.0041902659473378,0.002729658782061,0.0717986892277127,8.453854256134298,0.6088485064074978,5.035427014425744,1117.263842984747,1144.6095449041925,1123.674637733995,1108.3159374391432,-439.2403918416248,-13.101379076072252,-388.124975853663,-1030.6124744098909,154.069156072284
43.8425,-0.7229212400332309,0.4332130686289124,0.7007710378926362,-0.0020058928911902,0.0285185051066847,0.0043609605058338,-0.000377086582778,-0.0039834796682573,0.1442549719384063,0.9895321739168657,0.0588347366768111,0.0222706569295883,9.702525850602632,-0.004412975505813,0.0029430008377001,0.0715646881271947,8.453838628613465,0.6088491461133949,5.035609080357513,1116.459091718101,1144.490067273682,1122.6459643797405,1105.8951616904178,-167.17005271972735,-109.56638008698025,-416.27542946045304,-850.4991854131734,154.06952593113627
43.845,-0.7620556912181339,0.4031814064485433,0.7786640114406477,-0.0028861885475843,0.029477341416388,0.0072654663304358,-0.0003859072481196,-0.003942496219739,0.1442777967616037,0.9895289810459978,0.0574409975330163,0.0211261514023172,9.688744423626316,-0.0046311695317315,0.0031502096214595,0.0712900937725515,8.45382106720021,0.6088526874345784,5.03578947909739,1116.4279927211492,1144.061713003758,1121.5932605866947,1104.0634415120812,145.16058329515394,-265.2760476034935,-437.79861677885833,-638.9516262488911,154.06986882068298
43.8475,-0.843186481507844,0.4034059612828604,0.737142383517964,-0.0043997110252303,0.0303564433041017,0.011224332848979,-0.0003856312661957,-0.0039034860774922,0.144289057475395,0.9895274742590264,0.0562469027467702,0.0199844488887133,9.674979825945234,-0.0048436148237076,0.0033486968070426,0.0709758170456527,8.453801426030024,0.6088597891347008,5.035968378358721,1117.1848946345772,1143.163687035664,1120.456971295845,1102.7004035591715,368.7992294134279,-382.238544124798,-377.50333486695814,-358.5238522609855,154.07024964044916
43.85,-0.919663809134076,0.4387054498997877,0.5870752150035137,-0.0062252149454345,0.0310052163406572,0.014660504068917,-0.0003832067605954,-0.0038664187452236,0.1442923555044661,0.9895271298140342,0.0552133466456812,0.0187522860730603,9.661277137324285,-0.0050495594731761,0.0035350592527062,0.0706230618893161,8.453780164615788,0.6088690862703776,5.036144803170738,1118.2719888682172,1142.1505202831331,1119.705743912359,1102.2708222507752,458.6884606814771,-434.6370963209071,-247.85063252438508,-44.73640957707605,154.07054051031267
43.8525,-0.9741506124201368,0.5113683806257296,0.3414105037208436,-0.0088237386648684,0.0316948194201474,0.0171710100559265,-0.0003924311301446,-0.0038266947676448,0.1442910557302502,0.9895274687703804,0.0541935571958843,0.0172214836839944,9.64768249969668,-0.0052496084916302,0.0037057945047247,0.0702330844222125,8.453758055165475,0.6088789305491735,5.036319316254882,1119.4783369379825,1140.9905015540614,1119.2177181332243,1102.4767215112863,469.5269968622469,-510.1792677254825,-152.5720561065229,196.87857586572068,154.07080167332458
43.855,-0.9785362723781712,0.634181547630047,-0.0014989165706821,-0.0125842652657096,0.0326653212684068,0.0177875151803417,-0.0004158154393173,-0.0037835363164882,0.1442840545475347,0.9895286485508596,0.053144853973782,0.0153903446478694,9.63424093076577,-0.0054442479682687,0.0038598172451906,0.0698069945995281,8.453736047033276,0.6088889329483559,5.036492392482726,1120.6196238525297,1139.5996239445044,1118.942883631826,1103.2552151301045,312.9573717783605,-488.9829458069243,-55.164966500359675,341.1898095263569,154.0710786897442
43.8575,-0.9133838092459698,0.7534489968036032,-0.2710473535183071,-0.0157169476861582,0.0338897268844337,0.016097952477879,-0.0004457634167646,-0.0037344230909337,0.1442700649508049,0.9895308621743104,0.0520202955763922,0.0134538808277346,9.620996057471624,-0.005634580226347,0.0039984355723816,0.0693455810581475,8.453715223860563,0.6088992415212796,5.0366648458681205,1121.043123796875,1138.5455868250256,1118.9418933007223,1104.1826705589192,19.848901334234917,-384.7447251299716,33.08148768567941,395.23155531150707,154.07127886664563
43.86,-0.769373766109292,0.866770672546953,-0.4676983366462904,-0.018227793021532,0.0359250840757574,0.0131664981927408,-0.0004786543691241,-0.0036761073110983,0.1442534443880431,0.9895334820845308,0.050750522512724,0.0115306802818448,9.607991187920296,-0.0058222460584718,0.0041233816246082,0.0688494003669448,8.453695634809657,0.608909371359233,5.036836730731501,1120.7188683592008,1137.6759003188563,1119.108291070254,1105.2313729066602,-261.66181218668754,-313.94936094031743,80.32355163586982,422.3094721565871,154.07144819917826
43.8625,-0.5632779497251797,0.9550982557604232,-0.5832970848570722,-0.0201019064113029,0.0385520859125859,0.0102544808135584,-0.0005167563884464,-0.0036085485518886,0.1442404763586042,0.9895355876026652,0.0493135993857227,0.0096143250550011,9.595269208951347,-0.0060087135591832,0.0042363445227308,0.0683189112778692,8.453677095134633,0.6089183583965737,5.0370073297344815,1119.7348147359407,1136.9758400203232,1119.3435110589019,1106.2942179197032,-538.3023241050043,-243.3492180289824,90.97511873132936,417.181563032332,154.07159374925996
43.865,-0.2922039682656958,0.9930802751216786,-0.604381767024664,-0.021298482370457,0.0414646200282208,0.007976686483396,-0.000563852194685,-0.0035311794348063,0.1442337544606142,0.9895368008412404,0.0476759030586,0.0076656232222178,9.58287173497305,-0.0061955474349227,0.0043393922126461,0.0677544564217391,8.453659381509773,0.6089255855859373,5.0371768970972335,1118.0273567386744,1136.4591542287108,1119.563166663911,1107.3172807218227,-878.1280901984957,-197.7560192905892,66.64106970739944,433.61195720238686,154.0717140727297
43.8675,0.0911513626434623,0.9646549385926378,-0.5481799840823633,-0.0220530786679595,0.0448300738862447,0.0064695476346355,-0.000620136154357,-0.0034444929792546,0.1442296260164404,0.9895376548886398,0.0458364535795345,0.0057037231604459,9.57083841577312,-0.0063839766950958,0.0044353020649733,0.067156290004897,8.453642078545817,0.6089315250333553,5.03734597909658,1115.3441742849525,1135.9870599238711,1119.6767164074383,1108.4622777057132,-1051.284992317188,-159.36054237646147,-1.5640114255361948,401.8597120594694,154.07183538410243
43.87,0.4424791743091233,0.8750941307089948,-0.4586922887047377,-0.0220405492122992,0.047212061607471,0.0060618871676047,-0.0006805715881174,-0.0033464558523642,0.1442213026915833,0.9895391529152208,0.0437638422856082,0.0038461970051909,9.559206343069139,-0.0065752263392706,0.0045275824396553,0.0665246287671615,8.453624685345446,0.608937243196772,5.037515850882182,1112.7709317770932,1135.6623515168292,1119.5553466067831,1109.3265792821185,-1051.24289084334,-124.08257077825527,-111.67626742884492,319.6416983813562,154.07192285203357
43.8725,0.7990631133634413,0.7173958057148936,-0.3469239872106821,-0.021007831789195,0.0492500226902923,0.0056174879813286,-0.0007348986747879,-0.0032430514241692,0.1442077933466208,0.9895414257193946,0.0415963633533059,0.0022797377875585,9.548010063463746,-0.0067689925305007,0.0046201976281728,0.0658600366311348,8.45360659684995,0.6089434066943386,5.037685560310249,1110.087959830733,1135.3666470699795,1119.118335070294,1110.0604861976208,-1154.5117433392538,-121.47368250173864,-278.8881285940016,281.1601798688497,154.07200394387598
43.875,1.1895199108664112,0.4531779940669064,-0.1986461619013259,-0.0179547549966789,0.0517104438533666,0.0045072890726288,-0.0007779877184388,-0.0031442290986497,0.144193680977536,0.989543774296064,0.0395357680445282,0.0010756157178946,9.537281611506737,-0.0069641965399392,0.0047162585255439,0.0651637105948163,8.453588106304316,0.6089495405339822,5.037853478350468,1106.998373060394,1135.05498310432,1118.1609059638126,1110.7323801814634,-1080.1039434342147,-97.75239900177233,-425.39846342622275,203.5410159288436,154.07210313619368
43.8775,1.4495459176248475,0.1788571726433673,-0.0701181742042689,-0.01377019858521,0.0533970362779731,0.0035472067052591,-0.0008054439434194,-0.0030579082924542,0.1441817747786427,0.9895457679399352,0.037745001426857,0.0002894490457928,9.527049254479744,-0.0071597616840805,0.0048186284575323,0.0644374754216609,8.45356948034072,0.60895496387764,5.038018811552151,1104.6874401135667,1134.8778850749711,1116.9913427531649,1111.078191277264,-842.8935887297266,-37.43278310496766,-535.4562203965531,87.60983700767677,154.07219386360313
43.88,1.6112246017555099,-0.1287918891531449,0.0477830045404012,-0.0086548580860469,0.05366021726237,0.0032549010484156,-0.0008206456592024,-0.0029875107666486,0.1441739639208784,0.989547119898026,0.0362824759585025,-0.0001636882623152,9.517337044853472,-0.0073550349562903,0.004929010846662,0.0636837345579408,8.45355027171234,0.608958967445804,5.038180767947582,1102.7839051167432,1134.8678191887952,1115.4836248618285,1111.170429366502,-682.6965442444962,35.47007580471477,-642.382147709976,-6.14522395898943,154.07230038418302
43.8825,1.684005861284812,-0.4394567367553685,0.1391277844247763,-0.0036433325237938,0.0526927247379874,0.0037508555130701,-0.0008289839714278,-0.0029284668779636,0.1441699835457353,0.9895478778760795,0.0350523079936619,-0.0003896974997113,9.50816367143378,-0.0075501366495937,0.0050485917877924,0.0629051948244989,8.453529541522,0.608961551116548,5.038339523748502,1101.2739573923427,1135.0552354539948,1113.7794320146131,1111.047465157469,-506.4428565627681,130.92844632286045,-698.99018486576,-96.05089669634803,154.07242529274163
43.885,1.6596538135970276,-0.7246010706347524,0.1770779317275866,0.0007672835490579,0.0506549570082053,0.0050538919980763,-0.0008277796420154,-0.0028802797364943,0.1441683188039827,0.9895482629172784,0.0340593208561162,-0.0003575118901005,9.499542250616376,-0.0077443719618988,0.005178893601267,0.0621047591236848,8.453506737156216,0.6089635213869418,5.038494613243449,1100.2516908339317,1135.5224614204087,1111.9886739375029,1110.6901748830207,-346.01731655512174,268.6033512443818,-762.3649890088664,-195.1978698465065,154.0725784724596
43.8875,1.5447148089387372,-1.0093523038457863,0.1459032754124104,0.0052853712473001,0.0472244239620963,0.0068813620184653,-0.0008168470808671,-0.002844341459377,0.1441713565756202,0.9895479216635094,0.0333389350614731,-9.017270417388534e-05,9.491480771002497,-0.0079368959518036,0.0053204373785813,0.0612853321065055,8.453482114244908,0.6089651252055541,5.038645241567632,1099.5438708095662,1136.3982522102172,1109.967607069567,1110.071475808236,-186.8459790960468,362.9303038499037,-686.9012220055662,-240.29348536761503,154.07280246245404
43.89,1.3991192894198488,-1.1883512043828992,0.059661286514574,0.008318988007136,0.043685608150817,0.0080660828103211,-0.0007950058953948,-0.0028200321952378,0.144178337355275,0.9895469701476785,0.0328927113239309,0.0004124119720927,9.48398182133961,-0.008127436561764,0.0054730950373903,0.060449416948959,8.453456157195976,0.608966747672911,5.038791719060907,1099.3174609384507,1137.3371129396592,1108.5541678274733,1109.488707456182,-37.76140935755189,397.89860420519096,-478.96302576912507,-221.37727246015072,154.0730277824321
43.8925,1.2224440189620491,-1.3088040839632087,-0.0672989146433203,0.0107993528085415,0.0399140979226926,0.0084960408847787,-0.0007628188534813,-0.0028043204683657,0.1441834232131106,0.9895462734063238,0.0326733672527862,0.0011244810382808,9.477043054264822,-0.0083165617393469,0.0056357206551998,0.0595988125084058,8.45342984696324,0.60896929881264,5.038936153984888,1099.3550637627786,1138.3877452312415,1107.5727919407236,1108.9645894459363,46.80307320179388,459.5701267803556,-319.40849139152334,-189.98734309356507,154.07329899799367
43.895,0.9861507826522176,-1.4058701978658288,-0.2268638460987903,0.0138419992722633,0.0358086079527442,0.0077486947466542,-0.0007232627111857,-0.0027951922078294,0.1441807874870593,0.9895466912201704,0.0326478485165393,0.0019745801530144,9.470657916918771,-0.0085052482472819,0.0058061613425642,0.0587345407501887,8.453403801643118,0.608973547043796,5.039080187921229,1099.55147630446,1139.6349635735623,1106.9571253705149,1108.5387707407135,74.3804512820208,435.08597945042794,-142.89145158847495,-110.04766905592813,154.07368339464995
43.8975,0.7721467796840572,-1.4685313968535878,-0.3354374540829527,0.0163247889444185,0.0329521980427728,0.0060073680871408,-0.00067363703477,-0.0027944087826852,0.1441645455418709,0.989549079965432,0.0328709592297448,0.0029909822224039,9.464815837166608,-0.0086943204005697,0.0059823010918824,0.0578569482131874,8.453378351621508,0.6089806497500533,5.03922416902134,1099.7269660191887,1140.5631751284948,1106.8583346827809,1108.4143511006564,48.569536548801416,327.339825908691,10.691451670809956,-1.2169868352441127,154.07405649539305
43.9,0.5462706806907613,-1.534111770165284,-0.3939192597846188,0.0183966467833141,0.0304508908935807,0.0039130697470203,-0.0006196067864952,-0.002798466441382,0.1441388946602285,0.989552829172524,0.0332783095178619,0.0040651534427477,9.45950285866569,-0.0088853833963855,0.0061610127538514,0.056965943573467,8.45335360370808,0.6089903057252569,5.039367837313497,1099.7943239872038,1141.2716627031043,1107.0105826288689,1108.5326858065375,-4.198215979702253,233.7120005719212,64.88058901769682,76.99351145725512,154.074487972042
43.9025,0.3202796377938167,-1.6080827942238896,-0.4068377166952446,0.0199750976859154,0.0277609008414833,0.0021058139382839,-0.0005680039455848,-0.0028030868729469,0.1441099870243282,0.9895570494975636,0.0337892652113332,0.0050742664867563,9.45470173393388,-0.0090799591149551,0.0063391088169207,0.0560613218244581,8.453329388439187,0.6090019939131268,5.039510870385655,1099.7059749392904,1141.7317351313548,1107.1827376278695,1108.7993186579429,-80.91462729017118,111.6826821178958,28.60578538910332,119.23256487242082,154.07496997883104
43.905,0.1137597694949118,-1.6829333192449567,-0.3757049449744631,0.0204787528442859,0.0242075388219088,0.0008854923669959,-0.0005249837758958,-0.0028033074214219,0.1440829232256465,0.989561012730736,0.0343128583515405,0.0059152594671119,9.450391792125998,-0.0092792133079658,0.0065137420460179,0.055143022701308,8.453305239263097,0.6090148214103454,5.039653164094731,1099.3897508507528,1141.830076113694,1107.1536115558145,1109.1288486309,-191.10727916999264,-47.76683046579616,-99.56997458962138,124.86331340544425,154.0755147927519
43.9075,-0.0817055143332843,-1.7483531609459426,-0.3119164638080473,0.0195837299499527,0.0185517501503668,7.086433043336667e-05,-0.000498518884813,-0.0027945135780244,0.1440637445166674,0.9895638505258596,0.0347597652087499,0.0064552927794724,9.446548912608435,-0.0094836755150391,0.0066823030234374,0.0542114164754531,8.453280046029345,0.6090273702500614,5.039794102825249,1098.7504385434413,1141.4929009790262,1106.6848877549219,1109.4236352249695,-269.81537929059255,-194.6812030672304,-253.66336333127705,69.13723229646267,154.07624271936714
43.91,-0.1847489474384558,-1.765528965606208,-0.2555619357778532,0.0180265202975525,0.0130685157291997,-0.000193069841853,-0.0004821479686681,-0.0027797305703439,0.1440535762298446,0.9895653890470084,0.0352213928757855,0.006814513489523,9.443144404450106,-0.0096922812318113,0.0068439572069709,0.0532674689422442,8.453252902734327,0.60903952269335,5.03993269421587,1098.040673954299,1140.8566700983574,1105.8852947391574,1109.4745347923824,-304.67024653501414,-307.7662331566688,-391.31217230999926,-36.437420281281,154.07691160223774
43.9125,-0.223559019114287,-1.7396424248056424,-0.2133801150445653,0.0164712143032364,0.0079785839091854,-0.0001993213736262,-0.0004660036674819,-0.0027652300964605,0.1440481686661485,0.989566231093918,0.035856611501473,0.0071706936003949,9.4401449474247,-0.0099032362877538,0.0069984012500797,0.0523128394134082,8.453223950957227,0.6090520547902067,5.040068148881519,1097.2270873107655,1139.954069813242,1104.7283268933709,1109.241448123563,-358.8364378028098,-421.08115251960146,-551.3226150381355,-171.8180611830774,154.0776449883154
43.915,-0.2177686259596663,-1.676674894377494,-0.1889514637784643,0.0154935844013984,0.0031841589476272,-8.480757248767363e-05,-0.0004492859798823,-0.0027570102891825,0.1440453597419166,0.9895666748856972,0.0367920191154873,0.007535533235399,9.437512804553856,-0.0101146851427858,0.0071447792026223,0.0513498898229853,8.453193343548898,0.6090648793010763,5.0401995296969675,1096.2464917652867,1138.751264335761,1103.1286816639692,1108.6154444864678,-342.6689230005261,-432.23378388189013,-582.9997197706435,-281.2469916955632,154.0785988002604
43.9175,-0.194782082018551,-1.6162634974447174,-0.1895008374999124,0.0154369789263616,0.0001218889041546,5.130806854941805e-06,-0.0004360526101463,-0.0027590699182064,0.1440444235697778,0.98956681809648,0.0381005743802162,0.0078369694910708,9.43520513452468,-0.0103249792278173,0.0072822541907989,0.0503814271196137,8.45316164370953,0.609077507190429,5.040326678593871,1095.513742695762,1137.7929008938315,1101.813328294516,1107.8352131650845,-255.5979208898918,-349.7792526895439,-474.7515612740999,-352.7785393708214,154.07945420219542
43.92,-0.1818665224737912,-1.5613951901767895,-0.2011372871821536,0.0155664274082743,-0.0026550332168426,-2.5124524593436377e-05,-0.0004254778379455,-0.0027740438933279,0.1440397695602842,0.9895674754254448,0.039838922529204,0.0080975329595813,9.433173254239518,-0.0105326600069383,0.0074108801989948,0.0494103513352886,8.453129512230563,0.60909038331678,5.040450089031479,1094.9685021608364,1137.0023680723127,1100.7549238575975,1106.8515517896128,-173.31995671577107,-283.1789705676176,-350.2953841328238,-416.5876692552652,154.08037105644053
43.9225,-0.1925486857511673,-1.5093906267136317,-0.2076876906694896,0.015629695529852,-0.0057455594417566,-0.0002382282055518,-0.0004076083277617,-0.0028024288236205,0.1440252309048306,0.9895695487974407,0.0420445338474024,0.0085147194983794,9.43136248195772,-0.0107364393129918,0.0075320609267551,0.0484393487021631,8.453097240696861,0.6091045767285599,5.040570678159932,1094.6471429121839,1136.3770060409947,1100.0618513738536,1105.75227481881,-60.345954280788696,-221.2349259697253,-165.6537916309906,-457.21433639845856,154.08133756876325
43.925,-0.2416375847960389,-1.4465403915536958,-0.1853445273936341,0.0156955345904537,-0.0095363505335135,-0.0007651335543598,-0.0003818143503754,-0.0028395388955722,0.1440047744561254,0.9895724665679482,0.0446295832070587,0.0091244183009415,9.429713928865043,-0.0109355058090193,0.0076470783101701,0.0474708937691161,8.453064617467485,0.6091195035161939,5.040688900127099,1094.6667723894325,1135.8961934424635,1099.926654899442,1104.5654801076191,100.2038806505367,-207.1709161953399,76.40478854210144,-534.1525299232667,154.08236207761567
43.9275,-0.3468862850458355,-1.3378450606585215,-0.0940296766549553,0.0155098947709017,-0.0144096002215873,-0.0018276823223538,-0.0003506283983895,-0.0028832638794076,0.143986849835566,0.9895749975552312,0.0475419078330724,0.0098931374202785,9.428165382310288,-0.0111286750907856,0.0077576222302203,0.0465073087615096,8.45303107530301,0.609133920862769,5.040803702671267,1095.1481623154368,1135.3411514600175,1100.4438753165643,1103.0815121691924,256.3941527231749,-223.99733679960627,288.92941783996224,-551.2163643383712,154.08365570289607
43.93,-0.4664661643679439,-1.2115282626792392,0.0542689737210873,0.0147636825806568,-0.017986248007437,-0.0030199997261327,-0.000315668120642,-0.0029280313500196,0.1439789626206114,0.989576060273359,0.0506628934165659,0.0108090013692651,9.42665198930956,-0.0113149975712634,0.0078661476676746,0.0455504951736139,8.452996509812394,0.6091467045686461,5.040915231877098,1095.9487431530472,1134.7762067584663,1101.3713019886407,1101.80939828593,400.7153377132005,-269.9363553104558,436.0887670072644,-514.3114935706437,154.08478487711852
43.9325,-0.6046385014639009,-1.0491995996258607,0.2853148446056122,0.01342342265179,-0.020749308094439,-0.0042197664371602,-0.0002764237499938,-0.0029716907469181,0.1439802067555255,0.9895757876238792,0.053938627050099,0.0118844755681322,9.425107935757886,-0.0114933285204829,0.0079755542197381,0.0446019570303421,8.452961334963735,0.609157856488844,5.041023890931718,1097.151739004001,1133.9914696834664,1102.6243191515987,1100.5099547013415,613.7664248382905,-407.4954017435364,564.6049107897237,-575.6211746689826,154.08596402794015
43.935,-0.7732678905147492,-0.8202931359947536,0.6378431085933407,0.0114593712588801,-0.0233462587437391,-0.0047805469384066,-0.0002345962853742,-0.0030157435153182,0.1439896469035225,0.989574307315852,0.0573734686043041,0.0130752416075971,9.423468474164238,-0.0116623879629932,0.0080887443467982,0.0436627503496516,8.452925455597306,0.6091675490819864,5.041128990160029,1099.0175752772402,1132.7387297497476,1104.1943265425907,1098.9312924125836,746.0114042849731,-508.3459724607693,539.5611963571323,-579.4351591536033,154.08743303418478
43.9375,-0.9027028733036782,-0.6065575230387086,0.9565844013800064,0.0093784822977508,-0.0250023081834331,-0.0035062105267484,-0.0001961916518561,-0.0030589178385927,0.144008124512421,0.9895714970651814,0.0609051160446352,0.0142588545912764,9.421671944129889,-0.0118214290881415,0.008208349546516,0.0427332183263266,8.45288933931172,0.6091756843838856,5.041230643010899,1100.8817960254275,1131.4497398211613,1105.3221251333855,1097.612778905572,796.8831704039956,-551.6447527033976,368.07192806992873,-522.6319624203576,154.08869953198416
43.94,-1.0052829183943999,-0.3740711004861978,1.2378756598546612,0.006615811596942,-0.0261053765410476,0.0001832028618531,-0.0001647081277542,-0.0031024600444755,0.1440358293299313,0.9895673245891112,0.064522076193306,0.01534789045254,9.419661421475901,-0.0119697933717597,0.0083369603629508,0.0418128658983114,8.452853342433363,0.6091825251337575,5.04132855335622,1103.0019911292563,1129.9805059862333,1106.0346861829387,1096.3181326004842,876.9940453767565,-600.5818754523825,196.77747329664209,-506.6622807108297,154.09000681187047
43.9425,-1.0774305277030327,-0.1289784291423493,1.4423740077132927,0.0034832723487973,-0.0267196087482895,0.0051956892590801,-0.0001390087377666,-0.0031456167573352,0.1440725011301611,0.9895618320874554,0.0681857927352576,0.0163428876169056,9.417386537003175,-0.0121072849221239,0.0084770838155149,0.0409000266143892,8.452817966481971,0.6091883696427013,5.041423572732234,1105.2667662523138,1128.4468304438979,1106.3060124998694,1095.0794675020163,917.2435654712298,-605.2772910715789,0.4193503140866269,-467.82721457501515,154.09134560179106
43.945,-1.1114753212717792,0.128285234872487,1.5206085002094907,0.0003691190003576,-0.0266850691691206,0.0105939675530051,-0.0001212351571513,-0.0031826148283086,0.1441171088411735,0.9895551911217132,0.0717535339079499,0.0171944056708313,9.41480634715808,-0.0122344358167138,0.00863026063478,0.0399917479632255,8.452783445298254,0.6091933132284306,5.041517332471101,1107.588208956615,1126.9541195308739,1106.0367829345091,1093.978996527608,994.4343921020339,-616.8815748301921,-219.53208174347267,-427.9585441114049,154.09271964352257
43.9475,-1.117476742096732,0.4474072137929758,1.4611869798896515,-0.0030554148763345,-0.0259356595457129,0.0163244427624201,-0.0001173280198484,-0.0032056095779004,0.144167450074996,0.989547752927716,0.0750326204134419,0.0177871605809227,9.411891343994528,-0.0123521334117076,0.0087967793384733,0.0390839159488786,8.452749349597418,0.6091976613529012,5.041611258277111,1110.2389382128194,1125.3624225697497,1105.208352091153,1092.9396747814615,915.542882497116,-530.3766684823601,-356.7328245562288,-314.3010391291438,154.09440575508177
43.95,-1.1049164424995312,0.7189781863230182,1.3001008351322227,-0.0054878198710249,-0.0248075273113485,0.0201198781790037,-0.0001335752014218,-0.0032040636533206,0.1442187091683468,0.9895402572832662,0.0777787564283038,0.0180080243189708,9.408624550741209,-0.0124615325273727,0.0089757515505442,0.0381714677200222,8.45271480875669,0.60920222671371,5.041707278739104,1112.1659233691028,1124.3022361884607,1104.253118811727,1092.4074913319614,672.1242497353359,-349.85929530853645,-393.45361062453657,-121.29960331242889,154.09583938430993
43.9525,-1.0873142321133271,0.9902154257792732,1.0563931743683523,-0.0074160451875556,-0.0231922299704152,0.0230030218508901,-0.0001680395585746,-0.0031788224151554,0.1442637585233098,0.9895337393484892,0.0799820230413164,0.0178694220006225,9.405001043753389,-0.0125628572976006,0.0091655239286196,0.0372491644067635,8.45267931114727,0.6092086966061488,5.04180518171028,1113.5995594614978,1123.613126093206,1103.2410840380292,1092.333176764899,479.08527706074807,-205.15941358935848,-414.09732843914213,90.70656334978656,154.09729961489103
43.955,-1.0657942721780371,1.3005680742944437,0.7128207462959442,-0.0098193481945552,-0.0206316591517365,0.0255541430472323,-0.0002170127336049,-0.0031382810366475,0.1442987088046847,0.9895287379206096,0.0817788229297954,0.0174012457379755,9.401028587601767,-0.0126557595698348,0.0093634595079305,0.036312202100811,8.452642701924836,0.6092181736204016,5.041903265745289,1114.5613497544043,1123.2764391205149,1102.1826321695332,1092.86102414871,209.53362657158516,-42.52708045644438,-342.0936749185399,298.85081488994894,154.09907884897683
43.9575,-1.0423109786670233,1.5280753496896364,0.4168493838483244,-0.0123753937433884,-0.017714202212591,0.0268135163638051,-0.0002788114557462,-0.003088718455907,0.1443213668321126,0.9895255535545884,0.0832618012365066,0.0166077446100631,9.396727811661886,-0.0127401365561503,0.0095660523329897,0.035356511356966,8.452604745589756,0.60923114175893,5.042000237613925,1114.6472275943563,1123.4004906909236,1101.5306156634358,1093.8274308393495,-118.24663172827375,117.0290307140787,-208.89770800734595,481.1193892518799,154.10058090975517
43.96,-1.0020795880369304,1.6922152056812216,0.1489190530748127,-0.0152266080732776,-0.0135771416236334,0.0269752844583364,-0.0003529243994277,-0.0030377190799643,0.1443362517646002,0.9895235051544802,0.0845468015797323,0.0154751611200383,9.39213106767668,-0.0128157720805063,0.0097695360764279,0.0343791317691507,8.452565747520348,0.609246585517013,5.042094294050848,1113.9701165957629,1123.8615842740855,1101.138143629496,1095.2666210949703,-388.45802594268065,215.0273235095165,-124.4767004193586,628.3131135211337,154.1020989611409
43.9625,-0.9422112281212888,1.7788457459315559,-0.0710073164233301,-0.0180302334734714,-0.0083599698737515,0.0262720151934927,-0.0004339426798238,-0.002989227695693,0.1443462133502637,0.9895221699181064,0.0856968000855064,0.014098286232187,9.387280573830552,-0.0128827937321978,0.0099705335963278,0.0333780460521403,8.452525561081346,0.6092636705412983,5.042184929451377,1112.7049374646447,1124.4756273084704,1100.9082321613396,1096.9689964069523,-624.6436369226545,238.6410271741768,-74.5229401302441,699.1181689010833,154.10362688949132
43.965,-0.8583430820520535,1.7520461821225468,-0.2131689760731975,-0.0205136711414282,-0.0024668351014364,0.0249210801452577,-0.0005100070152771,-0.0029501795345985,0.1443516397956918,0.989521474842146,0.0868496291707465,0.0126910265188865,9.38222638457535,-0.0129412787779139,0.0101663077970686,0.0323522297922173,8.452484105511111,0.609282324860727,5.042271295208344,1110.846898411148,1125.054789409957,1100.7655289288443,1098.7622119394775,-913.3753509041856,181.39713692844268,-68.7359196601495,745.6839784567642,154.1051622483254
43.9675,-0.7372134546930906,1.5906086946069276,-0.2862310122603326,-0.0225842831330527,0.0040694426330926,0.0231943656629525,-0.0005752815561613,-0.0029241490653501,0.1443551918705542,0.9895210222852816,0.0880670043385866,0.0113712013927193,9.377026011317678,-0.0129917878368016,0.0103543248886581,0.0313014562663106,8.452442035282699,0.6093022252631165,5.042352638183672,1108.1380607101214,1125.382612993113,1100.5645525630387,1100.697416299238,-1038.8155738740704,13.222045137002372,-88.53752792073331,632.2680437062737,154.1070069812498
43.97,-0.6255302152440751,1.3717371622860977,-0.273202875714418,-0.0234404752231277,0.0082705771201245,0.0219863456716805,-0.0006225665857677,-0.0029097932935767,0.144358283330532,0.989520613681352,0.0893257740945996,0.0103009721420782,9.371741872698129,-0.0130354763894212,0.0105328433675495,0.0302258258559382,8.452399954057128,0.6093232948038617,5.042429319497422,1105.6528205417824,1125.120899635642,1100.3228412892413,1101.9235521580063,-1000.2133002907952,-254.7426233078174,-108.3662550803538,379.14338925419247,154.10854122416885
43.9725,-0.5019336491829361,1.1106765733905044,-0.2036560074941627,-0.0239289456438076,0.010972031998052,0.0212735891004678,-0.0006556164796071,-0.0028993298345587,0.144363328114718,0.9895199161029427,0.0904571555028594,0.0094610980939596,9.366440671033992,-0.0130741661972484,0.0107003697234772,0.0291256208116489,8.45235871426583,0.6093450299021052,5.042503196548616,1103.1369942086649,1124.108899876573,1100.0227212876366,1102.59313324551,-982.7510833246808,-538.0002400282114,-116.81931521223696,170.58782830149903,154.11006604891244
43.975,-0.3574696894985716,0.8515307220567719,-0.1068736267799758,-0.0245722874219163,0.0126811839235427,0.0210659823956286,-0.0006862105704787,-0.0028861471264804,0.1443739798139105,0.9895184051381286,0.0912962524183681,0.0086834997724223,9.361190928887188,-0.0131096982272342,0.0108559125424952,0.0280013351575339,8.452318339127643,0.6093663632208955,5.04257527091348,1100.7390651251565,1122.4308984354996,1099.7387447131798,1102.776491299514,-900.8936486916361,-811.714066345268,-88.86761947282035,-27.61276574622353,154.11157855021906
43.9775,-0.1650348969234382,0.6322735010128623,-0.000641284880963,-0.0255543673664286,0.0133415563460955,0.0214185425141541,-0.0007170959146872,-0.0028685548185392,0.1443905452981256,0.9895160344153452,0.0917971409938952,0.0079556709814816,9.35605949290772,-0.0131435663945601,0.010999755752797,0.0268535356887539,8.45227849391392,0.6093871276046396,5.042645598468903,1098.6325259652108,1120.0503295448507,1099.5783831902727,1102.4550694167788,-830.6465198054709,-1147.3800956464895,-19.879741322428178,-217.17495088771813,154.11307170763695
43.98,0.1501041833184802,0.4458579488400788,0.1144678132622415,-0.0269007618709626,0.0135636253667085,0.0222361586602745,-0.0007464978891426,-0.0028464594890233,0.1444121628375158,0.9895129298623287,0.0919590082354675,0.0073439595818768,9.351110456962807,-0.0131770475047046,0.011133070739632,0.0256829803679724,8.452239020055162,0.6094073901685539,5.042713895812703,1096.5858325261268,1116.693997957264,1099.6393460065676,1101.690616545075,-658.5351002168678,-1249.5244474831427,71.35759443018273,-308.3770842475829,154.11483679932783
43.9825,0.4934196857069765,0.3609944532286373,0.1904158463702136,-0.027719679380151,0.0140255129817691,0.0229096796741734,-0.0007734415075971,-0.002822415631822,0.1444388811768159,0.9895090796579364,0.091831143010927,0.0068903667353578,9.34640399318974,-0.0132111143261464,0.0112575004323003,0.0244908809823818,8.452199459514553,0.6094268918846946,5.042779120779313,1095.3398504641248,1113.8027073074315,1099.935171162424,1100.9131839955403,-400.8824214365185,-1092.0388922263935,163.82278548595767,-304.43409785334956,154.1162833453732
43.985,0.910498209608229,0.3434425362573514,0.2414352054570871,-0.0276859654997595,0.0149601265307053,0.0232951092442937,-0.0008004056411893,-0.0027955047026533,0.1444714129647745,0.9895043855696166,0.091392188749067,0.0065785355112128,9.341995397999156,-0.0132467658776581,0.0113749245694063,0.0232788342445145,8.452159870978742,0.609445079366616,5.0428410836364845,1094.5814204189462,1111.2338034961372,1100.4584599339967,1100.1684460558097,-230.7067821596504,-971.1250853033139,264.10474876261236,-297.55536527430434,154.1177033107865
43.9875,1.450102309125504,0.3890126651734769,0.2709171267236802,-0.0258061879470698,0.0162375707823569,0.0238219925893241,-0.0008264387686954,-0.0027664119544452,0.1445071922565969,0.9894992263208376,0.0906619704829123,0.0064461809471601,9.337932851317987,-0.013284842555196,0.0114874593193437,0.0220488249532337,8.45212031713329,0.609462096972687,5.042899540362265,1094.186316553326,1108.9470818809127,1101.2556949062375,1099.425407169168,-70.68624325303084,-665.5550686384464,304.22801795296334,-246.2742400212041,154.11937659028027
43.99,1.8775030603049456,0.476583416230046,0.2645662169549247,-0.0219422810866753,0.0172189758284606,0.0246908578736672,-0.0008378932121158,-0.0027389686755439,0.1445408119808469,0.9894943890568528,0.0897545632197432,0.0067509122015215,9.334255353300176,-0.0133259655995327,0.0115975945515876,0.0208030330279263,8.452080672466758,0.6094793142622524,5.042954050599139,1094.2279892026809,1107.9060281529432,1101.9796000237623,1098.937074855703,78.72457060896404,-223.89450316102185,285.2479734704823,-182.64726141417907,154.12074647973918
43.9925,2.2050612160300727,0.6101127506831006,0.2211195641242943,-0.0156143331629128,0.0182921051077964,0.0259826685317154,-0.0008266075255802,-0.0027137837490817,0.1445685914664129,0.9894904123697912,0.0887115505396787,0.0076504209310774,9.33099354124186,-0.0133708535117403,0.011707393312381,0.0195438863209588,8.452041000633292,0.609497638717441,5.043004758969696,1094.5799394063704,1107.8276093651086,1102.6819347735889,1098.512170862098,182.49872324739272,111.0774731011689,268.3458532754397,-176.86510998849087,154.12209331630478
43.995,2.399820003331796,0.7761094340763449,0.1487566836041443,-0.0078109222382301,0.0197301321953157,0.027216630351855,-0.0007943984982227,-0.0026892494402994,0.1445907267535525,0.9894872658535452,0.0875084004191751,0.0091165909987622,9.328169165212262,-0.0134201833516247,0.0118184853953762,0.0182740658300822,8.452000830120731,0.6095169594389566,5.043051441287712,1095.140482818917,1108.4614155184483,1103.3213292901382,1098.0527493057612,265.84678054036925,379.0057398563811,232.16859055384649,-212.18158846984863,154.1234233088182
43.9975,2.402305115658493,0.9711889784780284,0.0550477701813121,0.0005266973425201,0.0216202811652683,0.027848515141945,-0.0007461873467066,-0.0026619746706209,0.1446096104965089,0.9894846036788988,0.0860805014057311,0.0110612764748859,9.325793950255646,-0.0134745146662691,0.0119324833148612,0.0169962806034064,8.451960353926129,0.6095367838084322,5.043094941532158,1095.909173309073,1109.7226380643915,1103.8427777263587,1097.451262919748,378.08116538375293,625.0755558195564,191.14075287947568,-312.68143378767866,154.12473575897465
44.0,2.1899209105900406,1.2217366423515155,-0.053519083208688,0.0092310264707869,0.0242233280700951,0.0276094156524582,-0.0006903070966508,-0.0026304325172054,0.1446262812812826,0.9894822727286058,0.0843888883180356,0.0133208319857205,9.323869250040026,-0.013534236266051,0.0120509790076454,0.0157133277532778,8.451919761962086,0.6095566228596309,5.043135770751809,1097.0308886458367,1111.586793297548,1104.277033054536,1096.489342136822,437.6864744231968,688.9801994662675,118.37712684370524,-392.5436106399434,154.12629386838884
44.0025,1.8691782138961364,1.4268973001385676,-0.1185285058267282,0.0146130817573762,0.0267480037045114,0.0266230594127797,-0.0006343251539333,-0.0025972466527463,0.1446418124849285,0.9894801052798224,0.0824733834478281,0.0157271907798945,9.3223856523418,-0.0135994743599687,0.0121757467259652,0.0144281037806057,8.451878830911381,0.6095760278159997,5.043173234858521,1098.097605681187,1113.1675390617197,1104.4346633605767,1095.4885448665502,439.8862963717443,589.8397240247671,10.641127086313656,-426.646785194871,154.12758068661387
44.005,1.4603391062371616,1.5984624435686263,-0.1390579345968087,0.0180900161230836,0.0300057783866438,0.0252104595810551,-0.0005878129230277,-0.0025624512173213,0.1446576819338592,0.989477878808636,0.0803204233717492,0.0180753007113714,9.32132376745038,-0.0136703448518665,0.0123086376486324,0.0131434830201075,8.451837871287768,0.6095943268898121,5.043207564830862,1099.2303201276964,1114.5359919176733,1104.3302386899677,1094.3561082108467,486.2951343207228,525.7641199304128,-113.2747537907892,-494.9639962031793,154.12885822271795
44.0075,0.9387641297372596,1.720278176120441,-0.1114165338139793,0.020405170727374,0.035086993878854,0.0238468722197736,-0.000551022820959,-0.0025306564707852,0.1446735064762072,0.9894756339133984,0.0780252188320628,0.0203132829699032,9.320653279229452,-0.0137467944287687,0.0124516314175039,0.0118623005726398,8.451797354661084,0.6096118647341596,5.043238154084369,1100.5290813527915,1115.7963596613731,1103.8682895916224,1093.013724885533,440.8727139096672,398.39251030893894,-225.20110206253335,-458.7753042430984,154.13038358164619
44.01,0.519733706357489,1.7176883252018005,-0.0580100944099958,0.02113191903729,0.0403969766184478,0.0234342840668801,-0.0005187173937766,-0.0025028014624345,0.1446916869325381,0.9894730191868492,0.0756295940296193,0.0224949189487509,9.320334147090753,-0.013828727272124,0.0126066143499608,0.0105871284921313,8.45175749050532,0.6096290336827338,5.043264817197652,1101.4346836972427,1116.527954469216,1103.204233179656,1092.062231689633,295.7656745750079,244.31638722245455,-317.13363268642894,-310.6423863984903,154.1316504216704
44.0125,0.1489846175349961,1.578611010786494,0.002451703788634,0.0210005000282345,0.0463051528426941,0.0238192647734906,-0.0004868904293968,-0.0024766502465191,0.1447138484476147,0.989469809369974,0.0731124500711855,0.0246555486351611,9.3203181529148,-0.013915992308692,0.0127749193559401,0.009320331471284,8.451717856501382,0.609646098150002,5.043287581889168,1102.0079097256676,1117.017941597486,1102.2826214281895,1091.4605129535398,157.71054944822143,176.4271656808894,-403.1537095091364,-163.40050128465745,154.1329151592016
44.015,-0.1704191843062214,1.3245770733841091,0.0515562631718143,0.0203498900694477,0.0517908795236638,0.024675741712115,-0.0004573204463559,-0.0024493791293828,0.1447417693637501,0.9894657594745474,0.0704251975517526,0.0267225486712472,9.320550594614435,-0.0140082193536417,0.0129571711627117,0.0080641237091926,8.451677351427993,0.6096632098611771,5.043305792184487,1102.2232364444844,1117.410090297621,1101.1884646321091,1091.2452291832096,-7.381215296943429,157.9024719674252,-466.67192052415584,15.537230067243888,154.13417965935835
44.0175,-0.4261991151877345,0.9597595651218798,0.0756814966879033,0.019189959742151,0.0556470805181874,0.0256949994155974,-0.0004355867740125,-0.0024134025014477,0.1447761006180679,0.98946079629015,0.0674198985726919,0.0285647074138765,9.320971588057985,-0.0141049106207149,0.0131533002088469,0.0068202499010493,8.451635231509487,0.6096804189796873,5.043320571856952,1101.9710036491829,1117.8074539573224,1099.9492618255708,1091.538199103876,-209.64853730136568,197.9642989558112,-560.430767141074,234.63291739005217,154.13544520239816
44.02,-0.6675735344326871,0.4595132233821734,0.0776855584137434,0.0173299618701976,0.0575179822853403,0.0264492766270426,-0.0004176158766392,-0.0023697310891858,0.1448112723297296,0.9894557301647416,0.0641313296179163,0.0302057402154259,9.321516077476755,-0.0142054784008886,0.0133625632311346,0.0055899981284526,8.4515916144908,0.6096988618888979,5.043332596594396,1101.174993757977,1118.3999117924006,1098.3863107964023,1092.4183937701605,-354.80493365453225,241.2700374743638,-571.6350518195927,387.0977846222852,154.13696610021867
44.0225,-0.8244776449708067,0.0455170149236394,0.067660084838678,0.0155891246491559,0.0569387439143687,0.0264156626120202,-0.0004025915422135,-0.0023225382689916,0.1448475358023674,0.9894505115779229,0.0606438540058607,0.0316026931825767,9.322117413963856,-0.0143092645123653,0.013583767560977,0.0043742948137087,8.451547101777656,0.6097185543167746,5.043341562743684,1100.1969789809093,1119.0138041446949,1097.0910865664714,1093.4736880269884,-422.73943349771133,262.05075869403305,-499.842468360748,448.7426328362278,154.13823565441095
44.025,-0.949323702583699,-0.3118231566671865,0.0602641168182017,0.014047542564258,0.0552036890190669,0.0258432964745091,-0.000391121901537,-0.0022723395270546,0.1448845226274042,0.9894451967670546,0.0569701172402605,0.0326995339862383,9.322709126292745,-0.0144158681902716,0.0138152953398808,0.0031734668756481,8.451502068389626,0.6097394636914916,5.043347304893244,1099.0612965904904,1119.7101655858696,1095.887098454601,1094.6621069343396,-490.8560299728141,302.67324411036475,-490.48086668969887,503.4715211274641,154.13950715955932
44.0275,-1.071210892855542,-0.6405097961679602,0.0616684171036669,0.0121002830361285,0.0528562490930497,0.0252526752646797,-0.0003841373934294,-0.0022179749479276,0.1449195804871239,0.9894401827964332,0.0530908624383968,0.0334433898361465,9.323226781919411,-0.01452516139148,0.0140552032290797,0.0019872697916227,8.451456328365678,0.6097617274397341,5.043350054406156,1097.742698831044,1120.5271703652475,1094.6386822330217,1095.9910456326268,-445.0348546024085,276.70709670955546,-413.4941272903392,439.76760025884926,154.14103415764552
44.03,-1.145923078454526,-0.8212018882852888,0.0668817997793509,0.0097103421294835,0.0509166367531169,0.0253466083680117,-0.0003912745799038,-0.0021540680077042,0.1449529772019051,0.9894354358639644,0.0488867557296982,0.0336381597724003,9.323610944141398,-0.0146371339410098,0.0143014869910633,0.0008150000324881,8.45140964099543,0.6097846481051177,5.043350694804791,1096.8361223174772,1121.093701069418,1093.8196278181483,1096.8609449356347,-294.99159194774165,182.5126462524008,-271.2993082455535,274.3321624485582,154.14230637197443
44.0325,-1.1792677603959598,-0.9019315109017244,0.0649164680595531,0.0064683174753974,0.0488637352245513,0.0260508372160743,-0.0004115049173965,-0.0020853284666169,0.1449846399758648,0.9894309461999712,0.044454841561055,0.0332641320214204,9.323807200937184,-0.014751965627892,0.0145521583083711,-0.0003444350100418,8.451362213194914,0.6098081858015583,5.043348588598424,1096.2677408713066,1121.4397335965086,1093.2821856917951,1097.3627064448683,-161.29067024859003,93.12783858763177,-163.9670976979758,133.20514060635563,154.14357619952355
44.035,-1.168891520218143,-0.8986103115945072,0.0511340041117123,0.0029716472480635,0.0465110952516747,0.0268262181254588,-0.0004413465235017,-0.0020190047953586,0.1450174934303041,0.9894262661561531,0.0399483182903118,0.0323479270913702,9.32376913764296,-0.0148700725016652,0.0148053010062521,-0.0014925220361077,8.451315000623508,0.6098322377697114,5.043342750714741,1096.0296689662339,1121.5593402623565,1092.999792329658,1097.526970638667,-19.233423228105657,-5.696573212477957,-51.13122913155279,-10.118820584597696,154.14484218575737
44.0375,-1.1029496587234067,-0.793919719579356,0.0248694518587856,-0.0004598815983749,0.0436985551166415,0.0271847725695993,-0.0004733099098896,-0.0019576710378606,0.1450521683843896,0.9894213038569042,0.0354475337792085,0.0310109555999417,9.323459630931833,-0.0149922230461843,0.0150588800881849,-0.00263147023747,8.451268350366036,0.6098570075359427,5.043333479743429,1096.171573755166,1121.4112507304462,1093.0265295461372,1097.3121123419455,125.80703412270468,-110.69289841453671,77.96064065371678,-161.3810207557084,154.14610109481143
44.04,-0.96960935054871,-0.561368477709141,-0.0103250140306905,-0.0038315594264225,0.0402614216439964,0.0269540910756045,-0.0005029557317874,-0.0018998308636779,0.1450874076053241,0.9894162549131534,0.0309527145120526,0.0293379222477581,9.32285318480433,-0.0151193662742439,0.0153107407223412,-0.0037641124066694,8.45122180467014,0.6098827620813899,5.0433216256448645,1096.6587041368468,1121.0058757702843,1093.3895955329263,1096.7200655348893,202.57250184453008,-167.83169652836077,181.67940928574157,-250.38350885357357,154.1476002304574
44.0425,-0.8280721417239117,-0.300385705680731,-0.0344679702327147,-0.0057298046724583,0.0381792031885213,0.0264098011442541,-0.0005371089651375,-0.0018386075955066,0.1451246323062927,0.9894109200259122,0.0263387500376046,0.027229456151879,9.32193780417476,-0.0152523029093515,0.0155588608853276,-0.0048937514081616,8.451174359439014,0.609908728462555,5.043308068966096,1097.1844362643892,1120.572092247804,1093.9349265925664,1096.060194797677,195.5411878931864,-171.85241663924293,259.4250778096503,-266.96373840459256,154.14883726089352
44.045,-0.6729765753340328,-0.0148862126380617,-0.0494146724753943,-0.0070928833078698,0.037571000786829,0.0259117908341771,-0.0005721465194676,-0.0017735552109089,0.1451634575057852,0.9894053561157342,0.0216316059422087,0.0247704008027841,9.320714286956623,-0.0153919075480382,0.015801101200674,-0.0060242115420446,8.45112557254405,0.6099349977143025,5.04329313112008,1097.6364100763133,1120.1466136870877,1094.6867209219752,1095.3852468428656,140.70106577522955,-171.18170349737846,367.30019139014735,-263.3733275405242,154.1500582569147
44.0475,-0.4849347517509935,0.2901152977942028,-0.0616915734343244,-0.0087250271087079,0.0385118706485233,0.0256649628176967,-0.0005984379568382,-0.0017103358236336,0.1452015339464717,0.989399901409605,0.0169906171799178,0.0221484228681275,9.319197728396388,-0.0155392870295823,0.0160351555322191,-0.0071595529281899,8.451076481794669,0.6099621125696434,5.0432767545281765,1097.8879415932647,1119.7161837303179,1095.7714275495155,1094.7433281599756,22.93305303295447,-143.87282363360924,418.5146228920663,-184.38897401365128,154.15150081098128
44.05,-0.3335095688144502,0.4661173482524188,-0.0742000120025534,-0.0099559828372866,0.0406964171665691,0.02577597818787,-0.0006127077943967,-0.00165308737042,0.1452382256297665,0.9893946449104184,0.0125348439916315,0.01944664426049,9.317418317072615,-0.0156956184427428,0.0162588172480717,-0.008303790675997,8.45102754805532,0.6099901194201551,5.043258580647846,1097.751075341478,1119.4272495689193,1096.7792940364363,1094.463301972797,-137.2817061174126,-109.05022945697841,409.7415085647476,-41.97420646185164,154.15268090615567
44.0525,-0.1974290368668124,0.5199181035788609,-0.0956798694157483,-0.0103070604748643,0.0437375640969296,0.0260035896878044,-0.0006149887040689,-0.001601236594342,0.1452708359124651,0.9893899859574176,0.0082920729494483,0.0167075519221276,9.315419984544311,-0.0158621231832044,0.0164699069222595,-0.0094608909545989,8.450978601412803,0.610019289825311,5.043238681519083,1097.2015330626773,1119.1709325830327,1097.8201350923403,1094.5334571276662,-285.4808844218819,-105.29739532963076,407.5228921066423,88.55270819407319,154.1538341456606
44.055,-0.0815329862840036,0.4612910291899603,-0.1251809200689711,-0.0098327842342554,0.0465811266829169,0.0260833929685898,-0.0006153920780167,-0.0015479677613052,0.145298191188809,0.9893860980430736,0.0041526111535922,0.0138121181820407,9.313259435807772,-0.0160397335607631,0.016666616480959,-0.010634454826676,8.450929091847357,0.6100494194718855,5.043217537004993,1096.32367091937,1118.9007625922716,1098.816908496968,1094.9060655137669,-415.7763610750096,-117.9633036214618,367.56869431725823,211.4446140024133,154.15496197808184
44.0575,0.0092404694157826,0.280356269365556,-0.1591756663911859,-0.0091984543826117,0.0484528378066919,0.0258036639918153,-0.0006181479321472,-0.0014935221678992,0.1453207690190358,0.9893829040729316,0.0001572446842446,0.0107372214802344,9.311004743799776,-0.0162292949945959,0.0168473804547562,-0.0118274716550655,8.450878678755998,0.6100804231950484,5.043194382502297,1095.122651257304,1118.581116064926,1099.6579785639249,1095.590680197677,-573.9416102312381,-150.61752162315796,305.74294467067193,345.0453127831733,154.15605517947807
44.06,0.1030271454934935,-0.0358446871668406,-0.1948251673292678,-0.0091126864148176,0.0491719946762434,0.0250981827442308,-0.0006242573702432,-0.0014422908798522,0.1453416261568651,0.9893799474387444,-0.0035641958311067,0.0075135958322145,9.308733623071438,-0.0164315233730587,0.0170110006471594,-0.0130421618934356,8.45082794542015,0.6101119595336751,5.043168327144636,1093.4539628682123,1118.1476749841554,1100.345623220322,1096.6312920776836,-624.1540283646361,-157.79873690290628,179.38498359508148,390.6888374426492,154.15732156689208
44.0625,0.1831743686533608,-0.3419232399811192,-0.2134128025662093,-0.0094831000353298,0.0483984616755399,0.024267718464052,-0.0006342038828941,-0.0013968359947439,0.1453624424523214,0.989376980550094,-0.0069115911923246,0.0041901294206202,9.306530628647703,-0.0166469959799258,0.0171565981083472,-0.0142800367223577,8.450777039789923,0.6101436375261537,5.043138714383172,1092.0018811154791,1117.792122380411,1100.5549034819007,1097.5441243848916,-562.8662194849429,-121.88432740296948,-7.822886238507474,341.85235821118283,154.15833486864577
44.065,0.2762197852765859,-0.6453536858062495,-0.2166375740505894,-0.0096762704777765,0.0462236701248001,0.0233376104924264,-0.0006439990200138,-0.001354972262716,0.1453813070783493,0.9893742926283184,-0.0098586263954869,0.0009126426089111,9.304483856604849,-0.0168760940012941,0.0172833991651398,-0.0155421429103458,8.45072557516004,0.6101755480839536,5.043106027127236,1090.63963177079,1117.538253347141,1100.3065087891296,1098.340553868738,-549.4686760072371,-61.565711218568474,-218.22362770474436,296.99802228490887,154.15929938082616
44.0675,0.4000161484944554,-0.9664660687631098,-0.2063731884130161,-0.0089235954832848,0.0423536807368528,0.0224813314926988,-0.0006539027774584,-0.0013099044376256,0.1453954497293906,0.9893722994979784,-0.0124745725352858,-0.0022383352741482,9.30268247503642,-0.01711878647426,0.0173910431023753,-0.0168288269925986,8.450673416167966,0.6102077564473566,5.04307142184776,1089.2545377354415,1117.484293824318,1099.4637853433765,1099.0291144963169,-453.23678513886546,39.49155457514988,-388.2815697930087,202.4502549418104,154.1603940925319
44.07,0.5046435237116021,-1.1853300093130184,-0.1931022247698742,-0.0074278637713868,0.0387121796978362,0.0220403509488428,-0.0006594118258417,-0.0012645227255012,0.1454039240936256,0.989371134762212,-0.014637835924475,-0.0051215299529806,9.301215438697437,-0.0173750178176218,0.0174794903137974,-0.0181393630198513,8.450620379398252,0.6102405747734468,5.043033873231465,1088.3734478450947,1117.7357111200167,1098.3651009401635,1099.3528051434475,-292.62275740538155,174.33333424057705,-491.4322983666274,88.91384188745079,154.16124930554057
44.0725,0.6025146372992269,-1.3585871358335266,-0.1847827728679706,-0.0056145923980668,0.0352657416336967,0.0216940647565721,-0.0006537126824528,-0.0012241661539116,0.1454079251571193,0.989370617014938,-0.0161774126145018,-0.0075621695161912,9.300167692096974,-0.0176445300415882,0.0175491043336379,-0.0194720472602325,8.450567035312929,0.6102738862574074,5.0429926712981565,1087.791423948416,1118.35596049552,1097.0066238515456,1099.4736837057535,-190.04502351203251,308.48316808035315,-555.0786548431349,32.146102356848054,154.16203935748615
44.075,0.6942778404220618,-1.5076037399388582,-0.1870904056972829,-0.0039964629920828,0.0319774868569414,0.0213316466605629,-0.0006333289563152,-0.0011932807593149,0.1454076807561796,0.989370708397472,-0.0169514569865841,-0.0094491026657606,9.299616775654115,-0.0179268002829613,0.0176007956661101,-0.0208241522873445,8.450513631339083,0.6103073176784498,5.042947474086219,1087.423222727534,1119.2781269604195,1095.5897076659464,1099.5135356552319,-112.08197155304964,426.81801789663933,-541.1107851666617,18.208771546542042,154.16277085267083
44.0775,0.7821872407106553,-1.6458238334096469,-0.2086518040261504,-0.0025870552298749,0.0287505099102331,0.0210049640602454,-0.0005988133800012,-0.0011748751206911,0.1454036246745979,0.9893713410652666,-0.0168606783504797,-0.0107475080955655,9.299629740536233,-0.0182208739858818,0.0176361602076294,-0.0221920076242761,8.450459996294681,0.6103406377671041,5.042897455898022,1087.2310140906507,1120.4900505850044,1094.3010699257109,1099.5647275634865,-68.91002858075709,565.5550714379528,-495.3652147356437,43.30077433627893,154.16342637271936
44.08,0.8843461696073777,-1.8155617570635127,-0.2627294986099938,-0.0006711205808451,0.0245904496761314,0.0207163101350899,-0.0005566075104047,-0.001165800717054,0.1453970937798388,0.9893723158333564,-0.0159418576376946,-0.0115218365976463,9.300259791186823,-0.0185249917660436,0.0176575990021622,-0.0235712931112222,8.450406493436454,0.6103733796119581,5.042843380406554,1087.0786725846303,1122.1059023176067,1093.1128815922705,1099.730039526913,-59.2992237619152,587.0627686045916,-357.5795540968546,80.27970847324909,154.16411844088015
44.0825,0.9620571136531618,-1.9632407434989,-0.3322843903770564,0.0012653819169795,0.0205630003738426,0.0205020845672434,-0.0005113484483362,-0.0011644457305509,0.145388179384638,0.9893736169801924,-0.0142073224408719,-0.0118169486444073,9.301545236478509,-0.0188369126998896,0.0176679246993171,-0.0249571076208814,8.45035307709575,0.6104055730084089,5.042785499949238,1086.9345179718407,1123.4253644280288,1092.5131721552257,1099.9661261058527,-74.16435279352143,482.38607668506904,-154.23560441273662,104.02738153388007,154.16461161152515
44.085,1.0208500255142023,-2.1110045446544565,-0.4215581952887327,0.0035518649340345,0.0159950522287761,0.0201425971284374,-0.0004675681305733,-0.0011699800402008,0.145378123228122,0.9893750616766231,-0.0116649932219412,-0.011688249525912,9.30350781665608,-0.0191537032335214,0.0176704207540658,-0.0263440389630031,8.450299155786453,0.6104368710158121,5.042723532542589,1086.7078508206628,1124.5178327010333,1092.3417035702064,1100.2501764345827,-121.73843603406723,389.53873820331825,8.900386892045299,110.39609151353979,154.16501255391125
44.0875,1.0526903138676045,-2.2721620732594623,-0.533758852762904,0.0068456196171651,0.0102715511395064,0.0192612248368976,-0.0004299114655359,-0.0011811943187503,0.1453671117842209,0.9893766243891786,-0.0083420136932899,-0.0112040015159987,9.306151462338745,-0.0194717155262883,0.0176686587523564,-0.0277262918616468,8.45024385989243,0.6104670414121829,5.042657078826932,1086.3258257916712,1125.3730581190437,1092.5576740896859,1100.51810656342,-151.20552362810935,219.0120055574669,129.58059435534517,64.11558108762978,154.1653808910192
44.09,1.0357608689902311,-2.3752796331912105,-0.6116606471249036,0.0101808862355637,0.0050558231982219,0.0179404107403047,-0.0003966299798506,-0.0012012889246196,0.1453548307073446,0.9893783512345378,-0.0041802283754603,-0.0103390701045815,9.30946231134909,-0.0197869551684328,0.0176660834313968,-0.0290978104525008,8.450186523039726,0.6104965729870927,5.042584786374153,1085.9518232025218,1125.6128927288212,1092.9896065419834,1100.570754340021,-141.28744124579546,-9.824302534338562,197.72035336180923,-36.70408006421835,154.16558948362547
44.0925,0.9695163447632044,-2.4179062825288398,-0.6459315874836247,0.0135907225321988,-0.0010422873864037,0.0158655322290384,-0.0003624330416331,-0.0012295494227757,0.1453428764685549,0.9893800169449872,0.0008020281839911,-0.0090047418114796,9.313407603000234,-0.0200946952713183,0.0176660744522248,-0.0304528136319593,8.450127582489438,0.6105256847457399,5.042506714420409,1085.6193885854418,1125.323936606372,1093.5462758564954,1100.3345861630987,-104.4066915197658,-197.36794300488089,225.18617417788408,-151.35707493177628,154.16569096512677
44.095,0.8708485311170125,-2.388969050745839,-0.6263665606665689,0.016357974737021,-0.0076135186444723,0.0132724569497763,-0.0003267434891508,-0.0012625265289828,0.1453337243820133,0.9893812729934252,0.0065086357979432,-0.0072041496117459,9.317936914148797,-0.0203896329008242,0.017672376118831,-0.0317858560934379,8.450067219619555,0.610554057202792,5.04242369826654,1085.4297897449235,1124.6260530137977,1094.1155374128718,1099.8139689653628,-12.330289026197592,-358.17230714846886,215.05409009135204,-273.67641165100946,154.16570010830517
44.0975,0.7550790700273728,-2.256675006090144,-0.5330112068769377,0.0179815857321199,-0.0142643584093018,0.0106926075400685,-0.0002991077608474,-0.0012938034319723,0.1453330222832907,0.98938130717089,0.0127467010469809,-0.0051310032377975,9.322984036348567,-0.0206658487234705,0.0176895714544569,-0.0330919923961155,8.45000479203554,0.6105803941448499,5.0423364324785025,1085.5577371403108,1123.5330750706287,1094.6215463069527,1098.9662041048432,160.14756328605463,-536.6851601871059,195.637853457074,-425.48030664553215,154.16559413735288
44.1,0.6259400330411916,-1.9756297406179344,-0.3465861522089668,0.0187338290881363,-0.0218129533270495,0.0087917497700975,-0.0002864766118048,-0.0013162269007693,0.1453433904086163,0.9893797497875644,0.0193021289386561,-0.0029414375045197,9.328469161101765,-0.0209174754627397,0.0177219718605983,-0.0343672396463732,8.449939621651975,0.6106039002332124,5.042246272048069,1086.230527561354,1121.9426272128608,1095.0937266801575,1097.686567432134,343.50986813378177,-601.2697251681412,146.13879293410366,-486.24899974214367,154.16532971112144
44.1025,0.5384280041729493,-1.6539899520278896,-0.1493949248236432,0.0188200046977401,-0.0271250797907795,0.0084399249292636,-0.0002805851578731,-0.0013357002570332,0.1453613141195391,0.9893770997775828,0.0262293621817127,-0.0005571245450872,9.334301816089338,-0.0211402555187212,0.0177724495944113,-0.035608349718632,8.449872053436499,0.6106255647059872,5.042152970356086,1087.275286480978,1120.5267264447907,1095.3522402716223,1096.5349591061347,512.1152107833149,-554.659584045874,75.37353811240574,-444.98447295686645,154.1649924184609
44.105,0.4660930390767207,-1.276912498250287,0.0650471147239583,0.0192687796754936,-0.0307495188369762,0.0087522738220115,-0.0002755569215319,-0.0013599013499344,0.1453879467787158,0.9893731679407632,0.0335983044954158,0.0020436824009878,9.340382755104857,-0.0213306971215934,0.0178436504306507,-0.0368128090669902,8.449803287257712,0.6106459133359701,5.04205534382335,1088.791103615272,1119.16932929263,1095.47059437072,1095.4616450673486,666.9227495595577,-516.4033728211592,29.58620763659688,-397.9152091250182,154.16453128931698
44.1075,0.3885098064004127,-0.8876594945936261,0.2783213693218469,0.0204076165895814,-0.0327240243383239,0.0092307679009052,-0.0002680076428259,-0.0013921431320034,0.1454229121863556,0.9893680027175498,0.0413823921251842,0.0048421096746574,9.346606763087475,-0.0214860948661984,0.0179375273063439,-0.037979225321561,8.449734201654822,0.6106654672751183,5.041953367931249,1090.6099002287776,1117.9447095806836,1095.5001713098056,1094.5453830605084,769.8797275366086,-446.74897062454573,5.63942119188654,-321.6972777599237,154.1639660709914
44.11,0.2781173868737239,-0.520640706279131,0.4752092613759142,0.0220056064271553,-0.0332574428113402,0.0101143558444707,-0.0002604580492341,-0.0014294829825543,0.145463913656602,0.9893619462247224,0.0494165375936695,0.0077229791978948,9.352866608800728,-0.021604400696811,0.0180554436631187,-0.0391075086605879,8.449665021756285,0.6106850228092942,5.041847910138804,1092.6405022529516,1116.9355844395093,1095.4987914766791,1093.8531586785505,901.4561427780272,-390.6986913482162,20.16772865930639,-266.4486379571828,154.1632741810173
44.1125,0.0834739023409303,-0.1353651286778722,0.6736322792538681,0.0236218982388964,-0.0330263620488748,0.0121323089257672,-0.0002635058438248,-0.0014622649679809,0.1455103717671306,0.9893550912364222,0.057385415321655,0.0104383482248037,9.35905737929392,-0.0216839593450172,0.0181984676982691,-0.0401989669236671,8.449595384915728,0.6107046157984438,5.041740549847884,1095.11718094267,1115.9912161239415,1095.6010099531022,1093.213139870722,890.202570212113,-305.0698576670387,75.15171354562675,-226.21947731883915,154.16229666919315
44.115,-0.1359924376877177,0.1331325958667595,0.7956127177855171,0.0242825337159676,-0.0323416553204587,0.0144608152260312,-0.0002782496441221,-0.0014879615932616,0.145560587156732,0.9893476849457566,0.0651301445662585,0.0128975337022847,9.365079077806419,-0.0217248773426303,0.0183660215125897,-0.0412561347440967,8.449525047310534,0.6107247088902754,5.041631866029151,1097.0915151040144,1115.4102351511733,1095.8745500444077,1092.7220612919557,752.6551433749343,-197.61809133369536,163.18198780096571,-221.7751859551952,154.1613593484132
44.1175,-0.4077636128700684,0.3535129921042684,0.8658823951203309,0.024051957487962,-0.0312526000403147,0.0168460225315102,-0.0002985601645647,-0.0015120013986993,0.1456157765679812,0.9893395361515612,0.0726614429034358,0.0151259112940615,9.370839015255315,-0.0217290429247068,0.0185561794969098,-0.0422825214948794,8.449454524002876,0.6107455910453314,5.041521156759624,1098.880456659541,1115.003125667274,1096.4169198921063,1092.104263940947,736.9904903347442,-149.9939244498364,297.85137185481096,-332.50127157965153,154.16029549816085
44.12,-0.7738396463162192,0.5825345780128183,0.8927726791987575,0.0226637694425595,-0.0299030837583835,0.0194040145374014,-0.0003167987778412,-0.0015355753568126,0.1456735205125253,0.9893309998928482,0.0799206128678735,0.0171947358249242,9.376254610851175,-0.0216993509358935,0.0187657122882877,-0.0432828832429909,8.449384645795849,0.6107680234373383,5.041409217939012,1100.7764675556848,1114.6602655289248,1097.3638069036804,1091.0595549340587,655.0760551221006,-107.86745877807272,381.0932587876192,-441.17107069159994,154.15887487365865
44.1225,-1.092257358172722,0.761987552406993,0.871812703146225,0.0206086764502145,-0.0288931710666836,0.0213512850403515,-0.0003286294115535,-0.0015558401003771,0.1457265165386021,0.9893231592382828,0.0867723905424688,0.0191338113045256,9.381256359578494,-0.02163957947398,0.0189905452341667,-0.0442628954596994,8.449316032748035,0.6107932049562433,5.041297527325561,1102.1558369351535,1114.4637883733833,1098.3223861860452,1089.898408587488,515.3219639747568,-62.09844101628284,390.1743796199121,-509.27422306150544,154.15757353759886
44.125,-1.3975122043380444,0.9462346749963508,0.8098001547890304,0.0176373513496652,-0.0276242365169001,0.0232938613861147,-0.0003356976788286,-0.0015702824791584,0.1457682303898413,0.9893169826253926,0.0930813122543419,0.0208714770965216,9.385789818858756,-0.0215542699560579,0.0192265342312173,-0.0452285288120137,8.449249265421807,0.610821733390259,5.041187446071467,1103.35307737556,1114.3497733238432,1099.3146788017807,1088.51318381875,451.64341515696975,-27.89136802005295,379.91158612483554,-562.2377019308825,154.1561542914069
44.1275,-1.6704105157002596,1.138243336539173,0.7150687541413135,0.0138814694358023,-0.0257812421790112,0.0252658724144831,-0.0003351625832199,-0.0015830714396233,0.1457954603136674,0.9893129361229877,0.0988605256596286,0.0224124793017553,9.389814906942755,-0.021449001811226,0.0194690560681612,-0.0461855616852762,8.44918470794744,0.610854022170299,5.041078617677198,1104.4140540109363,1114.3243315332832,1100.2219441166678,1087.087220077836,391.7845312297046,21.65754525620997,322.2168671826409,-532.1422743387308,154.1546410491085
44.13,-1.8788925447562157,1.3332422856155732,0.5829605751643009,0.0093535285667586,-0.0230987918688763,0.0271300752830168,-0.0003285900589864,-0.0015959651910912,0.145816381147225,0.9893098096766444,0.1040810343302808,0.0236977536321537,9.393307281827573,-0.0213287519982906,0.0197143572664186,-0.0471391843053088,8.449121738756261,0.6108891126597737,5.040969012466396,1105.3120000317094,1114.4580610501243,1100.9257631376947,1085.852472447055,354.6024256882907,111.42307800804458,254.45058655214493,-437.5134335965448,154.15301997535775
44.1325,-2.0255474721058793,1.553666739739682,0.3885521928665827,0.0032908161733961,-0.0190147214728701,0.0288974221333344,-0.0003230554765641,-0.0016070218593847,0.1458405788289914,0.989306194467782,0.108644096899059,0.0245877454580189,9.39625825768856,-0.0211977319957374,0.0199595277365121,-0.0480936170765731,8.44905945729846,0.6109253737612649,5.040856942111112,1106.1870661393787,1114.8814469233237,1101.4941970494292,1084.899652909852,284.80912333151065,207.94945660273507,170.9666795321218,-228.4547272466884,154.1509583441077
44.135,-2.044580136204713,1.7110487592030503,0.2064407289390909,-0.0021961262930243,-0.0149092821022818,0.0298167112632771,-0.0003281305673935,-0.0016132314476702,0.1458750438576499,0.9893010719595589,0.1124378423680411,0.024911287720978,9.39867327955715,-0.0210595950629645,0.0202022618470712,-0.0490519391989435,8.448997086738531,0.6109612538030043,5.040741201711145,1106.7360456483657,1115.497808333137,1101.7805965353548,1084.7101988108227,180.98696900087648,303.921092357522,98.2144560266031,64.28308977412038,154.1491501693847
44.1375,-1.9445350299710744,1.8246010943777888,0.0192867624808195,-0.007867500699563,-0.010222355630435,0.0301316672324003,-0.0003467288454441,-0.0016138156253476,0.1459182404802389,0.9892946789383388,0.1154225424172625,0.0246269366854551,9.40056887358709,-0.0209181102404294,0.0204397425521627,-0.0500163277291743,8.448934392455781,0.6109966216508828,5.040621476729079,1107.0920009843835,1116.401052385112,1101.9852693295625,1085.2210683587227,111.81519394193592,454.1274061577447,99.6932795364445,370.9419771062052,154.14725696852116
44.14,-1.68891863517762,1.8978722211092247,-0.1900886654678895,-0.0141548214671375,-0.0045840278260925,0.0298314207589902,-0.0003660838133726,-0.0016129437888164,0.1459615473505409,0.9892882806013772,0.117705390832864,0.0239826887217934,9.401969318446602,-0.0207776448621742,0.0206676700698545,-0.0509884685732814,8.448871521704474,0.6110331148966589,5.04049802355591,1107.2951216180757,1117.7684453639267,1102.2790629330373,1086.5649086963547,35.497677173075765,533.9730738992639,128.83734560316847,586.8887328359841,154.14489700999323
44.1425,-1.3770791086413567,1.9022349127036795,-0.336372790918676,-0.018369688566619,-0.0001500715916997,0.0290255242871329,-0.0003804410470904,-0.0016110219200138,0.1459982836839334,0.9892828591685224,0.1193163698765334,0.0231158021071268,9.402908585902791,-0.0206416951640731,0.0208826840547231,-0.0519694149138908,8.448808927838396,0.611071739174144,5.040371958479292,1107.2694893702487,1119.070917754606,1102.6294560575775,1088.1555120229002,-57.118899923641834,531.648279992306,161.9943839038195,692.6097686990582,154.14286454193783
44.145,-0.9911331454101792,1.8437045440086763,-0.4368758924222243,-0.0213428112108958,0.0042469245541108,0.027684431237688,-0.0003904755585266,-0.0016078886123662,0.1460248071045112,0.9892789517911864,0.1202680337611261,0.0220529013642488,9.403428251737981,-0.0205131063950793,0.0210825909441559,-0.0529595485948977,8.448747105851222,0.6111127643856175,5.040243778719048,1107.0095271184573,1120.4266867638898,1103.0890348525568,1090.0279575398515,-150.7723278177902,533.012966746128,190.65445291238825,765.091717115292,154.1407730073289
44.1475,-0.5694834091958297,1.728646366662998,-0.4906596165511167,-0.0233668379357707,0.0088408450539376,0.0260338084952925,-0.0003957721177087,-0.0016079426211028,0.14604236882501,0.9892763687765536,0.1206702090171814,0.0208336617714669,9.403574269669392,-0.0203945170079724,0.0212659864272223,-0.0539586126971786,8.44868641263244,0.6111555079846704,5.040112377832858,1106.5156277311592,1121.735982588338,1103.58272832214,1091.9809706084786,-263.49133659188146,494.5433664002344,184.58602240214947,768.4311425440395,154.13863957489977
44.15,-0.1380847106488223,1.5418543325986531,-0.4846964371374335,-0.0242150662677965,0.0134489948615901,0.0243882806753619,-0.0004003058508715,-0.0016112866266642,0.1460573951514512,0.9892741609052744,0.120548476492623,0.0194311305919339,9.403396974381769,-0.0202871696084999,0.0214328798915578,-0.0549659776520374,8.448626160658307,0.6111983457771007,5.0399767949190055,1105.692070435499,1122.8994035958888,1104.0119649645667,1093.8701132525684,-442.97411675056605,463.8741862117868,147.55384370670708,783.0812625875836,154.13646439330083
44.1525,0.3465299438995654,1.2405030261448473,-0.4139690753000826,-0.0237221690079962,0.0181826728704151,0.0227612618417909,-0.000404597366425,-0.001613438680305,0.1460719872279364,0.9892720250068032,0.1198574764730333,0.0178973843627985,9.402948749847155,-0.0201912679077468,0.0215835006591869,-0.0559810998382221,8.448565612430011,0.6112406097179262,5.039837471241146,1104.3007571474054,1124.055353519398,1104.320497540674,1095.8963769214183,-570.2152304900476,379.3874604179897,66.05648527548769,685.5737855522551,154.133817503542
44.155,0.691284773372034,0.9385088666204152,-0.3112797086861771,-0.0220761325034202,0.0211302076988271,0.0216370166352425,-0.0004147559882061,-0.0016055178230636,0.1460886244890607,0.9892696034281944,0.1184584642715719,0.0161923614428554,9.402283834772993,-0.0201056467278875,0.0217193863447382,-0.057003381313593,8.44850404043891,0.6112817575866442,5.039695385223294,1102.8409942830472,1124.7963408979797,1104.3422473909443,1097.2979821803315,-622.9582323835739,248.70808165151055,-42.33755265744761,490.4920717976352,154.13158970920907
44.1575,0.9422248361127052,0.6073884020474337,-0.1783999746453075,-0.0191843775792903,0.0229344672412823,0.0208072629389596,-0.0004284276504103,-0.0015871279880847,0.1461086961728778,0.989266686846245,0.1163959395866574,0.0144081763304192,9.401454313152728,-0.0200296701865559,0.0218418324119523,-0.0580322134443264,8.448441043081651,0.6113219358057286,5.0395502676296955,1101.1859659854904,1125.2988939276545,1104.108809777387,1098.3488372804045,-730.5113515786516,164.35202677585727,-146.42236877122525,381.2959825342982,154.12934879049166
44.16,1.1116492106572915,0.2068559914322136,-0.0069571335559533,-0.0146835640387747,0.0237334861749655,0.0203690727782572,-0.0004394951774868,-0.0015643805729855,0.1461349215929441,0.9892628636018262,0.1138468759890794,0.0126851920009758,9.400510282597608,-0.0199631595459286,0.02195227988891,-0.0590669832081364,8.448377167731854,0.6113609526534894,5.039401390214897,1099.1884375251523,1125.6181010318592,1103.6101355470876,1099.204462093004,-697.7749521188412,66.97078338135027,-198.8486136211469,251.490023201412,154.12665510991943
44.1625,1.1416920628776748,-0.1096857125385853,0.1263776875762142,-0.0107952479254469,0.0235098798220512,0.0205553995863278,-0.0004399893298608,-0.0015425379282865,0.1461633424232263,0.9892587139273888,0.1109767614101931,0.0111959075841757,9.399500359661284,-0.019906144837397,0.0220519093196662,-0.0601074602295395,8.448313345731211,0.6113993583622966,5.039249392047616,1097.6970912248944,1125.6337478445614,1103.1145667092808,1099.606287396412,-518.5503121410134,-50.20801362670701,-186.01024581538329,103.8531169037959,154.12441380006655
44.165,1.0756028837626799,-0.390482185377473,0.2258668590812592,-0.0074601940618733,0.0227346668623691,0.0213537177087374,-0.0004304137123365,-0.0015209869964116,0.1461889212349863,0.9892549844656467,0.1078176860098063,0.0099651024541541,9.39847264132795,-0.0198579510444512,0.0221428619614917,-0.0611537461793191,8.44824982263054,0.6114377061457118,5.039095166964663,1096.5956859644496,1125.367060963726,1102.6800843180115,1099.7237276775224,-351.15922939194434,-155.71309917255567,-144.3215059335842,4.003859680731464,154.12218410946377
44.1675,0.9563097884618204,-0.6317170489247343,0.2818460874552409,-0.0047522912919972,0.0215693641407767,0.0226230267819415,-0.0004222502929382,-0.001492769317525,0.1462109484216853,0.9892517837865276,0.1042528351359314,0.0088235069653598,9.397474192336388,-0.0198168041129944,0.0222287323186646,-0.062206188881787,8.448186545371497,0.6114758625457936,5.038940333873906,1095.9412950779335,1124.8551823486982,1102.3929591796125,1099.6263066948159,-138.59267843124329,-261.66121013361845,-65.15523060958307,-88.1869962683144,154.1199696574747
44.17,0.8120243099002916,-0.8140589694923505,0.2746563377358843,-0.0030886578655502,0.0199517484201229,0.0242398190902317,-0.0004225803499511,-0.0014567457391774,0.1462337618616015,0.989248468536756,0.1002847646538745,0.0076601038584022,9.39654790923176,-0.0197815172550644,0.0223129245739673,-0.0632652345330341,8.44812282558185,0.6115134989233814,5.0387846662266895,1095.9027225722928,1124.058754913057,1102.3543081649636,1099.2827926961806,121.3255033816234,-403.97823321732534,42.48597900390676,-203.99073453145684,154.117779859726
44.1725,0.657675235807466,-0.9484085647062008,0.1954665398292345,-0.002257238663682,0.0174201078604069,0.0260762932881304,-0.0004298370239549,-0.0014188299413998,0.1462627085110493,0.9892442391579006,0.0960695441154566,0.006497974091062,9.395731756712552,-0.0197520185778434,0.0223978508129836,-0.0643312803837874,8.44805874495237,0.6115502228972861,5.0386269366664065,1096.547922594841,1122.8352911826134,1102.6053890746318,1098.6063530221595,331.36988279035324,-477.7365262781416,131.90566181094783,-284.9379577163652,154.1151880925986
44.175,0.5686311426127806,-0.9768360415482717,0.0860794083464426,-0.0021439490379052,0.0148013819144227,0.0271482977439302,-0.0004394802968877,-0.0013827904110584,0.146296735655957,0.9892392497440968,0.0917296916660906,0.0054146182458393,9.395059464785929,-0.0197285622828528,0.0224850005983728,-0.0654046966974436,8.447994792050157,0.6115865310506027,5.038466839856666,1097.5595719862456,1121.6700722816652,1103.0138364740187,1097.858102907598,462.23295495709857,-473.7447945893414,183.9418328736852,-321.75898682673414,154.1130633359748
44.1775,0.5284995167162245,-0.9052548434223924,-0.0358073234849068,-0.0018493235023311,0.0119248516985566,0.0272724828832235,-0.0004482522236705,-0.0013489251706736,0.1463294892481155,0.9892344436836478,0.0873183954640317,0.0044667402717692,9.394560082175811,-0.0197114581863192,0.022575376938335,-0.066485628024743,8.447931287270185,0.6116235533704141,5.03830511797751,1098.859087369628,1120.4665672096655,1103.5250982390007,1096.997558088025,579.9319663916593,-514.2254940691275,220.18726306338996,-379.1510681546507,154.11098072514875
44.18,0.5207782346708244,-0.6982166656243717,-0.1504894340889232,-0.0004890259522028,0.0085384403903542,0.026085129697571,-0.0004611546481091,-0.0013122496672607,0.146357611531319,0.9892303193195396,0.0827678555741288,0.003565913467971,9.394257496795523,-0.0197002430404048,0.0226707061909,-0.0675736772966015,8.447868185046445,0.611661545366855,5.038142846171527,1100.4592318182013,1119.098944811322,1104.1147727893347,1095.9623475668263,551.0005706072216,-477.04885445248414,193.18803243176552,-360.6647359842652,154.10853688073632
44.1825,0.5283196103820602,-0.431322629948077,-0.1911039276493473,0.0013265204054668,0.006029991181981,0.0241440431438253,-0.0004782075031362,-0.0012738114736928,0.1463854197611374,0.9892262312928042,0.0781368248679531,0.0026946123827363,9.394167849537988,-0.0196951185830204,0.02277218624989,-0.0686676774043233,8.447804847978425,0.6117000067878572,5.037978716137288,1101.6140902226616,1118.0813229374053,1104.4910384011587,1095.194234408105,382.59137321241246,-378.1293477582378,110.43582604692152,-269.3229584155674,154.10655115209315
44.185,0.5308132999707111,-0.0912788079103242,-0.1601319934764832,0.0033303248424919,0.004468708964005,0.0219504286373648,-0.0004993386534698,-0.0012365029903511,0.1464206306837038,0.989221032201182,0.0735194113762559,0.0018282639573338,9.394299406058874,-0.01969650283184,0.0228809119573277,-0.0697654972544478,8.447740964841989,0.6117376536868658,5.037810723552302,1102.3721886842643,1117.20829807253,1104.6669519195696,1094.615732774748,216.9312220684587,-329.65454244105285,31.5631718934876,-193.11480556070035,154.10462375500603
44.1875,0.5226391795812037,0.2775906470300234,-0.0798203202242519,0.0053693446122276,0.0041241218957725,0.0205496447236859,-0.0005198373470979,-0.0011995791574802,0.1464650718700437,0.9892144561093356,0.068955394212909,0.0010361401674182,9.394651654379828,-0.0197048600008692,0.0229967113117086,-0.0708644815602614,8.44767663181743,0.6117741792602595,5.037638385114886,1102.6987463330045,1116.4330502251992,1104.648854260626,1094.228660380301,19.795866455406028,-295.87177718921873,-52.72043261393512,-110.28130724572318,154.1027488731197
44.19,0.5054970542440976,0.6314716687010484,0.0262310319373786,0.0071895832297726,0.0056492836876599,0.0209831202128776,-0.0005358320075771,-0.0011614338998971,0.1465122458958997,0.989207473549422,0.0644669950404212,0.0003728849073343,9.395215128079853,-0.0197211658931806,0.0231186913737681,-0.0719612923039872,8.447612405020301,0.6118103939593926,5.037462135978076,1102.4711680165412,1115.7289391865852,1104.4033497565,1094.06432623852,-211.82517999362136,-302.53738225135726,-149.47752908271096,-33.064889008693534,154.10094229584195
44.1925,0.4928298332544663,0.974631069271858,0.1355565238941832,0.0084765071070219,0.009511715138989,0.0228263084482023,-0.0005462641403794,-0.0011222584470667,0.1465544893859981,0.9892012281710768,0.0601036946092197,-0.0001644610982732,9.395971472710247,-0.0197469610995088,0.0232457427406405,-0.0730519209791626,8.447548555620289,0.6118471285014677,5.037281733134592,1101.6396204330358,1114.9203633139416,1103.9014666152123,1094.0633359352576,-369.8063945938357,-290.3994043303434,-204.83905034733175,19.29303539499337,154.09885976141243
44.195,0.5055468902150579,1.1579605142508411,0.1901533567468378,0.0088394378728476,0.0137094822954866,0.0242959211713009,-0.0005456246441919,-0.0010896028459492,0.1465870071243312,0.9891964323709032,0.0560659976064858,-0.0005155261363433,9.396893616134616,-0.019785107266501,0.0233757522338613,-0.0741319620541893,8.447485236163853,0.6118854883585009,5.037094785245448,1100.6221360435711,1114.2769421649327,1103.3791545047627,1094.1607914154947,-428.61574059204816,-239.69536757644133,-210.43541378468075,42.76227910435661,154.0971999676562
44.1975,0.5541498625732801,1.2184445298291369,0.2019203658710606,0.0089723446618756,0.0178537792743524,0.0249489038820996,-0.0005297845104955,-0.0010703515832079,0.1466123778503363,0.9891927049700012,0.0525403985547542,-0.0006415911927526,9.397947280140848,-0.0198382090926026,0.0235065239388577,-0.0751971750391879,8.447422517875566,0.6119256462574423,5.03689965114037,1099.4965417300775,1113.7218864760605,1102.8492895462898,1094.2771473307791,-465.86953922441165,-197.61006670336323,-211.60337776307728,38.04552502481656,154.09562330586192
44.2,0.6466136346632969,1.1614199501144087,0.1742647258598611,0.0095204440251122,0.0221738339064439,0.024926185687367,-0.0004897018325648,-0.0010671664625976,0.1466309875478304,0.989189993934142,0.0496493520724539,-0.0003980913821199,9.399092014165877,-0.019908479844532,0.0236345581390542,-0.0762445771132091,8.447360426159229,0.6119679851496773,5.0366981910690045,1098.2927883474479,1113.2888918314154,1102.321137615947,1094.3510190406191,-386.6038933717232,-97.0404738650772,-161.69308154158813,5.77470066932324,154.09383120899005
44.2025,0.7315510131733247,1.029295293392171,0.1198488919110501,0.0108165818758683,0.0250326666129554,0.0247915837597722,-0.0004309648033437,-0.0010728245306161,0.1466444419763772,0.9891880632381784,0.0472915192344815,0.0001181871090086,9.400284083120658,-0.0199960332858608,0.0237582041690977,-0.0772725603119473,8.44729893208663,0.612011988320023,5.036493909480267,1097.563522263218,1113.2366841067349,1102.0408241385815,1094.306020834126,-218.28886344807717,66.48284554322935,-68.53249105767512,-48.79119260467522,154.0924227303119
44.205,0.788899194166296,0.8450919781753865,0.0285725420279311,0.0131320829829907,0.0269309395280365,0.0250565256920293,-0.0003662244685821,-0.0010775164907595,0.1466530688896977,0.989186863364452,0.0452968939886405,0.0006896472812705,9.401478531187246,-0.0200999894476051,0.0238768877009561,-0.0782811544734849,8.447237575299804,0.6120570054702973,5.036289326618204,1097.2013440302085,1113.6213060591313,1101.9784751606587,1094.107063077596,-87.30130556064148,235.5307127772608,13.239148315908597,-108.72927161261836,154.09110315761632
44.2075,0.7969167928412385,0.6439858048301061,-0.0995140854937559,0.015889230622581,0.0281447694626487,0.0255952070788051,-0.0002972377803433,-0.0010788077882323,0.14665280892011,0.9891869869744808,0.0436599225430548,0.0012839899644251,9.402631145308703,-0.020220422618235,0.0239886073555724,-0.0792721821199924,8.447176274204127,0.61210366477847,5.0360852446963165,1097.1270157354145,1114.4143376706215,1102.107019880161,1093.7623744760626,21.21502160852112,413.36798098974896,93.40267173865638,-173.9754438952806,154.08985692546375
44.21,0.7236096945014537,0.4472026282943016,-0.2742829297069725,0.0185860352271914,0.028930516046875,0.0259651832838211,-0.0002240233278836,-0.0010771432055957,0.1466440790077397,0.9891883638734428,0.0424297579401009,0.0018963338721,9.403701407917076,-0.0203569694873316,0.0240916917585242,-0.0802487195724429,8.44711530686379,0.6121520744380545,5.03588146270594,1097.3074191382511,1115.688145964081,1102.4454885193525,1093.2371858581191,107.02975199784034,651.4807797935205,187.39160615999697,-269.66587494054664,154.08869752760722
44.2125,0.5306572895727386,0.23713207487057,-0.5264684404481319,0.0214001417765058,0.0295597370710182,0.0255840613451003,-0.0001523059244008,-0.0010709327388305,0.1466292653436363,0.989190636755509,0.0415963474831002,0.0024234830397495,9.404654861731967,-0.0205078640007033,0.0241859488393226,-0.0812145827973528,8.447054428206782,0.6122015856125538,5.035677701952078,1097.6621644954032,1117.6717415695864,1103.04397791096,1092.4140451013611,133.00158216272865,778.0022528236825,244.0217717050134,-328.4397321536428,154.08740312715219
44.215,0.2865350040936425,0.0935253082408722,-0.7531658533779728,0.0232844667449029,0.0297789221078417,0.0244237182474864,-9.211367264874381e-05,-0.0010558925416398,0.1466108350783582,0.9891934425536058,0.041080043568238,0.0026907891209323,9.4054645715966,-0.0206697968694037,0.0242725452656868,-0.0821740089277246,8.446992815095337,0.612251105690563,5.035474044349811,1097.9724270490651,1119.5781572282015,1103.665597377878,1091.59498719735,113.62347192324349,776.8821288664758,268.3793409645196,-344.6362046050182,154.08640168958692
44.2175,-0.0247449444311213,-0.0099065518452035,-0.9662975572325923,0.0244039647755111,0.0296718052191237,0.0223446328239427,-5.186964134219585e-05,-0.0010279758241849,0.1465898484978623,0.9891966284976424,0.0408005697776977,0.0025528876750349,9.40611185762162,-0.0208385611290291,0.0243531363891459,-0.0831313745357926,8.446929331600316,0.6122996746238262,5.0352707157151055,1098.2302818550197,1121.5561522139208,1104.3858746157835,1090.6908640783352,100.76919751204584,839.1793401443366,336.99235653056076,-400.0793087268449,154.08547555400415
44.22,-0.4353537425839242,-0.0829783208821542,-1.1670374022991408,0.0242196266668128,0.0292060345026184,0.0187473731962614,-3.086859747305902e-05,-0.0009888846661035,0.1465680242577337,0.9891999363174966,0.0407989854705528,0.0020176514896209,9.406586406989613,-0.0210102075435448,0.0244287810453425,-0.0840908505471924,8.44686323881862,0.6123469400537918,5.03506686299667,1098.476273036625,1123.774053928919,1105.3505591605294,1089.5945906537177,85.89285120342691,755.8329242381886,368.5666429169421,-388.31172274161105,154.0844451142412
44.2225,-0.7700663932867852,-0.1012374436040224,-1.2628691142546031,0.0224078271341992,0.0286111658064854,0.0149110964721156,-2.544761707833577e-05,-0.000940402834081,0.1465484780379909,0.9892029022149448,0.0411140959424091,0.0011461950387193,9.406886127405489,-0.021180262407071,0.0245006942904955,-0.0850560658127593,8.446795089970975,0.6123925523135711,5.034861856522017,1098.659746111037,1125.3353168351136,1106.228707830369,1088.749305464626,77.40940046133478,538.5844687597883,361.1558779692558,-303.7754367140034,154.08364908111136
44.225,-1.0514874080677057,-0.0805285412394459,-1.26569480908327,0.0190156598842139,0.0279995819259875,0.0105360152024051,-3.096113533288286e-05,-0.0008867586352303,0.1465354902353102,0.989204888876044,0.0418202204500565,8.905380836511656e-06,9.407016574651635,-0.021344429192579,0.0245704572721729,-0.0860296662126547,8.446725222474926,0.6124361296449397,5.034654554530151,1098.8633200389315,1126.4669762727196,1107.1563385503766,1088.0757134701469,87.72492064043738,374.84996713581035,371.74458040505834,-226.6875093286914,154.08291205945602
44.2275,-1.2642278844771255,-0.0362711268320693,-1.1914905919309235,0.0148682454089592,0.0276490547372056,0.0063550636719905,-4.2060972574793115e-05,-0.0008300454825006,0.1465304232371807,0.9892056935379432,0.0429407048065309,-0.0013077606724331,9.406989529625518,-0.021498321291273,0.0246395549998729,-0.0870134139987525,8.446653827278718,0.6124777847954775,5.034444640450422,1099.0983707142389,1127.2095666707908,1108.0874307323927,1087.6158679179837,98.58007104116454,214.46258250082732,361.2965744486216,-119.2970066121078,154.08221921183238
44.23,-1.3841003905437803,0.0213744024042365,-1.044014657488589,0.0107168247613838,0.0278680995991176,0.0031872925580827,-5.8590486381785914e-05,-0.0007705557686655,0.1465306621502366,0.9892057024122552,0.0444381964588848,-0.0028119357980335,9.406821847349992,-0.0216376688840402,0.0247101077255318,-0.0880079109444354,8.446581117755782,0.6125177872691565,5.034232222567134,1099.3562203941378,1127.5392891852243,1108.9628214226207,1087.479228437086,106.49252831634848,85.82674108624971,357.0836478504581,22.14384109787492,154.08157356534295
44.2325,-1.4302725980570135,0.0875047406896092,-0.8237369260439693,0.0064833454118593,0.0285372947829784,0.0007973995778133,-8.039364655506722e-05,-0.000711908409237,0.1465345001034258,0.9892051640005066,0.0463256035858408,-0.0045232184262798,9.406533715852254,-0.0217593204285235,0.0247841184751539,-0.0890125923576082,8.44650733175285,0.6125564099968,5.034015879522362,1099.6308333558209,1127.6387003762225,1109.872848971646,1087.726587123473,81.11376453810509,22.79886871030867,301.9546998534242,156.09448756713945,154.08084513428395
44.235,-1.4021615495736848,0.1313309142743845,-0.6360139953010066,0.0033273233099793,0.0291676342569099,-0.0002127251889564,-0.0001069882335696,-0.0006559275796074,0.1465419668529857,0.9892040718872211,0.0485730633930286,-0.0064517169598883,9.406146826052822,-0.0218605128458201,0.0248631198816678,-0.0900261226262258,8.44643332637187,0.6125938702387485,5.033794799040494,1099.761789216828,1127.6532835287755,1110.4725949218864,1088.259700874921,13.026646385099111,33.31199482016133,202.2445991575171,266.72866972539845,154.08027047221273
44.2375,-1.321487027907437,0.159885878925659,-0.4733032907876704,0.0002579268826201,0.0297411308342592,-0.0005797729518858,-0.0001369307745749,-0.0006043182378945,0.1465526123601586,0.9892024923054432,0.0511424674421299,-0.0085899136935794,9.405683006300723,-0.0219393858632545,0.0249478173220616,-0.0910466164042857,8.4463594047271,0.612630750350088,5.0335683053395694,1099.6959665877464,1127.8052603503231,1110.884071967434,1089.0602304721008,-92.357097318607,129.6514474364604,139.36396378842036,386.8633333075944,154.07972180569942
44.24,-1.1784568921866303,0.1787762531071961,-0.3227277410134492,-0.0031733262822873,0.0303587290821709,-0.000698054332587,-0.0001688643792844,-0.000554060930373,0.1465640999202181,0.9892007753267432,0.053900852987044,-0.0109182068608729,9.405163066956163,-0.0219941994206042,0.0250379354182377,-0.0920722018400544,8.446285818680241,0.6126678338263313,5.033337582168987,1099.3000037302347,1128.3015407659584,1111.1694147408289,1090.19401754146,-202.27641372680617,237.5137983761192,75.89887218403047,421.57149734782394,154.0790847273177
44.2425,-1.0289091909065715,0.1857245369175437,-0.2331331185665307,-0.0057257499481935,0.0308380824676214,-0.0007707646932844,-0.0002022787612905,-0.0005017406391579,0.1465726783023069,0.9891994819555204,0.056701154812238,-0.0134295016723339,9.404606224641102,-0.0220239862703223,0.0251324261840028,-0.0931011011634988,8.44621254298957,0.6127059829267161,5.033103889370274,1098.6845845191133,1128.9928293422029,1111.2635663283538,1091.168087958838,-295.65125620410583,312.458327716024,19.480266691625257,370.3326048327384,154.0785653189309
44.245,-0.8554312222688789,0.1895864617413826,-0.1668664330004787,-0.0079831456647079,0.0312643355362683,-0.0010093734269725,-0.0002340637574547,-0.0004493016841703,0.1465750538116033,0.9891991022258823,0.0595011933360975,-0.0160794636809008,9.40402955833092,-0.0220295228911405,0.0252291297828183,-0.094131663785879,8.446139345991261,0.61274618783923,5.0328672188714245,1097.8217474492155,1129.863832404537,1111.266816074287,1092.045680565622,-368.5138727993423,346.3201610045009,-2.801268153869773,321.6527866663628,154.07805046056055
44.2475,-0.6670454141252362,0.1955701721699139,-0.1039594021719042,-0.0098534857184979,0.0315551187102217,-0.0014470189243029,-0.0002610436392187,-0.0003954682034515,0.1465702005301882,0.9891997935412734,0.0621994015718894,-0.0188087332838511,9.403447813605812,-0.0220114923847686,0.025325259872289,-0.0951627633521436,8.446066436699049,0.6127888693967319,5.0326284253106985,1096.8420151551156,1130.7244301472263,1111.2495599875845,1092.7763518921706,-391.7592444883026,294.0022229164557,2.5700436292013857,250.98088189993976,154.0775339526987
44.25,-0.4668713355756868,0.2081843498116704,-0.0248538321573087,-0.0110603468108229,0.0316361912675903,-0.002067369857515,-0.000283080800898,-0.0003402618862779,0.1465607652485239,0.9892011698718888,0.0647125410425767,-0.0216121059446646,9.402873615949316,-0.0219710179714327,0.0254184549016258,-0.0961934258257486,8.4459936597146,0.6128334949537141,5.032387720820314,1095.862951226773,1131.33384351912,1111.2796662924327,1093.3005849751223,-394.6451304528588,152.73476799852935,40.42779910791108,188.71087828100707,154.07700900257035
44.2525,-0.2196801455859302,0.2303225414963362,0.1086910497454437,-0.0116065059803628,0.0318695803544727,-0.0027263249698915,-0.0003094012221224,-0.0002817004512363,0.1465533801783081,0.9892022526655352,0.0668988637224261,-0.0246463742292147,9.40231776367136,-0.0219087201114871,0.0255082062833239,-0.0972226375929088,8.445920874363763,0.6128783953778338,5.032145285058525,1094.8687895028531,1131.4881039872182,1111.4516989831238,1093.7199062835748,-313.6635312716622,-68.36823178538138,91.45720078245043,130.2451613908731,154.07636110526397
44.255,-0.0090939642528345,0.2488591580581992,0.2586347164133271,-0.0115964746422705,0.0324437850918477,-0.002986542157211,-0.000345456929917,-0.0002204525239123,0.1465513366584203,0.9892025576756692,0.0686826334622261,-0.0279982068415762,9.40178917257344,-0.0218262948860617,0.0255933240567957,-0.0982495682807287,8.445847946668115,0.6129224691454552,5.031900927762548,1094.294633570414,1130.992002360193,1111.7369522963454,1093.951810782077,-161.84290668425908,-337.4803108728521,137.33468794682517,86.377581727494,154.07580039264823
44.2575,0.2106135549898061,0.2578684962785904,0.445077290541709,-0.0115009456162177,0.0334687051704471,-0.0028887923700294,-0.0003820467909465,-0.0001655898424719,0.1465528391284122,0.9892023452243828,0.0701929164933033,-0.031497327050499,9.401295202901457,-0.0217281208987801,0.0256698164598881,-0.0992736745798747,8.445774751280727,0.6129665439967165,5.031653214968909,1094.0595749694314,1129.800702432853,1112.1383724228583,1094.1517941922125,-33.70923216469574,-577.2270535863092,164.09821226417452,88.49133116658638,154.0752116621364
44.26,0.4423532380997163,0.2541509335806091,0.649916240114716,-0.0112184275442436,0.0346531823792901,-0.0022912665508115,-0.0004054090591914,-0.0001212329415152,0.1465557215183317,0.9892019343713224,0.0714890997181769,-0.0348676183233244,9.40084285602493,-0.0216182393100208,0.0257325163428662,-0.1002949545819488,8.445701753356595,0.6130116550407723,5.031402073430831,1094.1260874095904,1128.105867092264,1112.5574433576655,1094.3942674379095,97.53978034622845,-758.2553495793704,143.73590339543549,120.79344539368508,154.0745955685954
44.2625,0.6891487997992091,0.2366553289199659,0.8514862643564428,-0.0104004227431785,0.0354528113417592,-0.0007292185761894,-0.0004050058558769,-8.837038786971402e-05,0.1465573495864823,0.9892017155191832,0.0725746634781203,-0.0378774013717402,9.400439547545492,-0.0215004572582841,0.0257766904456306,-0.101313616582901,8.445629345671263,0.6130586923926297,5.031147643623981,1094.5472738711628,1126.0094256849543,1112.8570519398359,1094.7557614191812,258.4956329367784,-944.6979597437971,68.97973540331914,196.79824676803884,154.07394237938615
44.265,0.9930017579298271,0.2091043750661797,1.047935793986218,-0.0086057611467159,0.0357942368682149,0.0023703202070207,-0.0003809910148804,-6.505352696730546e-05,0.1465578281044282,0.9892016671625956,0.0733812900136163,-0.0404797458722025,9.400093565439027,-0.0213778818586,0.0257998929762789,-0.1023298469250545,8.445557571149838,0.6131074846482047,5.030890194661594,1095.4185655742751,1123.3823772935427,1112.9023420346823,1095.3782586717502,369.2937377777701,-928.9806352312362,-50.65236631148824,261.0033457213931,154.07311151473368
44.2675,1.237793146584508,0.187105882961757,1.1436816620110892,-0.0061153203618183,0.0360686265694713,0.0059329391489665,-0.0003338825548592,-4.881982510583737e-05,0.1465556830033142,0.9892020054962885,0.073843132757937,-0.0426281238275947,9.399814523282153,-0.0212537849122894,0.0258000625115893,-0.1033442306352132,8.445486335859808,0.6131579899193464,5.030630314112416,1096.39374256005,1121.3645225088023,1112.6037901082786,1096.060778147787,421.8615308517771,-720.1608456469737,-185.31930652447568,301.49867011016835,154.07237772662447
44.27,1.4504008318466728,0.1697879603244447,1.143638053389684,-0.0023982983228124,0.0365366554779719,0.0101436281136149,-0.0002686180840613,-3.6496110334375646e-05,0.1465511972771546,0.9892026885433268,0.0738823595112571,-0.04435285916651,9.399613806477326,-0.0211311410462209,0.0257767208389772,-0.1043576062120396,8.445415534242022,0.6132098834076289,5.030368300029792,1097.527873228535,1119.781573065306,1111.9757455020595,1096.8857520223019,504.54077952437376,-560.3029930807087,-321.85274913146617,381.7129434134906,154.07159931937153
44.2725,1.6446268587646848,0.1568754270771227,1.029270493732072,0.0030124382164021,0.0368874307008061,0.0148400436457848,-0.0001946441386174,-2.3009542490694835e-05,0.1465471562863892,0.9892033008289156,0.0733867741798315,-0.0457612783572093,9.399504932122818,-0.0210122290435895,0.0257312193390678,-0.1053710806004683,8.445345404889766,0.6132621252821864,5.0301047696685135,1098.9164464576731,1118.5630075433971,1110.9945263626205,1097.9693428648554,487.91900983686713,-324.15866556618687,-366.60198892697434,398.4598784700651,154.07061298041216
44.275,1.7474757731760675,0.154040954059175,0.8558599534163432,0.0079668574371518,0.037082528325399,0.0177674019088566,-0.0001153258542268,-6.7025645816650405e-06,0.1465433653222458,0.9892038679584108,0.0723376071492008,-0.0468571631770935,9.399503800632097,-0.020900260341,0.0256645889992531,-0.1063861374818225,8.445276365411365,0.6133143516010098,5.029839843017961,1099.9674682777172,1118.1607797374763,1110.1427355574262,1098.8780514146504,369.5125567950455,-40.01248277657168,-314.3613650736126,344.97993292716814,154.0697477777868
44.2775,1.7935924543604065,0.1587367903042571,0.6383123213634441,0.0127252504248323,0.0375639314779665,0.0194852883324825,-3.659751004205692e-05,1.5458348547901885e-05,0.1465400604455386,0.9892043536619421,0.0706958370466001,-0.0476904979992575,9.399628641777031,-0.0207978560722849,0.0255793189649682,-0.1074043292226434,8.445208934166066,0.6133659236782975,5.0295736765982095,1100.764009241649,1118.3629451295144,1109.4227195372516,1099.694242529492,260.91350031197476,165.38344563624102,-251.7536926073793,297.1596164027077,154.06883857516664
44.28,1.8053193562009209,0.1685708100389418,0.4160545389077578,0.0168743190420801,0.0380563568892189,0.0203351862511497,3.914723880947472e-05,4.702791607495414e-05,0.146535066201425,0.9892050832131372,0.0684339524309624,-0.0482480716963116,9.399899800089235,-0.020707411775465,0.0254778892383907,-0.108427313689835,8.445143326216316,0.6134167077465928,5.029306937757961,1101.2720357792775,1118.987696965658,1108.8839670943887,1100.3638494966647,126.9961426553682,321.8362954401271,-172.0127997169784,220.09948393571912,154.0678937046176
44.2825,1.793430625264932,0.1846391981961374,0.2229512434714385,0.0204087354283298,0.0381679698690409,0.0203842306808403,0.000109216845462,8.942020324576281e-05,0.1465275747764759,0.9892061811714632,0.0655733835760963,-0.0485340564860364,9.400338954186775,-0.020631180013961,0.0253636625064073,-0.1094563067404533,8.445078995003962,0.613466623570416,5.029039378112174,1101.3989899549256,1119.9721266067136,1108.5626555386675,1100.7947399491695,-23.059522440541535,467.5227767937822,-111.6772867053325,127.21368498903615,154.066906933867
44.285,1.764823571284572,0.2087386421708605,0.0582908131095356,0.0245671857981283,0.0383965042387862,0.0197989505079311,0.0001636139468436,0.0001459787230136,0.1465210239291297,0.9892071381160084,0.0620877085091416,-0.0486906228336031,9.400968089780129,-0.0205698829930824,0.0252422408639194,-0.110491698901348,8.445015222322537,0.6135146769458288,5.0287706492105055,1101.1567381670748,1121.3253108496283,1108.3255806608615,1100.99991792161,-136.00070661488962,486.4606787154356,-85.92728341932495,24.88030078883276,154.0656759600853
44.2875,1.7271922808371596,0.2268042555023399,-0.0094933202378508,0.028351535045957,0.0390543900485079,0.0189463371191903,0.000201645870305,0.0002146151194787,0.1465174604780168,0.9892076474958794,0.0580836327247889,-0.0487103116449008,9.401808837794452,-0.0205250900039686,0.0251176691370683,-0.1115332068418773,8.4449516395301,0.6135607334296891,5.028499350677257,1100.7189864218508,1122.404430000292,1108.1330191215707,1100.919141453114,-192.11110847931388,380.7328827754016,-104.28220557646844,-75.32973101958788,154.06461238530264
44.29,1.6627696997767412,0.2342254784936746,-0.0037680083419226,0.0325327399589824,0.039763949481578,0.0179484673314742,0.0002286774317378,0.0002893757963573,0.1465186299197956,0.9892074500202964,0.0537609128626064,-0.0484928370787591,9.402881435502989,-0.0204988149645423,0.0249928170607055,-0.1125797068782952,8.444888055087421,0.6136050864365719,5.028223815864802,1100.1961826246793,1123.2289752635036,1107.80416963298,1100.6232692665124,-209.70866650766953,272.96512779316475,-196.72136833436463,-162.6444484500175,154.06351127957612
44.2925,1.5370497238524576,0.2237749112382373,0.0694918281566219,0.0377610910898543,0.0401727277109932,0.0170430642451365,0.0002564322473911,0.0003653176403783,0.1465230026455948,0.989206773429534,0.0493205981036092,-0.0478263638144388,9.404203698825368,-0.0204927064335819,0.024868744379382,-0.1136295855159648,8.444824232740839,0.6136485524008118,5.027943738497204,1099.670443089312,1123.7692556392583,1107.1494122798983,1100.1059192108635,-152.0029247335192,115.8681202515116,-285.40925477108374,-202.61704848611407,154.06214868225754
44.295,1.383845657249971,0.193228020312544,0.1594059360424336,0.0419373580222544,0.0405688930125275,0.0170553928904182,0.0002985383673118,0.0004352692949398,0.1465278142877294,0.9892060273070244,0.0450109081233809,-0.0464792261380788,9.405789823325422,-0.0205086043712145,0.0247457036046641,-0.1146806434348181,8.444759966149906,0.6136922031562171,5.027658797642235,1099.4361680010113,1123.8083158647614,1106.3771233591235,1099.6101840240815,-36.14273974411493,-59.62065790855342,-343.5689695560937,-196.97044124495457,154.06098046553817
44.2975,1.1808439205303751,0.1303991633913965,0.2386402652010037,0.0456269777275729,0.041423481358612,0.0181375769255891,0.0003558273084432,0.0004964053389461,0.1465353365117538,0.9892048704947232,0.0409621767969376,-0.0444547822779347,9.407648840411497,-0.0205463148623424,0.0246265202826945,-0.1157300971391946,8.444695069073683,0.6137357897341212,5.027369201368943,1099.4897293905915,1123.471152349716,1105.4315674321194,1099.1210670046396,68.7428695756001,-177.46786872116917,-390.8463664381817,-187.15190091879296,154.05978043949287
44.3,0.9451679959293298,0.0355498051068941,0.2803067360766141,0.0486901163433066,0.0422109533018332,0.0197971556860185,0.0004272729563197,0.0005485275429587,0.1465472215857156,0.9892030560402092,0.0372472568029378,-0.0417919882259031,9.409784311013533,-0.020604666735294,0.0245140745933449,-0.1167752936121981,8.444629849231132,0.6137790290638058,5.027075973327312,1099.7798823488895,1122.9209765211551,1104.4228915269318,1098.674424519487,159.68580211975694,-237.45690938118645,-398.45568453008656,-163.95127369729178,154.0585557625115
44.3025,0.68910955723453,-0.0964815287576789,0.254537007060926,0.0506360343311207,0.0423909444146857,0.0217784304153266,0.0005110095302238,0.000590593385172,0.146563886567056,0.9892005236120316,0.033947161834315,-0.0385551028556786,9.412194190717164,-0.0206823958111413,0.0244111977322564,-0.1178138160334496,8.444565697690884,0.6138215623681362,5.0267803522032235,1100.2881584011907,1122.2838678028095,1103.439289009468,1098.3013106361527,245.4157725123381,-251.80080523509952,-408.47363870403433,-143.37213111238577,154.05730360027357
44.305,0.3871778525606069,-0.2880281560520654,0.1411035033904511,0.0516108193889216,0.0421865200203944,0.0240450993430703,0.0005966106715528,0.0006252816237562,0.1465885638962149,0.9891967968533734,0.0310430125097669,-0.0349635438652296,9.414870553518073,-0.0207765529242667,0.0243224428355415,-0.118843455288327,8.444502765438571,0.6138626008891143,5.026482547578005,1101.00696121145,1121.6619724949808,1102.3805233334135,1097.9575638639255,256.32408202228027,-171.08186628153916,-363.0954359205253,-104.57692858217759,154.05577232337444
44.3075,0.1577407424521936,-0.4641713349499374,-0.0058104960978576,0.051661491043825,0.0418307714742186,0.0252997688816091,0.0006721532513783,0.0006566864031685,0.1466214995574851,0.9891918459139132,0.0284770729711793,-0.0312656670764829,9.417800229052425,-0.0208834075546354,0.024252153343016,-0.1198623741269074,8.44444019517663,0.6139018492687787,5.026182614715683,1101.5697788113007,1121.4284584714023,1101.623811829867,1097.7784259932423,185.77482844147696,-4.2193523689071535,-280.28225943093486,-42.874886378400234,154.05447476154097
44.31,-0.036984449700766,-0.6376023605281668,-0.1665729111608628,0.0513755828280826,0.0405820492208578,0.0251933355015874,0.0007287371238015,0.0006893614928029,0.1466599254968606,0.9891860871983496,0.0261816817577792,-0.0276557284931871,9.420965363172742,-0.0209987478469595,0.0242031886788012,-0.1208691867774201,8.44437678502169,0.613939853500102,5.025880687170615,1101.935835353658,1121.6408757331362,1100.979112036258,1097.7431894320337,81.05498939622012,212.4324702565723,-267.064588307903,22.442205048025585,154.05315793443143
44.3125,-0.2279012302846631,-0.8133923095639904,-0.3160419883531765,0.0509002305279575,0.0375918495614442,0.0232692682760999,0.0007718744948205,0.0007227376272248,0.1467001444225416,0.9891800642964652,0.0242138039802993,-0.0240751513127055,9.424344212328393,-0.0211195855391996,0.0241742527859673,-0.1218630816192296,8.444311679306363,0.6139778279673832,5.025576773060204,1101.9750537582822,1122.490620822686,1100.2884888883268,1097.8906370184825,-72.60138632043217,406.41806830668105,-243.43526799470368,84.14104138531377,154.05155924170452
44.315,-0.3528443828712399,-0.916535898130508,-0.3675419897445069,0.0504254797703101,0.0343809152132398,0.0204889732208463,0.0008112611417015,0.0007533415600659,0.1467416996431032,0.989173839651254,0.0226850782984744,-0.0203948117383894,9.427911364232877,-0.0212432724404964,0.0241623159893443,-0.1228434200326598,8.44424485642962,0.6140164727504799,5.025270285244074,1101.572828422056,1123.6729660746676,1099.7619356962855,1098.1638946389598,-265.5252901231966,546.8532970717591,-197.47382320760053,131.88174968779623,154.05021448375945
44.3175,-0.4428326551834529,-0.971411153311686,-0.3248359042554054,0.0497799518689408,0.0312043159270667,0.0172499724544872,0.0008498943304415,0.0007808724056575,0.1467874755259774,0.9891669824496429,0.021618454892801,-0.0165995314691496,9.431638021750295,-0.0213658365476805,0.0241651450295088,-0.1238095617208462,8.444175938665994,0.6140555660764156,5.024960444275837,1100.6474273076656,1125.224887308046,1099.3011197722883,1098.5500457669218,-457.7427940720486,652.2924653025558,-165.99151620408213,162.36097225519978,154.04886024592764
44.32,-0.5008589694732826,-0.997056819570513,-0.2178333384435162,0.0488812164070871,0.0282924813153953,0.014615775871875,0.0008907835913131,0.0008082855404222,0.1468361398547267,0.9891596866533988,0.0209653691886472,-0.0126619865681275,9.435492700712125,-0.0214827534795175,0.0241795472993318,-0.1247612217516505,8.444104339396771,0.614095447746116,5.024647775842172,1099.2841144516947,1126.9344284011822,1098.9319781152649,1098.9756995002363,-637.7672224957566,680.4117601371948,-114.56648740492216,163.25103413561305,154.04750065124952
44.3225,-0.5125372061918779,-1.0118190955170867,-0.0833045408888767,0.0475756496238067,0.0258236339243373,0.013962410317759,0.0009310204636169,0.0008411465393176,0.1468827369543454,0.989152686978504,0.0206019131817875,-0.0086542881629085,9.439442217847164,-0.0215891000452205,0.0242030874289756,-0.1256982784386223,8.44403011309762,0.6141365056430789,5.024333458941148,1097.4585911951897,1128.626946108729,1098.7282873352642,1099.3663009375991,-874.8709958167709,693.4546857579879,-40.36920735245739,141.45139781464462,154.04613742715895
44.325,-0.4618258121380038,-1.0537842346258584,0.0250604601445049,0.0456140251577581,0.0235663833708822,0.0155958408569393,0.0009716515802713,0.0008775315683762,0.1469235130447036,0.989146543720025,0.0205460178001697,-0.004590952659257,9.44345314867627,-0.0216824760582981,0.0242325058177408,-0.1266206738781874,8.443953513953776,0.6141791140231175,5.024016990713865,1094.9097594726084,1130.401701829974,1098.7301320785025,1099.6829564893098,-957.2926566837043,585.3662442043249,45.2774217691281,76.1470928243463,154.04450077015605
44.3275,-0.3613593713107589,-1.1320772587526367,0.0173458760317317,0.043943501599572,0.0221609480588349,0.0180046040613131,0.0010191749986397,0.0009115567975295,0.1469556274085853,0.9891416819487532,0.0208976129564803,-0.0003910350433716,9.447492120264313,-0.0217625103726196,0.0242634737663146,-0.1275286001086353,8.44387575935741,0.6142237485500885,5.023697938323756,1092.6721279117687,1131.553777329752,1098.95467444411,1099.747036401721,-866.0443287554391,384.88774877454017,134.48488627926463,-29.103142697003115,154.04313854478983
44.33,-0.204968937233262,-1.267659063046917,-0.1238830224037646,0.0426270751572714,0.020663513805854,0.0203112356829393,0.0010767431796141,0.000940405875695,0.1469755816206181,0.989138628862284,0.021684820933962,0.0039765748234503,9.451526211716395,-0.0218289949759747,0.024292780235155,-0.1284224888437615,8.443797908414755,0.6142707275866816,5.023376469230529,1090.579537828835,1132.326140573845,1099.4025565098982,1099.5374407758247,-824.1026675762319,264.51076058438156,240.02530915310217,-162.70121509602035,154.04178059634359
44.3325,0.0279905261529893,-1.4832901966052747,-0.4333035668137376,0.0415506425634341,0.0179812291863491,0.021888055071117,0.0011436070055696,0.0009634637291892,0.1469807324164709,0.9891377869545368,0.0228805245126964,0.0084795197504216,9.45552383880707,-0.0218819497477487,0.0243189317467101,-0.1293029724346782,8.443720363967815,0.6143196778060855,5.023053203201068,1088.5516145738854,1132.8763311326747,1100.154800989876,1098.9335303262403,-622.1298944352384,156.63515269553673,301.1567474817008,-277.578606081437,154.04015872607965
44.335,0.2362867481057362,-1.6799684601156055,-0.7657214530863526,0.041077983564387,0.0145919742993693,0.0214349484103422,0.0012092651237631,0.0009857473530719,0.1469760054252537,0.989138426461672,0.0243242522076208,0.0129211364143848,9.45945569069394,-0.0219200404636566,0.02434413342483,-0.1301707861691374,8.443642845863325,0.6143684653267235,5.0227291277287645,1087.4688883566575,1133.1093163373228,1100.9083402473075,1098.149547745417,-272.29171927199087,67.8109642569487,310.8878360797561,-358.236698437948,154.03881538745733
44.3375,0.4190812951321772,-1.849896154671292,-1.1008882610658084,0.0417359255483932,0.0098207532595363,0.0185322983712467,0.0012715450779127,0.0010044533855129,0.1469675841571289,0.9891396230865392,0.0260257725772899,0.0172394504591098,9.463295224937466,-0.0219449290821406,0.0243700124849527,-0.1310267227141399,8.443565642908666,0.6144154211286827,5.022403483125164,1087.1901559775267,1133.2153859539592,1101.7092401702735,1097.1423468340524,32.53895311043534,31.86969736328326,313.65560442989005,-423.70498800270224,154.03748258456508
44.34,0.5444025914224316,-1.964779248755245,-1.379472957259173,0.0437384198734112,0.0042403259081424,0.0139003423888058,0.0013339563526615,0.0010177708101133,0.1469598072589722,0.9891407210307118,0.0279944628814415,0.0214809618101567,9.46701812893522,-0.0219590834130095,0.0243976015590916,-0.1318718356451104,8.443489973867683,0.6144597647066117,5.022075675089155,1087.6315831222098,1133.2686648241395,1102.4766182694575,1096.0310228054025,341.4869361408891,11.375989662559368,281.868234243067,-448.4796420880664,154.03615988504714
44.3425,0.562073873171883,-1.9853652060156295,-1.5363023416132071,0.0467476458634915,-0.0016572425143682,0.0085212085401516,0.0013990449054806,0.0010269975003963,0.1469494820048442,0.9891421827790572,0.0301818683302606,0.0256809599653521,9.470602839245778,-0.0219651737533921,0.0244283283058275,-0.1327072191827628,8.443417267902534,0.6145020982014545,5.021745642972038,1088.897590658232,1133.272265902272,1103.1185813414895,1094.8999486236107,710.7232008865692,-16.53059799443011,236.19486188962236,-480.89206631310014,154.03485087000593
44.345,0.4353924286627171,-1.8868415641288392,-1.5500554003455063,0.0502715096848973,-0.0085440485033206,0.0025626988534256,0.0014657618490796,0.0010312668183225,0.1469315433552551,0.9891447589711254,0.0325742173104263,0.0297991555793527,9.474031439306254,-0.0219668196799266,0.0244647346539124,-0.1335336365440055,8.44334808483535,0.6145435864748003,5.0214133285710725,1091.1851991266394,1133.1860118341674,1103.6575925789048,1093.6265624738392,926.1895441594143,-54.4391843052557,151.79503434989294,-444.9054731873728,154.0332976252335
44.3475,0.2136737742890693,-1.7077549282087217,-1.4136495752763174,0.0524371737055606,-0.0136820280642396,-0.0017956802208528,0.0015308830516659,0.0010310870213259,0.1469020704209544,0.98914903409746,0.0351306806333557,0.0337558457394043,9.477289413206714,-0.0219671629393704,0.0245097606701755,-0.1343517714489722,8.443282336442241,0.6145855700390666,5.021079521862169,1093.5285383790315,1133.0000699807456,1103.8775565132391,1092.6754212576727,972.2372100278818,-104.06717616009834,39.90172385508919,-356.7996014199246,154.03201904816063
44.35,-0.0941533890434446,-1.4508237081423607,-1.1379520637408476,0.053045175624673,-0.017711662412077,-0.0057031839388207,0.0015889616390032,0.0010256684051776,0.1468668801694804,0.9891541500248324,0.0378341310052113,0.0374238176979277,9.48036591160911,-0.0219686535585128,0.0245670527982631,-0.1351620694598911,8.443218441598836,0.6146283145312378,5.02074352390759,1096.046385176781,1132.6656759533666,1103.8571011981803,1091.8425644667386,1086.8632360454164,-178.76122388336512,-54.558065464975286,-343.6603222178689,154.03075808786087
44.3525,-0.50359919541316,-1.0904122461475731,-0.6805000960086857,0.0516651381837862,-0.0211913037473204,-0.0097807193213707,0.0016354859624661,0.0010132540320842,0.1468340792335541,0.9891589106784952,0.0406925939057381,0.0406884680932209,9.483253261595296,-0.0219730623605089,0.0246397158040138,-0.1359648729760872,8.443155101248706,0.614671223027445,5.020404637719382,1098.9628545592536,1132.1062638613296,1103.6047661859147,1090.9571196465852,1017.166222732274,-222.09364860980264,-118.56529341369723,-308.1995747580792,154.02926654233403
44.355,-0.834605560937724,-0.7750800338028748,-0.233722318698797,0.0490754035464055,-0.0231379894902128,-0.0120158695452592,0.0016682269388632,0.0009947867556169,0.1468082045842363,0.9891626466366628,0.0436725250207137,0.0434839172256286,9.485946367307648,-0.0219806408378137,0.0247295056842758,-0.1367607314545248,8.443091205560622,0.6147138074459723,5.020063100605918,1101.1322162904453,1131.555207710317,1103.2642747311115,1090.3015665929474,790.2108599561466,-220.1805687585203,-148.74785535068108,-245.24756303354664,154.0280423845753
44.3575,-1.115815398038197,-0.4738995682045668,0.2141512020429442,0.0453703311214398,-0.0241899242163738,-0.012089055111731,0.0016858559352079,0.0009724956091905,0.1467913124026116,0.9891650567129476,0.0467201711112313,0.0457643081215367,9.488442809668712,-0.0219903768799298,0.0248372513012912,-0.1375503844323016,8.443025616213982,0.6147561484270021,5.019718746852324,1102.9139088590364,1131.0053610175364,1102.8610269091607,1089.7308818314168,645.4923130785987,-204.28854052725393,-163.46692783173555,-213.72088454387605,154.02683855248785
44.36,-1.3413191650461636,-0.2020202332086165,0.604723231040246,0.0411180483826859,-0.0244216345820006,-0.0102421428526826,0.0016843874883734,0.0009551997727304,0.1467832882246588,0.9891661594413192,0.0496506869819746,0.0474530734334308,9.490742996118124,-0.021998544209046,0.0249635901659775,-0.1383349779834487,8.442958050480398,0.614798350729226,5.019373195791417,1104.3596778558351,1130.5337650076815,1102.4469400919536,1089.232962170229,508.7987827903942,-153.13581030969897,-161.720377570563,-183.6144681350076,154.02565209199295
44.3625,-1.5026758570403296,0.0212161418716053,0.8621733612886546,0.036996948321343,-0.0238511148358926,-0.0064226870601862,0.001665423260837,0.0009456867501054,0.1467825029425015,0.9891661968491648,0.0524068238476371,0.0485638994505179,9.492849327804464,-0.0220026888740317,0.0251072662874,-0.139115772301227,8.442888840964182,0.6148407847806585,5.01902701369181,1105.4579027729897,1130.2396819659875,1102.0524250213075,1088.8128094907413,429.63593400759993,-75.29390640798523,-162.1509219247935,-174.2385443870735,154.0244870969122
44.365,-1.6452327794822676,0.2293439849663802,0.9651486537298476,0.0327925514138585,-0.0227568451897072,-0.0003009175628708,0.001633592360531,0.0009410507138493,0.1467901803114658,0.989164993926644,0.0550451427739137,0.0491550271361604,9.494766047047763,-0.0220015205256758,0.0252660156558246,-0.1398939191589984,8.442818445049413,0.6148832084126838,5.018679606058674,1106.5078575258744,1130.1572954756416,1101.6361854823292,1088.3617694482932,362.2642751370788,15.362207656030806,-137.41308475076713,-164.22972338329075,154.02311445730288
44.3675,-1.7412232837810684,0.3601081368873975,0.8765598029082743,0.0296614654019642,-0.0216677689622179,0.0047010013246396,0.0015970163090113,0.000940336044939,0.1468045288330407,0.98916282499361,0.0575923665066472,0.0493605659881856,9.49649843456838,-0.0219933591972745,0.0254358630857779,-0.1406707248971357,8.442747243844444,0.6149255936015171,5.018330883236866,1107.2692241486734,1130.3164930042676,1101.3653595975543,1087.9916608738256,302.1691574119379,99.20299444556733,-85.00499788745854,-155.81633845177367,154.02199202310365
44.37,-1.8269009245593817,0.4634154756993427,0.6516495228784634,0.0262029496149793,-0.0206530072066787,0.0075937312889255,0.0015651193474261,0.0009457025070317,0.1468230056349413,0.989160081309818,0.0600172630851473,0.049353830131506,9.498052760333668,-0.0219757533639659,0.0256117482536209,-0.1414475051700585,8.442674902854424,0.614968018873879,5.017981047974877,1108.0187033129328,1130.6533104478688,1101.2111604928923,1087.582687756035,337.9730943830144,161.8429214841935,-33.72946792513269,-194.4376314743209,154.02089209620965
44.3725,-1.9149398635273265,0.5793336177650326,0.3166263256952156,0.0209202875677436,-0.0198944859893032,0.0079019670737821,0.0015402384497125,0.0009609115465009,0.1468441862336751,0.9891569862805955,0.0622358960667137,0.0491863786684667,9.499437262427207,-0.0219455982044109,0.0257900044121552,-0.1422250143979132,8.442600719932422,0.6150103978404712,5.01763072939896,1108.959089620589,1131.1257076116888,1101.1967122579288,1087.0194727164535,347.66240610133934,159.377046557311,25.48840284638178,-216.60024642658584,154.01959838702112
44.375,-1.967448885070595,0.6820709032750738,0.0515676555863061,0.0155017839932622,-0.0194252780986639,0.0063311267297872,0.0015227820990629,0.0009792314773506,0.1468645560358298,0.989154041825473,0.0643532481324126,0.0488518506967794,9.500661003476166,-0.0219031450787107,0.0259673304194428,-0.1430028880195934,8.442524398009361,0.6150536828859805,5.0172786968611165,1109.7570153434403,1131.450195680656,1101.3386025071243,1086.4996865239016,303.0066057489903,86.22971294351939,87.32478231567013,-207.5451282416521,154.01854219315797
44.3775,-1.9939966633054276,0.792358446201785,-0.1427162915519108,0.0098231326884661,-0.0185596039903347,0.0043291868838239,0.0015141789774586,0.0009924449083775,0.1468832753830692,0.98915135520747,0.0665035555340009,0.0483667191422622,9.501732575952706,-0.0218496598692141,0.0261399014310549,-0.1437801328255006,8.442446667493702,0.6150984808763189,5.0169231770545695,1110.474122649333,1131.556856176406,1101.6333361695067,1085.981747075246,251.18152227056157,-10.104886484936573,139.5499611004393,-193.30940492194827,154.0175088196307
44.38,-2.006535613023582,0.8973086882119302,-0.2614247586488873,0.0048846015744708,-0.0169885993191639,0.0026448968531325,0.0015195508095584,0.0009957317125131,0.1468957810393437,0.9891495854747192,0.0687660636380525,0.0478342516390977,9.50265922522203,-0.0217866996018269,0.0263022966433985,-0.1445555959568048,8.442368448941558,0.6151458524692403,5.016563572181721,1111.0129229547936,1131.3996712482312,1102.0363523126268,1085.533139499291,142.71530972229786,-136.38715638974034,181.3653715249511,-142.61618799648184,154.01649461677422
