t,ang_acc_x,ang_acc_y,ang_acc_z,a_vel_x,a_vel_y,a_vel_z,quat_x,quat_y,quat_z,quat_w,acc_x,acc_y,acc_z,l_vel_x,l_vel_y,l_vel_z,pos_x,pos_y,pos_z,mot_1,mot_2,mot_3,mot_4,dmot_1,dmot_2,dmot_3,dmot_4,vbat
2.5075,0.402835214546135,0.959122354531516,0.2047126685455724,0.0052383466646167,-0.0044151452651251,-0.0029061171109541,-0.0008463284650481,0.0012413539644023,-0.0415584127680211,0.9991348125550712,0.0511213785268507,-0.0128108351665197,9.844063685787933,-0.0015317840189936,0.0054092263935037,-0.0138236173147708,-1.1786373873387312,0.2739527084662239,1.2144858059680204,1103.665457679678,1110.5487168759223,1112.9291652120369,1113.7555696324005,600.343362213112,450.797494019404,-303.4894997618517,-365.90019984875914,163.06063139914374
2.51,0.2515544610531973,1.0787382722420575,0.2010561386902308,0.0037522266268546,-0.0013764976307963,-0.0022338639687054,-0.0008429601552307,0.0012451815154543,-0.0415639347552641,0.9991345710205704,0.052120199331047,-0.0124473400777474,9.848481776588326,-0.001261861312161,0.0054748712523892,-0.013710344598286,-1.1786376530311895,0.2739641364718485,1.2144431184015083,1104.8773435707046,1111.7340149195657,1112.166269760492,1113.0125564355287,399.73051933472584,507.418987137646,-352.48733889209126,-236.89560575256328,163.05912610225107
2.5125,0.1268206327759301,1.1494006552778395,0.1870524764183334,0.0022517448892826,0.0020701483628036,-0.002108930631805,-0.000835260337189,0.0012530494826979,-0.0415683717669425,0.9991343730616352,0.0528928509916002,-0.0119518467683974,9.852489409984306,-0.0009940478848772,0.005547153286889,-0.0135649196894193,-1.1786368335554591,0.273974126724206,1.214400218029425,1105.6641102763515,1113.0858118116107,1111.1667285175763,1112.5710916036376,236.74811091946643,546.4444367423428,-452.0658646145517,-111.75673819434688,163.05757603799412
2.515,-0.0015211759441212,1.1653374067335671,0.1774438102056611,0.0024508794282466,0.005586480537321,-0.00235099639603,-0.0008228790744483,0.0012628710533311,-0.0415710227730076,0.9991342523650454,0.0534800287816259,-0.0113315746405262,9.856006631982718,-0.0007290890525267,0.0056281610558439,-0.0133885869674367,-1.1786351731145397,0.2739830635275407,1.2143577604355855,1106.061084125302,1114.4662371032773,1109.9059404374193,1112.4537727445568,70.4201107316309,532.6912053168712,-571.5180591760721,36.914796211204575,163.05598805383883
2.5175,-0.1790572612962486,1.109854658644152,0.1810170037656771,0.0050172352769813,0.0089233430749527,-0.0026849440633003,-0.0008078456394953,0.0012689875685438,-0.0415743830350743,0.9991341113494768,0.0539966993332511,-0.0106406918150011,9.858961543552317,-0.0004673913870646,0.0057193866997501,-0.013183919044945,-1.1786327541378758,0.2739917066963631,1.2143164038694292,1106.0162108300099,1115.749267838195,1108.309138221696,1112.7556655846936,-101.60120632804352,509.51282118845654,-761.5081667571011,220.1760047982181,163.0543531753563
2.52,-0.4755802576359406,0.9670218021995212,0.1963602964308233,0.008073082538421,0.0126236218148051,-0.002658712700568,-0.0007923170514468,0.0012700706037357,-0.0415790752444012,0.9991339249555908,0.0544741510456591,-0.0099420709101416,9.861294701850126,-0.0002087207513748,0.005821561131369,-0.0129547991572551,-1.1786297988325327,0.2740008545872706,1.2142766360026556,1105.5530780936615,1117.0138012092195,1106.0983996036339,1113.554652768548,-218.7195130391548,397.31791816812733,-827.0515950012572,349.5186070165875,163.05233532636663
2.5225,-0.7678782383943393,0.7976586158416766,0.2068079115229125,0.008460426436699,0.0150986229001897,-0.0021245000857579,-0.0007795311916068,0.0012704972819652,-0.0415841196928599,0.9991337255934356,0.0548328036666009,-0.009325666579701,9.86296235286094,4.781014663023519e-05,0.0059346552497068,-0.0127062696595287,-1.1786270502826524,0.2740107911360788,1.214238816624552,1104.922613264814,1117.7358574290356,1104.1738802466898,1114.5032586197765,-279.91583817957377,203.56294031658288,-731.1644356669758,413.32591506380567,163.05060563334257
2.525,-1.0341410763294379,0.59959862349732,0.1978553338738107,0.0055783128151234,0.0164292383002917,-0.0011985682948211,-0.0007705990629974,0.0012701158961327,-0.0415913860511053,0.9991334331908696,0.0550803562644969,-0.0088345362864919,9.863937148544112,0.00030333262963,0.0060578426753335,-0.012444376962005,-1.1786252077115749,0.2740220766322634,1.214203508215889,1104.1534989027639,1118.0316159108024,1102.442577425299,1115.621282343867,-348.1237615794345,28.25463740687216,-646.7339909955309,501.6850339219325,163.04882398628453
2.5275,-1.226818620688512,0.3560158036386698,0.1502247329248065,-0.0007670506454653,0.0167913955287066,2.1745037108133174e-06,-0.0007681869116679,0.0012663119355487,-0.0416016295882791,0.9991330161442968,0.0552740364834895,-0.0085383112604754,9.864210492677497,0.0005591331955047,0.0061897063912481,-0.0121758763081694,-1.178624245411992,0.2740342998426285,1.2141716853564783,1103.1819944569168,1117.87713061607,1100.9402102917122,1117.011683789386,-352.6204389286011,-131.9235350591409,-412.3587562406732,499.0213393159256,163.04662385484727
2.53,-1.2344608561414019,0.1595903141757513,0.076496394257544,-0.0066267334199734,0.0165344661139626,0.0008984770160885,-0.000771802371194,0.0012605284765391,-0.0416160863572085,0.9991324205457186,0.0553879616895252,-0.0084440171040733,9.863794524797388,0.0008165596362016,0.006328240157011,-0.0119079229007138,-1.17862388159912,0.2740474436523332,1.214143249768392,1102.3903967081208,1117.3719982355067,1100.3807836440956,1118.1163890404468,-305.07907142457714,-257.38247221113926,-52.31290505107256,412.4910952063777,163.04473774232915
2.5325,-1.0735987758728895,-0.031050923617846,-0.0263510036962892,-0.01095482220843,0.0165539030002352,0.0014800850627902,-0.0007791052821813,0.0012572039123842,-0.041632894317502,0.9991317196688904,0.05533552275844,-0.0085206338875011,9.862722349597393,0.0010768025521728,0.0064709754539685,-0.0116476430660879,-1.178623893055303,0.2740620269315242,1.2141173277135051,1101.656599099794,1116.590218255014,1100.6786457664568,1119.074139265418,-282.1640799121784,-337.93939820294133,259.47519195006504,348.4093593633208,163.04279693658074
2.535,-0.7950217119668846,-0.2246716078257519,-0.1413588286875445,-0.0135297884985393,0.0170248089563647,0.001570695469348,-0.0007881117459224,0.0012574447062474,-0.0416477526521542,0.9991310929066884,0.0550962425524613,-0.0087364934926112,9.861046622840771,0.0013405502429462,0.0066151515894552,-0.0114017726945263,-1.1786235449136175,0.2740783115550385,1.2140931850057413,1100.97957630856,1115.682301244492,1101.6781596038459,1119.8584358372634,-258.25721177371275,-371.0658985970519,538.8841521135532,263.3543250017339,163.04081156898337
2.5375,-0.4157231875786184,-0.4264139012164875,-0.2504409241656535,-0.0146874368112137,0.0173121022808629,0.0008649329653849,-0.0007950783075932,0.0012633569279071,-0.0416572572625043,0.9991306838934896,0.0546289651528235,-0.0090201565088942,9.858838847311464,0.0016079374516064,0.0067578589374408,-0.0111764369030023,-1.1786222032545492,0.274096359041553,1.2140704955706991,1100.3653130409255,1114.7348887620287,1103.3730665270243,1120.3909108904268,-258.95247203061996,-404.6036535668095,839.8603736660966,170.21843872935642,163.03877442505842
2.54,0.1031307707871981,-0.6651111618787819,-0.3480517019240325,-0.0152252797653939,0.0164950417947815,-0.0007138782398111,-0.0007984930474672,0.0012782124497881,-0.0416598566135648,0.999130556604296,0.0538724394677266,-0.0093390300333178,9.856187505370468,0.0018785032632788,0.0068963464338605,-0.010976930324135,-1.1786196488327398,0.274115653410498,1.214049053807999,1099.6848139484068,1113.659282976658,1105.8774614721763,1120.70952803091,-242.40258892869468,-373.4970087933641,937.221819708222,62.780443271141365,163.0362738095286
2.5425,0.5514707280767837,-0.8396329794389135,-0.388221833993412,-0.0147300745599172,0.0144697784135104,-0.0024234496210598,-0.000801408166,0.0012983641490966,-0.041657433267463,0.9991306354463992,0.0529069768923534,-0.0097387086710305,9.853194124234072,0.0021510361745062,0.0070282568518638,-0.0108075920405142,-1.178615315216783,0.2741358033067211,1.2140286786483334,1099.153300096282,1112.867403718062,1108.0591756255656,1120.7048131067825,-207.2051035250796,-284.9725024933893,822.8070872711389,-54.28696465469445,163.0341469757885
2.545,0.9697552090344512,-0.9599050021975868,-0.3817713972506608,-0.0125501585638083,0.0110996557822809,-0.004191177795735,-0.0008052014468168,0.0013147613326245,-0.0416523342954879,0.9991308326988992,0.0519200202009247,-0.0102225837598047,9.849969971096105,0.0024237787515026,0.0071516171980585,-0.0106717864731833,-1.17860872177108,0.2741566830575705,1.214009823384084,1098.6487884307815,1112.234420464191,1109.9914969085319,1120.4380932076367,-217.07861003701967,-230.5469745284476,730.6092056800181,-166.58024128724165,163.0319810515012
2.5475,1.3841795495711362,-1.0233343354606057,-0.333380989147872,-0.0078574670426836,0.0064308791473262,-0.0056494897030318,-0.0008072238080748,0.0013228722858324,-0.041644196365223,0.999131169703494,0.0510093530427633,-0.0107153640499581,9.846633750534554,0.0026948767023262,0.0072648898207624,-0.010571759878248,-1.1785999737023525,0.2741784263977221,1.2139921146382606,1098.0679070460967,1111.71466884542,1111.7122216539656,1119.8719119003463,-209.40761501081803,-143.04622450985275,506.43179743570954,-235.127608584146,163.02934417500083
2.55,1.6281422517502735,-1.014924195827145,-0.2774208859400205,-0.0028584332033909,0.0029782412219079,-0.0058213902368619,-0.0008056798566311,0.0013240250046561,-0.0416323019375907,0.9991316740306276,0.0501608728505879,-0.0111611506924415,9.84330785134237,0.0029625758065533,0.007367188350193,-0.0105084080205634,-1.178589526937731,0.2742008401210117,1.2139750643690104,1097.6017503557273,1111.5191893416415,1112.5236558957104,1119.262455164716,-182.19306249960613,-22.97325421259147,192.851673122446,-252.47729108317003,163.02712084385274
2.5525,1.7541027576691068,-0.9716384402281028,-0.2251840185808153,0.0021258415815618,0.0006412078770769,-0.0051947673086103,-0.0007997993654716,0.0013200198411737,-0.0416141644337015,0.9991324466676084,0.049354876272055,-0.011524033578242,9.840113172200008,0.0032253071590746,0.0074583541454377,-0.0104811904844609,-1.178577676039213,0.2742233058036233,1.21395838160583,1097.1569417335988,1111.5998025743568,1112.6764800195779,1118.6095254449303,-171.88666805587127,78.82242265436784,-32.62552923542968,-254.70997585780967,163.02487706958195
2.555,1.7877576484751394,-0.9278450656176394,-0.1800047647483236,0.0065760452497848,-0.0007107547863005,-0.0047157640094817,-0.0007888923385548,0.0013119941969164,-0.0415900623319378,0.9991334750444456,0.0485870206704535,-0.0117692553460493,9.837164563234952,0.0034817367368223,0.0075389943678525,-0.0104881007669313,-1.1785644066083028,0.2742453660753071,1.2139411458754714,1096.742317015448,1111.9133014549136,1112.3605282495334,1117.9889052854269,-151.06995998853884,178.23404677729212,-208.56683734196383,-231.16928565851177,163.02262107598554
2.5575,1.7252813479173423,-0.9104250973021576,-0.1316675269633065,0.0102575268864363,-0.001425756452593,-0.0050820790040654,-0.0007710108872663,0.0013030592502142,-0.0415648288579131,0.9991345547749724,0.0478147710159313,-0.0118402400479379,9.83456696756432,0.0037309102502067,0.0076104384839307,-0.0105256994275253,-1.178550203603867,0.2742669708369184,1.2139224941751248,1096.401591933656,1112.4909728082434,1111.633645832868,1117.4536790166378,-116.1435534688305,307.09600923692705,-372.1270140662989,-216.9643077714728,163.02035595832015
2.56,1.5545528270806552,-0.930326864599758,-0.0466500233345453,0.0141117122569696,-0.0025223047329695,-0.0065823526043301,-0.0007464271433744,0.0012944568422329,-0.0415432093639536,0.9991354858716952,0.0470353957032139,-0.0117259260701431,9.832411120404144,0.003972316852802,0.0076746987738203,-0.0105892353890427,-1.1785359279117356,0.2742877427058067,1.2139020577705835,1096.1615992481038,1113.4487815010982,1110.499893179202,1116.9040837465695,-43.485058829311136,387.5093486076904,-432.0101607938433,-195.6408804112967,163.01763438289782
2.5625,1.334559420704384,-0.9686948050771572,0.0563534220381041,0.0174261683017913,-0.0041924465905346,-0.008173287017076,-0.0007174010437948,0.0012832487279875,-0.0415305241190038,0.9991360482654384,0.0463302580183007,-0.0114552229187112,9.830769859589449,0.0042058217174635,0.0077343413342184,-0.0106728943047407,-1.1785219952905144,0.2743071395686984,1.2138801917213673,1096.1841666395096,1114.4285195512819,1109.473595028899,1116.4754746145811,75.28133871724255,418.5819126231398,-402.35012744948057,-181.68963285111593,163.01536864318044
2.565,1.0285065622661702,-0.9992056857024588,0.1820049988616766,0.0210157364338988,-0.0069816693350164,-0.0088634418228808,-0.0006873437881396,0.0012661764821649,-0.0415279557793583,0.9991361936199235,0.0457876975096533,-0.0110852388958097,9.829695960253096,0.0044317298632999,0.0077922355160633,-0.0107700011821574,-1.1785084299668342,0.2743248314306069,1.2138572448012528,1096.53800594169,1115.5416910642139,1108.4881425419546,1115.995635582314,246.33712247623927,505.38539645032125,-403.2429442953885,-237.87904813062192,163.01311121999487
2.5675,0.5619997289302303,-0.989750502661449,0.3194284176893383,0.0248831297200585,-0.0112773615825382,-0.0077382239395795,-0.000658370381553,0.0012431544809344,-0.0415329328160189,0.9991360268342075,0.0454316180396206,-0.0106563464239834,9.829220584673624,0.0046507401098151,0.0078512419056979,-0.0108731970543558,-1.1784950959005078,0.2743409834667079,1.2138328348157152,1097.4158522518908,1116.9554465335334,1107.457380307422,1115.2860793739283,394.8674480151651,517.7329428564573,-341.13954537256905,-284.3328430501121,163.01041859100627
2.57,0.1056320435455709,-0.9282069674809404,0.3894093073354126,0.0269324956797153,-0.014833034163644,-0.0056050577290408,-0.0006289538252948,0.0012173449880187,-0.0415410974155909,0.9991357259244338,0.0452172680744923,-0.0101458330859247,9.829352095926666,0.0048638172535468,0.0079139051819789,-0.0109746432366731,-1.1784813938810137,0.2743561856381325,1.2138062980630548,1098.5123431817658,1118.130355778496,1106.7824448150918,1114.5739713670635,492.21347914277743,449.24423271269615,-221.89795629331775,-298.2216706474245,163.00819261560784
2.5725,-0.3817215514639987,-0.813644927266797,0.3872065050279928,0.0270136632451468,-0.0175568399555121,-0.0033390118674202,-0.0005966569466361,0.0011932674791888,-0.0415489171481999,0.9991354345179246,0.0450697638351478,-0.0095191819199623,9.830075762147809,0.0050720581740093,0.0079823219894444,-0.0110662411806006,-1.1784667836701577,0.2743709333898745,1.2137768661216697,1099.8769196476048,1119.201667697097,1106.347890525955,1113.794971020691,560.7794623063986,394.57040407198355,-130.9257507076293,-304.9318467103852,163.00598945450696
2.575,-0.8544606017855823,-0.6696266655104824,0.3222881397598091,0.0252172456828148,-0.0194627537044914,-0.0014759151674197,-0.000559723070245,0.0011743466020426,-0.0415571797041628,0.999135117801846,0.0449327205503883,-0.0087579822390858,9.831354353829774,0.0052765989741677,0.0080580855828519,-0.0111399875538943,-1.1784512377403307,0.2743856759208437,1.2137438562944607,1101.316240493298,1120.103207798856,1106.1278160615536,1113.0493121335114,549.2680179014886,301.2944658080024,-41.59885744261462,-263.0652167601567,163.0038077107442
2.5775,-1.2602748498116603,-0.5135826390581869,0.1962133744891064,0.0212740334237514,-0.0205515431332611,-0.0002954354119989,-0.0005182848997654,0.0011615319908708,-0.0415661091524908,0.9991347666478306,0.0447961864073959,-0.0078823169325645,9.833129902039625,0.0054787071270051,0.0081422138592367,-0.0111884337953454,-1.1784354472446952,0.2744006402393822,1.2137073018326408,1102.6232597371122,1120.708140026137,1106.1398962387423,1112.4796449368903,489.67984802003366,182.5830150112363,37.86360082426735,-176.0980924972538,163.00165400304658
2.58,-1.6246561454934472,-0.3402319124138576,0.0078436899607127,0.0149509397561808,-0.0212282201791214,0.0003179051438529,-0.0004728953213276,0.0011566709809895,-0.0415733563699671,0.999134478103945,0.044629010282488,-0.0069237804425694,9.835326982139827,0.0056798942697993,0.0082350871526441,-0.0112051881990535,-1.1784198519638842,0.2744159081223178,1.2136674834941747,1103.764639733398,1121.0161228739123,1106.3171340656747,1112.1688216710252,318.83309328278074,40.73789979825138,68.29165228282508,-33.38805127091362,162.9991038276314
2.5825,-1.8158087797553844,-0.2221768511259771,-0.1495661371560776,0.0094717864910382,-0.0214480899545171,0.0001899175344839,-0.0004237314558689,0.0011580499265919,-0.0415764098433007,0.9991343613377331,0.0444655287285699,-0.0059045035260937,9.837855787672554,0.0058817085200521,0.0083364596878999,-0.0111854850641858,-1.1784044894367232,0.2744317887156034,1.213625190068255,1104.217425203526,1120.9118295251283,1106.4813545001564,1112.3127046805355,65.9910693825182,-111.45116548227872,38.61020402055229,149.6671206452479,162.9970079591809
2.585,-1.904721101332712,-0.1413464641352545,-0.2687561918682863,0.0050369035693968,-0.0214266838979434,-0.000592567191896,-0.000373826222881,0.0011598760733641,-0.041574753868705,0.9991344464956664,0.0444183882366184,-0.0048986073807646,9.840616658403864,0.0060855723713258,0.0084455892639035,-0.0111265710059218,-1.1783893826402867,0.2744483681290245,1.213581949890358,1104.0945950803107,1120.4588670465007,1106.5101850857775,1112.9171572742512,-169.85026280399683,-269.6026635105739,-43.71856879961435,360.52846842945513,162.99494256791527
2.5875,-1.9240551160309571,-0.089053137070877,-0.3254434889811458,0.0009446081347941,-0.0213359673761734,-0.0022861429548509,-0.0003286239015185,0.0011528234536996,-0.0415720079142834,0.9991345917333752,0.0446676484190931,-0.0040224102116189,9.843505029893391,0.0062926461791552,0.008561313829901,-0.0110279709455691,-1.178373867240528,0.2744658460016247,1.2135395905025324,1103.368173889506,1119.5638162075754,1106.2627616561583,1114.1153470226827,-333.318260319227,-380.2309273287928,-143.16266995683995,495.86854479172104,162.99249863488956
2.59,-1.880911394839128,-0.0783188601693524,-0.2767494572338148,-0.0023953372371853,-0.0213588836849789,-0.0042365921262129,-0.0002931896016023,0.0011345138559027,-0.0415698153989568,0.9991347267795072,0.0452532061658237,-0.0033880591825812,9.84641776745562,0.0065040934066933,0.0086820085295729,-0.0108914259479756,-1.1783578285222185,0.274484529237021,1.2134994104565735,1102.4280037787144,1118.557712409857,1105.7943717359935,1115.39649999821,-399.10187729248753,-451.9615154588032,-232.3171503530218,534.3804667270073,162.99049013865917
2.5925,-1.7717472264340155,-0.0920421824757336,-0.1160428371119233,-0.0066379369757627,-0.0215062701703633,-0.0063563438402421,-0.0002710766777706,0.0011055201046374,-0.04156884042511,0.9991348198736448,0.0461528260656059,-0.0030769161651095,9.849257399430813,0.0067209391535241,0.0088056848938299,-0.0107207635467768,-1.178341650329354,0.2745045292796332,1.2134624459738637,1101.3726645030436,1117.3040086302813,1105.1011759043931,1116.787249356318,-405.5124636188974,-541.2237626618752,-298.79810079662803,544.8454603221394,162.98851005503792
2.595,-1.5950501114491165,-0.1173221353561477,0.1289203518272321,-0.0117395455012393,-0.0217586531936151,-0.008155600589608,-0.0002627020732554,0.001065620771168,-0.0415685941190389,0.9991348896137224,0.047355153819432,-0.0031038687840529,9.851935910212575,0.0069439448095793,0.0089300949752958,-0.0105216108644804,-1.1783251142735542,0.2745256442594668,1.213429709669792,1100.40044146062,1115.8515935965474,1104.3003812320103,1118.1207272998208,-333.42907061797433,-626.8873633264454,-323.26226016444485,487.83067907516977,162.98655299010258
2.5975,-1.328522250542433,-0.1456556886910935,0.4387502372169568,-0.0171352125681242,-0.0222104669081314,-0.0087715598730695,-0.0002667185158263,0.0010187744586212,-0.0415670938142527,0.9991350127376196,0.0487637107909866,-0.0034480831010447,9.85437927435932,0.0071736615859992,0.0090529022740138,-0.0103007977306632,-1.178307996344274,0.274547640519319,1.213401334961862,1099.7055191499535,1114.169571813649,1103.4848646035707,1119.226402751694,-214.3415748245889,-783.7275693477006,-335.38142746725305,405.5650179419986,162.9846230717984
2.6,-0.9241175204612552,-0.1707231158917709,0.8084198590203757,-0.0218664648699223,-0.0229161915682932,-0.0066967769394766,-0.0002796608580729,0.0009706374115486,-0.0415639767181828,0.9991351986516682,0.0502460327848372,-0.0040434631136869,9.856529973677391,0.0074102842113669,0.0091718378891177,-0.0100658250987066,-1.178290127424161,0.2745707151551774,1.2133764614324685,1099.328733586497,1111.932955749809,1102.623474094674,1120.1485523895308,-58.36899036844567,-840.173740948712,-282.0312292192799,263.27409790861213,162.98233782615466
2.6025,-0.5532770986402687,-0.1775699253926584,1.0507129193391163,-0.0230256813042983,-0.0235960066682541,-0.0022610465393232,-0.0002978365917112,0.0009253722297716,-0.0415597675745481,0.99913542231044,0.0516990007143942,-0.0048136798240423,9.858348486330536,0.0076535880328143,0.0092848571231526,-0.0098243669739849,-1.1782714749760028,0.2745953671847788,1.213354108633335,1099.4136741981115,1109.9687031089056,1102.0747084574743,1120.542773241237,101.87980043642928,-773.4541571599203,-175.21783248130677,88.89392381074873,162.98045852283417
2.605,-0.1961324902504106,-0.166055226960543,1.1693312822291486,-0.0218900203079642,-0.0244727319193084,0.0033605590049032,-0.0003206949139545,0.0008833592916462,-0.0415542437035539,0.9991356921721206,0.0530977074630553,-0.0057375858397737,9.859813852481437,0.0079029231392329,0.0093903439559227,-0.0095838603641153,-1.17825192359167,0.2746212250722672,1.2133342874235085,1099.8381325886792,1108.0656849640095,1101.7473849322676,1120.5930220085845,229.8904368204197,-771.506515385152,-92.44694096819529,-28.353465059581744,162.9786047471448
2.6075,0.1877141457882981,-0.1344822694932521,1.15917839557882,-0.02032936396425,-0.0254894596060473,0.0088730204608083,-0.0003474941903496,0.0008452502574768,-0.0415456935332844,0.999136079175638,0.054413729670874,-0.0067879408248319,9.860923793527206,0.0081573375533762,0.0094871980787469,-0.0093511882498269,-1.1782312985303531,0.2746474945553887,1.2133170665766733,1100.5631263822136,1106.11117053198,1101.6124737526336,1120.401005915939,271.20492322165444,-621.9090136005567,-12.999252972076924,-84.92780101978677,162.97640943401987
2.61,0.4726441998631669,-0.1027738695281902,1.0502725683880043,-0.0198107967961272,-0.0258830677528778,0.0116884220225804,-0.0003771104309436,0.000809960075743,-0.0415329369873255,0.9991366343899544,0.0556550339653562,-0.0079267097957586,9.861693122022206,0.0084155460711384,0.0095749553065462,-0.0091324135756268,-1.1782096721543942,0.2746736314451638,1.2133021888519893,1101.1941572047874,1104.9561398960068,1101.6823886674072,1120.1683830034856,225.77082389010073,-323.91275417360333,51.32340901386323,-77.25064478949595,162.97460468568065
2.6125,0.7329980367923516,-0.0817077137584231,0.885119689366637,-0.0200629494062783,-0.0256282679036359,0.0127809509871187,-0.0004102572273851,0.0007739914420673,-0.0415165187324591,0.9991373380210232,0.0568815069902919,-0.0091492003159038,9.862151589722163,0.008675955160548,0.0096538492546717,-0.0089324617343669,-1.1781869763927135,0.2746990533920826,1.2132895193590627,1101.691980501664,1104.4916067611118,1101.8690907977027,1120.0147526919916,161.54530348588924,-54.36814222266182,80.45460966877182,-32.60783556447457,162.9728268794949
2.615,0.9703353296992798,-0.0796946049892497,0.7034851859687162,-0.020074098043489,-0.0250973603637048,0.0131922422480654,-0.0004472786082681,0.0007380053347399,-0.0414975319688639,0.9991381438879297,0.0580739816796449,-0.0104473147139981,9.862342006480558,0.0089368748219769,0.0097246725289042,-0.0087547752451925,-1.178162991350703,0.2747233770038804,1.2132786766413484,1102.0018837222167,1104.6842991848935,1102.084661715751,1120.0053438256632,73.4161797347967,234.90221849934233,77.95288153934217,36.091727400617714,162.971073112148
2.6175,1.1485691234904791,-0.1040015495335885,0.5178668535536574,-0.0179449724602034,-0.0247663098048346,0.0138227454662346,-0.0004869170300193,0.0007052887026479,-0.0414771000209628,0.9991390031773406,0.0591634540936922,-0.0117851764760236,9.862316626135753,0.0091965885015494,0.0097885982238767,-0.00860113612309,-1.1781376383125475,0.274746669776743,1.2132681655541715,1102.059061400338,1105.6661178536085,1102.2588552053996,1120.1952113289947,-24.582357084955746,586.0249696202243,55.50903514258726,116.09851903104092,162.9693511635932
2.62,1.2313432361690693,-0.1555988149155585,0.2888789208982519,-0.0123181700149302,-0.0250614487168335,0.0152796371045615,-0.000525795361897,0.0006758766308145,-0.0414561285415808,0.9991398790637742,0.0601462771361273,-0.0130850883170528,9.862132507364896,0.009453374719177,0.0098470016479987,-0.0084717051922455,-1.1781106371939707,0.2747695871405499,1.2132561970209823,1101.878971936792,1107.6144240329943,1102.362206891464,1120.5858364208184,-93.71420006932767,805.3773506731148,21.020722104231474,147.7197269762232,162.9673262776658
2.6225,1.155389559907188,-0.2071227757536202,0.0876340050936552,-0.0065420808812431,-0.0257827196932858,0.0166748506724233,-0.0005618658674711,0.0006467609963321,-0.041433898999586,0.9991408037701338,0.0610824451207294,-0.0142966840483686,9.861847928206872,0.009705684066152,0.0099013819827698,-0.0083651020596245,-1.1780819115273826,0.2747925649427135,1.2132419070454878,1101.5904903999915,1109.693004606974,1102.3639588159208,1120.9338099638755,-124.94351016785268,869.0863482894841,-3.385445255571612,108.38158039078056,162.96567762555875
2.625,0.9266766076796592,-0.2573707557761751,-0.1206502652797862,-0.0017670161103022,-0.0265393769341872,0.0174522497998639,-0.000593539505749,0.0006156959803193,-0.0414094221822794,0.9991418206393972,0.0620190639206026,-0.0153831616861877,9.86151940948949,0.0099523373350802,0.0099533347091221,-0.008278671609924,-1.1780518005732095,0.2748155016648947,1.2132253398158,1101.254254385953,1111.9598557744418,1102.345279665186,1121.1277443227723,-140.36853425054983,970.3167820035312,16.86737940358434,11.431428743799431,162.96407518034
2.6275,0.5278915253153728,-0.3095458678971362,-0.3557636075944169,0.0013543753521953,-0.0273091653035368,0.0170924468827368,-0.000618294733231,0.0005831610205884,-0.0413824825536126,0.9991429398393408,0.0629495617159217,-0.0162955512508517,9.861198810933143,0.0101926718865788,0.0100045389706884,-0.0082088492229114,-1.1780209340730845,0.2748380521843623,1.2132070084447637,1100.8886477287388,1114.5445885169916,1102.4482957129387,1120.9909671075948,-119.60411665632164,876.4340623364391,86.80633663184565,-127.6003921665533,162.9622132618606
2.63,0.1524377390237385,-0.3424968443075288,-0.5146068438503195,0.0015504794132782,-0.0280377626302473,0.0156042112808486,-0.0006353481993292,0.0005505010312068,-0.0413532942422393,0.999144152039463,0.0638515018857983,-0.0170239010632221,9.860930397821695,0.010426585919133,0.0100567503862656,-0.0081514870436523,-1.1779897833655912,0.2748597844105072,1.213187394396614,1100.6562338026713,1116.342026086124,1102.7793113483451,1120.4897423619395,-75.47320840972294,595.7368232897024,217.9132757660273,-276.1911125166139,162.9607175623251
2.6325,-0.1942430830814093,-0.3592891663016986,-0.6070849091585206,7.320712219161912e-05,-0.0290515802735887,0.0131561903313151,-0.0006454210997444,0.0005179352499035,-0.0413244779773764,0.9991453479152216,0.0647244364593313,-0.0175904336220746,9.86074835740458,0.0106544685096114,0.010111734455645,-0.0081021745972464,-1.1779583950468875,0.2748805847165475,1.2131663270520632,1100.51128168669,1117.52327263344,1103.5378620917688,1119.6100115450115,-45.87233600413728,344.02538158885767,394.2771512597308,-392.07214085938256,162.95928481880293
2.635,-0.4746293761910156,-0.3594173583261361,-0.6330588466677964,-0.0018331919394386,-0.0301179076235722,0.010447582820162,-0.0006491719907343,0.0004853485801875,-0.0412984379805006,0.9991464276678724,0.0655720963205829,-0.0180193056174075,9.860675414793015,0.0108772307076672,0.0101710456755844,-0.0080565011067558,-1.17792689920289,0.2749006928303039,1.2131434804339118,1100.4268721226504,1118.0621529940684,1104.750697104644,1118.5293816576425,-23.957705101336817,46.8370879078034,601.840745703162,-436.86743329805506,162.95790717428906
2.6375,-0.6429201149143094,-0.3382024127743152,-0.5826021620400134,-0.0038816099701181,-0.0308563551313063,0.0079975319450206,-0.0006471204181117,0.0004511409366606,-0.04127543956339,0.9991473814648424,0.0664241387081391,-0.0183338146562518,9.860721800241825,0.0110962728678272,0.0102358396091193,-0.008010349050176,-1.1778954841527058,0.2749201890488777,1.2131192956562096,1100.3914931611835,1117.757458072979,1106.5470658202848,1117.4256743785213,-7.604065590021653,-319.08494760396707,904.641413075816,-430.5408639648795,162.95659849219555
2.64,-0.6911401681631058,-0.2871469284639257,-0.4601105783972737,-0.0065886991577534,-0.0313751910041489,0.0057912638231492,-0.0006396379536762,0.0004141121209164,-0.0412541677847687,0.9991482656965748,0.0672982155507969,-0.0185567495786435,9.860885385817932,0.0113134254049209,0.0103067576410742,-0.007960093236602,-1.177864503821959,0.2749393089409857,1.21309512923803,1100.3888517947005,1116.4667282560483,1109.2739041700231,1116.376677337818,7.901286263268218,-599.4155633631308,1058.1531301575294,-304.97538566497235,162.95510976441287
2.6425,-0.5950035224271613,-0.2195236350577377,-0.3369627488672496,-0.009095144245683,-0.03178902248858,0.0048639432041057,-0.0006284921025176,0.0003748847324636,-0.0412330529725679,0.999149146046514,0.0681726383270269,-0.0187406724516519,9.861152350180717,0.0115308214275847,0.0103838808895909,-0.0079026512707196,-1.1778343003573355,0.2749586460028188,1.2130718300155843,1100.4309995924998,1114.7603802561634,1111.8378314710724,1115.9007974501965,35.03193865694886,-758.9648546350579,1022.2582762670062,-93.13202163248403,162.9539377393742
2.645,-0.3608783764941687,-0.1169178633465191,-0.2327870185991419,-0.0117001097689911,-0.03238977235994,0.0051504969560517,-0.0006170470466149,0.0003320767059977,-0.0412145358628,0.9991499218261654,0.0690615943333987,-0.0189668299701983,9.861497312096896,0.0117505716393961,0.0104667884911214,-0.0078355348392618,-1.1778049087290203,0.2749789013815931,1.213049504939812,1100.5640114879852,1112.6719039828731,1114.385195551358,1115.9110172296555,94.6319957729904,-927.9040778296545,1032.0890440850455,94.27509837073758,162.95283641503377
2.6475,0.0496642873238722,0.0569290739181241,-0.1661626660847397,-0.0141816491175559,-0.0332463657891512,0.006585580376696,-0.0006076560389623,0.0002805209612668,-0.0412025252851754,0.9991504326552177,0.0700484090693622,-0.0192917147885075,9.861884134935204,0.0119745846426912,0.0105545113020312,-0.0077568373711255,-1.1777758497455524,0.2750006506747004,1.2130283303140763,1100.9041595713647,1110.1208598670153,1116.9982766914975,1116.37217294205,164.9263214450492,-884.0409744052711,827.4397236478483,204.64269517383835,162.9515948265963
2.65,0.455450283562981,0.2455817760081583,-0.1670797531437558,-0.014787129303655,-0.0337374938636759,0.0078726915001026,-0.0006006377321249,0.0002185656888693,-0.0411982136046586,0.9991506295305624,0.0711415620752893,-0.0197326478092073,9.862268811272054,0.0122045909543195,0.0106455607786035,-0.0076649460778933,-1.1777464088619527,0.2750237963188579,1.2130079935615392,1101.3886430952105,1108.251699110847,1118.5223941695972,1116.934230705525,241.4533761919353,-635.8290787849136,428.0811563499447,201.34647106956865,162.95062516740418
2.6525,0.8505006270522142,0.4691831805191394,-0.207499912787168,-0.0130320531639346,-0.0332456043918887,0.0079466701915472,-0.0005949610819916,0.0001520697902525,-0.0412009708538324,0.9991505371401734,0.0721972804666555,-0.020283539419779,9.862602111231922,0.0124420771656501,0.0107381380724695,-0.0075583087769784,-1.1777165168263266,0.2750480090539342,1.2129876233071,1102.1114264523244,1106.9417144730908,1119.1386824732472,1117.378905297398,325.98454774304247,-403.71945635667544,86.1558897434803,115.1618465171318,162.94972076584844
2.655,1.1719295797133027,0.7059353015443013,-0.2515786728261479,-0.0093939944509966,-0.0315012050712133,0.0066668405769366,-0.0005904392236616,8.926100227542659e-05,-0.0412088663208429,0.9991502325565326,0.0730237299002569,-0.0209532688362958,9.862830764189559,0.0126881354872082,0.0108303324903862,-0.007435491468989,-1.177686488468992,0.2750730712366562,1.2129660648381784,1103.0185658339255,1106.2331018290636,1118.9531736183146,1117.5100399381104,394.57341315457654,-130.41941253585748,-246.42711360236876,-59.949582092618165,162.94886868033825
2.6575,1.3369858243624275,0.939376099527296,-0.2664408085664464,-0.0043626891481582,-0.0286620014149733,0.0046250518376966,-0.0005887796976677,3.509551663272539e-05,-0.0412201655822607,0.9991497837027528,0.0734943300176961,-0.0217811754022693,9.862898647248596,0.0129432832439028,0.0109202879816153,-0.0072954343549487,-1.1776563210889224,0.2750989046130784,1.2129427027982151,1104.0842935180974,1106.2896174104114,1117.9065469052352,1117.0791573869349,479.50741623845835,180.34847049366743,-598.9586033649302,-337.5317798415908,162.94807731760477
2.66,1.3000772205515116,1.203473755883907,-0.2291730312600432,0.0020819185667991,-0.0250773555916673,0.002827608852693,-0.0005898803566702,-7.707712648510558e-06,-0.041233579497029,0.999149242136874,0.0735258953135143,-0.0227647504345966,9.862749343786255,0.01320739758309,0.0110062512743724,-0.0071377709782266,-1.17762579907163,0.2751255673784402,1.21291775648762,1105.416102915118,1107.134844181532,1115.95838060149,1115.8223810389027,474.9095960892747,405.6658905120089,-773.2460256285486,-573.7979870245576,162.9471945960168
2.6625,1.0636662566185755,1.410330510846382,-0.1531100503768414,0.007210235726645,-0.0222978833415696,0.0023062625170055,-0.0005922808411059,-3.94280688861353e-05,-0.0412475733284764,0.999148671500006,0.0730956563609525,-0.0238681883496762,9.862328612934089,0.0134796534945925,0.0110866559517361,-0.0069631469130038,-1.1775946087868083,0.2751529731385525,1.2128920650887987,1106.4588414985435,1108.3179468629714,1114.0403167770924,1114.210167451812,378.8497567049116,520.2495461141209,-763.8911100877228,-723.603051811976,162.94651219228535
2.665,0.6395691059222781,1.6044753538422118,-0.039517989218708,0.011218405653651,-0.0194687916535745,0.0023723343894422,-0.000595313298108,-6.422872564260283e-05,-0.0412606471594287,0.9991481344096896,0.0722620618143535,-0.0250643510018807,9.861586939232614,0.0137584798986444,0.0111602539385904,-0.0067734347504983,-1.177562181655972,0.2751809596720757,1.212867128704912,1107.3103516986423,1109.7360919121024,1112.1389250510515,1112.2043657798429,311.35450387419706,616.7320226548914,-778.8013548402142,-902.8796781308947,162.94588175548807
2.6675,-0.0111338848065737,1.812119288141984,0.1315996500253622,0.0135385486935852,-0.0153112720594377,0.0022043612652054,-0.0005997131241396,-8.50645671929125e-05,-0.0412715237933394,0.9991476838346468,0.0710664232187122,-0.0263514352755067,9.860483153405127,0.0140416649082805,0.0112262111054214,-0.0065716464180939,-1.1775281005926723,0.2752091674809615,1.212844137389942,1108.0156140179147,1111.4016069762458,1110.1463100028916,1109.6957690611575,199.41251901005188,568.5245589836662,-661.9234452882806,-876.370315199911,162.9451813095388
2.67,-0.5942385221150338,1.9460818534017337,0.2972585740016546,0.0130353787947203,-0.0107936189724165,0.0015172920758523,-0.0006070508150152,-0.0001000525574514,-0.0412805633205699,0.99914730426573,0.0694622421204992,-0.0277451149842426,9.858987462568098,0.0143264752169511,0.0112841878257354,-0.0063617109451258,-1.1774921626281227,0.275237124778423,1.2128235325746108,1108.3074142936928,1112.5787147070207,1108.82930782461,1107.8225142038434,54.3842431413407,403.1011944060624,-449.9210348823549,-635.6007901271049,162.94464127307268
2.6725,-1.1166952123395213,2.0129750992482904,0.4677870619602454,0.0100421067368221,-0.0052823838103355,0.0009946954608368,-0.0006177543100733,-0.0001065029346598,-0.0412887926336761,0.9991469534629472,0.0673941855527252,-0.0292372154843121,9.85708257070786,0.0146097793028224,0.0113342818585254,-0.0061483786102987,-1.1774541332084447,0.2752645504098113,1.2128054589509365,1108.2875352336212,1113.417112948276,1107.8967048284799,1106.5177651105223,-58.38557107940293,278.28604864082934,-312.5911836762287,-388.87124090312784,162.94414272980546
2.675,-1.5157495440229736,2.008938542595089,0.6115608738850736,0.0053484914177777,0.0005010214598567,0.0015958223692671,-0.0006306489588618,-0.0001040983673319,-0.0412953953823481,0.999146666845311,0.0648611400495639,-0.0307852769579988,9.854764512896521,0.014888264143125,0.0113768974117103,-0.0059370300088266,-1.1774139710905072,0.2752913513087742,1.2127899703323788,1108.0154864382955,1113.9701449502247,1107.2663519062287,1105.8781579993276,-170.00288470547943,169.0886796446079,-182.75722742667895,-72.21944543129634,162.94367559832713
2.6775,-1.6965144309477311,1.9139300423233023,0.6699573106412112,-0.0005944217125626,0.0060051483071807,0.0041949952170002,-0.0006430944223925,-9.392179909528308e-05,-0.0412980107738327,0.9991465454294254,0.0618974543834874,-0.0323166747389414,9.852043688991252,0.0151586621757626,0.0114126746248444,-0.0057333347519511,-1.1773721524299148,0.2753174778602548,1.2127771449757483,1107.437520810094,1114.2625563464992,1106.9829186913464,1106.1566678833656,-330.2420482977211,100.7190056830062,-42.64346550026039,333.62278568479974,162.94324255930388
2.68,-1.6080211605842103,1.7050040157120516,0.578713280698203,-0.0084440956148397,0.011651249024479,0.0091088308069486,-0.0006536725017733,-7.79190613857127e-05,-0.0412947629941283,0.9991466692205178,0.0585644025469687,-0.0337822230623384,9.848945113858782,0.0154178994620138,0.0114424842834429,-0.0055428548465068,-1.1773293132766525,0.2753426353870848,1.2127668902183115,1106.3642761968072,1114.47373997864,1107.0531345787276,1107.5462719277516,-462.5488523569045,75.84069629347303,97.61384639305312,666.041407723074,162.9427572331251
2.6825,-1.2738119040033231,1.4676541447246447,0.3485228942635118,-0.0149303365910344,0.0153244266875696,0.0133453958659919,-0.0006639945379366,-6.016791119371802e-05,-0.0412862265374343,0.999147013478925,0.0549761203512205,-0.0351908523061744,9.845507635474451,0.0156631586728317,0.0114673816499513,-0.005370723304749,-1.1772853879509546,0.2753666845613315,1.2127589382598571,1105.1247765483095,1114.6417598279663,1107.4709879233117,1109.486874921981,-571.8758519109209,80.33251219653891,239.93419124849933,900.5446958844651,162.94237753705303
2.685,-0.7086810736842322,1.1852576717412808,-0.0171216632722157,-0.0197132636602549,0.0180947821491177,0.0156857726757083,-0.0006745488426144,-4.2679266795189994e-05,-0.0412744855201211,0.9991474911645958,0.0512127939082688,-0.0365318178679761,9.841783410739588,0.0158920364545723,0.0114883845145064,-0.0052212988469602,-1.1772401343856347,0.2753899125393695,1.2127528542868347,1103.5048969372526,1114.8754025396227,1108.25280553497,1112.0489954071738,-796.3313664658641,118.3163150138196,409.00990870523816,1214.4958734995985,162.94201877241105
2.6875,0.1335387290796244,0.8125256013558365,-0.5304925303745255,-0.0209864982109116,0.0205431151756407,0.0150267625678456,-0.0006838129350718,-2.2955168590849495e-05,-0.0412624444716901,0.9991479827989164,0.0472709020963459,-0.0377596312950681,9.837836365390162,0.0161026784867898,0.0115063112141176,-0.0050978463548749,-1.1771939310490227,0.2754128304817473,1.2127478890158319,1101.1431197159802,1115.2333414030356,1109.5160374668378,1115.5593542894787,-923.464223790526,136.2020141757086,490.3037118710122,1313.6870493925296,162.9416069422714
2.69,0.8772963343545662,0.4817206632715164,-0.9460188296825552,-0.0180039130871708,0.0219404825202768,0.0118512992784151,-0.0006902761540617,6.649912639709036e-07,-0.0412525918778381,0.9991483864528093,0.0431687463213649,-0.0388298487065866,9.833738958497532,0.0162938322284354,0.0115216811133496,-0.0050024906415114,-1.1771473723859942,0.2754359361249278,1.2127433956777531,1098.8875758183,1115.5564126105012,1110.704324094325,1118.6174306541363,-936.3599890524,122.29903365255528,460.56295511558415,1194.8794399070975,162.94127565110347
2.6925,1.5645846802778158,0.1348235710015595,-1.27173229118408,-0.0125979778810107,0.0227196621554204,0.0072877087881455,-0.0006939721699376,2.5386319590893514e-05,-0.0412456668024046,0.9991486716342308,0.0390171804815156,-0.0397264508815579,9.82956906365064,0.0164648657044051,0.0115346697287856,-0.0049362279675671,-1.1771006966892947,0.2754594600969128,1.212738909442284,1096.4613197707183,1115.8448365712984,1111.8188522424157,1121.5337514890143,-972.8545257315296,103.96750397499312,400.709075766062,1105.0635408212438,162.94095300213803
2.695,2.157096666842035,-0.2227339040360409,-1.4861815601037904,-0.0062726308797049,0.0228816646682266,0.002463228400799,-0.0006954205457379,4.694127957165228e-05,-0.0412429026099839,0.999148787254668,0.0349583166120351,-0.0404431298612849,9.825407669052808,0.0166157140446043,0.0115452113174766,-0.0048988563821523,-1.1770539381261027,0.2754837204619586,1.212733583429688,1094.0233031896423,1116.076250130376,1112.7078694731551,1124.1427483582424,-941.3481713594865,80.06988564902173,271.16918278618857,935.2000904212042,162.94063526657996
2.6975,2.6106814653949963,-0.5876142506255195,-1.5481456605044703,0.0007188873893772,0.0221826106484469,-0.0023528300319335,-0.0006939949004185,6.278346810436416e-05,-0.0412459823418876,0.9991486642066304,0.0310997696168693,-0.0409539297356312,9.82133645072097,0.0167468516666126,0.0115530715403901,-0.0048889972945129,-1.1770073585043779,0.2755091375807621,1.2127265962462463,1091.7545789139203,1116.2451859995435,1113.1746981563467,1126.2097519411207,-910.4389012856993,70.40112257081526,90.71743087678739,761.7733730937229,162.94032135915165
2.7,2.9928748058499774,-1.02136449267315,-1.4488559642098555,0.009457226199774,0.0203182575959729,-0.0080430950173577,-0.0006886126826704,7.170112713861697e-05,-0.0412547720995913,0.9991483086484356,0.0275212150044016,-0.0412269103157503,9.817434915735708,0.0168592594940909,0.0115579168147225,-0.0049042900729404,-1.1769610497048433,0.2755357408940434,1.2127178515319297,1089.4711086832135,1116.4282557432302,1113.161456627539,1127.951615223711,-732.1414153200903,74.33455865170959,-95.52394821867186,515.2293294526427,162.93994718899185
2.7025,3.1878103646808373,-1.3653304626904357,-1.2397157391780127,0.0171988964844524,0.0177852824741884,-0.0123651993465081,-0.0006766515727095,7.578385374540861e-05,-0.0412674313387527,0.9991477979587952,0.0242334187213906,-0.0412046770939594,9.813778081568298,0.0169543484822303,0.011559473096303,-0.0049416016249174,-1.1769147326561815,0.2755632051582491,1.2127075681820623,1088.09387183732,1116.616858792802,1112.6970784152531,1128.7858985883838,-413.70586487215377,93.61986265903599,-256.4464357192319,218.1874241057859,162.93963666670516
2.705,3.2756482888802974,-1.6687928129656364,-0.9396514039595848,0.0251225192176971,0.0140501238842301,-0.0154037856203449,-0.0006548620860946,8.002502961468675e-05,-0.0412814471441555,0.9991472365401488,0.0211854404181407,-0.0408221982922835,9.81043419964283,0.017033858485278,0.0115577156730576,-0.0049972683958804,-1.176868326958609,0.2755909021996775,1.2126956794240915,1087.402579358853,1116.8963550565254,1111.8792244489432,1129.0425523442402,-131.93822659168572,148.90595548186275,-400.8659095892738,1.5749527696698686,162.93932719717603
2.7075,3.287113490760873,-1.9579456699734112,-0.5371079940865362,0.0339752761013379,0.0083287586190181,-0.0170740752334948,-0.0006213488153178,8.600934479608e-05,-0.0412954592351189,0.99914667966022,0.0183887345408048,-0.0400407740952117,9.807462417162935,0.0170997139806579,0.0115530291703657,-0.0050675073588692,-1.1768218412770577,0.2756181504288655,1.21268222857877,1087.4341807043616,1117.3613885702111,1110.692748867307,1128.793773352232,150.21992669103705,189.51478686486047,-437.6246298775279,-166.10204891144704,162.9389575105858
2.71,3.2377219411195086,-2.1193342101299697,-0.2123673531435283,0.0407657669825303,0.002916820457311,-0.0169762932542172,-0.0005758828549327,9.067282576599233e-05,-0.0413089270324049,0.9991461482290128,0.0159404513072866,-0.0388536040524162,9.804911543980525,0.0171540012104385,0.0115461911317759,-0.0051486746006287,-1.176775124190306,0.2756446851338856,1.2126677289117218,1088.153678992308,1117.8439289908497,1109.6911012995556,1128.212042099683,409.0251444665769,204.74425746888735,-371.0515221531375,-288.54205281318787,162.93865139626547
2.7125,3.137160558687742,-2.185980296863216,0.0583904097262398,0.0473277882551706,-0.0027812077397261,-0.0159428951707401,-0.0005188866706959,9.058816150733597e-05,-0.0413210693159062,0.9991456734641616,0.0139376297645397,-0.0372698403272489,9.802819710104556,0.0171990368883654,0.0115382552038515,-0.005237309567155,-1.1767283317044104,0.2756707886878762,1.212652677708935,1089.4793064266946,1118.3851098575556,1108.8374912565412,1127.3510630881663,604.1618696871539,219.85721918959385,-299.8481329392753,-375.39693903773593,162.93834787824932
2.715,2.988367497522405,-2.1717902436025383,0.2663496330669485,0.0539099846732025,-0.0085843715185275,-0.0146878669436631,-0.0004508928276092,8.353355577378504e-05,-0.0413303815754255,0.9991453169264604,0.0124453506604786,-0.0353056161533861,9.801214083369302,0.0172373958753368,0.0115304525292534,-0.0053301855219541,-1.1766819833436435,0.2756967198593437,1.212637557147206,1091.174488340744,1118.9432150867976,1108.1918606348593,1126.3350574044944,729.491443312232,223.31885750885104,-195.89607022161127,-428.99801253535605,162.93804681008243
2.7175,2.76040739139315,-2.065943990993471,0.3925945446603497,0.0607469646934632,-0.0142085023911424,-0.0134269917056712,-0.0003744299561061,6.735820640278907e-05,-0.0413352936368345,0.9991451420679486,0.011520066218959,-0.0330202356369759,9.800110714931149,0.0172718408277784,0.0115241819962041,-0.0054243255501279,-1.1766363037988203,0.2757222577754219,1.2126226954544637,1093.126763643256,1119.5017041451,1107.8580109054333,1125.206073025489,872.3476053814786,247.95802470101225,-66.16875755007193,-510.1837852959417,162.9377489045987
2.72,2.361300557121662,-1.8515972611401197,0.4544814443088288,0.0690854242159997,-0.0202736797897563,-0.0119103363774257,-0.0002923433630392,4.141582314999802e-05,-0.0413373460218217,0.9991450825911672,0.0111799467695645,-0.0304843047375189,9.799514933699987,0.0173051768084269,0.0115210515216647,-0.0055169500826447,-1.1765911574618508,0.2757472517773957,1.21260768450048,1095.5362263676516,1120.1830052103028,1107.8610168471089,1123.7841384780145,868.4124250150674,257.903423406202,70.97963855053573,-527.3307662364117,162.93739515349034
2.7225,1.9047819021500971,-1.6202474825350563,0.4397949665636016,0.0757025103661625,-0.0245793148858785,-0.010641823293352,-0.0002050527770154,7.89394535509035e-06,-0.0413407624170064,0.9991449613249412,0.0113766766964351,-0.0277270893507995,9.799421940502455,0.0173401794106631,0.0115227614260499,-0.0056054575386953,-1.1765466351752178,0.2757718850934899,1.2125918897083938,1097.4688257683313,1120.791221262131,1108.212909098186,1122.569419194307,738.1919112522767,261.542179900067,210.37953333725903,-488.2948601231523,162.93710339562188
2.725,1.315798601556162,-1.362014239194588,0.3698280283658399,0.0812747549302984,-0.0279820355476499,-0.0095343760639046,-0.0001135991911628,-3.071858680330946e-05,-0.0413495696320033,0.9991446096262248,0.0120478723692205,-0.0247940529264496,9.79981737080061,0.0173795295175384,0.0115309619452262,-0.005687480474759,-1.1765030740927782,0.2757962190929385,1.2125753554893155,1099.2271859239129,1121.490716109803,1108.9129145137952,1121.3426641773988,724.31211590994,338.3343558082815,373.06027039995456,-538.8603989159607,162.93681453473656
2.7275,0.4858749718562946,-1.0530233260874504,0.2410050745789349,0.0858778027365244,-0.0308328770692296,-0.0086257326084742,-2.128575394699746e-05,-7.445455438781414e-05,-0.0413656160124844,0.999143949046872,0.0131743590043603,-0.0217763560507304,9.800678081588336,0.0174256951114172,0.0115471347929476,-0.0057610198284452,-1.1764603807419092,0.275820048106007,1.212558729859754,1101.090386347881,1122.4828930411725,1110.0782104501857,1119.8751171997276,640.6989749833565,391.4225422946485,460.6704965371234,-534.8977078229497,162.93647075734526
2.73,-0.2618876244340684,-0.8149247574626604,0.1112043482377114,0.0872872630120263,-0.0322652024327066,-0.0081413200881866,6.809215350224573e-05,-0.0001248970210913,-0.0413874696391256,0.9991430374239078,0.0147607003088903,-0.0187764321506053,9.801973282696812,0.0174808258738651,0.0115724533879445,-0.0058244774917391,-1.1764180133382016,0.2758430850405656,1.2125424837327123,1102.4306807988296,1123.4478288212763,1111.2162669964807,1118.668175638284,492.1742399310565,407.3329141253994,455.8359742026466,-477.4152528926253,162.93618616476292
2.7325,-0.989559833370062,-0.6078535898823766,-0.0235675628092082,0.08564309124502,-0.0333042626070103,-0.007781249187375,0.0001512027115442,-0.0001829281572575,-0.0414123745898808,0.9991419887037672,0.0167914777973029,-0.0158901742585717,9.803665819007785,0.0175466344802589,0.0116077253615339,-0.0058765504574677,-1.1763756548951243,0.2758652234959274,1.21252695689691,1103.551257547536,1124.5195576117994,1112.3573903211989,1117.4880409352645,411.1069168902847,431.47419748926046,428.6522776837592,-466.19399605434495,162.93590279857148
2.735,-1.6348989736638095,-0.4252276114673176,-0.1469278612393357,0.0813559548952958,-0.0344232143800376,-0.0078260883988084,0.0002255757701438,-0.0002477215442869,-0.0414379554576302,0.9991409027352728,0.0192124714247541,-0.0131988934597848,9.805713427401487,0.0176243270521311,0.0116533070971018,-0.0059160950602095,-1.176333208082168,0.2758865896192023,1.2125124496548891,1104.4862153832808,1125.6051998087223,1113.3595283848995,1116.3372056580124,327.2011820776931,409.44890683237605,336.21531830538066,-449.5032191200304,162.9356198020158
2.7375,-2.1115666501165924,-0.2647639419284543,-0.234799119122817,0.0743180823009361,-0.0357397165861866,-0.0087019830001742,0.0002917428148414,-0.0003161094098193,-0.0414627852944165,0.9991398403167588,0.0219178371650033,-0.0107267863464379,9.808069939406318,0.0177145880251409,0.0117089620372983,-0.0059420053638576,-1.1762904840883879,0.2759077078239265,1.212498453681332,1105.1872634579247,1126.5668021459614,1114.0384669127259,1115.2405248396642,252.9825977931352,353.89747793058064,194.29405025501688,-459.91230742126015,162.93533634148423
2.74,-2.4371137881986407,-0.0929339608750711,-0.2743057307627753,0.0643549401431548,-0.0369893019144489,-0.0101649008636581,0.0003538189631691,-0.0003831020504277,-0.0414866011318659,0.999138813157998,0.0247611372097927,-0.0084279125327042,9.81068645343814,0.017817573786377,0.0117737782435197,-0.0059531290504613,-1.1762472912684054,0.2759296547715027,1.212483804882016,1105.7511283722467,1127.3746871983756,1114.3309986361746,1114.037644120906,162.4692288723543,213.45733089975053,7.973268827118032,-410.67051012751983,162.9349943045298
2.7425,-2.503467298275836,0.0283627863216148,-0.2413193238419405,0.0563230983008667,-0.0371538944531379,-0.0111951607767921,0.0004155169092625,-0.0004430864954543,-0.0415087610989422,0.9991378495277506,0.0275834711163293,-0.0062623629657469,9.813512704389236,0.0179329493505199,0.0118461941940898,-0.00594823015174,-1.176203475526096,0.275953332741426,1.2124675824427236,1105.9996096022865,1127.63408880046,1114.0783332568615,1113.1871722890266,60.09384162594088,-0.1631852077935071,-207.777670010414,-291.6389464891443,162.9347065961779
2.745,-2.399486436303608,0.1152702649058535,-0.1354372775520133,0.0497428307807597,-0.0366019086070087,-0.0120245944279793,0.000478111352139,-0.0004923730620153,-0.0415283154811399,0.9991369910456463,0.0302663740203632,-0.0042332097767491,9.816498288700394,0.0180598845860414,0.0119241945579257,-0.0059261943996905,-1.1761587021672129,0.2759789740311433,1.2124495764310743,1106.0515975803764,1127.3738712723366,1113.2921102861224,1112.5794493884603,-4.4320223158593794,-193.80371226680336,-398.4722649095687,-189.5009278747279,162.9344146418973
2.7475,-2.20480696479231,0.1664110529622897,0.0292475386637625,0.0446473956324461,-0.0360130607229424,-0.0126132374987503,0.0005412742983261,-0.0005306989251272,-0.0415451399754367,0.9991362443338224,0.0327618104782553,-0.0023681518844386,9.819593857872528,0.0181970665538273,0.0120055956710014,-0.0058863514897778,-1.1761125715703242,0.2760063937963801,1.2124302403444323,1105.9774494907072,1126.665070239126,1112.0859719323137,1112.239667649653,-50.29272532879184,-386.1889705874629,-570.5585245399228,-56.2673613554137,162.93411797186536
2.75,-1.9637784919282009,0.1701674363234682,0.2565527310498534,0.0412845862566114,-0.0355664985703585,-0.0127413607866741,0.0006033035256739,-0.0005609652845071,-0.0415600426512146,0.9991355763530982,0.0350879014267399,-0.0007148313606702,9.822752555781983,0.0183428044636805,0.0120883141800399,-0.0058287136433314,-1.1760648890626764,0.276035181189868,1.2124103803560575,1105.8001339537325,1125.442926419399,1110.439317663423,1112.2981125816832,-91.15115024742605,-640.5066967968332,-799.8444242610901,133.44012128145835,162.933814172682
2.7525,-1.680529856553073,0.1169129849799743,0.5818303705762069,0.0381022181590668,-0.035208013216298,-0.0123406537734033,0.0006614972080232,-0.0005890471901167,-0.041574215827941,0.9991349368942724,0.0373257576977376,0.0006664438295614,9.825931456507304,0.018495195500641,0.0121705693784425,-0.0057541371031297,-1.176015526610164,0.2760647986556583,1.212390900139022,1105.52169373947,1123.462536755142,1108.0867498110083,1112.9068682560603,-108.31540312683732,-795.4376535857306,-899.1006181242675,318.3409922558507,162.9334397360554
2.755,-1.4690483341433231,0.0220704954218643,0.8739286352791042,0.0350448363832068,-0.0348384982853426,-0.0111585317782272,0.0007129914972367,-0.0006197057898247,-0.041587818803426,0.9991343194353188,0.0395391722100577,0.0017155471541354,9.829093405154785,0.0186523849677848,0.0122509791322034,-0.0056642268247846,-1.175964653660386,0.2760946830617187,1.2123724643875595,1105.2585569380983,1121.4657381514708,1105.9438145728016,1113.8898175429624,-110.65299644760906,-847.2769616990444,-856.4959496233498,484.294089166507,162.93311849865665
2.7575,-1.2853695699071919,-0.1267986464828862,1.1507470280010037,0.0316443634843995,-0.0340441858900545,-0.0086043049229591,0.0007560170672066,-0.0006547018423381,-0.0415994052697728,0.9991337850287124,0.0417367550694543,0.0023953276906577,9.832208447264659,0.0188127753858572,0.0123285959626607,-0.0055612162258772,-1.1759128578715718,0.2761243027801469,1.212355577752505,1104.968428757232,1119.2261519466467,1103.8042700628916,1115.3283387018928,-137.39666054852006,-1012.3475211354842,-891.432047730799,705.1742523019561,162.93278682603273
2.76,-1.0929490145173935,-0.3578006606566009,1.4178437926540215,0.0281144780582723,-0.0333136503470292,-0.0042197807621704,0.0007902190102026,-0.0006953512699415,-0.0416060487734804,0.9991334555425646,0.0439217792159805,0.0026996486474209,9.835254462593264,0.0189751167627116,0.0124028879123861,-0.0054479048087697,-1.1758607477163308,0.2761529838471969,1.2123408652210228,1104.5715736353557,1116.4040005457928,1101.4866543341475,1117.4156888044724,-157.12869457855808,-1036.3051431244667,-774.4537261170922,786.3492559509647,162.93237610113331
2.7625,-0.954470377358682,-0.5714436072044419,1.5564119541018735,0.0259385091914466,-0.0336430114348404,0.0001033002033568,0.0008162919373349,-0.0007415979848183,-0.0416060103535497,0.9991334032480396,0.0460738684261358,0.0026454333184225,9.83821792553679,0.0191384954936156,0.0124737287871425,-0.0053273704119107,-1.175808616155372,0.276180169700669,1.2123283494532806,1104.1827852843392,1114.0446262310243,1099.932001432306,1119.2600849816479,-169.42494036475543,-921.7713415508766,-512.2168258811253,704.3257703074837,162.93202299868847
2.765,-0.835474143969112,-0.7637843693509234,1.5837849329199076,0.0244134478856872,-0.0354206217033277,0.004828250797166,0.0008362759519865,-0.000791265788523,-0.0416014794221639,0.999133536514555,0.0481335146634716,0.0022779420624908,9.84109420979517,0.0193022564441709,0.0125413024115078,-0.0052026698679842,-1.175756442819771,0.2762061309892154,1.2123170438397106,1103.724448933532,1111.7951438380387,1098.925570204742,1120.9373176560096,-192.68718617059176,-865.0611204166308,-297.3734783007394,605.458781714846,162.9316586645
2.7675,-0.724881796329296,-0.9016543713624574,1.511851954958596,0.0230502381118675,-0.0383688294724682,0.0096781197307529,0.0008523070537758,-0.0008430476750057,-0.0415960165026456,0.9991337057562554,0.0500616227137185,0.0016481330976514,9.843887012526515,0.0194659886727411,0.0126058030140482,-0.0050767196245169,-1.175704502318186,0.2762317289065111,1.2123060625034983,1103.2193493534862,1109.7193206289412,1098.4451340408023,1122.287378890222,-205.03592460127476,-769.8644682062586,-60.20649572228778,431.7595370990695,162.93128525619974
2.77,-0.6068275290449981,-0.9379505086377607,1.327568174128971,0.021226913517891,-0.0421117411248705,0.0140450963433215,0.0008658431545133,-0.0008992120602909,-0.0415915880074576,0.9991338255849072,0.0518932038399769,0.0007990823311664,9.846607282138617,0.0196295013066534,0.0126671812081199,-0.0049523042724847,-1.1756530519749848,0.2762575935808394,1.2122953874095799,1102.6992693105256,1107.9458214970075,1098.6245377261305,1123.096115341505,-214.1460944897108,-689.4384944025352,223.97366393679957,220.44472116468128,162.93090168876276
2.7725,-0.4322450401487377,-0.8430110413504491,1.0065709535848255,0.0182603715732023,-0.0462536822868724,0.0178929017626117,0.0008788905841052,-0.0009629146535514,-0.041587940924485,0.9991339015645896,0.0536832203645927,-0.000212323125247,9.849272411726256,0.0197927614234083,0.0127250591814915,-0.0048319851518313,-1.1756016990089255,0.2762838613835005,1.2122854515386223,1102.1486188810377,1106.2721281569286,1099.5650023604862,1123.3896024960454,-172.6635548551749,-526.8744200490004,451.6801730972116,5.92312849180429,162.9304317944103
2.775,-0.2522927451949527,-0.6532410525150932,0.6874857008828954,0.0161195289444454,-0.0488309650559895,0.0197819921630673,0.0008928370551435,-0.001034840505003,-0.0415834506213944,0.9991339984922832,0.0554410816462081,-0.0013410863265611,9.851905392894238,0.0199558018545333,0.0127787886979466,-0.0047178977853373,-1.1755499920436012,0.276310366740861,1.21227674161231,1101.8359515362497,1105.3114493967623,1100.8829385916165,1123.125730983964,-75.31006657986995,-289.27867967605084,612.9294963506385,-182.54500867633783,162.93003470748445
2.7775,-0.0497129547736581,-0.3716690050251152,0.3542897749406258,0.0155538158871627,-0.0503407079828245,0.0204553872551483,0.0009074011844062,-0.0011144308192798,-0.0415773938548971,0.9991341462396934,0.0571552361810548,-0.0025735782282392,9.854532926834418,0.0201185992328299,0.0128275745350974,-0.0046116655892921,-1.1754976782474813,0.2763370156186876,1.2122698317295912,1101.7720685481383,1104.8257347585484,1102.6296498422391,1122.4768774526635,41.567006781858176,-109.36303370198574,829.0109642997672,-334.67464699026567,162.92963603251863
2.78,0.1881691230644687,0.0342138766770939,-0.0238229108443687,0.0163748267302773,-0.0509772394235763,0.0201171214409239,0.0009226437899271,-0.0011986404756691,-0.0415705666684569,0.9991343143508868,0.0587668341740487,-0.0038890196689151,9.857183462541377,0.0202810698372742,0.0128705022204677,-0.0045142083878061,-1.1754448200152987,0.276364085807667,1.2122648229676947,1102.0437865701588,1104.7646342282524,1105.0279934131156,1121.4523577490127,154.54595869195012,56.9003956296872,896.5826933035108,-391.43510460555353,162.92916202301933
2.7825,0.3613166148958977,0.3983388449027873,-0.3017622286800219,0.0175919095016421,-0.0505417083956005,0.0190316312690945,0.0009400414717769,-0.0012816847756594,-0.041563844513586,0.9991344710435586,0.0601637654882813,-0.0052389468261222,9.859884959492318,0.0204431207971555,0.0129065128771654,-0.0044255280130594,-1.1753917878312357,0.2763921026906278,1.2122607559949072,1102.544798341598,1105.1102367366968,1107.1125633087572,1120.5197019296359,238.19349078044576,214.70291690944123,810.3717659833992,-369.3772386935586,162.92877618973793
2.785,0.4930629799500645,0.7514774939373317,-0.5303585181866363,0.0188731962338702,-0.0490065722664105,0.0172827279505917,0.0009617542351127,-0.0013601050686516,-0.0415571231689284,0.9991346221646932,0.061281006784819,-0.0065579521311584,9.862661720108992,0.0206046188130141,0.0129344619059203,-0.0043447350086377,-1.1753384470844797,0.2764214859563168,1.2122564607953463,1103.2347540240612,1105.8381488127995,1109.0798522430323,1119.605471555545,285.08303709182354,356.07666094634476,739.9608006659194,-354.62071859002054,162.92840756293435
2.7875,0.5844332582198032,1.0676858659172115,-0.7192271894124754,0.0201096603282133,-0.0464467679037867,0.0151948762241285,0.0009899352769297,-0.001433822523772,-0.0415486674108124,0.9991348380027264,0.0621220231501966,-0.0077769846209964,9.865531861012204,0.020765372431284,0.0129532604643964,-0.0042700587583881,-1.175284323965084,0.276452313764033,1.2122511579562116,1103.9702135270572,1106.8906200414283,1110.8123673120867,1118.7465983366856,277.91746664370885,505.5595112088321,613.3128052577962,-324.83033648564526,162.92805962726283
2.79,0.6213970207994197,1.31003980496723,-0.8717477244977706,0.0215329954863666,-0.0426607036657832,0.0132178746060348,0.0010262360507928,-0.0015023175403031,-0.0415364540101756,0.9991352028951848,0.0626838975362655,-0.0088366610628204,9.86850580208664,0.020925136056164,0.012962139384887,-0.0041987986609431,-1.1752293166924084,0.2764842355249976,1.2122442992774896,1104.6243413572795,1108.3659463688439,1112.1464162693214,1117.9813198731167,245.31394438659456,749.5335281903568,482.46670740096425,-309.3759036301501,162.92774438841147
2.7925,0.5947707241256214,1.4913048223211884,-1.0333856167320632,0.023798951265223,-0.0372967951651503,0.0113477811503265,0.0010709383934655,-0.0015639144961533,-0.0415207904066866,0.999135707919173,0.0629439117976506,-0.009705334764956,9.871584565990089,0.0210835868628026,0.0129609562746515,-0.0041274928852837,-1.1751737908577435,0.2765165659293347,1.2122358613373998,1105.19678324899,1110.6382876823802,1113.2247008490915,1117.199718818535,169.93943258762917,907.8005931481777,311.89818212629444,-260.1425955135311,162.9274125425889
2.795,0.5103600485560874,1.547843252004906,-1.1603501804860563,0.0258090558219196,-0.0328875481882313,0.0096143639710845,0.0011211816236148,-0.0016190386358961,-0.0415045466006381,0.999136237942858,0.0629253403179133,-0.0104122248644295,9.874757834718146,0.0212403210271911,0.0129503358526617,-0.0040522765007827,-1.1751181754113527,0.2765484053315243,1.2122263629725378,1105.4740385202178,1112.9049493345847,1113.7059071799529,1116.680606895549,78.86437123943492,957.2621162271136,122.0486611321147,-178.0667480946742,162.92717981614248
2.7975,0.3669192461089814,1.5183756873586287,-1.2775400911226675,0.0271740965548914,-0.0289903154607689,0.007049284411842,0.0011720948050042,-0.0016700500560679,-0.0414921719231863,0.9991366107703074,0.0626934563236104,-0.0110262574893447,9.87800300777098,0.0213948744947531,0.0129316155489497,-0.003969134058431,-1.1750623920065668,0.2765788131796353,1.2122163716797827,1105.5911051051871,1115.4245982635157,1113.834944154752,1116.3093850780615,37.84226740667435,1120.7604426392816,1.610918644928352,-131.61002182236209,162.92699724380958
2.8,0.1433947710341119,1.4081980973771429,-1.3915361113473508,0.0278349699208511,-0.0249423531950599,0.0033546858138871,0.0012209930212746,-0.0017166255581933,-0.0414866118739569,0.9991367077758684,0.0622611462199628,-0.0115782132538744,9.881285522575892,0.0215468198899067,0.0129065433524102,-0.0038739611051323,-1.1750063050980755,0.2766072467329493,1.2122058099581448,1105.6632498572512,1118.5087515477815,1113.7139617731775,1116.0225567864372,34.359007470673035,1103.9907763998763,-72.2056504677263,-83.61052227432428,162.92683977690484
2.8025,-0.0717125729741295,1.2725645891393336,-1.4496514903925124,0.0278345849413115,-0.022128100350574,1.2685773730056207e-05,0.0012676966543448,-0.0017568988627804,-0.0414884363004257,0.9991365085194784,0.0616111786320495,-0.0120540546944757,9.884558917238222,0.0216957704015173,0.0128769930591639,-0.0037627470665878,-1.174950162446317,0.2766337386988791,1.212194342242981,1105.7629001425407,1120.9445521455154,1113.4739159024134,1115.89133246669,66.34868914061514,907.6268730258755,-109.96163672048404,-36.61767506018883,162.92676139249303
2.805,-0.3016778183507091,1.1087485919223279,-1.4505605566399227,0.0275358399367745,-0.019821161589563,-0.0036911613021337,0.0013114791543955,-0.001790910922062,-0.0414982334523336,0.9991359895586028,0.0607668530064651,-0.0124522737786239,9.887765215493875,0.0218412762666285,0.012844805938641,-0.0036318016293345,-1.1748942452451923,0.276658628632619,1.2121823036980708,1105.9949933029543,1123.0468859129107,1113.164153589575,1115.8394684111363,121.09525233072677,764.9052428768008,-130.30982567616144,-10.37601140374158,162.92673837478307
2.8075,-0.532562783450679,0.9285235911116376,-1.3907845367817349,0.0270062924368781,-0.0177241916499777,-0.0077634945026758,0.0013515577686432,-0.0018182854652082,-0.0415165586105731,0.9991351301027726,0.0597457821649288,-0.0127761836913415,9.890836775400864,0.0219827980427244,0.0128115268178823,-0.0034778164269141,-1.1748385159576706,0.2766825440433983,1.2121699508127994,1106.3683764041944,1124.7690783598991,1112.8223667740326,1115.8394524096711,180.48787983666827,584.1523882249146,-143.02355334066607,13.321007348168052,162.92676075022467
2.81,-0.7461304469076548,0.730187286603638,-1.2487211831131564,0.0258445436483193,-0.0156516219140113,-0.0119130384493623,0.0013893151446987,-0.0018375587804006,-0.0415434389464397,0.9991339310167698,0.0585448300405959,-0.0129904721210893,9.893698343506042,0.022119657110433,0.0127781868964489,-0.0032980209902039,-1.1747826490455349,0.2767066187250337,1.2121566051903816,1106.8974327021376,1125.9676478540352,1112.4490358228716,1115.9060734478771,254.38446596836545,402.89880149840377,-170.42247737036087,49.6902308666005,162.92683643836176
2.8125,-0.9505478844912256,0.4714891828279878,-0.9880421717141248,0.02306358564006,-0.013285126741428,-0.0159782196965251,0.0014256224910677,-0.0018497377618582,-0.041577015246199,0.999132467957993,0.0572126018116049,-0.0130710421009653,9.89626909717852,0.0222509942114872,0.0127452124509936,-0.0030904531221161,-1.1747262706500543,0.2767316551123563,1.2121416748576594,1107.640298734036,1126.7835723673911,1111.9702543871808,1116.0879035640044,276.3660190958094,199.79211189393453,-177.56638587712055,87.27003642661843,162.92698707375587
2.815,-1.0536549412411016,0.2434583705344555,-0.7112974262451183,0.0194835039620449,-0.0118560691122959,-0.0181870526066019,0.0014595648305302,-0.0018585867108575,-0.0416126493181568,0.9991309281351504,0.0558560704726629,-0.0130297428567358,9.898465666955596,0.0223757886749864,0.0127124762551164,-0.002854204468907,-1.1746687406099412,0.2767575164995308,1.2121254894653664,1108.2792627976166,1126.966608413505,1111.5612038934862,1116.3424236300102,244.64075109108828,-19.441003581369348,-158.6375581244317,123.21809457330608,162.9271613682412
2.8175,-1.0708559667251216,0.0175552046461824,-0.3985048201812805,0.0150859694838776,-0.0112244414377985,-0.0192449089770178,0.0014910102349026,-0.0018656623955561,-0.0416454388371283,0.9991295113031092,0.0545399284204808,-0.0128669896008662,9.900206214342099,0.0224928942843994,0.0126795414386842,-0.0025895417811463,-1.1746096575440867,0.2767840342744021,1.212108877215272,1108.8635024894916,1126.6863673494845,1111.1770665965587,1116.7039940368709,233.44039495441888,-212.25351326525464,-153.91366023173177,174.77824301409245,162.92738531156195
2.82,-1.005820247405605,-0.224015264149537,-0.0103705122911676,0.010152053387513,-0.0112757420482572,-0.0196191744770708,0.001520113148655,-0.0018712117507026,-0.0416728113766465,0.9991283223624552,0.0533041487383574,-0.0125802848429923,9.901413824300567,0.0226011049765917,0.0126459297687428,-0.0022981478261208,-1.174549216254506,0.2768112541390282,1.2120930128146183,1109.4464647723887,1125.9053408471786,1110.7916355923276,1117.2163148450807,190.4447859569572,-343.07667074601756,-124.12061301669452,188.27240462886587,162.92771071226915
2.8225,-0.9150075817770906,-0.376861314914776,0.3056783024024038,0.0073828770789477,-0.0123415792857779,-0.0194403342639402,0.0015462931727661,-0.0018777287487228,-0.0416948853436166,0.9991273517245362,0.0522344367984574,-0.0121813477495245,9.90201954804683,0.0226992963129195,0.0126112854828752,-0.0019833356480545,-1.1744873495946067,0.2768392333966784,1.2120791423550592,1109.8157264192764,1124.9709839957543,1110.5564635314752,1117.6453560600153,121.78235477494214,-407.15477895593693,-75.67222083920969,153.97096401251343,162.92802880782156
2.825,-0.8452528498491056,-0.4521111514566383,0.5929775464043228,0.0064235066356489,-0.0144472418069932,-0.0185405541015962,0.0015688201315831,-0.0018888798055084,-0.0417125694245612,0.9991265557575788,0.0514395294218839,-0.0116856594864414,9.901965966488342,0.0227866537075193,0.0125754308012531,-0.0016499197339709,-1.1744240591211723,0.276867784381885,1.212068134141359,1110.0553765462635,1123.8695669523988,1110.4132744881315,1117.9861696651433,72.99752197555036,-447.2357479991483,-45.68548697639114,111.10108873931732,162.92839553529504
2.8275,-0.8339748369645242,-0.4513582535193276,0.838540709336357,0.0065063163086504,-0.0167456035987797,-0.0167638732050911,0.0015876650952895,-0.001907926904488,-0.0417254367292573,0.9991259470841352,0.0510180973467533,-0.0110972606795266,9.90121041390512,0.0228629056418591,0.0125383974631092,-0.0013039190983003,-1.1743597104978467,0.2768964917136474,1.212060361320897,1110.180714029154,1122.7348052557586,1110.3280360965932,1118.2008615037118,19.81687399752488,-438.3607789940563,-28.852903429424877,53.17509058563815,162.9288027380229
2.83,-0.9182474224196604,-0.3623464565159861,1.011319294962662,0.0066444967192919,-0.0186310077776161,-0.0140106739768336,0.0016032874534451,-0.0019371875729948,-0.0417326255319228,0.9991255582729196,0.0510468525055251,-0.0104134686549901,9.899727502259108,0.0229284502804199,0.0125005576498457,-0.0009521892113267,-1.1742947629194571,0.2769251166792274,1.212056059736986,1110.154460916251,1121.6777630574284,1110.2690099709844,1118.2520451180715,-50.26706384151218,-425.9746907208046,-34.48742989503517,-1.0155657972973346,162.9292589088545
2.8325,-1.1192416246033603,-0.178419469995813,1.1119069163906825,0.0056076014509296,-0.0200744187263959,-0.0101465024125202,0.0016144675368612,-0.001977253412289,-0.0417357011403932,0.9991253265010576,0.0515654109985392,-0.0096682699763741,9.89751106750564,0.0229843771651468,0.0124627929830211,-0.0006019522081109,-1.174229884553268,0.2769532700190482,1.212055161988879,1109.9293787099466,1120.6049318021546,1110.155598947118,1118.1957836747251,-116.1915415604678,-355.1777404615753,-59.22589132983502,-20.348810123960423,162.92986260823113
2.835,-1.3351979771796465,0.0105572476435172,1.0986006552593963,0.0032567162885579,-0.0205048815353063,-0.0067573141650974,0.0016190488784283,-0.0020259608600729,-0.0417401687837006,0.999125029967492,0.0525539251598896,-0.0089184249069642,9.894575266435828,0.0230324425294046,0.0124265352654737,-0.0002603799866457,-1.1741657301747743,0.2769806177991533,1.212056843451882,1109.5735032084488,1119.9018743551208,1109.9728805143352,1118.1503010674517,-176.87508822905707,-247.21502977604885,-100.11393118611736,7.537008201370715,162.930411909732
2.8375,-1.5421352934719763,0.196309510131878,0.9866057320743556,-0.0007135089079479,-0.0200410399081237,-0.0033372599360346,0.0016157676158068,-0.0020784874878565,-0.0417500295417159,0.9991245126306746,0.053932391449492,-0.008207818304853,9.890954641787095,0.0230751219293843,0.0123934292893824,6.567922561630075e-05,-1.1741029263066476,0.2770070231831818,1.212060146887715,1109.045003268801,1119.3688566532744,1109.6550292911875,1118.2334687157322,-271.5304989838445,-215.67729826215788,-172.65274088072513,84.37004230954878,162.93100781030887
2.84,-1.7106735791978935,0.3688459637077834,0.758354867575239,-0.0066852556610892,-0.0183451014774498,0.0002413951631084,0.0016033106440966,-0.0021303880222453,-0.0417656828014988,0.9991237679439796,0.0556205895352715,-0.0075836972068724,9.886703018416522,0.0231154904442257,0.0123651044511652,0.0003697837572867,-1.1740419077448323,0.2770322002089515,1.2120648794897215,1108.2158507135296,1118.82348786381,1109.1096168099316,1118.5721512789992,-337.81909072629327,-207.10011315871688,-221.550843438748,163.6048891666977,162.9317745089888
2.8425,-1.7453047071769383,0.4432638002283963,0.5176628930982679,-0.0121490247604636,-0.0161320091195458,0.0020477633355971,0.0015817589944409,-0.0021804029934492,-0.0417858953379636,0.9991228485830764,0.0575916798662428,-0.0070653331949849,9.881891470505522,0.0231569433464638,0.0123430937699414,0.0006458648290569,-1.1739825434659468,0.277056015112374,1.2120716343610236,1107.3559078151695,1118.3333560874808,1108.5472750739937,1119.0514931615655,-383.6755384261064,-236.55970464008757,-231.94390546635327,215.31510431062452,162.9324543525423
2.845,-1.643635345801576,0.4298143532486268,0.267192942900056,-0.0175382720814832,-0.0136787063539616,0.002344299291122,0.0015522803069764,-0.0022287691806955,-0.0418067892952356,0.999121913159432,0.0598387022318093,-0.0066512112494929,9.876606299434137,0.0232029755523784,0.012328586717115,0.0008884730145385,-1.1739242085846873,0.2770786203013646,1.2120808505466327,1106.297473021399,1117.6406893406095,1107.9498972825995,1119.6487268005524,-459.9890959012653,-334.55272348169984,-227.5699448643585,236.00596621300204,162.93317363540623
2.8475,-1.4260606338827653,0.3483488788838948,0.0386810728000226,-0.0223701262406848,-0.0115698459754834,0.0018143648552717,0.0015157879058747,-0.0022752633444715,-0.0418237235289182,0.999121154564354,0.0623370644134921,-0.0063462898141268,9.870946459694084,0.0232569354945132,0.0123223172862924,0.0010931348791598,-1.1738661383432267,0.2771005448147837,1.2120923974360824,1105.0559623356635,1116.6605924700723,1107.409425349672,1120.2315229926307,-540.4628805377457,-479.83192793072817,-177.79014692182875,198.06544739276856,162.93392293412495
2.85,-1.0840217526434872,0.2103266792057147,-0.1386460797600969,-0.0259540357157569,-0.010341233984411,0.0007746439552561,0.0014741381705909,-0.0023183115166274,-0.041833269533756,0.999120717566007,0.0650264368345471,-0.0061380557096849,9.865020144169929,0.0233218656112216,0.0123245141392939,0.0012566358273115,-1.1738079229436915,0.2771223778816991,1.2121057496816472,1103.5951586187102,1115.2415297009559,1107.0609465479906,1120.6390540375164,-681.4145318584142,-726.6771940592362,-79.32771689047682,103.13823420142619,162.93470466518147
2.8525,-0.5657465753064961,0.0283864497049031,-0.2783301682611386,-0.028528231248644,-0.0103129112551002,-0.0006989728489306,0.001429722784611,-0.0023540864810351,-0.0418343575291555,0.9991206533244388,0.0677941869874124,-0.0060042560238446,9.858941033105241,0.0234004312328951,0.0123348892273807,0.0013773114106103,-1.1737500484423775,0.2771442657489537,1.2121203729995476,1101.6488896763715,1113.027206499776,1107.0127867652195,1120.7472141636379,-727.6508630331291,-879.09121557138,58.174773666998014,-39.05185641233485,162.93567472400645
2.855,-0.0756239061422587,-0.0989036247684538,-0.335173079263739,-0.0292073275090631,-0.0113461242638113,-0.001929437267766,0.0013868622386992,-0.0023767171634357,-0.0418279013287728,0.9991209323636618,0.070479662097902,-0.0058843717833957,9.852823989152713,0.0234948768738682,0.0123526143167355,0.0014551858434646,-1.1736932472514765,0.27716649805633,1.2121358528532047,1099.9569043035447,1110.846073623099,1107.3518204163256,1120.4437947554547,-660.9487040164508,-902.3453941418855,215.58664642043829,-201.63207325327195,162.93650526829776
2.8575,0.4373679746284332,-0.1662141219967892,-0.3420375631485261,-0.0283619793633874,-0.0128351039607456,-0.0028683983356126,0.0013510200045352,-0.0023821240684224,-0.0418146462533722,0.999121526344534,0.0729519488055296,-0.0056914219745447,9.846780035615872,0.0236069526151084,0.012376239722861,0.001491924557553,-1.1736379008295883,0.2771895771973709,1.212151441677645,1098.3441461562893,1108.5154795290669,1108.0907199973217,1119.7390537973715,-651.6704440727292,-1002.3430417083304,393.92356459389634,-374.2450762667056,162.93735293188558
2.86,1.041401009860978,-0.1600305401586085,-0.312651907562839,-0.0257376780239525,-0.0146398742873648,-0.0032963547516802,0.001326482932825,-0.0023725309969212,-0.041796479711192,0.999122344804451,0.0752020499053381,-0.005353014988076,9.840911263633757,0.0237376780028861,0.0124038217161985,0.0014907005885165,-1.173583276475165,0.2772141990872138,1.2121657420978755,1096.698552083181,1105.8343584145575,1109.321438239295,1118.5725693741213,-528.7318238597989,-923.2913835364627,474.53637364812016,-446.06816618603887,162.93838241325983
2.8625,1.51303641009891,-0.0856336968460267,-0.2691912083013029,-0.022479762411594,-0.0159040759305853,-0.0033368110850723,0.0013148737783846,-0.0023537075542831,-0.0417757463725875,0.999123273392618,0.0772914096469167,-0.0048424000709309,9.835307439439628,0.0238871424970788,0.012433046601697,0.0014562445684315,-1.1735281232038677,0.2772408514417108,1.2121776003100324,1095.70048703699,1103.8990226113842,1110.4634018655624,1117.5087129664412,-299.38876855001376,-674.0441240726341,426.07748675774786,-396.3446688714344,162.9392446008108
2.865,1.9311217343147251,0.0394377741264022,-0.2113890342358217,-0.0183843962098775,-0.0163400762072011,-0.0036701197811451,0.0013155470567064,-0.0023317063230529,-0.0417539935585822,0.9991242340815014,0.0792892671038081,-0.004173263535506,9.83004331454027,0.0240544376106781,0.0124614297744437,0.0013947081341069,-1.1734712310151902,0.2772696396643869,1.21218630392917,1095.2016082404307,1102.464137794194,1111.451825673084,1116.590846029764,-109.61891989059272,-473.018661595198,326.1613844853469,-311.5533887654304,162.94010356798077
2.8675,2.290752685594661,0.181761208737478,-0.1396580648423891,-0.0136396576465323,-0.0159016706620132,-0.0044304355368003,0.001328296974847,-0.0023118932875121,-0.0417339516447672,0.9991251006674872,0.0812532118824812,-0.0033471264912474,9.825176201448464,0.0242376844733308,0.012486736686812,0.0013132285156664,-1.173411707629162,0.2773002912761461,1.2121911090618152,1095.1523924375372,1101.5339293034083,1112.0942087879891,1115.950946022614,84.75561868845215,-241.1528509773285,129.61906291634753,-167.36429328503067,162.94095372805077
2.87,2.560158198059506,0.3134666347830459,-0.0494049490026248,-0.0082759931197406,-0.0145728841242105,-0.0054590261516792,0.0013511424617279,-0.00229695328334,-0.041718901378907,0.9991257323387503,0.0831936224081342,-0.0023991047254692,9.820744982836354,0.0244342729568734,0.0125072620451894,0.0012195551586848,-1.1733496305823723,0.2773318281033979,1.2121917221597225,1095.6253863338732,1101.2583735393075,1112.0999209876657,1115.7540245633388,309.0390199541682,29.815721019259126,-177.0605986612774,16.13188967603526,162.94178577199148
2.8725,2.745892887989739,0.4285478497946714,0.0708043243480764,-0.0010943157020983,-0.0122136964146308,-0.0060542705290442,0.0013813967848987,-0.0022870331635033,-0.0417094800913748,0.9991261052177388,0.0850772305785207,-0.00137813265809,9.816769549974383,0.024641235714732,0.0125219045162776,0.0011214366846483,-1.1732856712206359,0.2773631731645891,1.212188660839628,1096.697587537308,1101.6830079085044,1111.2089057946828,1116.0316054709942,454.3493423733804,275.6674343594172,-478.17543934212256,169.13616601696407,162.94275452441323
2.875,2.7553935720996576,0.4790930758215446,0.1644001478979697,0.006008999049431,-0.0100563123876214,-0.005368743935276,0.0014169261857674,-0.0022835431003801,-0.0417052341192468,0.9991262376230068,0.0869016981688311,-0.0003199927697601,9.81325042011019,0.0248554771581851,0.0125303211219969,0.0010258436351467,-1.173220296957354,0.2773936571298476,1.2121831352423285,1097.89713304574,1102.6367107111043,1109.709043790955,1116.5997053934236,509.8040791427701,494.51779599668185,-734.7386893861925,260.6269501461667,162.9435315511005
2.8775,2.578403024959559,0.4893282244615206,0.2304586510848073,0.0141673767914234,-0.0086362393397385,-0.0038375208758961,0.0014543301163102,-0.0022890007720155,-0.0417051722830503,0.9991261699602628,0.0886945837413763,0.0007157742273685,9.810170303021376,0.0250739462671812,0.0125328901974478,0.0009385834536071,-1.1731536912687663,0.2774228175678297,1.2121765475889772,1099.2466079330216,1104.155596888488,1107.535212347752,1117.334740221725,588.1066361576484,778.6767928682985,-1064.3020366710289,313.0073157093714,162.94427167174453
2.88,2.1333201962208896,0.4768135210660588,0.2692828206120025,0.0234690725986415,-0.0080062334496873,-0.0021066374096477,0.0014909241401665,-0.002306420359523,-0.0417089640319327,0.9991259134184592,0.090499851318192,0.0016833491472178,9.807496375828576,0.02529374700691,0.0125306279891187,0.0008640405590961,-1.173085798269275,0.277450690285302,1.212169879667972,1100.837666226528,1106.530094675446,1104.3875336076,1118.1647419719704,553.4818051870961,940.5339778998242,-1202.5000893010913,262.91040037686446,162.9451121910956
2.8825,1.5834626652560584,0.4587992247394698,0.2750706105503914,0.0296571009551285,-0.0076590113202052,-0.0012368880999869,0.0015243962666655,-0.002337306108827,-0.0417144672213069,0.9991255583707144,0.0923387303698799,0.0025407882770083,9.805183660194793,0.0255123289756013,0.0125248808381901,0.000805218615832,-1.1730164868691575,0.2774773672358707,1.2121636174200274,1102.0140169589572,1108.8582667779867,1101.5227119012463,1118.649292223609,420.17362018766,966.3873118995328,-1147.3204087716247,122.01999786542812,162.9457702492094
2.885,0.8973819476941151,0.4364211314464891,0.2706846109464192,0.0334818104005779,-0.0066560069429761,-0.0012226071234871,0.0015541329289855,-0.0023781490841338,-0.041717876024123,0.9991252735892846,0.0941394921113925,0.0032723554330213,9.803179122905885,0.025727619322485,0.0125171565021101,0.0007639382900877,-1.1729458093401912,0.2775030316012955,1.212157812766104,1102.9385343274666,1111.362031234944,1098.6509315637416,1118.7748419612976,324.0024459084688,994.8862692955807,-1117.0234119512925,-19.98741278507488,162.94638221794293
2.8875,0.152247421922165,0.4072325425759127,0.2688178957381925,0.0348339844898022,-0.0052164278044079,-0.001865362091373,0.0015820248999702,-0.0024213366741185,-0.0417180757683059,0.9991251206037404,0.0957536626310581,0.0039053516952188,9.801425026298537,0.0259380540694926,0.0125091969980831,0.0007408617270806,-1.1728742712562203,0.2775279736975929,1.212152265882689,1103.6340291884997,1113.8326981244652,1095.9375948414895,1118.549355159684,230.4938943946176,932.1393971745437,-1011.6657772080304,-171.75259335695412,162.94695520708868
2.89,-0.5920759086023653,0.3685422461115059,0.2685949594402149,0.0330452850051911,-0.0037685619351951,-0.0022635811742308,0.0016082902584543,-0.0024612880486864,-0.0417168928781708,0.999125035529938,0.0970785676668141,0.0044331899091236,9.799861326145004,0.0261426722291744,0.0125028708362701,0.0007353388600169,-1.1728026480585507,0.2775523045211488,1.2121469350254457,1104.0910037994397,1116.0227282208164,1093.5926026777015,1117.9160789945129,166.27785989653958,840.0192204589255,-902.6375351967282,-347.54600991201016,162.94748106419155
2.8925,-1.40445881371145,0.3189190356098496,0.2459399611630326,0.0285279125909296,-0.0026119057433822,-0.0008421900099819,0.0016310596540153,-0.0024978287907968,-0.0417166648572831,0.9991249227877504,0.0981226532711587,0.0048097163259812,9.798428255697171,0.0263411793303313,0.0124999525939768,0.0007452876581558,-1.1727315175440136,0.2775760852811987,1.2121425511384232,1104.4654184879823,1118.0327942267595,1091.424407165506,1116.811625110124,125.1124476751583,600.282085324092,-654.6155715523722,-430.93239242444736,162.9480578978448
2.895,-1.9741131809293808,0.2853047127865548,0.187435105126595,0.0237293959878906,-0.0022305346996389,0.0015905573510818,0.0016484767307893,-0.0025308987927173,-0.0417180787441338,0.9991247559296018,0.0988990435549453,0.0049859984984877,9.797070562733738,0.0265338922073109,0.0125019191997367,0.0007675256107346,-1.1726614227884489,0.2775992379264309,1.212140017303908,1104.7165660378155,1119.0241386474368,1090.3195248199395,1115.7614170323907,102.48041035725,231.5622083493103,-258.3752841706028,-402.7418116616077,162.94849383760115
2.8975,-2.4032776498641866,0.2704014189536746,0.0836473994638092,0.0180384454475857,-0.0021933508192918,0.0032984801479435,0.0016590196189029,-0.002559027861801,-0.0417202154176996,0.9991245797859888,0.099394396107642,0.0049160387295347,9.795740525103444,0.0267215490529864,0.0125098492182183,0.0007980545635332,-1.172592840652484,0.2776218088900884,1.2121396865592082,1104.9778205397683,1119.1906052685063,1090.1325307446532,1114.797916051816,120.79026645701816,-118.068516615406,161.5346503866056,-359.87502043895654,162.94888402967229
2.9,-2.735241217232136,0.2763736907462258,-0.0635537833241586,0.0100330660952435,-0.0018525035636977,0.0032408277552849,0.0016622249976083,-0.002581137809325,-0.0417195052473752,0.9991245480455476,0.0996027547838695,0.0045731130093532,9.794399512073863,0.0269050872075784,0.0125242583913093,0.0008322482961387,-1.1725253057543328,0.277643929744204,1.2121418220645872,1105.3205173701003,1118.43379606436,1091.1271980718727,1113.962041930196,123.18754135385724,-420.72189413707736,572.9249976617333,-235.40068879561247,162.94930046757906
2.9025,-2.8506379766089167,0.2957561824037477,-0.1742487976864142,0.002592438090028,-0.0007947325269697,0.0018264969056506,0.00165821205541,-0.0025979998819749,-0.0417116938166656,0.9991248374047847,0.0995536549425891,0.0039431251936276,9.79301901681659,0.027085354081367,0.0125451059384777,0.0008651331028575,-1.172457678744622,0.2776657680469148,1.2121465788580343,1105.5937582465378,1117.0869957978207,1092.9971557329618,1113.620912607838,89.79165966219928,-654.3372512494456,940.0824359132275,-63.60559196272814,162.94960531964105
2.905,-2.7987604494835496,0.3236023847306529,-0.2462557726199721,-0.0051336067763621,0.0008723228197808,-0.0001742066572853,0.0016477636799779,-0.0026098977581827,-0.0416976029956503,0.9991254117879572,0.099265538252178,0.0030266428708675,9.791581874805075,0.0272628271557597,0.0125720457621334,0.0008918835691092,-1.172388882299133,0.2776877459197498,1.212153229886576,1105.7694756684116,1115.1621098081123,1095.8276102514392,1113.6440139703823,39.766845909432085,-836.847683960821,1250.3008510290847,54.23927434498726,162.9498677720818
2.9075,-2.618834685553656,0.361529076870408,-0.2829712590663794,-0.0125871120915592,0.002443342967607,-0.0017785504658509,0.0016304902555696,-0.0026169973694555,-0.0416795619119556,0.9991261745611726,0.0987543116636161,0.0018037957156369,9.790082198726482,0.0274377192139171,0.0126042286187369,0.0009081757484141,-1.1723188786279524,0.2777102949962489,1.2121612527514087,1105.792592476085,1112.9027573780163,1099.2486599881076,1113.8921089795629,-41.01903816786122,-950.9695659636893,1439.5669773288623,124.69426028560784,162.95009624216166
2.91,-2.311650777567125,0.427870388323067,-0.2916600370154805,-0.0188414282540966,0.0031586838083919,-0.0019223868415758,0.0016047404730203,-0.0026219182454022,-0.0416587041768897,0.9991270747274972,0.0980835989323327,0.0002353011229331,9.788523954030952,0.0276101483766351,0.0126402126067606,0.0009102966258358,-1.1722477635359003,0.2777336702907435,1.2121704934832596,1105.5643804775723,1110.407261978294,1103.0254451380831,1114.2674852718103,-166.2853577927798,-1115.6304806834453,1641.4690229394532,156.93373817044056,162.95028515183913
2.9125,-1.8430266402735405,0.5653022101793399,-0.2907576725628184,-0.0243681762210067,0.0030819673609843,-0.0009280085043126,0.0015724100985456,-0.0026262735068784,-0.0416363328176622,0.9991280504684756,0.0972929082016189,-0.0016449548176446,9.786920167523277,0.0277802011473351,0.0126781563152227,0.0008954225307756,-1.172175487445431,0.2777581434165951,1.212180620330764,1104.9611656871211,1107.3246049745994,1107.4560051028047,1114.676777670415,-274.12034881654694,-1122.2469938056531,1538.6164037792112,122.0927865529146,162.95046715456982
2.915,-1.4033073110766388,0.7355679424654629,-0.2808612990260859,-0.0276150155826958,0.0031483277669757,-0.0005064540878155,0.0015363925691251,-0.0026278515806606,-0.0416130062980787,0.99912907869394,0.0963445820283775,-0.0037814205811533,9.785291973235978,0.0279480436843725,0.0127159097683697,0.0008619932724504,-1.172102536140747,0.2777837382864101,1.2121908569684976,1104.1937787334896,1104.796027009266,1110.7185271569792,1114.8779492045749,-351.80246958025987,-979.0265833278435,1155.3168322650226,37.9464776331596,162.95058147512256
2.9175,-0.9439646812992948,0.9496454257083448,-0.2391784873987118,-0.0300001806201723,0.0043555955217762,-0.0013447961313189,0.0014982690677948,-0.0026259825949838,-0.0415892647165993,0.9991301350917448,0.095230623216487,-0.0061369072045855,9.783665266424984,0.0281139746228179,0.0127512109308429,0.0008095404916019,-1.1720290969261593,0.2778101841669576,1.2122003430270427,1103.2021533392199,1102.4294720579603,1113.2325892641295,1114.8665100585808,-468.5486075839535,-978.9224508831219,900.2565841048829,-54.76441054183968,162.9506558298883
2.92,-0.3951965127541233,1.2167135080746663,-0.117263375634751,-0.0319443109703854,0.0077097060314601,-0.0036734012369816,0.0014604208227096,-0.0026197709851964,-0.0415658787365032,0.9991311858870112,0.0939364702073315,-0.0086523153769032,9.782068724877032,0.0282784334737876,0.0127818459077088,0.0007387068040563,-1.1719552433935678,0.2778372590734601,1.2122087449746484,1101.8510356955699,1099.9014147548503,1115.2198100775036,1114.6041271518657,-503.3627018809164,-860.6019051441946,557.3312048446614,-129.44967980538695,162.95069610882484
2.9225,0.0442988305122327,1.413824034765814,0.0576659449617982,-0.0326154955697197,0.0120020683059917,-0.0061032326623255,0.001426351979038,-0.0026059306538195,-0.0415433497441097,0.9991322135088828,0.0923986170434908,-0.011242117560565,9.780532031317433,0.0284420037512406,0.0128057274028341,0.0006512486134582,-1.1718813545105131,0.2778647971742715,1.212215776189918,1100.6853398298151,1098.1264625322394,1116.0192452883527,1114.219261659554,-447.3925957704221,-632.0173031978385,163.851002694162,-171.15943359630117,162.9506860188914
2.925,0.4446432964423865,1.555803456416306,0.2922107204845704,-0.0319283907229953,0.0170547977050786,-0.0074090501484335,0.0013973220309832,-0.0025829123129523,-0.0415233038886545,0.999133152406609,0.0905883073904594,-0.013856771191611,9.779082876865935,0.0286053424803449,0.0128210409332441,0.000549718493798,-1.1718079563509702,0.2778924774887817,1.212221419525095,1099.6140727167176,1096.7413282388611,1116.0390650909744,1113.748329983884,-390.9610878305748,-489.335039704714,-95.63668280356333,-187.093694959991,162.95062626859456
2.9275,0.7959492309680564,1.6472250386968623,0.5375298164924879,-0.0299563281754491,0.0220342666420599,-0.0065089023587509,0.0013732498373656,-0.0025531080891136,-0.041507295364736,0.999133931637446,0.0885542997680209,-0.0164639271965942,9.777744562059585,0.0287691067832082,0.0128262150072713,0.0004371360803776,-1.1717354849024275,0.2779202117271194,1.2122256756661596,1098.7305343906623,1095.6797873337157,1115.5410618743351,1113.283793184754,-284.1644072634214,-351.41687526043665,-289.5997350563055,-167.13098172654455,162.95052138104825
2.93,1.0725524704778626,1.6919239893442737,0.7357110012311576,-0.0268145007628282,0.026409133112259,-0.0028475323786504,0.0013548509975116,-0.0025179019884438,-0.0414957881656777,0.9991345271830308,0.0863249472708857,-0.0190115480144945,9.776535663247538,0.0289338063353367,0.0128198680263842,0.0003170391856522,-1.171663633954421,0.277947882696381,1.2122278636712123,1098.1932506804003,1094.9842438625587,1114.5910664156927,1112.9126750752512,-135.48393223677812,-227.24650320338273,-480.7017515553628,-125.9366843531579,162.95035677007894
2.9325,1.3120341267736364,1.7240225602837267,0.864211398023327,-0.022656710432655,0.0308498042215247,0.0024332086151057,0.0013452173681313,-0.0024747864800909,-0.0414889123767532,0.999134934864545,0.0838512712635266,-0.021400149338244,9.775469674874659,0.0290996102748263,0.0128008409909013,0.0001933873507546,-1.1715918420715743,0.2779756207832248,1.2122273425597438,1098.0531147294785,1094.5435548176988,1113.1375531165584,1112.654109762988,37.06195564391316,-96.72817760638488,-559.3006257265307,-57.02130760837584,162.9500840405491
2.935,1.4405163085611397,1.7563809552105043,0.8730476662818533,-0.0192910125442658,0.0341256743139767,0.0058508610399213,0.0013449970124957,-0.0024223494471112,-0.0414860595610112,0.9991351813034838,0.0811090774299496,-0.0235740653885817,9.77455353071611,0.0292662482535915,0.0127681691864819,7.006959819047434e-05,-1.171519449751013,0.2780035114916925,1.2122242427170895,1098.37856045862,1094.500602974527,1111.7945632870603,1112.6275685372095,212.88498195008745,54.22563571191974,-540.8111507897162,32.57203873149662,162.94979050045313
2.9375,1.5079499466737751,1.8116958423140983,0.8038336136444039,-0.0161494334097609,0.0371937304441862,0.0078057101252033,0.0013509102888941,-0.0023620194592572,-0.0414864522171018,0.9991352978562654,0.0781350087516856,-0.0255501272657446,9.773787325772535,0.0294329671203116,0.0127211459904137,-4.9516362113678586e-05,-1.171445898389855,0.2780318030079801,1.2122191593660039,1099.1175396392289,1094.8146829962584,1110.4334973626098,1112.8169699566456,395.20249357870784,229.18244393531984,-585.619794523485,134.05663670114623,162.9494249628174
2.94,1.529590739352354,1.9019776313420809,0.6721627481413057,-0.012509993655299,0.0407648964143111,0.0090362512605258,0.0013599324675628,-0.0022940691342553,-0.0414879841060096,0.9991353735892508,0.0749458024045075,-0.0273407481062099,9.77316570643279,0.0295986165797166,0.0126593266292961,-0.0001626293530561,-1.1713710370080264,0.2780608024922717,1.2122126446777068,1100.3545729265136,1095.6465151942036,1108.8664643144427,1113.2978517207152,487.5137226267829,385.7326093323164,-557.7188120173224,215.5882824865376,162.94890068874452
2.9425,1.4991227422165314,1.9760531699491384,0.5465451618427731,-0.0093870084856687,0.0443107463494183,0.0097602558835061,0.0013697732385505,-0.0022176980723583,-0.0414873152993783,0.9991355510744222,0.0715401324245138,-0.0289459409968524,9.772678851047054,0.0297617585765755,0.0125826431308613,-0.000267422855918,-1.1712948863140935,0.2780902203273791,1.2122050901193626,1101.5551082523627,1096.74334604292,1107.6449033025233,1113.8949113690783,485.2458233624124,522.05844681863,-471.775997038013,269.14986836910094,162.94839153481425
2.945,1.4098056681099047,2.002221366118588,0.4209299635707027,-0.0059529240667703,0.0494668398958804,0.0107217719631382,0.0013779518382531,-0.0021333450634753,-0.0414824850894831,0.9991359137225349,0.0679449947463989,-0.0303706544411751,9.772313329779251,0.0299207257369281,0.0124916750804812,-0.0003632014818821,-1.1712176766012299,0.2781195223758307,1.212197926267227,1102.7808020433256,1098.2568074282967,1106.5075843292527,1114.6436010625607,474.3466214003227,667.0972568445909,-445.75030897805567,310.5501925988637,162.9478073450238
2.9475,1.261385023181676,1.9483081670168052,0.3012378642832428,-0.0020822254316876,0.0558127727399745,0.0118330668174684,0.0013805754113712,-0.0020437685702676,-0.0414733062319232,0.9991364680781633,0.0642380372326914,-0.0316492928326971,9.772053404297912,0.0300737279992054,0.0123877389735883,-0.0004504589560209,-1.1711394600943372,0.278147931212893,1.212192638381944,1103.9268413593643,1100.0788323271431,1105.4161517576329,1115.4476623320727,419.926802899289,784.6053717698321,-433.058338575136,311.54259000925487,162.94716170806893
2.95,1.0339989337702633,1.7642798325523987,0.1959233950697363,0.0019275470107041,0.0625046932375627,0.0123564834471208,0.0013771037205763,-0.0019515243072139,-0.0414626389512488,0.9991370893949522,0.0604944455714587,-0.032756088160722,9.771882978008016,0.0302189332718335,0.0122729422979304,-0.0005306349033501,-1.1710602311817266,0.2781753834987219,1.2121894640301227,1104.880436057822,1102.179834287146,1104.3422926363771,1116.201314012607,356.42706716162894,954.162447866904,-474.1219679473135,287.5877822714817,162.94644374432264
2.9525,0.6798199193211256,1.388735817424756,0.0967829797488691,0.0060523672640619,0.0694118884069989,0.0117659763213706,0.0013685398826897,-0.0018576016601832,-0.0414522690427359,0.9991376991955564,0.0567613845287251,-0.0336434886931152,9.771787097509652,0.0303546847849048,0.0121498577279651,-0.0006056641289072,-1.170980023036288,0.2782019335133764,1.2121880123288895,1105.7089766951726,1104.8496445664775,1103.0455419178963,1116.88560124343,240.55967487566303,973.594996593486,-473.64977370858566,195.07892802394468,162.94550138527404
2.955,0.3431257477264645,0.9738321187835968,0.0380814224077683,0.0084529558743048,0.073518739539137,0.0107129672989075,0.0013551817258708,-0.0017631284421647,-0.0414419381354643,0.999138305422959,0.0530924767553443,-0.0342858791132052,9.771752607236351,0.0304796339453878,0.0120213736866389,-0.000677699700169,-1.1708989324275014,0.2782272489695699,1.2121882149933532,1106.0832344322005,1107.0478092701135,1101.9740437678342,1117.1767086527268,72.41721345799459,837.5521616050441,-410.72846185275887,48.44948970094368,162.94465100459948
2.9575,0.0157376840933264,0.5121617998868916,-0.0117110953595477,0.0089992220943999,0.0752595453418251,0.0103200962097912,0.0013404570974187,-0.001667066739085,-0.0414307869766774,0.9991389411653084,0.0494988952255931,-0.0346071403225295,9.771769160754342,0.0305928122951561,0.0118906680914913,-0.0007487562969879,-1.170817135106476,0.2782512413351567,1.2121896504218814,1106.0710627624624,1109.0374053745027,1100.9918996086324,1117.1278486919348,-107.59850275813052,791.590710540066,-380.01222440949186,-90.37428307256243,162.94373597405755
2.96,-0.2922068807763293,-0.0145604455683749,-0.0965763426738941,0.0068543950011214,0.074206392187959,0.0113355676902533,0.001327822313984,-0.0015662339793436,-0.0414175799556651,0.9991396597158912,0.0459512517918775,-0.034541621579266,9.771829428288688,0.0306937153851326,0.0117610874351624,-0.000820397010106,-1.1707350290202259,0.2782737198504494,1.2121911425022909,1105.5452419184098,1111.0057628228135,1100.0739826457868,1116.724837237364,-283.9441170799606,633.6645366181209,-268.02229561276937,-184.4186578574448,162.94256683334203
2.9625,-0.4332488442117465,-0.381985428269661,-0.2099794280692876,0.0034399106447222,0.0714516028393246,0.0128330208609204,0.0013185475216728,-0.0014619397391806,-0.0414045740036165,0.9991403650407716,0.0425098882537456,-0.034071682000612,9.77192811129933,0.0307822586137264,0.0116362246421892,-0.0008939738837747,-1.1706525672930936,0.2782945870931813,1.2121918191332557,1104.6513421770628,1112.2057280575932,1099.6517881305688,1116.2057554026476,-448.3915437256751,378.5898157280452,-75.37511497330502,-210.07385581265677,162.94153614166507
2.965,-0.4347682674330183,-0.6493160169294095,-0.3696315401008459,0.0003051703485725,0.0683012368089313,0.0135760579658405,0.0013118000362506,-0.0013607290434249,-0.0413937787544408,0.9991409653686292,0.0393379073065301,-0.0332256238855133,9.77206176173404,0.0308588986252657,0.0115195087969427,-0.0009706921293686,-1.1705698523097992,0.2783140647669797,1.2121918816515715,1103.3032841997815,1112.898711901454,1099.6971070709203,1115.6744679583007,-599.882956889001,194.59368531023352,101.09959470882357,-185.98412339195983,162.94045052997984
2.9675,-0.3356774815535913,-0.8412615723934777,-0.5478872492096963,-0.0016899911142763,0.065592154609814,0.0129700306098506,0.0013059860097545,-0.0012657936901521,-0.0413849436981391,0.9991414686325994,0.0365309881551788,-0.0320579300086278,9.772229576370412,0.0309247195316741,0.0114139000222417,-0.0010511683270235,-1.170487162393334,0.2783322293766462,1.2121915973234267,1101.6519273926176,1113.1786964841444,1100.1572861041127,1115.2758347856875,-701.3168850925904,23.158185621194463,273.67139484356784,-100.37036502944152,162.9393222643568
2.97,-0.1574675768821597,-0.9729719209233813,-0.7101077071420092,-0.0021344716523996,0.0638951051374138,0.0106782668090629,0.0013008649839788,-0.0011789979783604,-0.0413784318731264,0.9991418585421374,0.0341540176643892,-0.0306049492206219,9.772432511986276,0.0309813589129683,0.0113218978553781,-0.0011356395178989,-1.1704053096544156,0.2783493738924662,1.2121911840378763,1099.7966997743183,1113.01450282956,1101.0654640451382,1115.1726161331535,-809.6954459198232,-153.9461580475323,469.5609369743224,37.37785366311152,162.93814627975794
2.9725,0.0860844251896728,-1.1033979283159403,-0.8411002891802106,-0.0009154090429712,0.0628108106036066,0.0067912549377847,0.0012949256358311,-0.0011041069754682,-0.041372154848934,0.9991422197919904,0.0323050292427961,-0.0289324579331363,9.772672274045856,0.0310309903099509,0.0112452109891979,-0.0012241129146946,-1.17032474886251,0.2783657244451708,1.2121910063314412,1097.6034501630184,1112.4089656939068,1102.5050907889845,1115.4627240540033,-757.9875393969976,-272.3571259995937,551.5370892507807,167.99870584582453,162.93668501359684
2.975,0.2777296026726247,-1.2046651157264,-0.8795986271422525,0.0008694104172765,0.0617134298914164,0.0034400134057521,0.0012881549263835,-0.0010413325832085,-0.0413665154489811,0.9991425363581868,0.0310055760292349,-0.0270839240878106,9.772951320850767,0.0310760604505853,0.0111849449286685,-0.0013160456465448,-1.1702452495324218,0.2783819346970833,1.2121904292183414,1096.0067620773334,1111.652717199562,1103.823149491392,1116.0126096623826,-549.3423556829956,-332.127305901038,507.1244503322413,257.4305758387764,162.9354294505456
2.9775,0.4357746492548427,-1.2891085220307417,-0.8464764695724954,0.0022399471189883,0.0593198632076568,0.0007217737597643,0.0012826821787154,-0.0009876427023048,-0.0413648743885078,0.9991426707793314,0.030205454064853,-0.0250659204108487,9.773272169833424,0.0311190949783192,0.0111415774780484,-0.0014103653208416,-1.1701665392153895,0.2783987184536897,1.2121886264737955,1094.8567383846037,1110.7483291644016,1105.0407130406456,1116.7498769331971,-371.5645586256493,-403.7280456943421,468.1370781239011,326.1473318646564,162.93413948366475
2.98,0.5810571060387177,-1.3364645685349987,-0.7465675391847205,0.0033511806983323,0.0548749431604038,-0.0014961168080468,0.0012777524610812,-0.0009406755324817,-0.0413688559624273,0.9991425604378475,0.0298626504019624,-0.0229417766577903,9.773636551256656,0.0311626291232052,0.0111147161070175,-0.0015056988201449,-1.1700884714578788,0.2784161639363976,1.212185484127465,1094.1489392842052,1109.6340769710903,1106.1638348820115,1117.6433463217058,-138.47308864515367,-390.96200757413425,334.8159015341097,299.9058549643969,162.93255772747125
2.9825,0.662393771971005,-1.3054147033313968,-0.6338374414072577,0.0045821455500903,0.0503696829911482,-0.0026605003953861,0.0012753979624426,-0.0009007919978615,-0.0413787952694483,0.9991421896394452,0.0299786767107494,-0.0207174006715149,9.774044830667288,0.0312090592463145,0.0111032109251959,-0.0016007672347576,-1.1700103109151567,0.2784347984455688,1.2121809443662308,1094.164372941378,1108.793519126531,1106.714792548316,1118.249406208019,125.92699522706693,-291.095066675968,135.24302859200648,188.12615487814077,162.93121601894316
2.985,0.6943091808349456,-1.186930394562048,-0.5102436264525266,0.0063587971142821,0.0457041389407916,-0.0036687590056024,0.0012786345306589,-0.0008673050869815,-0.0413904575153968,0.9991417307050036,0.0305264971509635,-0.0183783091688552,9.774496290906175,0.0312606622160427,0.0111051008895241,-0.001694284983865,-1.1699311951198694,0.278454451948647,1.21217515641009,1094.7785742603403,1108.1786016377105,1106.8400500249716,1118.5839770960963,329.56490692192847,-191.50211464551447,-8.934869631866,79.81146250207901,162.92985557772477
2.9875,0.6781644997855149,-1.004240123251502,-0.3868672932160298,0.008365726913511,0.0414189782847785,-0.0047777000019577,0.0012880452181168,-0.0008369036045313,-0.0414023483077593,0.9991412470573016,0.0314228139140566,-0.0159556798382366,9.774989461813826,0.0313194742809782,0.0111182484658853,-0.0017849575045073,-1.169851530690749,0.2784745109711304,1.2121684661421868,1095.8121974759877,1107.8360085533031,1106.6701182001568,1118.6484635205295,486.5812183490233,-59.68066945956304,-110.51029682293282,-37.136048511226576,162.92848409618517
2.99,0.5992977303994443,-0.7795746943771837,-0.2723986542962566,0.0105111214058894,0.0385246186385389,-0.0058320343966558,0.001306443965705,-0.0008064668170702,-0.0414135232005984,0.9991407763310935,0.0325797319816802,-0.0134321738452978,9.775521944509967,0.0313873993735733,0.0111403129017078,-0.0018718732892659,-1.1697720397505071,0.2784952958306349,1.212161688693902,1097.2114803520858,1107.8801982904126,1106.2874985408569,1118.3982968535404,659.1850555954948,108.39385744571022,-173.1768995571238,-166.54052623630733,162.92710495915264
2.9925,0.4358554475278925,-0.52986585998231,-0.1596092309776995,0.0127185851766351,0.0375059358276475,-0.0062512435958505,0.0013329376654232,-0.0007730949685702,-0.0414228555076689,0.9991403685658912,0.0339108475572861,-0.0108572749289698,9.77609097601165,0.0314662186901282,0.0111688229000021,-0.0019544288913314,-1.1696934541374002,0.2785171472180801,1.2121553361370319,1099.108122753965,1108.377977840532,1105.8042337023712,1117.815760889348,703.1505845242159,246.2667665325678,-152.84950261343835,-242.63157258365544,162.92544851098765
2.995,0.2536488098070489,-0.3886782320613754,-0.0973700605845483,0.013835662040227,0.0384981031293139,-0.0055996600378889,0.0013655350817812,-0.0007371224948406,-0.0414304864051745,0.9991400210301514,0.0353888341492423,-0.0082933865912434,9.776693469829155,0.031557441206809,0.01120138581809,-0.0020325223518446,-1.1696151958910632,0.2785404342023107,1.2121493996250567,1100.7272332747068,1109.1115321230754,1105.5232510277897,1117.185138990622,627.5297245820318,341.37580224374506,-68.43484246505942,-257.6045134802426,162.92407218719566
2.9975,0.0444617671791511,-0.3529876128557556,-0.0721032505335492,0.014092757233404,0.0401370619030394,-0.00469169267958,0.0013998950039872,-0.0007001837289443,-0.0414342379216002,0.9991398307546566,0.0370097809306528,-0.0058422010858881,9.777326757191592,0.0316622639135501,0.0112356344180314,-0.0021063123401975,-1.1695366794920654,0.2785646843038492,1.212144045717667,1102.2457713768752,1110.0848568517506,1105.462059490046,1116.5277383219468,620.5180698508816,463.67339612539666,19.919853268584543,-266.263655346944,162.92270624504445
3.0,-0.2115834858557094,-0.425047070472721,-0.0674377565013711,0.0137918678210203,0.0408654200395745,-0.0043634891383386,0.001431921392748,-0.0006607534913756,-0.0414300374381294,0.9991399755781624,0.038705144266194,-0.0035978949713863,9.7779894756546,0.0317815230892961,0.011269404214266,-0.0021758735971969,-1.1694575257243145,0.2785893030078434,1.2121393427336005,1103.8298236239611,1111.4298991037024,1105.6228502941326,1115.8538207138874,527.293976591602,511.7662685786963,79.48367623894397,-208.88440912290653,162.92108612882268
3.0025,-0.4109576880321995,-0.5469383403928961,-0.0615234147349503,0.012936828438547,0.0396790019767482,-0.0049987068101172,0.0014652949871231,-0.0006115263706419,-0.0414160731914803,0.9991405293968252,0.040285679290362,-0.0015030209876134,9.778682037809329,0.0319157048651819,0.0113010552325693,-0.0022410443330873,-1.1693774293472232,0.2786144735130782,1.2121344146985276,1104.882241259833,1112.643688194644,1105.8594778712406,1115.4833162763323,351.87147261800254,495.48364305552394,83.56874694436733,-92.36812912363544,162.91975689570475
3.005,-0.5757920888868885,-0.6801486047934868,-0.0260265065042382,0.0110300822284635,0.0369543120097312,-0.0062920199133966,0.0015016404844012,-0.0005474518823517,-0.0413950932554872,0.999141378349617,0.0416065818061344,0.0004680625164887,9.779406040032386,0.0320646861404198,0.0113297606575928,-0.0023017473141246,-1.1692973629449783,0.2786396925393389,1.2121287153982108,1105.5891809870511,1113.90731731898,1106.0406940288544,1115.3919800682693,217.47185849647744,507.37668648777094,39.35989542305568,13.55594824708441,162.91845519671136
3.0075,-0.7020034936376734,-0.790551063279933,0.0444432666919184,0.0084117493973343,0.0337645299166308,-0.0075575744261947,0.001539236975208,-0.0004711522783712,-0.0413739120286013,0.9991422393169423,0.0426770468447946,0.0022849954540217,9.780164309553408,0.0322279477710868,0.0113555017930369,-0.0023583071860819,-1.1692175529839233,0.2786647224191022,1.2121218754726428,1105.9696005523156,1115.180571627083,1106.056277348356,1115.5510960175675,67.50541234459432,501.4262235866343,-52.29101162894596,114.78732683876068,162.9171806426692
3.01,-0.7832827912789063,-0.8549569671480823,0.1509254612947484,0.0058320419859256,0.0306901755019648,-0.008138664695068,0.0015755901296496,-0.0003895527326625,-0.0413558086665815,0.9991429748315775,0.0435932901496735,0.0039078871584641,9.780961251591977,0.0324046238452005,0.0113785518544377,-0.0024114287740933,-1.169137692076448,0.2786892604974249,1.2121139859108343,1105.926708048774,1116.4144484369133,1105.7792389707097,1115.9659167024631,-117.77624731335231,515.2501886503725,-192.38209691098243,212.4922223826206,162.915943896587
3.0125,-0.8492043660982684,-0.8799355546883671,0.292336709888512,0.003582181567446,0.0275037874229408,-0.0073945918196014,0.001608036790266,-0.0003074577100365,-0.0413423092965843,0.9991435231767136,0.0444136467065241,0.0052932028521223,9.781803881389129,0.0325934275651996,0.0113995206743358,-0.0024619346895685,-1.1690572010535667,0.2787129945843792,1.2121052101598209,1105.3807193157488,1117.7568225703349,1105.094366863801,1116.6135571294808,-278.0437888502606,452.34748089006706,-296.1208751444764,233.71757724899493,162.9145096351602
3.015,-0.8975930679939305,-0.8697813024556783,0.3958631690875669,0.0023868436150065,0.0253979534482325,-0.0056267250663071,0.0016331901572351,-0.0002313210701236,-0.0413372987865883,0.9991437278358164,0.0452335304866272,0.0063857092795914,9.782701465454329,0.0327925409126284,0.0114195154853183,-0.0025111215317438,-1.1689752399449316,0.2787354854292471,1.2120963954698047,1104.5364891045228,1118.6761858413636,1104.298634594987,1117.134504588708,-406.1745058079937,304.94936262258045,-334.21846191586866,171.17157470247912,162.91335999572655
3.0175,-0.9544601474626628,-0.8474845017084577,0.4628317452272708,0.0013499245122288,0.023711571537638,-0.003536916720432,0.0016465519980793,-0.0001692791629238,-0.041343755637669,0.9991434717822358,0.0461873834311993,0.0071098727264111,9.783665507878034,0.0329997888735279,0.0114397789098615,-0.0025608015218468,-1.1688914930569256,0.2787565469390795,1.2120882242988504,1103.349846786709,1119.2815693834475,1103.4232745542215,1117.4694150029932,-577.006158173584,171.2812526416692,-358.6800570160071,77.82353192865395,162.91226199262917
3.02,-1.0281933902113936,-0.8261368987477619,0.4970027687640764,-0.0005126146200994,0.0218670530174309,-0.001371000723544,0.001646260596682,-0.0001243901314119,-0.0413589262763113,0.9991428701783776,0.0473143218935925,0.0074365426519521,9.78471018812041,0.0332129640164794,0.0114611611121102,-0.0026128565192615,-1.1688062168779358,0.2787763178216798,1.2120815900914432,1101.6514583136548,1119.532592104572,1102.505234309907,1117.523622248351,-643.7147159383268,0.902621853265392,-283.01037185274856,-45.574385060627776,162.9110084739696
3.0225,-1.0767558478828263,-0.8211617766086649,0.4962584059593044,-0.0028182968559185,0.020457268575065,1.39524766468724e-05,0.0016336842060379,-9.747502505239466e-05,-0.0413807175326583,0.9991420063457374,0.0486131525938795,0.0073975079234781,9.785851421477666,0.0334298550937443,0.011484337205759,-0.0026692336914636,-1.1687196393386667,0.2787950165444166,1.2120776361313652,1100.131273207017,1119.286082492714,1102.008222694958,1117.24154307769,-593.7989588927064,-198.7407688461232,-116.51283701499116,-175.29247896918977,162.9100200674532
3.025,-1.0824375638998844,-0.830679427433618,0.4833834029496326,-0.0058789151901844,0.0190696939290997,0.0010150355659873,0.0016102862416221,-8.858566348355632e-05,-0.0414063870440751,0.9991409916792822,0.0500736622836779,0.007025208609299,9.787106117076126,0.0336484240226752,0.011509569283341,-0.002731634555013,-1.168631760005593,0.2788132585427637,1.21207647473302,1098.6824635191915,1118.5388882603413,1101.9226701248324,1116.6471598535052,-539.2523820771772,-378.1713130469224,40.020378318787095,-276.3318801070059,162.90909283652877
3.0275,-1.0316271143672944,-0.8457934376240666,0.4744974435588977,-0.0092966621220753,0.0175668521837264,0.0017538563559021,0.0015804259169407,-9.424784519559668e-05,-0.0414325876116851,0.9991399589373544,0.0516201528355921,0.0064054137830765,9.788491326143248,0.0338669504687282,0.011536593540867,-0.0028009610404717,-1.1685426042949778,0.2788319536028788,1.2120768074506671,1097.4350112966315,1117.3952259274795,1102.208324586552,1115.859883677155,-420.049604427976,-539.6052442548897,191.06232147222343,-338.2193724662328,162.9082181285528
3.03,-0.8976517611191119,-0.8515150318813931,0.4828918779124948,-0.012560899228483,0.0158100137683838,0.002197321929341,0.0015499479369602,-0.0001075007840057,-0.0414560181630368,0.9991390373505368,0.0531127786705398,0.0056500119606272,9.79002309634445,0.0340841273875334,0.0115646775022855,-0.0028769473398257,-1.168452686148738,0.2788517043896737,1.2120769206880924,1096.5822154970515,1115.8408620390667,1102.8779817321936,1114.956062991174,-256.0437384193674,-754.4108120722685,346.6125113254059,-391.1413188011202,162.90740846368263
3.0325,-0.6396016101880759,-0.8194350603492938,0.5177082739228956,-0.0157134876033663,0.0130785407277609,0.0027350838988896,0.0015219432554071,-0.0001222707675566,-0.041475817247094,0.9991382595909004,0.0544357280387491,0.0048182588047988,9.791714685998748,0.0342990369385061,0.0115929156378344,-0.0029582462367846,-1.1683627439868756,0.278872532419418,1.2120755027109755,1096.1547926045344,1113.623171867118,1103.941387143179,1113.9041770831493,-47.167557699732335,-852.8652921668436,399.84859634906513,-357.1513743567342,162.90651341350022
3.035,-0.3550314282778082,-0.7396840954863956,0.5604153149658627,-0.0174290360506394,0.0101989206346259,0.0035365173190775,0.0014966707701957,-0.0001351352452731,-0.0414911467965529,0.999137661621312,0.0555311883659628,0.003916489569522,9.79357478789924,0.0345111618258635,0.0116202209302649,-0.0030426402992261,-1.1682730023558063,0.2788943330885679,1.212072456373238,1096.3463777085528,1111.5765355782323,1104.8772247139389,1113.1703061193905,190.29445180326957,-840.1861127033222,349.4898250444823,-243.4288670142048,162.90583158163207
3.0375,-0.0227543868654831,-0.5911198022164196,0.5986234867449611,-0.0181807755573319,0.0073970880819237,0.0048571553007381,0.001474255053077,-0.0001426996295547,-0.041498848720877,0.9991373754885056,0.0563451574637436,0.0029484792383814,9.795606419895591,0.0347203588463212,0.0116452936274792,-0.0031271177397056,-1.168183052936044,0.2789168848695136,1.212067696507239,1097.106264863551,1109.4222413036011,1105.6888362684015,1112.6870327480783,451.7506468254037,-956.6242234143122,304.9847485604069,-146.2735624964384,162.90521564318965
3.04,0.3939473387196692,-0.3407442185007168,0.6117652338133635,-0.0179938429499322,0.0053057640629681,0.0072028130878682,0.0014552818983925,-0.0001448969223322,-0.041499325246098,0.9991373833970338,0.0568904825985126,0.001930705891974,9.797805335884492,0.0349266136678645,0.0116671489115549,-0.003208351148313,-1.1680926378087877,0.2789402734959146,1.2120608681851563,1098.6051309426798,1106.793414461161,1106.4021484567409,1112.4389383069083,629.649577939758,-963.453839687984,215.0452333649401,-41.85541189485865,162.90455091288234
3.0425,0.724578828301014,-0.090476091232415,0.578447895740927,-0.0167016418604254,0.0049448159573186,0.0097021589854599,0.0014393572713066,-0.0001444910742314,-0.0414928677658885,0.9991376734301252,0.0572378196727715,0.0008630407803197,9.800159601276787,0.0351300787686628,0.0116849924410663,-0.0032828981145354,-1.1680019168763176,0.2789642768817848,1.212052223815677,1100.2545127532496,1104.6049721051616,1106.764062435226,1112.477755688604,714.9315247815746,-866.9451903351913,106.36910798398505,46.13292294730042,162.90405696474352
3.045,0.9978087218927436,0.1773819756892692,0.4921806591568603,-0.0141068945630171,0.0056990273441337,0.0119998407347845,0.0014265070327311,-0.0001419586470256,-0.0414794783274778,0.9991382459131501,0.0574136502137159,-0.0002482768798662,9.802650237185539,0.0353310727761027,0.0116983027896644,-0.0033471339932808,-1.1679112042066429,0.2789885197284687,1.2120419504081004,1102.1797885665876,1102.4586885094852,1106.9339939966608,1112.6696029216448,791.266339260545,-842.5919406157116,49.41265804682294,80.83497232564868,162.90362208828617
3.0475,1.196177027125701,0.4455364866985203,0.3700905462390921,-0.010671097131764,0.0068875122439014,0.013611757489841,0.0014178534859253,-0.000135028960636,-0.0414605525329573,0.9991390416879354,0.0573900334278594,-0.0013777655118963,9.805251664539362,0.0355299827369879,0.0117070047942321,-0.003397470358563,-1.1678207477280755,0.2790126725999947,1.2120301295341185,1104.2108444495523,1100.392012402083,1107.0111257254603,1112.8819305502323,805.2377415097819,-788.2676536502837,25.933880967475556,63.13345463622255,162.90323317176643
3.05,1.2814247376941619,0.7051921925214428,0.226726513286629,-0.0067061776619574,0.0086588647747005,0.0144004035504074,0.0014116235848403,-0.0001238178225744,-0.0414367620074704,0.999140034997096,0.0571880248203768,-0.00255537712365,9.807931981100214,0.0357271824358635,0.0117113497650097,-0.0034308615308998,-1.167730547152182,0.2790363617917375,1.2120169953576296,1106.2059772741368,1098.5173502412335,1107.063663401498,1112.985270194826,827.1512516652717,-742.5282795280007,36.225460553348334,-7.612678786517277,162.9028953435098
3.0525,1.241570275133565,1.0037930238942825,0.0640493571474594,-0.0015803571896238,0.0116925100026117,0.0141946147322098,0.0014073458901051,-0.0001087154051823,-0.0414079908776641,0.9991412308934589,0.0568325525897186,-0.0037862861470511,9.81065439400698,0.0359229510854898,0.0117118346674858,-0.0034449426065032,-1.1676395780081537,0.279059420386753,1.2120028041626991,1108.346600707879,1096.6793710044428,1107.192253028227,1112.8438671562997,715.5700901415155,-570.3120616586724,67.06190163195204,-107.28963156621148,162.9025432743332
3.055,1.0973979217009875,1.2457566948053722,-0.0419654351478725,0.0025886309627014,0.0145344777357834,0.0129618137497007,0.0014058666661429,-8.514285657598554e-05,-0.0413741690219012,0.9991426305082756,0.0562492826177079,-0.0050548322644069,9.81337982553768,0.0361174686307538,0.0117091872994115,-0.0034378247189613,-1.1675471706695155,0.2790821746051215,1.21198730964139,1109.7838277248443,1095.6657899329402,1107.398972909658,1112.448822036995,481.0215809289377,-255.553892281574,107.52715099233912,-214.32263400866307,162.9022904331835
3.0575,0.8688155099099645,1.4909559040427067,-0.1065842541240671,0.005922349216486,0.0172671802802833,0.011248673677071,0.0014068914662832,-4.7904719745194096e-05,-0.0413383901061207,0.9991441057111033,0.0553515582601097,-0.0063687049927836,9.816068326138833,0.0363107934366841,0.0117045472764003,-0.0034085374003292,-1.1674538416803488,0.2791044958058588,1.2119705132062495,1110.7517086125235,1095.4016015430348,1107.7298887831887,1111.7722539862564,309.75773544733534,92.83363429936087,170.82715893680324,-342.11269517714567,162.90207547349897
