t,ang_acc_x,ang_acc_y,ang_acc_z,a_vel_x,a_vel_y,a_vel_z,quat_x,quat_y,quat_z,quat_w,acc_x,acc_y,acc_z,l_vel_x,l_vel_y,l_vel_z,pos_x,pos_y,pos_z,mot_1,mot_2,mot_3,mot_4,dmot_1,dmot_2,dmot_3,dmot_4,vbat
9.4925,-1.4512072138566958,0.0444673789576062,-0.1529050670895622,0.0427251442460174,0.0044065971250369,-0.0173539285795623,0.0090775752948125,-0.0075500872996851,0.0457858031494754,0.9988814195431088,0.0354255126009391,0.0563105995566833,9.83292839137173,-0.0159572020261988,0.0612429536254762,-0.002686137651048,-5.000958063747886,4.561934369247166,2.030976789779859,1140.5587342890635,1122.5933830733427,1122.561701984454,1145.1202139873483,119.93589152314541,991.8784267665883,-530.9860824299983,103.42820816729927,161.46882055206748
9.495000000000001,-1.4655427139517692,-0.1147309636995329,-0.1654456522402983,0.0390536050180555,0.0046693936062527,-0.0175102825414911,0.0091066494111918,-0.0075311299993359,0.0457558258174986,0.9988826619721028,0.0353704457910911,0.0544426230409821,9.833509081704175,-0.016078433706786,0.061102553368609,-0.002693240397888,-5.001015871467322,4.5620822037563045,2.0309736846341537,1140.903210314792,1124.7526589313295,1121.4397868834494,1145.5715981934707,158.15107376490488,756.0555119428682,-363.87296592369006,237.0174028905324,161.4673969704116
9.4975,-1.4502334417757217,-0.3094022097604583,-0.1869412411457337,0.0358008174308809,0.0048747758468626,-0.0180774121662569,0.0091326858975599,-0.0075100167177388,0.0457238449204176,0.998884036060516,0.0352023823712343,0.0524569267065125,9.83437176941244,-0.0161930458123868,0.0609584744339586,-0.0027006288941777,-5.001073985528619,4.562227778645536,2.03097092788696,1141.3494896578884,1126.3736606330576,1120.7423371548352,1146.3053010018011,213.3128872883814,523.8591127387414,-158.22680475292563,336.8678998025859,161.46605984777443
9.5,-1.4145687868769747,-0.5742730423439762,-0.2120016083997416,0.0326741397686361,0.0049736383817413,-0.0188887546906547,0.0091569249194266,-0.0074884127512911,0.0456895796762551,0.9988855321165486,0.0349440230205259,0.0504089149270849,9.835501032349514,-0.0163013137451777,0.0608100650533378,-0.0027055331445032,-5.001131950063924,4.562371495240942,2.030968550807475,1141.9697747512337,1127.3719544950227,1120.6486528596847,1147.2559376924833,236.80203904155115,177.69226103472545,111.21661318099935,320.2865632320664,161.46456631447134
9.5025,-1.3753924858085707,-0.8007223213778505,-0.226610317310301,0.0304262746259016,0.0043401272476662,-0.0195269786408168,0.0091777564962311,-0.0074666285954198,0.045653527052415,0.9988871409094728,0.0345896995071411,0.0483068851594349,9.836871390396492,-0.0164040372866602,0.060656239613815,-0.0027045353422351,-5.001188640659028,4.5625139750826635,2.030966735062691,1142.533499853096,1127.262121938231,1121.29842022074,1147.9067338179611,227.23150014381727,-250.56462241164527,413.4709170027044,193.18585833099567,161.4634213761973
9.505,-1.3163863850864408,-0.9911906199167348,-0.2306510051084053,0.0278267759696023,0.0021290401116552,-0.0201078249040527,0.0091975325510193,-0.00744650955878,0.0456175656471039,0.9988887418958328,0.0341691621555254,0.0462434891437199,9.838445547365357,-0.016502371033583,0.0604952909293135,-0.0026942278912211,-5.001244742085587,4.562657143575489,2.0309635123869727,1143.1059322519527,1126.1191313829643,1122.7160074446988,1148.2218669841384,221.66498785010108,-614.267897757822,678.6145892254201,54.712082443430155,161.46238729987226
9.5075,-1.2224732909954203,-1.1139346843633555,-0.2239283344619286,0.0245160831270081,-0.0012798923436564,-0.0206814036029849,0.0092187632328859,-0.0074299400241992,0.045584795817317,0.9988901576427616,0.0337155010927927,0.0443223668113572,9.840176103881252,-0.0165976783993629,0.0603249220371943,-0.0026708957823326,-5.001300875326779,4.562802459564892,2.030957816027019,1143.6418247923464,1124.1907824494415,1124.6914931668675,1148.1802942301783,192.6760101557576,-913.7633019201528,888.7237433745616,-104.49618950280896,161.461449837485
9.51,-1.0617324346697232,-1.116372742188507,-0.2023506485804253,0.0206288939293528,-0.0054255382940152,-0.0212817051572803,0.0092455301138537,-0.0074224657421002,0.0455556911125516,0.9988912890454484,0.0333382102154912,0.0426825945025925,9.842005670684472,-0.0166918980582389,0.0601423536066136,-0.0026308219309515,-5.001356013225664,4.562949361028898,2.030949928623412,1144.0693123027315,1121.5503148733644,1127.1596261615707,1147.6993860366244,148.69619920630103,-1233.3670233221146,1140.5641624029647,-295.2348169343616,161.4606335150936
9.5125,-0.7749290583407165,-0.9543901825780864,-0.1581337603296295,0.0162527370490726,-0.0105322727042676,-0.0219891981786044,0.0092825725760232,-0.0074272638291894,0.0455310229330622,0.9988920349289726,0.0331041770052469,0.0414851805362043,9.843869978766728,-0.0167870161374546,0.0599447398298576,-0.0025707812172798,-5.001409644827145,4.563097359965337,2.030939620025116,1144.3853057883782,1118.02394733283,1130.3943139788835,1146.7041201455063,78.48434328901612,-1271.615252603107,1184.7094972671553,-409.6213119918772,161.45979866462352
9.515,-0.4640102969363157,-0.6859591146642194,-0.1069479100045953,0.0135130657693432,-0.0143029460942164,-0.0225488708036843,0.0093256702769812,-0.0074426668477611,0.0455133357264372,0.9988923291847632,0.0329803359818706,0.0407246963820333,9.84570225391424,-0.0168846415843554,0.0597295292565122,-0.0024873891106758,-5.001461926278777,4.563246093070172,2.030927171135039,1144.4617340191767,1115.1922386103479,1133.0831736479074,1145.6512794766647,-3.163045959127605,-1017.9165169430896,1019.3375234761996,-429.43430791273744,161.4592260551123
9.5175,-0.1084185422656065,-0.3133614886888079,-0.0452995542053894,0.0122354255479123,-0.0166604958781104,-0.0230442285650087,0.0093682449586577,-0.0074623727622917,0.0455046105249184,0.9988921880546688,0.0328434308281352,0.0403571360716079,9.847434642123412,-0.0169860555433492,0.0594945526058274,-0.0023782642154798,-5.00151402210823,4.563395855790631,2.0309132177237776,1144.3694905585824,1112.9343647481155,1135.4910015962635,1144.556948605943,-61.01452692056532,-784.4918284537667,935.7271010863811,-446.30888728029055,161.45878309071264
9.52,0.3156682223402342,0.1831750486124469,0.0298099232096272,0.0126792390502432,-0.0171632963641347,-0.0232387644031663,0.0094062104150575,-0.0074782132473992,0.045505637581836,0.9988916738846716,0.0325383452686596,0.0403905534052206,9.84899990083804,-0.01709215552449,0.0592381932797766,-0.0022428188898238,-5.0015671994623006,4.563547242900925,2.0308981283852394,1144.156661384574,1111.2697794680798,1137.7618091533384,1143.4197350402635,-76.51104457730693,-413.5523289057609,691.8635414336051,-361.1396680855595,161.4584023684078
9.5225,0.6237081041998856,0.5761295867955987,0.0820483475563335,0.0146518887347664,-0.0155113099404894,-0.0228419615304695,0.0094401677633864,-0.0074857275953917,0.0455141209070923,0.9988909174461716,0.0319892095832802,0.0409206540842634,9.850333181419144,-0.017203706345533,0.0589595987883299,-0.0020825226152304,-5.001621686529962,4.5636993169659075,2.030884063780969,1143.986935335696,1110.8666031035864,1138.950319303432,1142.7512502655147,-44.95453058452065,26.938191066160808,295.12710121653004,-190.8990959205923,161.4582108672703
9.525,0.8417008166884522,0.8782011206057764,0.1110806956289513,0.0178624333374024,-0.0119726469771465,-0.0220382092896928,0.0094732831847164,-0.0074834330926637,0.045529835363565,0.9988899088595956,0.0311824676691112,0.0420862732766849,9.85137584743256,-0.0173208242784463,0.0586591496540458,-0.0019007170281073,-5.001676941721935,4.5638514777345245,2.030873237152847,1143.9318887316513,1111.4044704234107,1139.2374446594213,1142.4652395606606,16.834596695165313,391.06594353305405,-99.59765879432032,-35.16329829922842,161.45814932636495
9.5275,0.9738087057262704,1.0823550405964724,0.1134172774099498,0.0222141579010622,-0.0066223469692924,-0.0210751858394987,0.0095085392477653,-0.0074716024089211,0.045548511244406,0.9988888115994932,0.0301397648549505,0.0440133209068747,9.852079249975565,-0.0174437985984684,0.0583384656602446,-0.0017020917966446,-5.0017336210210415,4.5640038102381375,2.0308653997439348,1144.0711083191716,1112.8219328212513,1138.4523310094603,1142.5754337740188,84.51441138101335,585.7095407502385,-469.0790481548926,106.54344639776656,161.45822420561288
9.53,0.9777713495019456,1.1090444487371298,0.0918656484542399,0.0256195306413073,-0.0023927828882967,-0.0204615256173337,0.00954769716965,-0.0074537888391686,0.0455624604849677,0.9988879328164892,0.0289463016811045,0.0467893962004536,9.85240722237849,-0.0175731223160234,0.058000573925193,-0.001492116732729,-5.001791468267704,4.564154589363404,2.0308604666229746,1144.3544607885563,1114.3330181271613,1136.8920494186473,1142.9979567926491,132.6643209851474,596.2791493785039,-777.6578138070512,218.9138968040992,161.45840888077055
9.5325,0.8947468558674329,1.004274941946454,0.057717702902929,0.0283291175850333,0.0007565992303595,-0.0201113720703854,0.009590518824325,-0.0074354584112129,0.0455652508799094,0.99888752789509,0.0277224361141602,0.0504460304442723,9.852338554761952,-0.0177090591449125,0.0576500890895953,-0.0012766263816431,-5.0018491315657325,4.564302262015352,2.0308583639035453,1144.7344299240976,1115.8033285681443,1134.5640419404247,1143.6700032580395,148.19148809754054,533.743793048787,-1015.5516494540966,295.1025858372297,161.45871782882463
9.535,0.76705027275096,0.8182396937569474,0.0254846049915579,0.0303849245969048,0.0030683096468958,-0.0199743697302776,0.0096355836202172,-0.0074207662362616,0.0455483788428168,0.9988879675871531,0.026560282655426,0.0549748102998301,9.851868810446849,-0.0178520762314564,0.0572928852317207,-0.00106168306468,-5.001906748539048,4.56444613400706,2.0308582009952985,1145.095418229044,1117.0017370924056,1131.814291171376,1144.4734697218355,112.40047214503156,377.5214158689619,-1137.2041502782838,338.203124321466,161.45912736204025
9.5375,0.6227937047879744,0.5735677575459909,0.0121123579530074,0.0317610282870973,0.0046395326525247,-0.02006986639833,0.0096813434554699,-0.0074135726380446,0.0455118690035673,0.9988892339220032,0.0255441956786168,0.0603442591436435,9.851010409831776,-0.0180016158972784,0.0569360891663001,-0.0008533748811274,-5.001963880980847,4.564585749072309,2.030859979408363,1145.2964322848227,1117.6909356474887,1128.8780211890344,1145.3610188796465,22.314801483431587,169.32769666156756,-1250.0187413215692,397.82234402526376,161.45965460207003
9.540000000000001,0.4761174478869252,0.2629514044138978,0.0379952392602384,0.0327171722093336,0.0055562190157735,-0.0204189214874469,0.0097297443416289,-0.0074167310659989,0.0454590863796154,0.9988911299181223,0.0247398073914118,0.0665703226007793,9.849791574750588,-0.0181566747227226,0.0565874250653599,-0.0006579870570618,-5.002020610979681,4.564721375391124,2.0308648915073686,1145.2069922364612,1117.8483755757136,1125.5641974647672,1146.4625814419624,-98.15791817917044,-46.427105041440896,-1125.4597668444662,405.9506162049095,161.46041806003484
9.5425,0.4037047428218103,0.024833238465868,0.1058129483805279,0.032986392331372,0.0051779172014564,-0.0208673631550769,0.0097849981576286,-0.0074305695626374,0.0453910826163367,0.9988935619515092,0.0241627311345556,0.0736928333091393,9.848255447913353,-0.0183163884669948,0.0562545262856034,-0.0004815953148837,-5.002076914381109,4.564853130029936,2.0308722525380234,1144.8056426939268,1117.4588001222814,1123.2507223548112,1147.3907719606711,-222.83406333694873,-239.67618030619852,-784.9498056400276,372.28765789098486,161.46115905947673
9.545000000000002,0.4052881682014103,-0.1583502925879637,0.2270967591006242,0.0329859508321604,0.0038948491596834,-0.0213779186242161,0.0098495723295772,-0.0074544668544482,0.0453109384698834,0.9988963699798278,0.0238060046261032,0.0816948331506196,9.846458592780131,-0.0184794685419614,0.0559446303092186,-0.0003292100068255,-5.002132940328141,4.564981642907616,2.030881827865724,1144.0928219197767,1116.6499946741828,1121.6394484365678,1148.324019731417,-357.6546930431307,-414.86411754530377,-521.0007943320888,411.3111045482492,161.46200357426366
9.5475,0.5000961046843848,-0.2953539611761852,0.4245715217307176,0.0329395018266178,0.0022130477213825,-0.0217944022624054,0.0099227475443497,-0.0074860663678689,0.0452255398295173,0.9988992668732972,0.0236236896281991,0.0904755880783432,9.844468942943065,-0.0186439539457205,0.0556642466633279,-0.0002043495539245,-5.002189647670409,4.565108784714609,2.0308936636716464,1143.0173692287115,1115.384479534555,1120.6457183831512,1149.4473274834122,-400.64006645569054,-483.2552270455989,-209.80429191892105,409.2654681864402,161.46313027187307
9.55,0.6473541693274676,-0.3401000426043945,0.6108314994618507,0.0331744993848802,0.0010546200301426,-0.0216256362701928,0.009998903706575,-0.0075210687397376,0.0451438160360064,0.9989019365559452,0.0235257115122987,0.0998186972513227,9.842363404123617,-0.0188074340020362,0.055418883765447,-0.000108597395572,-5.002248813946355,4.565236567233296,2.030906013174932,1142.089621587498,1114.2337185389545,1120.590426976973,1150.3703470723494,-337.8109717787465,-443.31737583040547,113.94813653526435,355.6538987650482,161.4641587164236
9.5525,0.835975653912818,-0.3227029720210233,0.7758263164481795,0.0341615389622626,0.0002626322101677,-0.0202788014372315,0.0100718922363745,-0.0075576729970357,0.0450721190653705,0.9989041675830178,0.0234692477009968,0.1094765544293441,9.840222622345092,-0.0189677471216845,0.0552129338597097,-4.1735616439678206e-05,-5.002311616741117,4.565365412086866,2.030917994378153,1141.3283143698175,1113.1678926554027,1121.2154590658276,1151.2255969772375,-257.48991758205767,-404.9564635551984,384.3344605187067,338.2150360424239,161.46527403276465
9.555,1.056049658703392,-0.2456700436597839,0.8843901539414222,0.0369040861082908,-0.0003263750364981,-0.0166165052364102,0.0101382195373076,-0.0075946721926105,0.045010792135531,0.9989059897314684,0.0234239722253815,0.1192374633459471,9.838126698322483,-0.0191237027613685,0.0550497634789967,-2.1731261716235583e-06,-5.002375994516744,4.565494115116694,2.030928729475123,1140.802171999588,1112.2089362211789,1122.5120992795662,1152.0614222525612,-111.38284981246292,-266.9472228835767,525.7784265509687,254.56263496844824,161.46670549834138
9.557500000000001,1.1893439412740403,-0.144652354001623,0.8582236511367874,0.0406181486497608,-0.0005918708419131,-0.0121336878900574,0.010203543969465,-0.0076331783110627,0.0449556050640931,0.998907526350255,0.0234120391710243,0.129054799600148,9.836148735993808,-0.019275212261572,0.0549319199058307,1.228692641989102e-05,-5.002439853743987,4.565621268693454,2.030937442920804,1140.771400120755,1111.8331565409849,1123.844351198583,1152.49841015208,74.90324743506528,-32.84908740024034,539.7444643073479,98.8777414584847,161.4679703891594
9.56,1.2261725633070144,-0.0137399559928085,0.6897183037930911,0.0449968096715016,-0.0006773610994668,-0.0077372598646371,0.0102731112537426,-0.0076745944274446,0.0449041732097852,0.998908820021612,0.0234611570313034,0.1388639421417048,9.834354521144963,-0.0194226315854905,0.0548613262009697,5.141153165254145e-06,-5.0025026671707655,4.565746738443729,2.030944299966084,1141.1766882367633,1112.0446907841776,1125.2108216011031,1152.5558109598535,223.63958518499103,192.37009863190184,527.3533527628528,-50.13931138056338,161.46930329338454
9.5625,1.1653850873555587,0.137836409108834,0.4182143128370007,0.0491969963802807,-0.000598581461282,-0.004611402751482,0.0103484066031156,-0.0077209235290754,0.0448580607206049,0.998909770233779,0.0236091401942901,0.1485200261722912,9.832800954175584,-0.0195663927648938,0.0548391532523064,-1.8735594997935825e-05,-5.002563394441716,4.565869825474796,2.030949928408532,1141.8895980466796,1112.795007034144,1126.4811179623966,1152.2477135951774,334.89041609497986,421.7923934195298,471.59976347029726,-212.49597071223113,161.4706878279168
9.565,0.9869289238784276,0.3097302106446511,0.0732489503374516,0.0527663078526277,-0.0002235598502645,-0.0036578163992097,0.0104299861390749,-0.0077673039400698,0.0448200547854098,0.9989102824934524,0.0237603904032201,0.1578644559618338,9.83153438231004,-0.0197070730092566,0.0548654167690666,-5.397703300607722e-05,-5.002623580997891,4.565991693690174,2.030953404000285,1142.8511403172379,1114.1536527512749,1127.5688204184544,1151.4933311062928,442.094852308468,697.1129274513079,441.5118602768636,-424.5805251762495,161.47212935930284
9.5675,0.6592922805781714,0.5312762056551642,-0.3408904226467239,0.0560540181799807,0.000777793942104,-0.0050821995699243,0.0105152924736517,-0.0078086930893352,0.0447894963522482,0.9989104508640188,0.0238151327494916,0.1666805586629241,9.830588920090369,-0.0198456920593323,0.0549385371818557,-9.446849003820944e-05,-5.002684491404128,4.566114159116809,2.0309539062587567,1144.1000723082225,1116.2805716714013,1128.6886772637813,1150.1248109692958,446.5698596272189,811.2811896031966,395.81222116442586,-567.366066558818,161.47391894649104
9.57,0.3206172629471033,0.7202616344921347,-0.6276875876488516,0.0579005428469355,0.0022368154552677,-0.0079984375197071,0.010599145595565,-0.0078412745865159,0.0447650277165696,0.9989104196297064,0.0236983813771525,0.174706238385109,9.829985536707888,-0.0199833651299046,0.0550553794643027,-0.0001337104378371,-5.002746489460452,4.5662383153908745,2.0309516172416537,1145.0839896153743,1118.2100586992915,1129.5478815242768,1148.6565007734982,357.15949408238714,725.9608834941071,352.8722905812876,-641.5074602390545,161.47545604419557
9.5725,-0.0402360011071663,0.9023743817307326,-0.8066857980038356,0.0583655441144351,0.0044321720651702,-0.0117017037599353,0.0106811473505216,-0.0078618431798857,0.0447453641066821,0.9989102748244096,0.0233548891362892,0.1817841231730124,9.82972904210952,-0.0201212861334267,0.0552114186903861,-0.0001660749464115,-5.002809192825979,4.5663650585201285,2.030946184752368,1145.885869778634,1119.910376088871,1130.4530387166872,1146.9172736681012,297.1621881034925,602.5540885159411,429.65461508354207,-809.9361254061574,161.47703641014985
9.575,-0.4374885425433356,1.1022137986530247,-0.8815729713342466,0.0567023925360754,0.0076809484434499,-0.0157884723508507,0.0107624285078234,-0.0078674837642834,0.0447316969954338,0.9989099740309106,0.0227408445114579,0.1878017622132587,9.829810143794376,-0.020260515552611,0.0554011133372154,-0.0001869204211463,-5.002872047042636,4.566494454079348,2.030938465415491,1146.569800555892,1121.2228291418717,1131.6961545996949,1144.6068201464668,204.68241904460663,308.3383045458022,484.3149872353176,-864.9585290021162,161.4789786283834
9.5775,-0.6986025002287838,1.249323798028216,-0.8397764157404239,0.0539248219959715,0.0107291168746323,-0.0183947908878498,0.0108449947508904,-0.007858005098386,0.0447240339977294,0.9989094980404762,0.0218703381060929,0.1926802660717061,9.830206813180414,-0.0204023655479577,0.0556180845439864,-0.0001928019520913,-5.0029344308838875,4.5666258912142,2.030930170952728,1146.9092818738573,1121.4520676116003,1132.8746136528644,1142.59248102309,97.47256444049648,-111.93212798177636,486.28081328930085,-788.1752547480322,161.48063263631383
9.58,-0.8583367076926371,1.3765525640025569,-0.7205588358549612,0.0507732123322314,0.0140395709955588,-0.0201368556528151,0.0109308341969427,-0.0078353977731742,0.0447186320611994,0.9989089792478976,0.0208030721141911,0.1963603103503012,9.83088693137512,-0.0205485880436768,0.0558552895315475,-0.0001816220412376,-5.002996122147788,4.566759127449225,2.030922038487952,1147.0571633780944,1120.663168501963,1134.1275586661409,1140.6659438727274,38.08356279956418,-467.3381971705587,492.94545234680095,-719.1240773077036,161.48232065094783
9.5825,-0.9296148706153952,1.4903165793429751,-0.5632678940801967,0.0475567165936724,0.0172926795451938,-0.0213327015460795,0.0110171890260977,-0.0078031039570994,0.0447111923155154,0.9989086150998436,0.0196263752373992,0.1987121805164781,9.831813236416798,-0.0207008601983144,0.0561053609122779,-0.0001521986625479,-5.0030572411187055,4.566893880491506,2.030914821643269,1147.099699687855,1119.115376625748,1135.3393409145979,1138.996860636552,4.526880057664331,-740.6384623222244,447.0384685702567,-553.3580339980789,161.48403468125815
9.585,-0.90692653638959,1.5914930569959511,-0.3881514472544333,0.0444921064061791,0.0204756802051226,-0.022069710468215,0.0110984497086452,-0.0077651627909688,0.0446948093404124,0.9989087459057884,0.0184391091904823,0.1995755469830073,9.832945216069348,-0.0208608544693246,0.0563606783295948,-0.000104424422783,-5.00311873661442,4.5670301101079245,2.030909615186687,1147.0797977783827,1116.9599761903512,1136.3627510089923,1137.8991537027366,-10.470076244562916,-975.6603598611784,378.71654559820394,-286.5817684790279,161.4857771436491
9.5875,-0.8061113983688614,1.6962577019355964,-0.1862969245710602,0.0416655554512428,0.0245933141825132,-0.0225035880309763,0.0111692997618726,-0.0077244628341371,0.0446673880477071,0.9989095020512592,0.0173215403014836,0.1988237674283323,9.834240210822019,-0.0210293190217078,0.0566138101582158,-3.949911140146034e-05,-5.003181537734865,4.567167594174864,2.030906662985529,1147.0473493066322,1114.2370748264411,1137.2329236425892,1137.5639517941568,-7.797291241242152,-932.7846125751001,249.20790174124204,73.91970008153855,161.48789677000275
9.59,-0.6945623243051902,1.761157237043261,-0.0410757806798596,0.0403114437380798,0.0285057605787756,-0.0224957420592664,0.0112261176004243,-0.0076828710890297,0.0446295596770652,0.998910881906326,0.016337744842274,0.1963920164619507,9.835654714393343,-0.0212063420531278,0.0568575583731195,4.0226329174297165e-05,-5.003246239699692,4.56730607738494,2.0309070291166726,1147.0408113221763,1112.2960531274766,1137.6087905176985,1138.2687522031442,4.633504421418378,-620.4975941016853,78.3180136238726,495.3152172869144,161.48968366034944
9.5925,-0.593339014494727,1.7868229031524208,0.0662621896163926,0.039902762623897,0.0329764434366699,-0.0222019913828605,0.0112665395259459,-0.0076417573847864,0.0445858923276458,0.9989126972750813,0.0155447843772373,0.1922682794103136,9.837146136924304,-0.021391346167377,0.057085114752579,0.0001317284771694,-5.003312203364201,4.567444776049364,2.0309116099164046,1147.0705168287393,1111.1345868559335,1137.6245137107085,1140.0405278805908,22.143513869965492,-273.19098297621446,-64.90699488262075,989.7640702843363,161.49148750215366
9.595,-0.5123431686056258,1.7541307168753413,0.1407615991684247,0.0398762244447842,0.0387599041994388,-0.0216025064611453,0.0112944435249684,-0.0075991682569591,0.0445392796578006,0.9989147889122721,0.0149388018296411,0.1865934276644939,9.838672150050506,-0.0215838687931771,0.0572898572299789,0.0002311336707864,-5.00337817034025,4.567583395005029,2.030918617932194,1147.1515288915264,1110.930098212595,1137.284255543285,1143.2175725545667,36.21342462315057,130.27277214107707,-173.85840586313873,1284.9344699663827,161.4936661867598
9.5975,-0.4822768947163559,1.6665972245693523,0.1533391857275633,0.0395335803849691,0.0434339997537688,-0.020858473968795,0.0113177345165432,-0.0075524223784187,0.0444924722942878,0.9989169646781088,0.014503252732326,0.1796143660955553,9.84019236031153,-0.0217834066154311,0.05746537555424,0.0003345284201488,-5.003443660128389,4.567722122889999,2.030927043500849,1147.251583951855,1111.785950716639,1136.7552216813926,1146.4652002304235,42.86290200444398,526.718185518271,-251.8648629469727,1336.2415322763284,161.49548915078327
9.6,-0.4774263633029004,1.517536367131722,0.1147634851537987,0.0386159810598137,0.0473509075691723,-0.0198818400311568,0.0113440147254816,-0.0074996973145228,0.0444491079627085,0.9989189909323186,0.0142352617696541,0.1715959253587736,9.841670625505246,-0.0219891925620894,0.0576054566416807,0.0004387955498936,-5.003508674698876,4.567861358298321,2.030936422151495,1147.3658434015483,1113.563689140186,1136.0249312285507,1149.8987802159468,44.67616514888716,930.2246867286976,-361.2997675258956,1446.501627532008,161.49731442818444
9.602500000000001,-0.4737519971291428,1.276224653454848,0.0207756773258334,0.0367082903150511,0.0512209988971452,-0.0185791905619557,0.0113785322260002,-0.0074403845877591,0.0444116286413355,0.998920705487492,0.0141490440841594,0.162778086434194,9.843075858306,-0.0222002915363673,0.0577039803269369,0.0005420090943461,-5.003573895712165,4.568002014681195,2.0309452867481745,1147.4749647775996,1116.4370741502833,1134.9487228437629,1153.6977083680847,26.194612742752263,1119.7105989625993,-426.5801649406755,1271.8985452580287,161.4995015220261
9.605,-0.454365433952398,1.029515669652366,-0.0778136222526422,0.0345869029222537,0.0540703852595411,-0.0179116574023235,0.0114187067790602,-0.0073761084750251,0.0443831333774976,0.9989219877122156,0.0142903098708072,0.1532646166623133,9.844383517567852,-0.0224152668572811,0.0577550834444982,0.0006440973385847,-5.003639090063763,4.568144235179193,2.030952849266784,1147.4968164652623,1119.162242135,1133.892030403847,1156.258272942238,-17.284816824943647,1090.0008993595643,-454.69433363809856,845.4027640827325,161.50131745448016
9.607500000000002,-0.4087109586817725,0.7427164885382449,-0.1605862608013321,0.0329216697428712,0.0567746761477594,-0.0186230984260562,0.0114592349677729,-0.0073076712387652,0.044366271876837,0.9989227735981014,0.0146791492363188,0.1431228059196212,9.845572894197508,-0.0226322288309093,0.0577532933900255,0.0007459525712574,-5.003704270800137,4.568288468185488,2.030959220518608,1147.3885406934749,1121.88707864708,1132.6752511755728,1157.9247221884975,-71.00757699587624,1043.4891700668031,-509.3005233399812,504.86489758405736,161.5031222188559
9.61,-0.3449477335386781,0.4320248519914096,-0.2000096288974213,0.0319323662732601,0.059154118297361,-0.0204500049593528,0.0115007541671102,-0.0072354007655593,0.0443612212996236,0.9989230431728118,0.0153230347556387,0.1325497911447709,9.84662311876369,-0.0228489856862462,0.0576937072741442,0.0008482292124422,-5.0037703446703725,4.568435470024768,2.0309642590263186,1147.141778580283,1124.379687985333,1131.3455277871476,1158.782597430158,-131.96219982703707,896.0178716773006,-547.5308163605913,163.4573472961819,161.50491485522613
9.6125,-0.2694793633046112,0.1154896843441836,-0.1642771174571583,0.0311658931200221,0.0603267658569459,-0.0225628233736049,0.0115424782367845,-0.0071589027609004,0.0443681998372779,0.9989227967583773,0.0162050778036945,0.1217234479874525,9.847515865445104,-0.0230627159229959,0.057572469246023,0.0009519157840922,-5.003838074900869,4.568585476218645,2.0309682991100897,1146.7287296943396,1126.3671680054672,1129.9375970937695,1158.7420089249788,-208.67422303728208,719.606226321663,-614.3228868363116,-177.45438733392757,161.50668978200295
9.615,-0.1795607658381396,-0.2273752320512069,-0.0353479402001739,0.0303496633152892,0.0596773789231765,-0.0242678723909835,0.011581845993005,-0.0070777349358698,0.0443880702208302,0.9989220280182824,0.0172963379685234,0.1107899266978759,9.848234979013169,-0.0232699702886506,0.0573872686894236,0.001058182976774,-5.003907860335632,4.568738203445876,2.030972036899383,1146.0984074650964,1127.977719116942,1128.2739133529656,1157.895325493488,-239.21404521929827,451.2489459995765,-585.4825057554791,-399.7623074922444,161.50879571346917
9.6175,-0.1169528382998314,-0.4493696912201528,0.12315670435574,0.0300377653506012,0.057599106587115,-0.0246419988394153,0.0116179350829735,-0.0069910490402732,0.0444189781911946,0.9989208360821988,0.0185511460544366,0.0999259725767715,9.84876532822947,-0.0234672324332872,0.0571376840182708,0.0011678187136427,-5.003980536399066,4.568892363526692,2.030974966596976,1145.5326594682433,1128.6234127354646,1127.0101845649926,1156.743197387518,-215.45426283333924,122.67243773901912,-456.699549687502,-505.1760074147416,161.5105284519872
9.620000000000001,-0.0820483989612674,-0.5801540403937446,0.2964701823661435,0.0301781547626522,0.0548043029074303,-0.0238812081429327,0.011647483417093,-0.0068993938128666,0.0444549585539669,0.9989195201070524,0.0199394565828564,0.0892537207597697,9.849093921054077,-0.0236513342608438,0.0568255031110814,0.0012816299259535,-5.004056146023622,4.569045474865341,2.0309773926094703,1145.0211361509296,1128.591081305637,1125.9904156045277,1155.369445456414,-193.08332325401065,-140.23009740842636,-371.59377982546727,-614.1847083642864,161.5122358457008
9.6225,-0.0850040612788895,-0.6323098817947436,0.4750055825287827,0.0306953988027896,0.0517633230285828,-0.0219556618813898,0.0116693605290004,-0.0068063247933935,0.0444902198614086,0.9989183262572428,0.0214835144125701,0.0789218098208817,9.849208570939346,-0.0238192876648626,0.056455068026225,0.001399892766176,-5.00413276843595,4.569194365644241,2.03098018585452,1144.567242851973,1127.9222622484224,1125.152215665865,1153.672273845696,-129.8952659404025,-321.258906254134,-234.72777663660176,-610.8260857856145,161.51425293949103
9.625,-0.1271818577512491,-0.6073367003543547,0.5718447491258893,0.0312506434450708,0.0499054349357742,-0.0198386987708379,0.0116834904369071,-0.0067157948286749,0.0445185856754923,0.9989175044544872,0.0232065202554486,0.0690815454966756,9.849099256844884,-0.0239686055728073,0.0560329970847128,0.0015222897440989,-5.004209631276806,4.569337364065277,2.0309830356187395,1144.3716598212277,1126.9847867743667,1124.8167767213447,1152.3153150274863,-35.339001372592726,-420.42362615788255,-58.6308172503894,-516.1951538937618,161.5159055410494
9.6275,-0.2014238506657429,-0.5458300100159101,0.5952704573442327,0.0316452169211152,0.0489565942699755,-0.0174949066900578,0.0116891560618875,-0.006628901577097,0.0445370755413027,0.9989171903342182,0.0250684838126112,0.0598519257877529,9.848759700246733,-0.0240970335283128,0.0555677683177867,0.0016479108209133,-5.004287023166048,4.569474701396345,2.030985867094712,1144.39054784511,1125.8201441176332,1124.8590615796131,1151.0912980762275,53.56542923617853,-536.428911244964,92.83578015282185,-494.0926151707709,161.51752652427493
9.63,-0.3002260149744706,-0.4691400885100551,0.5351947946461842,0.0314049496424105,0.0487122846413719,-0.0148078965185019,0.0116862600393674,-0.0065448556840148,0.0445492800554116,0.9989172317980664,0.0269877405842395,0.0513399812533006,9.848187410832601,-0.0242022724798184,0.0550692033775265,0.0017751407269026,-5.00436471992193,4.569607608911838,2.03098905588464,1144.6394869674086,1124.3026422181415,1125.280955622109,1149.8448519516323,118.96610052274768,-565.5663428632149,198.82169635435804,-407.7142628838191,161.51943248348172
9.6325,-0.3622630525112415,-0.4213178621209185,0.4221249938314017,0.0302542982867986,0.0487848190175507,-0.0130493490521527,0.0116766174067872,-0.0064613627147205,0.044556402676111,0.9989175711316316,0.0288516984243972,0.0436640979734105,9.847383826814708,-0.0242830837547024,0.0545474613691147,0.0019015586670974,-5.004443778248128,4.569737289002108,2.0309931604005462,1144.985378347724,1122.9923124033169,1125.853170061385,1149.0527267618083,148.76958652242368,-531.8520294819032,246.87546009977632,-246.7904794280039,161.5209860970311
9.635,-0.3691385503013389,-0.3940919202850658,0.2684863613607557,0.0282629764858847,0.048609106901416,-0.0121407222373506,0.0116649876170419,-0.006382357386819,0.0445547520531785,0.9989182916677583,0.030672712708398,0.0369667177151289,9.846352873648227,-0.0243396596112699,0.0540125124710143,0.0020243365231956,-5.004524525999062,4.569863076419277,2.0309997142691807,1145.3833349000204,1121.6433820707323,1126.5153329226075,1148.6108995544923,151.91258834681673,-549.7708179561919,257.42866377645964,-103.82600275318704,161.52250124524977
9.6375,-0.3135643447975576,-0.374427839388401,0.104490090256703,0.0261078793095779,0.0479543074439186,-0.0119980221962286,0.0116561417333212,-0.0063144228508543,0.0445430115389156,0.9989193531581652,0.0325172500177969,0.0313594301806727,9.845102060766648,-0.0243730503009018,0.0534741361679257,0.00214059571079,-5.004605391072233,4.569984753031361,2.0310095893959663,1145.7449412894582,1120.2434583135355,1127.1403133802676,1148.5335967480423,118.03212761317783,-576.3035875292198,216.68243479672375,69.06928387596793,161.52398259718007
9.64,-0.1809418837092836,-0.3444470664486777,-0.0455322120938385,0.0243071083586359,0.0465733315339495,-0.0125073231380492,0.0116573739038868,-0.0062622076765675,0.0445206622088512,0.9989206634199954,0.0344203453224415,0.026977759264085,9.843642509709367,-0.0243855057370209,0.0529414695566529,0.0022472803984853,-5.004684190071436,4.570102474763676,2.031021305893523,1145.9734955380864,1118.761864133086,1127.5987450965915,1148.9562459738725,53.16492414213975,-666.5362423640961,138.7388059620483,301.13465881705986,161.5254209461838
9.6425,0.0447977094532295,-0.2751398651606334,-0.1843268319416662,0.0230866876364712,0.0442414569445207,-0.0137214812363467,0.0116719236910246,-0.0062264155529121,0.0444889808069389,0.9989221225931852,0.0363424860385245,0.0238557647412565,9.841989592888147,-0.0243802780065241,0.0524226140747602,0.0023420781948563,-5.004759542317925,4.570216716990493,2.0310338153363987,1146.0107659101689,1116.9107771017157,1127.8340074100777,1150.039270042127,-31.464346580111744,-677.8365397321961,21.24152238593947,477.839053329903,161.52709512710223
9.645,0.25742064793955,-0.1862508080291337,-0.2564904135713271,0.0231247110407369,0.0422661987196616,-0.0150311164860568,0.011699732989885,-0.0062019894920756,0.0444491193996311,0.9989237115909018,0.0381367830926611,0.0219459889746829,9.840162051510392,-0.0243614921777779,0.0519241434809384,0.002423418452739,-5.004831507591914,4.570328178142196,2.03104719469529,1145.816173805186,1115.3726814344257,1127.7049527085212,1151.3454412405215,-123.45310699436484,-588.1625610640175,-128.47782511355754,570.3526498129594,161.52844645687543
9.6475,0.4490365517268404,-0.0829344265814517,-0.285328441205182,0.0243874417049827,0.041372327300044,-0.0161198249965153,0.01173889511155,-0.0061832541952809,0.044403121812307,0.9989253987053248,0.0396529293109342,0.0211474078281268,9.838179459859479,-0.0243335573971663,0.0514508314996736,0.0024906878359576,-5.004901003688604,4.57043740854101,2.0310608532168275,1145.3935003751967,1113.9699642963951,1127.1916182845096,1152.8910332911923,-229.0791530596931,-550.2608530171577,-317.4409728718687,677.4265741315354,161.52975271111055
9.65,0.6020771611891393,0.0162522457930008,-0.2847610735720803,0.0272850464627073,0.042171804999635,-0.0168596324805293,0.0117855521834086,-0.0061702750879942,0.0443551853997583,0.9989270435173618,0.0408630342098859,0.0213022803426602,9.836059523732015,-0.0243005896529173,0.0510054761545694,0.0025446218728887,-5.004968245914968,4.5705449687292,2.031074202411925,1144.6707780398874,1112.6213771693394,1126.1177478441616,1154.7325741111797,-290.0461863718769,-416.02797186618864,-464.0516486146239,627.3563955806251,161.53127002709024
9.6525,0.6381026970531923,0.0492169160489757,-0.2683855018828927,0.0305770193072285,0.0437507198274887,-0.017176452352573,0.0118363002579236,-0.0061608511819825,0.0443087027920653,0.9989285511122796,0.0417070912711411,0.0222555190227232,9.833818306229261,-0.0242664286019768,0.0505886211147681,0.0025866145341241,-5.005033431327103,4.570652243312437,2.0310870009223128,1143.9432694433378,1111.8898244370644,1124.8713600414371,1156.027815269095,-301.1158122774904,-195.38801914799728,-550.850410199992,421.39767400876013,161.5324949879397
9.655,0.5712922056385461,0.0148852482020804,-0.2479012916952205,0.0338575825999063,0.0450274469480475,-0.0174514983207611,0.0118841371890824,-0.0061494981083422,0.0442637914652088,0.9989300357336252,0.0420697585145843,0.0237809108647674,9.831470022786979,-0.0242345908620491,0.0501984301607459,0.0026189708504827,-5.0050978720689825,4.5707615262164705,2.0310978902149794,1143.1651989785003,1111.6444370735996,1123.3634957931622,1156.839562481223,-333.5896037658974,2.7550849163158326,-681.0157142376584,213.5528868862032,161.53368291431684
9.6575,0.4013394398935526,-0.0941548657708413,-0.2257455005619938,0.0362164477162887,0.0454733228150509,-0.0178752572712844,0.0119229773291179,-0.0061320747000728,0.0442177202160048,0.998931719198807,0.0418747147759859,0.0256701010004059,9.829024622630943,-0.0242079909193257,0.0498310040067647,0.0026444849293307,-5.005163183037703,4.570873913499586,2.031106558465631,1142.275321424508,1111.903599861646,1121.4662814702483,1157.0955797035263,-304.1082152741162,172.56172196204747,-669.7127712012251,-28.849566963976976,161.53507158419308
9.66,0.2246759219820914,-0.2226699994714598,-0.2105845731039907,0.0363832813444998,0.0449728371216692,-0.01840243287009,0.0119475165167007,-0.0061029370389236,0.0441741238868498,0.9989335380321108,0.0410269595311421,0.0277350653563455,9.826488020981364,-0.0241880261582254,0.0494813546048405,0.0026659757179311,-5.00523039225896,4.570990464136705,2.0311135629564347,1141.6446579021294,1112.50724568341,1120.0149319371556,1156.6953146464032,-214.34545985748343,293.2525730541912,-504.4119912517184,-267.7781013686477,161.53620330770315
9.6625,0.0606691476249072,-0.3651524976810405,-0.198600937958644,0.0354502155430606,0.0440246719518236,-0.0189471604718004,0.011960450948338,-0.0060580580519755,0.0441324262680835,0.998935504944135,0.0394804152123058,0.0299509134383529,9.823860191863202,-0.0241757950413036,0.0491436313231288,0.0026854576965784,-5.00530045947836,4.571110813859945,2.0311193044390707,1141.203594125221,1113.3698627269168,1118.9442215139902,1155.7566891966833,-138.5393490290209,363.63579434154184,-336.8025184070958,-437.1154055964552,161.53731494407074
9.665000000000001,-0.0673819457894763,-0.5027317932186394,-0.189408396570138,0.0342586854630515,0.0428970247983709,-0.0193945083748842,0.0119684415358203,-0.0059967782581685,0.0440890401243333,0.9989376985145928,0.0372675050691174,0.0323765297425331,9.821135637602247,-0.0241722610391585,0.0488119050030062,0.0027043947736954,-5.0053727068343195,4.571233144971848,2.0311245402236087,1140.9519611569842,1114.325424655118,1118.3309193451198,1154.5097376184203,-55.29907165472695,378.16557769286646,-119.94357895544398,-532.9895050686522,161.53841411342952
9.6675,-0.1398333279943514,-0.6171368445134156,-0.1840550341757968,0.0330787184205868,0.041388836399032,-0.0197177246306525,0.0119754245529588,-0.0059230913019908,0.0440443321421301,0.9989400275038154,0.0345168551989741,0.0350220779259058,9.818304986019548,-0.0241778844404745,0.0484810731734367,0.0027242496548966,-5.00544550640326,4.571356483595554,2.0311296983129488,1140.9270987669472,1115.2606906153815,1118.344503619213,1153.0917416713396,31.101065669515087,381.7690666172744,143.4295981476056,-613.3010273608162,161.53950239328503
9.670000000000002,-0.166987810510886,-0.7080760274351299,-0.1812260981196586,0.0321056407804582,0.0390308679165242,-0.0200478570643607,0.0119846690014481,-0.0058387364911441,0.0440011888748915,0.9989423120507404,0.0313187064869061,0.0378953322156711,9.815357428532627,-0.0241930192521324,0.0481472024626731,0.0027458359177328,-5.005518586367847,4.571480948343714,2.031133651761329,1141.1074664853315,1116.234269988204,1119.0480673358577,1151.443232481617,88.47927720304993,321.8502596120473,351.5922449448016,-564.7579737536248,161.5407999073302
9.6725,-0.1526628184047298,-0.7348035283146686,-0.1792690967988162,0.0318276663737374,0.0366180647524927,-0.020368079078683,0.011996482684461,-0.0057476966692852,0.0439609121743232,0.998944465484908,0.0278105753261178,0.0409521381272412,9.812281601334396,-0.0242183507374924,0.0478076140909134,0.0027696589283875,-5.005591483875839,4.571605200386112,2.0311368213248753,1141.3694951529624,1116.8699419134412,1120.1024648439363,1150.267951802572,110.63360089208888,214.126289818899,484.66833992176066,-403.2307177343961,161.541876334262
9.675,-0.1179863396963501,-0.707052998907377,-0.1723859069151137,0.0320023592967049,0.0341673626937723,-0.0208409279146654,0.0120086637743093,-0.0056519634083736,0.0439234989266709,0.9989465019020806,0.0240935495292649,0.0441072823548687,9.809068062481069,-0.0242548991150577,0.0474610802058879,0.0027955135647076,-5.005664452159686,4.571728065361443,2.0311410993285346,1141.6606344897923,1117.3049014372987,1121.4714090354669,1149.4270788929448,118.33241480456276,148.88658228257955,634.2889967591791,-281.0918697432059,161.5429493249161
9.6775,-0.0673824883640488,-0.6215288224857695,-0.1517236278294387,0.0323066233734565,0.031864520675368,-0.0216384814946335,0.0120203235256877,-0.0055549945905763,0.0438859640958411,0.9989485446733692,0.0203023913786066,0.0473045341503487,9.805709561098887,-0.0243041514103976,0.0471077789148179,0.0028223258336907,-5.005737605658237,4.571848823360133,2.031147036866027,1141.9611572269853,1117.6143748248544,1123.2739098277327,1148.8624924538556,97.09438845840961,84.44731419160094,661.0892957840357,-136.70087813664387,161.54423347891088
9.68,-0.0213823182958416,-0.5219774560139174,-0.1216243446034219,0.0323123709553476,0.0306098025647864,-0.0224308234549946,0.0120320950328025,-0.0054646129887992,0.0438463685865876,0.9989506297561676,0.0166609641694654,0.0505157104046475,9.802202027409296,-0.024367669125377,0.0467493644223976,0.0028484724833413,-5.005810210236451,4.5719666955973,2.031154603854737,1142.1461064320843,1117.7271380082564,1124.7768555143864,1148.7435745022617,66.00422001882967,24.452085939397687,574.269865587122,10.409105366714549,161.54530029354407
9.682500000000001,0.0292564898145452,-0.4129021435915509,-0.0813180987805897,0.0320044064282508,0.0299227119451983,-0.0230719379779255,0.0120457778634963,-0.0053854637229966,0.0438049622342014,0.9989527021927128,0.0133326860509916,0.0537381261402644,9.798547323593649,-0.0244469988033115,0.0463887749564515,0.0028716718675688,-5.005880658491811,4.572081425589033,2.031164139309659,1142.2911783270795,1117.7366352545514,1126.145259155669,1148.9145379806891,72.97263705421523,-9.869671299428141,543.4897239868011,117.75251326942433,161.54636228998191
9.685,0.0940702418965153,-0.2883333536159793,-0.033844598395981,0.031659943476808,0.0294881945944939,-0.0232649194739109,0.0120672276535132,-0.0053228674337456,0.0437639789289716,0.9989545695227046,0.0104969732962984,0.0570461957453284,9.794752866799417,-0.024543479532732,0.0460299134683354,0.0028891951594768,-5.0059483992308484,4.572193301396532,2.0311743859450697,1142.5109696173552,1117.6777896517594,1127.4943041343208,1149.3323370686087,103.74475790510832,-28.66677948005078,427.5043467193368,168.67928744326207,161.54762869058348
9.6875,0.1451217125159145,-0.1961358270324427,-0.0072716420122771,0.0318010948408441,0.0292639714726951,-0.0229564164990399,0.0121010899355291,-0.0052801100678883,0.0437280107972692,0.998955961619124,0.0082898065153302,0.0604894438810821,9.790833709228009,-0.0246578718402338,0.045677289317951,0.0028983915899952,-5.006012340146138,4.5723025173856575,2.0311839745044953,1142.8099021166047,1117.5933013571512,1128.2827808892653,1149.7579344179055,156.3192056654172,-38.43646728961031,227.11592887508203,162.1830045168603,161.54867507971292
9.69,0.1807654547102084,-0.1165187892456483,-0.0058821099209095,0.0326374813131966,0.0290244905883282,-0.0223250976069017,0.0121417246499772,-0.0052554833963204,0.0436946549937339,0.998957058348012,0.0067362831819567,0.0639175597759285,9.786815267397609,-0.024790754818071,0.0453351660121242,0.0028973620241761,-5.006073857588995,4.572408767121183,2.031193390882048,1143.2925656456823,1117.4856073153114,1128.629883778696,1150.143252091193,224.03941774433545,-45.61215977682165,56.48126020945737,131.89065985141255,161.5497088485845
9.6925,0.1959024955780169,-0.0444855752036109,-0.0280328734034976,0.0338674786609106,0.0287275701046688,-0.0216822839226858,0.0121854212186292,-0.0052432080183199,0.043661017957582,0.9989580583914826,0.0057766812646668,0.0672185648204801,9.782730721460528,-0.024941460794349,0.0450075926794752,0.0028838433785716,-5.00613458812844,4.57251137886712,2.0312027007086058,1143.9300992053268,1117.365240558267,1128.5651871903124,1150.4173877171627,279.31874915880326,-48.771287747323754,-127.61217927516378,72.09306857856755,161.5507291987605
9.695,0.1860907195131781,0.0220317677391812,-0.0717976426042381,0.0349093943876718,0.0284286741550473,-0.0213657217735155,0.0122300533598718,-0.0052372682934253,0.0436264246709364,0.9989590489394536,0.0053388190873987,0.0703095107390813,9.778620165172196,-0.0251075431345427,0.0446981350091984,0.0028554316919103,-5.006195407746981,4.572610040099246,2.031212465567078,1144.6891593914763,1117.2417508765748,1127.99182288232,1150.503717434086,330.17385312775536,-49.82442435708517,-360.40860179762495,-4.707549275873161,161.55172923127878
9.6975,0.1582916591850766,0.0962371229900098,-0.1299678609347462,0.0354608312913572,0.0283194706376496,-0.0215595384917748,0.012272823398558,-0.005234077870483,0.0435907659501509,0.99896009148156,0.0053860175965106,0.0730917780325826,9.774530130682354,-0.0252848529828676,0.044409329659716,0.0028099855302845,-5.006258263086842,4.5727050094898685,2.0312237569527167,1145.5809684709652,1117.1161184364817,1126.7631441813248,1150.393849970783,294.6020448815483,-37.46273032583628,-524.7246629683193,-65.44942842487103,161.5528997155954
9.7,0.1355096818403345,0.1502908518445017,-0.1653953056805748,0.035457882796923,0.0285641793658752,-0.0221792646388171,0.0123151586449583,-0.0052294350402785,0.0435561186304511,0.9989611060612712,0.0058598521941153,0.0755513768853925,9.77051197747788,-0.0254675826296796,0.0441423597470313,0.0027452072097716,-5.00632509562804,4.572797587690613,2.031236253180462,1146.1621696158843,1117.0544372249456,1125.368199567478,1150.1764702919616,166.06064004592687,-11.087654545870548,-606.3486208439788,-94.32336505581932,161.55384559829494
9.7025,0.1268256372997261,0.1901725877852294,-0.1677419926169225,0.035197395133449,0.0290336559934635,-0.0230726165613901,0.0123608843132942,-0.0052189807435989,0.043528772556399,0.9989617976710132,0.0066862769883269,0.0777251285791485,9.766620930854117,-0.0256485148154311,0.0438968710156064,0.002659054961098,-5.006397166840491,4.57289076366416,2.0312492821419936,1146.4112716711948,1117.0606801637523,1123.7314010771045,1149.922233145504,9.073239118199114,18.705207696260995,-733.7414470565914,-100.12248785421608,161.5547549457955
9.705,0.1387747628642393,0.2146302543630855,-0.117701776908695,0.0347778361972879,0.0296894757828623,-0.0241567115449845,0.0124069295882574,-0.0052018323945079,0.0435053095399609,0.9989623535695,0.0078380458917918,0.0795195254479904,9.76291627139485,-0.0258208528637518,0.0436702275549206,0.0025509390809917,-5.0064743400408815,4.572984815679616,2.0312635536632806,1146.2075358114755,1117.1479632634268,1121.6994923321959,1149.6758578526903,-161.20215730187303,40.66409016882872,-723.1924760509248,-72.21392882194395,161.55579772925935
9.7075,0.1630585727163223,0.2111821094204884,-0.0286831722714689,0.0344623000168885,0.0302860799295115,-0.024789177339803,0.0124494157603534,-0.0051780619182263,0.0434846236000086,0.998962865734944,0.0092908698355312,0.0808338757928847,9.759458526496298,-0.0259778780295076,0.0434584024379733,0.0024212105387895,-5.006556298962721,4.573080097605724,2.0312776599086475,1145.6052608846855,1117.2640006145964,1120.1154386968503,1149.5611635013945,-315.8803963773568,45.36264038292048,-574.9480109405805,-28.62706039768007,161.55662236171287
9.71,0.1858805104323127,0.1790623041947598,0.1049945872320192,0.0344840735811866,0.030948576748977,-0.0248638723781915,0.0124851649746603,-0.0051455008920013,0.0434690436737773,0.9989632804211044,0.0109636552916208,0.0815945866767871,9.756307654039581,-0.0261135600027806,0.043256381311371,0.0022709656865372,-5.006642544922635,4.573177865312918,2.031290955751268,1144.6281338295885,1117.3747764653415,1118.8247522774925,1149.532722550702,-431.0800552382042,35.42094968769917,-447.51924622298526,-7.130809922363164,161.55739681533237
9.7125,0.1883324258003397,0.1219189532314026,0.2683223454562118,0.0351291908670385,0.031650632839449,-0.0244566288994087,0.0125150524648994,-0.0051046914902104,0.0434557954977556,0.9989637006456668,0.0128198781564203,0.0818184332372259,9.7535194250836,-0.0262238610002933,0.0430581610040401,0.0021020410910928,-5.006730374441865,4.5732783076482,2.0313032649663207,1143.4498606084944,1117.4411053630347,1117.8778424657353,1149.5255094517827,-486.0644247857238,10.063678588405493,-283.66328961056934,-16.726077061961096,161.55812702773628
9.715,0.1417536000257986,0.0371548636965219,0.4569169706175231,0.0366020578648493,0.0322645903469043,-0.0237227021578915,0.0125411012912347,-0.0050577061780024,0.0434451060120889,0.9989640779904448,0.0148447502255003,0.0815573869353913,9.751144456716275,-0.0263063848553801,0.0428576425433598,0.0019170973653213,-5.006816971931053,4.573380741154868,2.0313135806475704,1142.1978117056603,1117.4250948582835,1117.40643582944,1149.4490921653924,-524.0945246924317,-24.923734505369296,-99.1676607090282,-72.43386071978952,161.558801267469
9.7175,0.0111837361831278,-0.0856737132683985,0.6971435932747496,0.0386638093386322,0.032538347152333,-0.022663660969747,0.0125687582422792,-0.0050077996213623,0.0434398445407627,0.9989642001815436,0.0170433759021619,0.0809434485489858,9.749226053972532,-0.0263603913332845,0.0426490473661744,0.0017192343662447,-5.006900734377719,4.573484526379348,2.031321625812003,1140.8293879850328,1117.316486690508,1117.3820041621902,1149.1633401481838,-452.743382680612,-47.8788303516392,68.08028392537226,-145.34355902562768,161.55954296307058
9.72,-0.1545371090289982,-0.192694167059711,0.8932072014420221,0.0397799943911666,0.0322376669210924,-0.0214593321684598,0.0125984030388022,-0.0049595797258896,0.0434366494092117,0.9989641802488788,0.0194399941275919,0.0800232094704588,9.74780101203482,-0.0263872240214347,0.0424267278790182,0.0015124594836746,-5.0069815477481745,4.5735892830769185,2.031327522784812,1139.9340947922567,1117.1857007065253,1117.7468372490669,1148.722374370264,-286.8452455836638,-48.546904312062594,198.9968726747664,-213.04332893875048,161.56010343193432
9.7225,-0.3496624192248193,-0.2866788143560201,1.0564640177616142,0.0392785513277768,0.0313623644157627,-0.0196204713151705,0.0126285293654122,-0.0049139869760394,0.043433730847684,0.9989641058761934,0.021986022208705,0.078822406437692,9.74689874840556,-0.0263892080404497,0.042185819404182,0.0013008391567251,-5.007060173029798,4.573695078207062,2.031330716216139,1139.3951617571142,1117.0737521689475,1118.3769885255642,1148.09812350349,-148.03600148596377,-31.638307049303805,299.7528710451348,-293.239128746258,161.56060296856924
9.725,-0.5690721469670712,-0.3665981351795588,1.169076431120477,0.0367694476069412,0.0297548257240533,-0.0163198649359029,0.0126571060345865,-0.0048688968607874,0.0434334733760153,0.9989639073069292,0.0245757200278871,0.0773697334471999,9.746540388693967,-0.0263690245625936,0.041922603135202,0.0010881051869213,-5.007138042231457,4.573802801784557,2.0313313879012,1139.1939147848273,1117.0275091712788,1119.2456016042922,1147.256178726533,-4.8089227151642016,3.2669206539589486,309.8928759788548,-301.24290719777326,161.56113140473718
9.727500000000001,-0.7104086811473271,-0.3988948988313317,1.1573561823885588,0.0339410335819491,0.0283437694871379,-0.0124803312022032,0.0126824425035204,-0.0048250215767919,0.0434338195713272,0.99896369127373,0.0271641767572244,0.075706946682363,9.746737319637903,-0.0263301694844251,0.0416343326766616,0.0008776303271981,-5.007215695913398,4.5739109933119275,2.031332108155381,1139.3711171435384,1117.0900867722175,1119.9264529054587,1146.5919089675008,128.3468503990461,44.50725289411125,240.74425727836444,-233.09282338128463,161.56151267834596
9.73,-0.7933783831027048,-0.3961879379312762,1.002564932740964,0.0313350593051137,0.0273157643175738,-0.0077880644789294,0.0127087885644167,-0.0047824669784359,0.0434289466051522,0.9989636584547456,0.0297068770652051,0.0739980198531814,9.747490626485245,-0.0262767955665627,0.0413195133129417,0.00067167697701,-5.00729254803517,4.574017655194358,2.0313338818532047,1139.8356490368224,1117.2500454357491,1120.4493228906842,1146.0907146096265,250.82342455739752,78.44289440519529,189.01879601398045,-165.46695535538328,161.56183330243482
9.732500000000002,-0.8299064943566407,-0.3591987837324287,0.6461520046270525,0.0289259179154948,0.0264611865732857,-0.0024920748578155,0.0127398048506852,-0.0047418978783628,0.0434143659515862,0.9989639622314664,0.0321781501996586,0.0723974255279449,9.748792935731752,-0.0262131877810236,0.0409781808720654,0.0004721272183936,-5.007366878217593,4.574121521886201,2.031336541700616,1140.6252342663252,1117.4823012442434,1120.8715468855285,1145.764574190724,314.5681053022316,73.41568114667649,133.4051639936471,-71.13751877692772,161.562149464596
9.735,-0.8171154989703489,-0.304265619187408,0.2352079632027419,0.0274588732085835,0.0258371893379746,0.0004705415164821,0.012775418823402,-0.0047014715890806,0.0433891689579836,0.9989646668858446,0.034509405704632,0.0709880240871558,9.750630340531751,-0.0261433664916509,0.0406118038791556,0.000280774367666,-5.007437384650692,4.574222130338896,2.031339697007696,1141.4084895633334,1117.6171238414827,1121.1163487106523,1145.735027015742,326.49126498621973,15.392329936910167,104.41924001409647,30.000993038351993,161.5623573795857
9.7375,-0.7667467255905525,-0.2258448113854953,-0.2244780960611824,0.0262252357619524,0.0253715447190536,0.0007976241889455,0.0128159109694783,-0.004659288413302,0.0433554092137305,0.998965713076138,0.0366403810908973,0.0698554924701641,9.752981596786592,-0.0260707535490168,0.0402228970452031,9.930734846092556e-05,-5.0075055214892314,4.574319362333728,2.031342057209278,1142.2576905912565,1117.559262893928,1121.393643085599,1145.9145791559158,344.22522616440875,-71.86375173931778,140.73357816489607,93.7353036068397,161.56251011807583
9.74,-0.6834873474671039,-0.1269314055534739,-0.6576261969196907,0.0247987447992477,0.0251406486365569,-0.0015322589065309,0.0128606060316546,-0.0046116566408391,0.0433195336949745,0.998966882319329,0.0384837247187923,0.0690612383435977,9.755819551826287,-0.025997704421635,0.03981468951277,-7.061974241597956e-05,-5.007573259073128,4.574413540659488,2.031343676904087,1143.1296156941555,1117.257805082786,1121.8200166014767,1146.2037035337762,349.81857495502163,-187.387452013073,230.58720283488623,123.49988905614464,161.5626193723101
9.7425,-0.5512906481501553,0.0006892276935832,-0.9853213552434829,0.0229057447420995,0.02497356613991,-0.006253068412912,0.0129062676536863,-0.004556361214447,0.0432870149136506,0.9989680372216352,0.0399866054105559,0.0686064536425432,9.759111629501545,-0.0259257973980994,0.0393904937495821,-0.0002271002744621,-5.00764158797702,4.574505853950416,2.03134489391061,1144.0067834660313,1116.6223256338628,1122.5465790997732,1146.5320786011964,382.9671346524576,-344.73883106551574,405.4505834230716,132.6272565282372,161.56267912433532
9.745000000000001,-0.3260719410206898,0.1936439633674541,-1.2030635973506665,0.0205721833147824,0.0247566361436068,-0.0125237693532794,0.012954431915239,-0.0044913288077738,0.0432624157030547,0.9989690299799088,0.0411098237821994,0.0685741665799696,9.762819318748996,-0.0258558885822613,0.0389535017057674,-0.0003686459467633,-5.007710871959607,4.574598418544223,2.0313446782154463,1145.0444513674183,1115.534110927458,1123.8472695185926,1146.8668398164175,373.12388163980887,-428.2625221442926,547.3033035687475,103.87502552469608,161.56269684153102
9.7475,-0.0849370822559514,0.3893492331584701,-1.2366680378735089,0.0193408319019543,0.0248413834706789,-0.0170535794706466,0.013008531410248,-0.0044146990625316,0.0432491954765142,0.9989697455614494,0.041825518316201,0.0690715404842164,9.766899829888589,-0.0257882650123922,0.038506826172682,-0.0004940465267711,-5.0077805408167935,4.574693168210968,2.0313419899258127,1145.8724028742306,1114.481013023141,1125.2830956176172,1147.05145372882,311.984291441757,-408.08208925299294,631.004033238094,53.593639722213744,161.56266841040232
9.75,0.1957555624553095,0.6149548569539764,-1.1501971665672943,0.0192931910964728,0.0253788462654392,-0.0203461654255988,0.0130698147756332,-0.0043284239830203,0.0432387211909548,0.9989706043120647,0.0421829895782402,0.070147385468887,9.771307279543374,-0.0257235865652127,0.0380532611778264,-0.0006020813104471,-5.007849922151776,4.57478896361244,2.0313378242291487,1146.6043728246268,1113.4937004811936,1127.0022896847825,1147.1348080150285,278.53406416194133,-362.32025775464473,787.6436976895294,24.455824089959926,161.56259658975088
9.7525,0.5501249437647535,0.8994611524176742,-0.9681110234632097,0.0202353275386247,0.0266325015970412,-0.0228308880245243,0.0131354660196799,-0.0042350993371027,0.0432208832866317,0.998972137137336,0.042243717528933,0.0717555512589063,9.775995030110746,-0.0256620663025892,0.0375962044681188,-0.0006918295877088,-5.007919399817986,4.574883576306648,2.031332480962804,1147.26507319504,1112.669411734368,1129.2213141060643,1147.1737328492695,188.67099555406415,-204.47715858391788,807.827621337775,17.878846666778305,161.56246104626416
9.755,0.8372626313170284,1.1226143085263791,-0.795056177451463,0.0217565873630913,0.028454614291164,-0.0237868380589355,0.0131977451854487,-0.0041351893030774,0.0431950716911919,0.9989745188328432,0.0420248663309001,0.0737379986934113,9.7809178089464,-0.025602679322849,0.0371403700408041,-0.0007629656271402,-5.007989837161176,4.574974822319998,2.031326390087826,1147.5477278023973,1112.4713146882739,1131.041427791472,1147.2242022483624,42.59204110575654,53.04556280383702,680.5937950028538,42.70875825204044,161.56230696942305
9.7575,1.0871029705260549,1.2898570190290144,-0.6383647520758206,0.0241265287477588,0.0313047865613619,-0.024037009768229,0.0132501652980711,-0.0040317769458786,0.0431649795176467,0.9989776783552468,0.0415964626249864,0.0759417779337993,9.786030354543437,-0.0255437382667585,0.0366913570728866,-0.0008160461037083,-5.0080624341235485,4.5750619104470935,2.0313212861225582,1147.4780334005688,1112.9346395483872,1132.624283081079,1147.38727664053,-113.49253592968564,364.9390774891616,596.3290382061864,115.50434539769893,161.5621095330448
9.76,1.3098828265972484,1.37153129496505,-0.4862873395779403,0.0279127786467234,0.0360811688429008,-0.0242980619122003,0.0132919957897645,-0.0039321657423317,0.0431321954130231,0.998981484499731,0.0411160841184833,0.0783071756338848,9.791286836884888,-0.0254836876532997,0.0362549460179622,-0.0008526590456005,-5.008137407029617,4.575144447726824,2.0313183711462086,1146.9802651227487,1114.296010075719,1134.0230729825023,1147.8017239753508,-240.48708382811915,617.4428887376905,402.8217615738238,194.21059251959977,161.56182087094055
9.7625,1.4089201756854723,1.3059079920047676,-0.383794326522468,0.0318166602484531,0.0411111489171991,-0.0249123592601484,0.0133263972713163,-0.0038442890919346,0.0430981959835489,0.9989856526021494,0.040756661842082,0.0808354066146535,9.796642599873167,-0.0254213439441223,0.0358367400842943,-0.0008751857430819,-5.00821319304494,4.575222451038713,2.0313190528235405,1146.275597981428,1116.0218539920763,1134.6383918889485,1148.358329603128,-318.76993726418294,768.7441039314471,110.53410343541236,262.44493567701727,161.5615356949103
9.765,1.3993035532168219,1.0822527763607164,-0.2865955314294099,0.0362455790934231,0.0463569886997229,-0.025968195282153,0.0133586307649206,-0.0037654681260764,0.0430602423542414,0.9989899444360544,0.0404845514891165,0.0835657275396485,9.802057138450964,-0.0253564859277741,0.0354414536580325,-0.000886796067701,-5.008288693399382,4.575296153454135,2.031323195913337,1145.3864154364276,1118.1397305953772,1134.5757434996794,1149.113948653736,-366.8214498076216,864.5262628803166,-145.33774612071443,325.3741418675156,161.5612024344608
9.7675,1.2961887700972925,0.7392639262634791,-0.1773583692295492,0.0404289053247491,0.0504465804372669,-0.0271522488556126,0.0133947230532946,-0.0036948193222271,0.0430161830947572,0.9989939041448606,0.0403007430123092,0.0865407312154629,9.807491334907768,-0.0252896245788207,0.0350726711551753,-0.0008901464726829,-5.008361975605533,4.57536623471104,2.0313291799002324,1144.4414907323903,1120.344485306477,1133.911703158345,1149.9852003124652,-372.37606012320737,838.108817336782,-410.2028747943584,361.3027666300505,161.5608281018532
9.77,1.091326092124888,0.2985233007093139,-0.0403605633693414,0.0436840895289681,0.0520166284170039,-0.0280861427053204,0.0134398650253186,-0.0036352504991718,0.0429665758601671,0.9989969175666068,0.0402786350270873,0.0897760258314894,9.812906754500204,-0.025221731432421,0.0347325128726558,-0.0008867431429948,-5.008431227960072,4.575434750926196,2.031336485762539,1143.524535135812,1122.3302746820602,1132.524729125708,1150.920462486886,-382.2221860572284,746.290523851141,-762.7196612528395,409.19176709196984,161.56040294621536
9.7725,0.7548012370211628,-0.2638360634652808,0.1603668270970737,0.046661459770679,0.0513079012649251,-0.0284829049905111,0.0134910475283638,-0.003580653623373,0.0429126686542905,0.998998991299252,0.0403065871614582,0.093130130598171,9.818269579159152,-0.02515398907176,0.0344212476632857,-0.0008768687364394,-5.008497542492674,4.575502724192553,2.0313447505566726,1142.5303798021039,1124.0759379257331,1130.0981048520803,1152.0311591479256,-341.8991650765213,491.5537750724666,-994.4754188174819,395.1190742276431,161.5598325279211
9.775,0.4232730551529927,-0.7042796981014628,0.3528585523349785,0.0483244062719769,0.0491638795445867,-0.028083453807125,0.0135453060847515,-0.0035264356590665,0.042856516374125,0.9990000219658084,0.0403008830700525,0.0964606803229859,9.823545159769838,-0.0250873335345307,0.0341372151474737,-0.0008594387260491,-5.008562207677149,4.575571815770957,2.0313512839862846,1141.8150393104293,1124.7880435574227,1127.5523520316199,1152.8960578580245,-258.7640955352132,103.99506064393132,-1086.0382527519846,320.3198174034879,161.5593060540733
9.7775,0.0718678896738676,-1.0628327314218016,0.5599948853016143,0.0488633717022756,0.0460022970329195,-0.0269952634680866,0.0136017109805218,-0.0034709551364271,0.0428009246218915,0.9989998045790252,0.0402352553697267,0.0996657683974394,9.828696178003884,-0.0250221235963492,0.0338769761664397,-0.000832143134127,-5.008626062797408,4.5756448757398385,2.031354312828954,1141.236559324428,1124.595913228953,1124.6679135883214,1153.6327582349427,-215.03204237783123,-289.3985426971661,-1285.0215342748295,274.20715027661566,161.55872557371123
9.78,-0.3324072547045037,-1.3590230479175107,0.8097447768814232,0.0481250885214848,0.0415822290332855,-0.0252691406830094,0.0136579459036168,-0.0034125353539654,0.0427503667672202,0.9989987761477964,0.0400788672031901,0.1026221051151604,9.833683607647824,-0.0249578850873765,0.0336358198684825,-0.0007917616836412,-5.008690384670011,4.575721926321255,2.0313545750721476,1140.7398790985403,1123.3410508439374,1121.127244360247,1154.2670936094073,-140.3574233583421,-604.0007521265999,-1260.4611627394052,173.56521187891315,161.55796569919292
9.7825,-0.6275994500867639,-1.4779238888463713,1.0058745718446167,0.0464430068479463,0.0374026194593751,-0.0237248058639078,0.0137123177685575,-0.0033539047769139,0.0427141761959021,0.998997129179428,0.0398848855990034,0.1052229185450581,9.838464983975523,-0.0248930602234328,0.0334085906793493,-0.0007345585833113,-5.008756377014144,4.575802865329484,2.031352292897796,1140.5347722076363,1121.5759094683194,1118.3656077746234,1154.5005842943372,-27.7202199460546,-800.0534338761668,-1005.1342585225276,13.724472574674692,161.55727936235863
9.785,-0.8544014413610614,-1.4578130538594338,1.1674511093680366,0.0439328065353078,0.032892231426788,-0.0218434425681833,0.0137641525598261,-0.0032904723247814,0.0426967229056461,0.99899509235973,0.039559654447818,0.1073989969712781,9.842997162054074,-0.0248257993046908,0.0331898956254217,-0.0006573912260256,-5.0088247504525905,4.575887670324978,2.0313460906683525,1140.60127799881,1119.340783674556,1116.1015730676336,1154.3357159722807,98.40987012277904,-1011.707943409666,-821.6461503631577,-174.5819354672114,161.55653822703735
9.7875,-1.0319520759430925,-1.2847239978832683,1.2819528235388344,0.040294851233975,0.0278993589735528,-0.0183770142856082,0.0138125953210058,-0.0032164993454045,0.0426872736651513,0.9989933850581112,0.0389820425826041,0.1090925561990422,9.847236253764976,-0.0247549084542086,0.0329742778296804,-0.0005578362970878,-5.008895540103721,4.575973382008461,2.031336286229678,1141.02682155825,1116.517369751272,1114.2573770228084,1153.6276746170015,209.97373692663487,-1000.7457788859736,-500.86712707299193,-340.1113332875789,161.5555871544138
9.790000000000001,-1.1001749125167075,-1.0380397631457237,1.2768937944055485,0.0372346509389324,0.0247003269271053,-0.0140973649553382,0.0138564953069246,-0.0031318690886218,0.0426761246331919,0.9989925398044605,0.0381369909263945,0.1102472068588574,9.851137749200289,-0.0246791176933313,0.0327574651656138,-0.0004344363655139,-5.008967819112203,4.576057311632907,2.031324268418304,1141.6511466834431,1114.3370547801253,1113.5972374322682,1152.6351593058423,289.5102833483636,-780.4878280008468,-68.45642010038158,-459.1834004553412,161.55474522547
9.7925,-1.0953320549153067,-0.7213403517543477,1.1363980577197157,0.0346828017235247,0.0228348647625806,-0.0090814335755148,0.0138971245169936,-0.0030453768381763,0.042658670531406,0.9989927122355894,0.0371833816261227,0.1108579447545027,9.854656946555094,-0.0245971243442847,0.0325366254087394,-0.000287172542958,-5.0090395927721145,4.5761386625424,2.031312686690132,1142.474372974992,1112.6149306112673,1113.9150949223065,1151.3317576147244,342.53536934895686,-587.0909174680295,281.677977598894,-545.8760818279819,161.55385552894222
9.795000000000002,-1.0402996067383075,-0.3752419719996196,0.8807315781879769,0.032412985551231,0.0219174575435437,-0.0045806450865933,0.0139339547723228,-0.0029608118349774,0.0426341954953635,0.9989938487206784,0.036177218018618,0.1108995199070982,9.857755427509966,-0.0245078038012388,0.0323100725426527,-0.0001180814773227,-5.009109571772087,4.576216815385916,2.031304672710793,1143.3638235301878,1111.4016001927855,1115.0056273202624,1149.9057788967032,343.24144925346906,-353.3727314726796,594.4360322805824,-558.5196154622481,161.55292958206743
9.7975,-0.93474219257905,-0.0235555236029799,0.5143094918044098,0.0301433072744837,0.0219036411464536,-0.001648480074578,0.0139668383643547,-0.0028863621585445,0.0426050744546005,0.9989956695052375,0.0352593989408315,0.1103609638427799,9.860400482442202,-0.0244101729501096,0.0320768676384436,6.934079091523151e-05,-5.009177286189699,4.576291649413174,2.0313015454308094,1144.190580221259,1110.8480669539042,1116.8872750837088,1148.5391595374135,314.7184161411096,-103.38367377647248,958.4062826251603,-533.3338353008534,161.5519649212748
9.8,-0.759173333715299,0.3748788621873681,0.0145902981486985,0.0274018836310739,0.0229087873827434,-0.0004794424829525,0.0139940342143685,-0.0028258549957941,0.0425704674465899,0.9989979889736044,0.0344822753425536,0.109214438580554,9.862569343122832,-0.024303592307296,0.0318360877452263,0.000270376030784,-5.009244079783375,4.5763634392926305,2.031303373537801,1144.9374156108936,1110.8846818239033,1119.7976587333887,1147.2391097201985,215.028539985372,109.38086904973824,1132.3861222786993,-387.0884046242131,161.55077020538653
9.8025,-0.5803197209052429,0.6713176860926391,-0.390690512499512,0.0255010784538534,0.0244642006971146,-0.0016425649227851,0.0140133111440559,-0.0027741714621989,0.0425271864991381,0.9990006620674357,0.0337212868183189,0.107440091953445,9.864251000928004,-0.0241875775849126,0.0315864739004878,0.0004794555955847,-5.0093118682940245,4.5764328617372,2.031309016603113,1145.265722921186,1111.3949712991528,1122.5492056951032,1146.6037175142924,63.521926450233785,273.58622148882193,1117.9300340736013,-136.10493915555688,161.54974985631938
9.805,-0.3819301743449684,0.918090157255661,-0.715251229119916,0.0245090640721112,0.026387327177191,-0.0048953584028695,0.0140261332079878,-0.0027273327866746,0.0424763619519423,0.9990031978447776,0.0328787231192262,0.105098500764141,9.86544348912355,-0.0240614499060265,0.0313264818182771,0.0006910126647445,-5.009381999007123,4.576502000054175,2.0313165421517887,1145.2550252431447,1112.2526129313471,1125.3873089037559,1146.5585850244208,-69.65093448501469,425.1939176763034,1218.7266648168957,123.33287207609717,161.54871105285747
9.807500000000001,-0.139253116391083,1.1454563938391888,-0.9593616577822655,0.0240927146370633,0.0289737389077414,-0.010036742638126,0.0140365358177656,-0.0026774492605491,0.0424210093134998,0.9990050826965307,0.0317845844792849,0.1023125238748074,9.86615537183258,-0.0239248042772654,0.0310541089447575,0.0008996623502938,-5.0094544707149735,4.576573314290725,2.031323908161411,1144.9174682487608,1113.5209408875348,1128.6428390191886,1147.2203818746727,-156.86582353616635,486.3451347073501,1139.5642391992662,350.6165043491271,161.54745078059105
9.81,0.0566884342907817,1.2669945020010072,-1.033157070919688,0.0240229375905325,0.031605708425064,-0.0141255797406936,0.0140458962194642,-0.0026244525307605,0.0423656003958181,0.99900639066378,0.0304250509143279,0.0991535341983416,9.866404441864274,-0.0237778887307744,0.0307671150092687,0.0011011951666482,-5.009528291324135,4.57664597646715,2.031331499257336,1144.4706961254635,1114.6843386048843,1131.085130099753,1148.3116675461667,-183.222727235434,472.3417129916045,894.8542823411988,517.3061039935993,161.5463941509446
9.8125,0.2368358105672579,1.300647660219015,-0.9957168360347192,0.0243205056149032,0.0350542303530919,-0.0171119464335823,0.0140576920869934,-0.0025764644047201,0.0423194959594404,0.9990069935046922,0.0289554168784976,0.0957337095134118,9.866215275724404,-0.0236216766073453,0.0304635514511545,0.0012922480355437,-5.009601367635101,4.576719392268227,2.031340187390065,1144.001354612584,1115.8826494524924,1133.1171104308935,1149.8069123946404,-183.23516909166764,525.1910062562864,779.8060678607005,701.1671740361666,161.5453362253001
9.815,0.423849044008,1.2208599393697888,-0.8731415947244123,0.0252537197671177,0.0398575668829589,-0.0193365898017967,0.0140754468792032,-0.0025376746855772,0.0422902132448787,0.99900674546797,0.0274607428054638,0.0921756145184836,9.865620879036095,-0.0234584060863263,0.0301417183443843,0.0014698401081866,-5.009672292724416,4.576793545550824,2.031350268413181,1143.5545202800056,1117.3102936361652,1134.9841604390558,1151.8175034163469,-133.46746045342755,517.2885921281804,581.9536961114864,735.6423369733179,161.54407062014863
9.8175,0.5468280658709525,1.050229749065328,-0.7446358491034938,0.026470587308245,0.043670642278779,-0.0203267375986094,0.0140966703709568,-0.0025094930516053,0.042275101051808,0.999005933839751,0.0259749796999172,0.0884915328660294,9.864662249595343,-0.0232919327598732,0.029799973398051,0.0016319034253625,-5.009741138700147,4.576867225636064,2.031362318563367,1143.3340173103168,1118.4690924131337,1136.0268789114516,1153.4851240795076,-57.03778629325842,452.4467917775585,308.960479129334,629.0130342655101,161.54302261950193
9.82,0.625969769847033,0.7839770009448284,-0.6230206416783143,0.0281285799669463,0.0464390959097484,-0.0208592596476039,0.0141222866897086,-0.0024998454836538,0.0422750497105752,0.9990045665366742,0.0246730977147304,0.0847580034740503,9.863381872291741,-0.0231265965270343,0.0294375317912383,0.0017773509465451,-5.009807274385895,4.576939981900379,2.0313756818377713,1143.2693313485393,1119.572527595053,1136.5289628347027,1154.9625685876747,-8.404625459208399,427.610551199899,114.47046798641627,543.6501565721927,161.54198499315027
9.8225,0.6633294553823693,0.4585444781125873,-0.5199118687286697,0.0302083374881969,0.0482131051924567,-0.021320833118368,0.01415291711129,-0.0025069977899221,0.0422916397934714,0.9990026032303572,0.023549413747242,0.0810548081167184,9.861825664903616,-0.0229671503072027,0.0290543259401379,0.0019056789836165,-5.009869487534228,4.57701170458673,2.0313893222618127,1143.2919941830207,1120.6071451691328,1136.5992312513836,1156.203374862368,15.347103201881838,389.4026216934736,-67.9527447219137,436.1939641765503,161.5409580240515
9.825,0.6498535067878723,0.0926751364469447,-0.4394074581550661,0.032646325025796,0.0489941037378662,-0.0219645559538363,0.0141851222945407,-0.0025210637953042,0.0423181040596592,0.9990003964195062,0.0224443956391658,0.0773891839318243,9.860041267986377,-0.02281886236215,0.0286505288060888,0.0020173431459472,-5.009928300440262,4.577081880822641,2.031402705776852,1143.3460668645487,1121.5195407035208,1136.189199111093,1157.143538408558,13.962107505856329,360.6178914985666,-277.22544979206066,356.0992440136386,161.53994555518872
9.8275,0.5884140137231905,-0.3494390773827746,-0.3561581662926446,0.0352196732216838,0.0487202302261421,-0.0230740373126102,0.0142218648054689,-0.0025339769460174,0.0423491801308747,0.9989981201579112,0.0212489522820835,0.0738906500828425,9.85807143092946,-0.0226864101369749,0.0282269604385605,0.0021136116020098,-5.009984078943424,4.577150298678268,2.0314151597608068,1143.36180472055,1122.4102346266259,1135.213104002423,1157.9838710824365,-8.20861991378642,283.04685561444046,-426.7233823866203,273.76312088104885,161.53874830391777
9.83,0.5201766260514806,-0.6868600139693501,-0.2849904827597882,0.0364509378446476,0.0472544976212614,-0.0241966058927205,0.0142654516915957,-0.0025335324869629,0.042380901456509,0.9989959036908987,0.019779557292216,0.0706753781811527,9.855955170815408,-0.0225735016120858,0.0277849078706337,0.0021965412636923,-5.010037444371243,4.577216706391318,2.031425393347063,1143.3050237649795,1122.934774981593,1134.0555821991604,1158.5123540129628,-31.090071708655888,155.9726975105915,-520.5355716635166,187.67503993080123,161.53776519371243
9.8325,0.4635443023140509,-0.9537364869709374,-0.1994023642239454,0.0364357121871169,0.0443988065583025,-0.0253397849264571,0.0143168909076084,-0.0025183877991312,0.0424101243610457,0.9989938283489928,0.0180709945414326,0.067819670538703,9.853723773563171,-0.0224824899135244,0.0273259410190828,0.0022694526090819,-5.010089638716588,4.577281359813393,2.0314335239922694,1143.2063543620068,1123.1900981141787,1132.610426144106,1158.9222462820903,-28.14933236617904,47.94775819445181,-686.4274729336394,150.8872774725424,161.53679604037066
9.835,0.4292993517576535,-1.1600703007116628,-0.0752230132327498,0.0356570735665078,0.0397606481563773,-0.0263799431410943,0.0143787056649135,-0.0024924707569856,0.0424380508414017,0.9989917593807746,0.0162655171161757,0.0654184614657707,9.85140040578547,-0.0224139993600391,0.0268519311809425,0.0023361542055469,-5.010141280411087,4.5773444826121885,2.031439860015892,1143.1642771031488,1123.1745137725652,1130.6234448344917,1159.2667904003258,24.028928718913328,-53.90915455531352,-756.8277103790659,87.39423414752761,161.53564653958492
9.8375,0.4231361087180979,-1.2290084102420649,0.0417606879060335,0.0355220688714361,0.0356938194346292,-0.0266710169871847,0.0144520861649747,-0.002452675215863,0.0424654510159811,0.9989896220618046,0.014365535143116,0.0635391846468268,9.849002699445313,-0.0223671952107028,0.02636472101847,0.0024001873887334,-5.010194134950496,4.57740638243162,2.031444351028284,1143.3264990056011,1122.920552341402,1128.82628759221,1159.359217452828,139.7635861402073,-137.69457686483304,-726.0705735995169,-30.40454356501564,161.53469709094523
9.84,0.4093563951198954,-1.2027484056605136,0.1609850426839218,0.0370212754852042,0.0323780851699591,-0.026288757728968,0.0145340021490925,-0.0023998751721091,0.0424936467216075,0.9989873767331372,0.0124451558315355,0.062154846163066,9.84654175286363,-0.0223397755140047,0.0258661286040372,0.0024651718741851,-5.010249127360159,4.577467380690438,2.031446808567454,1143.8630950338495,1122.4860408882412,1126.9930919664948,1159.1147676825008,296.77165335011966,-190.52909524793148,-718.2656871143146,-172.42954700708444,161.53375215124123
9.8425,0.3609962989987624,-1.1170491724905467,0.2723008616981099,0.0395936370193508,0.0298984693821059,-0.0254427624684752,0.0146226393741679,-0.0023375842421102,0.0425219596735469,0.9989850536944944,0.0106257587050248,0.0612518694238509,9.844022155616045,-0.0223283779825084,0.0253578966550682,0.0025341295288088,-5.010306057870018,4.577527990322888,2.031446968350059,1144.8103572723517,1121.9679068651626,1125.2349591566392,1158.4970697177928,487.06099045677206,-212.75688882548224,-656.5205921663957,-344.562763103059,161.53280714716473
9.845,0.2527750445899641,-0.9841172244342672,0.365782431472853,0.0420365031007903,0.0281114038635675,-0.0242648700079729,0.0147155162199976,-0.0022624764502988,0.0425447752435205,0.9989829246153044,0.0088858530624375,0.0608008113540789,9.841445421065613,-0.0223290985371242,0.0248416510904284,0.0026087922717375,-5.010365000181271,4.577587871698203,2.031445743485217,1146.298399986134,1121.4222564441136,1123.7104890056623,1157.3919538669852,764.5382633733502,-234.42126087394143,-581.150822831478,-577.5140104117788,161.53185761253343
9.8475,0.0631906877921935,-0.7910720887969269,0.4540122325412022,0.0434029831711124,0.0262230246814711,-0.0227706187003534,0.0148098117271605,-0.002177476986857,0.0425568809869608,0.9989812409120956,0.0073166145195509,0.060750918505081,9.838809598593704,-0.0223374538575014,0.0243192688967482,0.0026898962423694,-5.010425912584696,4.577647005579677,2.0314442077406287,1148.633048589219,1120.7958005607927,1122.3292050424811,1155.6094996657334,915.9621259360397,-222.88101262770283,-411.6826636284623,-692.0260669442099,161.53070837970955
9.85,-0.1202710316378367,-0.608716938916466,0.5099099833006373,0.0430442127198554,0.0246803177600029,-0.0216961362030696,0.0148975782639595,-0.0020894345588483,0.0425567672459011,0.9989801681328668,0.0060703139309914,0.0609375309184781,9.836112770275248,-0.0223485511227689,0.0237931033099295,0.0027771417081041,-5.0104884650457375,4.577704834236784,2.0314444411384796,1150.8782106158133,1120.3078513809753,1121.6520756875204,1153.9318235322648,903.4945323856798,-192.15353185019643,-161.67182232913748,-652.6856860226761,161.52974016378656
9.852500000000001,-0.2975297820606022,-0.4058315862931125,0.5519099296110028,0.0417208652154902,0.0232721839922534,-0.0208661334386939,0.0149708663480125,-0.0020018331775692,0.0425399139429488,0.998980010873226,0.0052211144815323,0.0611899196002155,9.833355088898385,-0.0223577493792774,0.0232657567807502,0.0028686987044834,-5.010552282143267,4.577759885336915,2.031448340938783,1153.150521251148,1119.8350329015416,1121.5208459308355,1152.3460712356195,929.8590951713688,-211.4655462150164,59.10462264904695,-616.978068355178,161.5287593505701
9.855,-0.4767520168430354,-0.1413484409749418,0.5858946354975824,0.0398994314295221,0.0219495244709099,-0.0199394402191942,0.0150272704165265,-0.0019226069382199,0.0425085746882534,0.998980692693426,0.0049223647468545,0.0614330178003803,9.830538133128336,-0.0223604005270122,0.022740475617054,0.0029617030403492,-5.010617418678401,4.577811703052026,2.03145668438548,1155.5275060916708,1119.2505236499,1121.9475988007655,1150.8469331904885,762.2892596982334,-219.08081810015383,232.42426602842065,-459.39079189956874,161.52756731569718
9.857500000000002,-0.5888129862516734,0.089894952092258,0.5929681416198167,0.0383016888900518,0.0213936892930475,-0.0189758614317753,0.0150724142692259,-0.0018501101015368,0.0424698865275451,0.9989818250546052,0.0051335941811278,0.0617487338392342,9.827667782385952,-0.0223522916928614,0.0222208783810086,0.0030520975536942,-5.010683427902422,4.57786070419125,2.0314684409552033,1156.9619675496383,1118.739628811041,1122.6829672609774,1150.049117276122,417.9784695580488,-204.69960877648623,334.8308003359064,-230.14976540898743,161.52656200482565
9.86,-0.6588031301409353,0.3167183374239628,0.5602951917680342,0.0364146216871863,0.0216676774918629,-0.0175226263775039,0.0151111267042393,-0.0017770983702886,0.0424263193945016,0.9989832435668796,0.0056933215271834,0.0622011506575399,9.824756265583169,-0.0223302616541936,0.0217102528726092,0.0031357859040134,-5.010749370608036,4.577906821611106,2.031481460232102,1157.6173984394607,1118.2270256060178,1123.6217528024447,1149.6961843634435,92.23146108091363,-212.5049818272268,409.23055921864915,-92.91835680486112,161.5255461509149
9.8625,-0.6980968168773745,0.5582290478022502,0.4509229647922461,0.0339905925834226,0.02302370840265,-0.0150695068785088,0.0151431691602747,-0.0017023715534244,0.0423804345639689,0.9989848493757592,0.0065450927392232,0.0627438273489115,9.821821647684688,-0.0222919986662547,0.0212115154131117,0.0032096840318426,-5.010814585400249,4.577950071326425,2.0314948895108977,1157.4231248550432,1117.6771039019047,1124.7291200570708,1149.5845254920976,-223.59555554199827,-178.4572009459401,367.7999895076817,-31.05703940768277,161.52431830187476
9.865,-0.7020351018547476,0.7141633486198967,0.2900307597842845,0.0321276661790584,0.0248685380394225,-0.012634877228643,0.0151671008816853,-0.0016329816250631,0.04233526830169,0.9989865278371872,0.0077854378378396,0.0632957045409011,9.818886448652355,-0.0222359873747085,0.0207269997240306,0.0032717810574819,-5.0108780186620505,4.5779903814373215,2.031508916201477,1156.4994206617505,1117.334739601288,1125.4607527499836,1149.540899166405,-492.8360157067416,-100.83859605035472,220.46472096458112,-55.95937457625245,161.52329034169279
9.8675,-0.6910475033092066,0.8030419229335874,0.0630375681934806,0.0306405762108899,0.0271625252014983,-0.0106539441802367,0.0151791656726524,-0.0015708064700696,0.0422892707750718,0.9989884021680066,0.0094015270180771,0.0637332183628348,9.815979305160727,-0.0221616793616217,0.0202579475183878,0.003320631959368,-5.010939902223589,4.578027791929077,2.031523823501025,1154.95894477651,1117.172910921653,1125.8314436618937,1149.3047286192163,-682.772860085454,-31.70069186998676,74.50770511585432,-150.22650417865788,161.5222600943407
9.870000000000001,-0.6792298086245955,0.8263248648298283,-0.1945807244517493,0.0293382925843937,0.0296974977382283,-0.0099812306410118,0.0151783986755171,-0.0015205567079921,0.0422435565101447,0.9989904362163156,0.0114337312020234,0.0639852698248174,9.813131697036876,-0.0220689425764372,0.0198046022388867,0.0033556128776924,-5.011000256017014,4.5780635191521375,2.0315391148338247,1153.0855563613227,1117.176236141938,1125.8332912755627,1148.789766645512,-783.6300726473978,35.904474378998046,-90.6070069008678,-275.1573530165867,161.52122953090807
9.8725,-0.6765502710747792,0.7665312190393428,-0.4421669235972105,0.0281316881785066,0.0323975843321944,-0.0113154226659458,0.0151714946341377,-0.0014775074187862,0.0422011040196585,0.9989924100175251,0.0137408667377159,0.0641411869457284,9.810377733963364,-0.0219580134579448,0.0193660335369421,0.0033762547914747,-5.011059474270958,4.578099495935421,2.031553051065441,1151.0407944132724,1117.352433293548,1125.3784086273893,1147.9289418541334,-885.9301446400365,103.86140372809017,-291.37256758509807,-424.4208433837619,161.52020002263856
9.875,-0.68966376202724,0.6073828894549944,-0.6663637334429866,0.0266605325944155,0.0354148361601361,-0.0146830681536407,0.0151651274619646,-0.0014325952251201,0.0421640258804856,0.9989941490467305,0.016095835401494,0.0642982868215389,9.80775395472192,-0.0218294234869038,0.0189400103198785,0.0033827071737957,-5.011118389802517,4.578136796812132,2.031564943659239,1148.6559056381232,1117.6955431605784,1124.3764284376375,1146.6676624285935,-833.2151799678579,138.98318863951354,-422.22817586411327,-456.80911567924335,161.51896708809747
9.8775,-0.7126342992005206,0.4199744359153563,-0.7620191767835743,0.0252258138813674,0.0371716077216588,-0.0181020313208904,0.0151668354050013,-0.0013845049470682,0.0421363311191671,0.9989953728583318,0.0184245779868849,0.0645708016482936,9.80529594364341,-0.0216837184811351,0.0185233955654352,0.0033759965565563,-5.011176828828496,4.578176618873022,2.0315746288359398,1146.874718513434,1118.0473492367455,1123.2672677480691,1145.6448962757377,-649.1392789051937,152.96710883969692,-466.2097396668013,-346.53913804685584,161.51794219318467
9.88,-0.7408716555628958,0.2086009166500816,-0.753699376005781,0.0236639657418857,0.0374917526889209,-0.0212094336144184,0.015174567821572,-0.0013331403565061,0.0421153380961561,0.9989962229885696,0.0206714467002725,0.0648933473368976,9.803040570529555,-0.0215217883036895,0.0181121206145013,0.0033577646603537,-5.011235106229517,4.578217913502621,2.031582615810752,1145.410209243597,1118.4603787047768,1122.0453797393031,1144.9349667383588,-568.1414627086291,209.2007847056393,-518.4389481075058,-190.79742716364052,161.5169200248999
9.8825,-0.768060009804814,-0.0338641287683726,-0.6444156369516774,0.0218065825003628,0.0363221940082902,-0.0239923227227941,0.0151856051663424,-0.0012771371965336,0.0420969046781145,0.9989969164991372,0.0227586862487582,0.0651982974219918,9.801023581928952,-0.0213446679559063,0.0177019090094186,0.0033295258132026,-5.011293971315004,4.578259471771819,2.0315905409672514,1144.0340111998903,1119.0933531602739,1120.6750730075312,1144.6909091399193,-451.08137951633455,271.6711655009107,-454.70861631115383,26.82064363330561,161.515696100298
9.885,-0.7727532080515834,-0.2095805836994541,-0.4994491257676359,0.020114659317651,0.0346849363809282,-0.0253243611884568,0.0151982820996486,-0.001223397527864,0.0420802186963598,0.9989975029826832,0.024775339205956,0.0654413141352742,9.799276682203411,-0.0211533746115412,0.0172888083651822,0.0032928907279541,-5.011353117199781,4.578301474055783,2.031599100324508,1143.1548023460157,1119.8187345322813,1119.771836657748,1145.0690699565255,-317.01204733171426,350.8260174931726,-281.45882680196485,262.19904727345687,161.51467784209544
9.8875,-0.7407119627742103,-0.3591859730004449,-0.3376918564997408,0.0180526252590812,0.0331592185089614,-0.0255969309287112,0.0152112576267037,-0.0011751469187171,0.0420635359070643,0.9989980736007068,0.0267440686701385,0.0655973821496204,9.797829201778876,-0.0209492742951925,0.0168692289478615,0.0032490951020846,-5.011412521149868,4.578343575476955,2.0316084053627312,1142.4489509632315,1120.84748324774,1119.2677788735211,1146.0019043762868,-296.60878587360367,532.107969920397,-110.68378849657252,499.28087009599426,161.51366058769605
9.89,-0.640175821372295,-0.53304739367819,-0.1613934505468707,0.0151833728718758,0.0318258235960318,-0.0250210181404936,0.0152257117115657,-0.0011299008734462,0.0420437655801259,0.9989987452587968,0.0285841667645412,0.0657048601706746,9.796707520155449,-0.0207342096777631,0.0164401423315656,0.0031989603634121,-5.011471259843991,4.578385253189484,2.031618235826281,1141.6717584166474,1122.4792743818837,1119.218417715265,1147.5654743070058,-287.6760061812665,654.830008254515,74.20821687802912,609.0231804189746,161.51244011539262
9.8925,-0.4973634899903882,-0.697325385911778,-0.0438151568304224,0.0127556794620636,0.031051053045297,-0.0242340955783875,0.0152416466973058,-0.0010917334864701,0.0420242897475712,0.9989993699929,0.0303488099034929,0.0657803683782496,9.795933024287116,-0.0205101982366384,0.0159995243104538,0.0031436523347104,-5.011528483885717,4.5784262058549166,2.031628182623441,1141.0105709323254,1124.121633289012,1119.6388199579112,1149.047020278381,-273.7153104474236,679.6833547336505,245.57944820485656,585.447093802648,161.51142252740945
9.895,-0.2995211605629698,-0.905185352135182,0.043866458462597,0.0110433941824911,0.0302710549127472,-0.0236590698501539,0.0152584123932833,-0.0010606845282345,0.0420078460907709,0.9989998432129878,0.03201916145488,0.0658374569193591,9.795523540831075,-0.0202796921358603,0.0155461187625541,0.0030842793576977,-5.011584379423993,4.5784659853762255,2.031638123246452,1140.3031818644104,1125.8776911555512,1120.4463149562891,1150.4927097760185,-286.24282095406744,677.9172336628867,360.91904499807055,547.774938022263,161.51040348041357
9.8975,-0.0723836262033234,-1.155650016412111,0.1176420549740158,0.0104219249660249,0.029110350123747,-0.0233400942510542,0.0152761163265474,-0.0010324609131185,0.0419918140349791,0.9990002792693872,0.0335003135376132,0.065913558273019,9.795492675287655,-0.0200456032816967,0.0150792624655109,0.0030218793533621,-5.011638652561267,4.578504119301192,2.0316473325652127,1139.5793568275549,1127.511219457327,1121.4434151829018,1151.7858949684928,-278.8193749703642,561.4855079297772,402.40503398161377,465.7112954421973,161.50938250880083
9.9,0.1633883495357048,-1.447042929600688,0.1931937546903997,0.0110597111135565,0.0270110865282864,-0.0231720438727265,0.0152966426518623,-0.0010088337185515,0.0419776698156559,0.999000584219111,0.0348247402284426,0.0660777384697962,9.79584705073604,-0.0198107995363581,0.0145992268575719,0.0029577934400416,-5.011690541140311,4.57854088900906,2.031655541853026,1138.9090849895583,1128.6851186952003,1122.4583401261975,1152.8212662532299,-257.0453833002887,338.3262971861077,394.49732032029374,393.8037521770967,161.50835831480444
9.9025,0.4261334404661321,-1.808468785292586,0.3086031255627192,0.0126573512896258,0.0229766161196723,-0.0230083382807042,0.0153209099149642,-0.0009860771015172,0.0419653315161856,0.9990007505253892,0.0359237224995283,0.0663856227300651,9.796588903475993,-0.0195781630710706,0.0141068904325538,0.0028931803391657,-5.01174004090434,4.57857630945758,2.031663190730484,1138.2941299110537,1129.202850943257,1123.4159017845027,1153.754913729378,-175.5552442304528,10.082643112811825,274.37624146306007,297.2089082776756,161.50712439742537
9.905,0.6142560774325398,-2.082596752978868,0.4372749177835558,0.0144407852274564,0.0183560695220242,-0.0229439666765363,0.0153489284846437,-0.0009569093870473,0.0419551582907175,0.9990007712133144,0.0366643756039959,0.0668766660119521,9.797715389019972,-0.0193502678900447,0.0136037494086018,0.0028290257270341,-5.0117875822551285,4.578609493787736,2.0316712516258923,1138.0313087684065,1128.7355319107646,1123.8302213335123,1154.307310794618,-38.35346431514464,-373.0750688628958,63.79101631886354,185.31956787380128,161.506091374722
9.9075,0.7636031053908114,-2.2805818802169213,0.6031871168734643,0.01646246077508,0.0125561123575819,-0.0228018426599518,0.0153799626004011,-0.0009242828312761,0.0419485735754832,0.9990005933487056,0.037118553482557,0.0675640812900044,9.799215305142845,-0.0191290587285027,0.0130918354889486,0.0027667037906719,-5.011833282949306,4.578640757596345,2.0316800631058154,1138.102362589478,1127.3374755989423,1123.7348568660973,1154.681511568747,111.15549066265056,-782.0871137446971,-159.95199069295495,135.1185864082952,161.50505295950504
9.91,0.8998470801146747,-2.38080359773432,0.8290933773527976,0.0187912405527392,0.0041738243960517,-0.0219166409276861,0.015416685405684,-0.0008909845852103,0.0419437155577188,0.9990002513058288,0.037361696720989,0.0685241275044737,9.801070083531394,-0.0189158481945884,0.0125734324967528,0.0027075519182751,-5.011877326438815,4.578670321347879,2.0316889410576295,1138.5870862217198,1124.8250963420403,1123.0304613800477,1154.9829037266595,235.64666711654496,-1002.9649553512804,-341.0811730750762,90.58776764429223,161.5038006032247
9.9125,0.9810579592291072,-2.3279010181497055,1.0131126294960773,0.0206751993166233,-0.0034388113219481,-0.0200593626650697,0.01545950069525,-0.0008578377073959,0.0419371587683838,0.9989998845437076,0.0374312304293148,0.069784866403544,9.803255305703667,-0.01871111885004,0.0120510021753081,0.0026530370943643,-5.0119206485592205,4.578697641735984,2.031697803924892,1139.2805959250604,1122.3226508221867,1122.0294510007222,1155.1344504069684,317.5998721368573,-1009.0851867791358,-454.52378654879055,39.80664139370961,161.50275207724056
9.915000000000001,1.029442059203379,-2.135650220957489,1.1503098471476068,0.0227102666790217,-0.0102888705733915,-0.0167707878444104,0.0155061251050136,-0.0008319690165059,0.0419288879727583,0.9989995247261484,0.0374861922364185,0.0713092212328171,9.805738964061073,-0.0185142882002647,0.0115272544471428,0.0026051117979483,-5.01196427843289,4.578722902595185,2.0317065334718247,1140.1750855824043,1119.779670408144,1120.7578424473031,1155.181936933628,412.7323744827928,-1050.2291904271892,-577.5517894807315,-7.902720610899123,161.501699254234
9.9175,1.0428016131433036,-1.7832884257431387,1.215739012572414,0.0254890593822245,-0.0164262527071797,-0.0115092476424584,0.0155519685681073,-0.0008138827517774,0.0419208843570093,0.9989991615706698,0.037552965142326,0.073012725824712,9.808484211801565,-0.0183239081252202,0.0110049559537298,0.0025657182827897,-5.0120092427406995,4.578745744744797,2.031715383485944,1141.3442577974747,1117.07150487005,1119.141692053318,1155.094936803914,428.0532782749957,-896.067871698684,-576.2466775326866,-58.77981680638445,161.5004323248793
9.920000000000002,1.007971277754095,-1.4307789985476946,1.1705575907361128,0.0281120618103836,-0.0197363710002625,-0.0067652060057405,0.0155963582555779,-0.0008002982862263,0.0419126803546179,0.998998830732682,0.0375849032750865,0.0748837915104875,9.811447441666042,-0.018137972187643,0.0104866657189203,0.0025368002484094,-5.012055823878676,4.578766504176728,2.0317237917070874,1142.315351973779,1115.2993310496515,1117.8766090596405,1154.8880378495962,377.10780072778334,-587.1198192877986,-458.29781866905273,-109.70796062717818,161.49937498446943
9.9225,0.915121704212202,-1.066502185301888,1.0304045607979848,0.0310101901337243,-0.0216445603534466,-0.0029330845676465,0.0156415902982812,-0.0007977820237771,0.0419033969887789,0.998998527030202,0.0377276274859961,0.0769536706735612,9.814575887993616,-0.0179541058519884,0.0099746947360817,0.0025208307747788,-5.012103859295709,4.578785809619614,2.0317307361965646,1143.2297968011133,1114.1359057736115,1116.850202959973,1154.546397000778,355.9261451201008,-368.75229573487246,-354.93306937377287,-155.07295285712948,161.4983180697954
9.925,0.7710100675125195,-0.7196348574011074,0.8378228291021764,0.0339850760407718,-0.0228150430802169,-0.000466853446178,0.0156870416154967,-0.0008074438649809,0.0418920605772415,0.9989982985758936,0.0380135928320802,0.0791940076329733,9.817812953695123,-0.017769973758952,0.0094710206588663,0.002520222891561,-5.012153252944735,4.578803679870781,2.0317355376993493,1144.0949826993797,1113.4555695709769,1116.1019437127711,1154.1126730853105,339.92952066004506,-182.0515205098388,-222.1103106620938,-191.31069535603007,161.4972632415131
9.9275,0.573019579038951,-0.4112619959741892,0.6246410240975085,0.0364637972767912,-0.0234208251981692,0.0004986964596506,0.0157321767925806,-0.0008247637282138,0.0418751336935829,0.9989983043205776,0.0383609109353982,0.0815770770379589,9.821098442378451,-0.0175836216814298,0.008977192549284,0.0025370080406275,-5.012202953956056,4.578820142261054,2.031737551709809,1144.9294444044135,1113.2256481710624,1115.7396514066627,1153.5898435239978,369.69855175564663,-49.31993683540967,-69.08336894918203,-252.42230720996776,161.49621307724033
9.93,0.3011423151182285,-0.0919685242740118,0.3933909425098376,0.0379320378367081,-0.0235281498090517,0.0005690066290817,0.0157747699278608,-0.0008521056659477,0.0418522070845665,0.9989985899509592,0.0388171584709158,0.0840303135206047,9.824367557659649,-0.0173935104300742,0.00849449965724,0.0025729621967028,-5.0122518854826605,4.578834972433548,2.031737940204012,1145.9434754581575,1113.2089698867999,1115.7565268680255,1152.8505615492609,379.311878604253,-5.678135421020692,73.62934642782177,-298.43769913877503,161.4949610530695
9.932500000000001,0.0739168369214004,0.1357694625604459,0.2429717232618345,0.0377389620274207,-0.023096625079715,0.000165392902916,0.0158147081935861,-0.000885443119581,0.041825163339789,0.998999076668672,0.0393025849501594,0.0865231540048009,9.82755429275065,-0.0171986823655646,0.0080238945664268,0.0026287498256592,-5.012299704346649,4.578848180699776,2.031738357972857,1146.8260037974353,1113.1972574939573,1116.1077981388019,1152.0976550283035,363.625538823942,-47.73139595080629,191.3702407433603,-345.99632400121715,161.49392654651544
9.935,-0.124929845418989,0.3358929045364557,0.142845248422033,0.0364462937720768,-0.0224259371998732,-0.0002589043804658,0.0158537480086668,-0.0009183397237565,0.0417957360656233,0.9989996672129076,0.0396887660374867,0.0890606976870778,9.830592275500912,-0.0169987538431304,0.0075658333625776,0.0027039633315562,-5.012346491011016,4.578860084729746,2.0317402557982995,1147.7616031522775,1112.9703129070458,1116.7133780717425,1151.1205799292543,424.2307307932086,-175.65725342223087,293.17837040608913,-498.7316455165538,161.49290366543931
9.9375,-0.3167399907036623,0.5632107248581927,0.0666976641934095,0.0344697572130134,-0.0215350196460337,-0.0003092901026422,0.015893487239629,-0.0009505756094709,0.04176829299657,0.9990001522743248,0.0399670966073715,0.0916374910231504,9.833415174454062,-0.0167937599032651,0.007120320615516,0.0027975455551794,-5.012392224914333,4.578871703117734,2.0317442231077494,1148.9471574514007,1112.3189712268463,1117.573689990832,1149.6039968007215,445.43146603695953,-298.89426128862885,311.40170888772275,-616.7679330284361,161.49169250464467
9.94,-0.4438623834123614,0.7540709290192553,0.0214306365967916,0.0331616919540295,-0.0206001845611806,0.0001756815248589,0.0159343946336741,-0.0009798792732133,0.0417458512241715,0.9990004018171488,0.0400867687122844,0.0942273065900677,9.835960495380172,-0.0165841875518261,0.0066868106484603,0.002907742742817,-5.0124368047110925,4.578883223669211,2.031750174748553,1149.9887604824619,1111.4758416006027,1118.2703866161808,1148.0367402641127,429.51037609552816,-370.3736323595752,246.08520946836296,-676.8312590785478,161.49069888705608
9.9425,-0.5574005697351585,0.9528884845943184,-0.0261763894443915,0.0323608044208041,-0.0191225694184765,0.0008532737189638,0.0159768068833956,-0.0010007352467208,0.0417296983430506,0.9990003658032504,0.0399329710337936,0.0968049510333019,9.838171199497497,-0.0163708971409645,0.0062643217512269,0.003032318494451,-5.012480370438242,4.5788941408634205,2.031757371430937,1151.094709331879,1110.467103065048,1118.804116038174,1146.219840505328,503.86074127687914,-427.1794398137232,176.29730594005167,-820.7148609170499,161.48972408357736
9.945,-0.7017626390541583,1.1956268939188597,-0.099478846202457,0.0313831905689398,-0.0164528833898536,0.0013068783498578,0.0160205642462247,-0.0010163659861575,0.0417218703777082,0.9989999605798862,0.0395628706143983,0.0993297843191167,9.839994635549582,-0.0161549282334897,0.0058516261748004,0.0031691603376302,-5.01252270826087,4.578904433967432,2.03176520260576,1152.5080641888467,1109.339944401534,1119.1518731458812,1143.933165959527,531.5552545743377,-356.736270646823,74.86276286191821,-821.2678201288595,161.48857905121855
9.9475,-0.8385115318565338,1.3912719232595716,-0.1752775176752246,0.0301991106913747,-0.0136094149749449,0.0012440116353028,0.0160643643081856,-0.0010282791435277,0.0417216949343629,0.9989992369846497,0.0390004984526117,0.1017431966224967,9.841386268018695,-0.015937517508683,0.005447199747749,0.0033160330566944,-5.012564129459804,4.578914360444601,2.031773249069305,1153.75248560475,1108.6834217118144,1119.1784298524835,1142.1135014046847,502.70115892477736,-163.54453563264715,-36.05172843899145,-669.8092941266485,161.48764767194783
9.95,-0.9927504377032877,1.5633546331970227,-0.2612442311352299,0.0284703568737017,-0.0103020122045091,0.0008385746091235,0.0161060159114699,-0.0010324714624918,0.0417231318335259,0.9989984902671284,0.0381628395960474,0.1039779313536763,9.842311469337927,-0.0157200734895218,0.0050492155460422,0.003470474328559,-5.0126049504667325,4.578923835742546,2.0317810837117034,1155.0215699834707,1108.5222217233706,1118.971614503686,1140.5841194888933,497.67916524730424,32.90399980955439,-109.5849843691041,-542.2255545527212,161.48674264316855
9.9525,-1.1547061652970263,1.7005661879203544,-0.3492991906961675,0.0261871513745695,-0.0063902943876045,0.000165861749684,0.016142577760976,-0.0010336584920128,0.041721820455544,0.9989979463786544,0.0371400141456521,0.1059481991555186,9.842743285225412,-0.0155039559063434,0.0046558577644797,0.0036301957938935,-5.012644720861945,4.578932854757518,2.0317886758246604,1156.2408814309867,1108.847941710862,1118.630504930638,1139.4023736319207,450.82203829165206,244.033692726592,-152.85379816530934,-378.8765492576048,161.485861492317
9.955,-1.312300750708212,1.7758606157713452,-0.4309489063498421,0.0231125301613652,-0.0015969093447769,-0.0009067089360835,0.0161712270139585,-0.0010363490546811,0.041714852235411,0.9989977703507726,0.0360207892986391,0.107574507789537,9.842664778829944,-0.0152904956193681,0.0042653850339251,0.003792701475726,-5.012683237370252,4.578941185625431,2.031796900129109,1157.2756801749288,1109.7423901870031,1118.2073455128595,1138.6897367426056,376.18612625836454,494.8943701765604,-186.69118831871023,-210.52786781524088,161.48501162984013
9.9575,-1.4778908470723142,1.7763090553090957,-0.5111786138911394,0.0185988221817336,0.0047109542134639,-0.0027594857350888,0.0161890092404189,-0.0010345183502254,0.0417021765293971,0.9989980176884115,0.0346893403362848,0.1087871659636071,9.8420716753013,-0.0150809964218826,0.0038762210159148,0.0039549499796515,-5.012720956377642,4.57894905443497,2.031806024290783,1158.1218120622784,1111.3224135617445,1117.6970489890443,1138.3497342928447,220.3980286258794,629.0476317027624,-176.32958428973296,-51.17922013522839,161.4840312492285
9.96,-1.5867678465502653,1.6999923952118845,-0.5596280030956708,0.0144748364100549,0.009969954490445,-0.0047292120889816,0.016193374185146,-0.0010298926338023,0.0416870591770847,0.9989985871513728,0.0331853641699781,0.1095216773384056,9.840968508175575,-0.0148765380774374,0.0034870322153334,0.0041139719127303,-5.012757784161453,4.578956903129284,2.031816163335927,1158.3776703180583,1112.8876283455177,1117.3256975914107,1138.4338406419295,-8.571218981886457,630.4466027487175,-126.58576412952992,91.23776923682664,161.4832495841498
9.9625,-1.6618704286710455,1.5596024086730527,-0.5940288413567094,0.0102581900103727,0.014424040363643,-0.0067234639809163,0.0161869209720303,-0.0010227999040955,0.0416716602626438,0.9989993428286968,0.031527895772214,0.1098202709042864,9.839368993531698,-0.0146780261559094,0.0030967339411132,0.0042666426048632,-5.012793527557214,4.578964592496105,2.031827068857996,1158.0789559673688,1114.4746465754884,1117.0641201683968,1138.805923139029,-260.23041912131424,652.8648342388741,-81.01728215712475,208.1629351269344,161.48250751376483
9.965,-1.7173801604400345,1.3526028523240992,-0.6385066792292269,0.0054581595080139,0.0183146616383031,-0.0081886851706653,0.0161745489904155,-0.0010075059224508,0.0416553504409512,0.9990002360134548,0.0296209823412953,0.109779612156522,9.837297476468772,-0.0144861742593388,0.0027045379068705,0.0044096605706199,-5.0128284916931936,4.578971082758799,2.0318389520027655,1157.076518222452,1116.1519525167112,1116.9206111806254,1139.474655317564,-461.8924937694383,549.2648804156216,-21.644818785220863,267.5033958076788,161.4816658545991
9.9675,-1.740193202284785,1.1762773602398735,-0.6950258163947354,0.001847360688009,0.0205052711732262,-0.0084087768606344,0.0161590572143744,-0.000985448510072,0.0416389801615111,0.9990011819160276,0.0275098850680571,0.1094521642950415,9.834787067103347,-0.0143013074561731,0.0023100809884425,0.0045400529490703,-5.012862829183529,4.578975963364859,2.0318523769902743,1155.7694934985223,1117.220970977566,1116.9558960744707,1140.143440118067,-594.0391111209444,341.034730749417,42.898005965973994,276.5687214987815,161.48100681294648
9.97,-1.7405780402882067,1.020556451503718,-0.7782813259428464,-0.0016309353227241,0.0220678118118252,-0.00847732871609,0.0161399743638708,-0.0009551830671952,0.0416253056429118,0.9990020735440304,0.0251819626941025,0.1088310690995529,9.83188115789807,-0.0141234337519573,0.0019133619182576,0.0046550096033964,-5.012896832304937,4.578979081142,2.031866905415719,1154.1063226668468,1117.8571261704587,1117.135101210455,1140.857498925058,-778.2552495331548,179.59091980671394,99.6657469897699,314.5561799227343,161.48039292194665
9.9725,-1.7050199897007812,0.8661956034482224,-0.88474277570317,-0.0062673614898536,0.0237330023811644,-0.0097329625050028,0.0161163788479433,-0.0009100072157922,0.0416158612934729,0.9990028691486382,0.0225220108398595,0.1079077874608612,9.828631731597511,-0.0139523067675459,0.0015145665865259,0.004751953448157,-5.012930870732633,4.578980126814868,2.031881837330803,1151.8782172508559,1118.1189255765998,1117.4542248094197,1141.7162210176807,-831.860929488932,25.369063430439883,121.75516058007508,312.2326175927977,161.47970887486335
9.975,-1.6314977896439935,0.7575973969602133,-0.9425572734739416,-0.0107457755774579,0.0252722618752883,-0.0122864080130561,0.016086411395437,-0.0008529285893982,0.0416121538852061,0.9990035335922248,0.0196055424061582,0.1066498025326997,9.825095289287312,-0.0137873395280783,0.001113960668476,0.0048290488217058,-5.012964644183349,4.5789792108457,2.0318971049792647,1149.947018019403,1117.9839714876107,1117.7438770133556,1142.4186620130215,-766.2663724358648,-100.71021052879831,106.1448277531615,278.65784788109715,161.47918235653245
9.977500000000001,-1.4978451658291447,0.6507946210415673,-0.9201993976032256,-0.0154267381867262,0.0270958159561893,-0.0159321088738007,0.0160496958252462,-0.0007880119614285,0.0416145996519647,0.9990040558162706,0.0165302953881482,0.1050553326454465,9.821332230778994,-0.0136277614077424,0.0007117324827263,0.0048849868543383,-5.01299891789968,4.57897649840811,2.0319130544332014,1148.046885388676,1117.6153745239556,1117.9849489481855,1143.1095102570866,-744.4389794322177,-163.5994095757468,80.32177481880915,276.0404630435028,161.47869986104703
9.98,-1.3121965753516487,0.5293113423135041,-0.8059146816495292,-0.0196457487169539,0.0289378576656308,-0.0196581607550262,0.0160078529553377,-0.0007156596982204,0.0416195199972436,0.999004566928084,0.0133238650331681,0.1031676421508365,9.817405779091443,-0.0134727783263294,0.0003077875899233,0.0049189251098468,-5.013034072360183,4.5789720093595,2.0319298028568764,1146.224823122241,1117.165974439732,1118.1454858874497,1143.7988643282395,-703.2109148127837,-177.17144763745523,39.541172301149935,277.0377237870076,161.47825244950698
9.982500000000002,-1.0747868901716484,0.3748995129062806,-0.5731742439278825,-0.0228633540083922,0.0305565263664577,-0.0228841366475244,0.0159658958170129,-0.0006455208263679,0.0416257899311949,0.9990050263335029,0.010197949266563,0.1010907500434028,9.81337763984221,-0.0133216064263841,-9.815529596475235e-05,0.0049309371454544,-5.013069415069026,4.578966536752836,2.031946992096936,1144.5308308146127,1116.7295172857687,1118.1826548096913,1144.4946988760214,-711.8834571855639,-174.94765937921173,-14.255606815052596,308.2052041637484,161.4778449468082
9.985,-0.7556779544410489,0.1416517049203415,-0.178790384936023,-0.0253866088398255,0.0320566071483076,-0.0257104038466227,0.0159273414003633,-0.0005827115906041,0.0416294084180001,0.9990055424154574,0.0072739967632301,0.0989057118472133,9.809310011467922,-0.0131737685062091,-0.000506800702348,0.0049217163513348,-5.013104706462082,4.5789607796123,2.03196367357798,1142.6654058363142,1116.291236142836,1118.0742078533744,1145.339890349058,-654.6856094175723,-147.21560333121005,-64.16365982194199,310.4821681075888,161.47739824084516
9.9875,-0.4821212002062715,-0.0915264669313605,0.2083180398002329,-0.0263465815291768,0.0327362814072149,-0.0266264059861687,0.0158936967614121,-0.0005282467459574,0.0416239376785018,0.9990063619380584,0.0045915615203069,0.0966602620832555,9.805263707444304,-0.0130291633333847,-0.0009192137381113,0.0048925694288386,-5.013139443970484,4.578955022285002,2.0319786850712087,1141.2574027675244,1115.9934392691123,1117.8618365105815,1146.0471097165596,-529.5210688873422,-114.28481589321596,-106.42068922068728,279.9846240086953,161.4770580745744
9.99,-0.220166820998983,-0.3534748955975741,0.5919153857094787,-0.026281790223506,0.0323538927929937,-0.0253220588989178,0.0158624122471169,-0.0004902718449348,0.0416088396068611,0.999007540856914,0.0023266773507424,0.0943185614720793,9.801295335278276,-0.0128879817353662,-0.0013365062018029,0.0048455387411512,-5.013173095140116,4.578949010816742,2.0319920754540686,1140.017800491877,1115.71981206337,1117.5421044072707,1146.7398134691016,-497.5371270647509,-127.07402315511698,-158.50622516162247,294.65144810020723,161.47674712714525
9.9925,0.0730662163028636,-0.6798595498501819,0.967776762202403,-0.0256970332207073,0.0303665502682254,-0.0212952063441906,0.0158317718059156,-0.0004662262161945,0.0415878901019319,0.9990089433929,0.000446371259677,0.0918720435412448,9.797457058907575,-0.0127508330013868,-0.0017597189816408,0.0047827210671789,-5.01320544710272,4.578942621256825,2.032004267031541,1138.769717132201,1115.358069153337,1117.0693053847735,1147.5203669570603,-407.8009275696604,-143.99191273084875,-181.93877489013056,271.761774221571,161.47640263264475
9.995000000000001,0.3051007653614627,-0.9483502520293504,1.1647529276288147,-0.0253204860658847,0.0278971095756017,-0.0168848517980209,0.0158025242132781,-0.0004500024817195,0.0415642559943608,0.9990104239703516,-0.0011493496154141,0.0893659822757607,9.793793838973793,-0.0126185518329499,-0.0021898427426328,0.0047062827195296,-5.0132368481266285,4.578935733177017,2.0320157512868,1137.9787958540285,1114.9998524997156,1116.63241053282,1148.0986223402097,-252.14795616985307,-156.36133022928618,-175.77245149606804,209.97045601917665,161.4761354145325
9.9975,0.5357528605942297,-1.2054202401489311,1.2148061873765879,-0.0251190544489533,0.0252741308867233,-0.0125344420248224,0.0157740471056977,-0.0004423865701024,0.0415419806679553,0.9990118200659373,-0.0024264904637232,0.0868153517325769,9.7903422444232,-0.0124919877905965,-0.0026277342899077,0.0046185848182773,-5.0132669511162815,4.578928624304544,2.0320268635185235,1137.5089773513516,1114.5762625021905,1116.190443127293,1148.5702192371564,-128.3550820599685,-177.00681540712932,-172.57806444362154,168.2648578218839,161.47588372237044
10.0,0.7688482351450122,-1.4512654278127863,1.1448277888476783,-0.0246433489477964,0.0226473807527804,-0.0085442864103934,0.015748556763394,-0.0004422532395315,0.041523051571395,0.9990130133794584,-0.0033863086946681,0.0842943866605415,9.787130049937156,-0.012371946591949,-0.0030740617649896,0.0045219230687732,-5.013295420901833,4.578920823746374,2.032037523747415,1137.3370204437288,1114.11481842268,1115.769520210602,1148.939946629319,3.219901018656587,-184.88016568175263,-160.02814496249357,122.81080799082416,161.47564087639697
10.0025,0.9951006769744046,-1.6778366440892425,0.9525327567348268,-0.0233026056074795,0.019608589623777,-0.0053574615655519,0.0157280332180541,-0.0004463579251657,0.04150716952068,0.9990139889250405,-0.0040723034608852,0.0818760343361867,9.784176837424248,-0.0122590126651006,-0.0035292758262357,0.004418485294067,-5.013322174645872,4.578911266818723,2.032048016893909,1137.525076856445,1113.651861673782,1115.3903024024808,1149.1842732771104,155.0978609270472,-186.60972151712295,-158.10409757334384,79.30640624725709,161.47540356935477
10.005,1.228345630510506,-1.9077906075804003,0.6266244054264085,-0.0204243589390389,0.0149008458095793,-0.0030048851492597,0.0157133974129329,-0.0004550026419495,0.0414967531334288,0.9990146357646424,-0.0044610424712683,0.0796100759979297,9.781493460207177,-0.0121533428434784,-0.0039935252236251,0.0043104768111806,-5.013347825775802,4.57889989390696,2.0320584040002654,1138.112509748364,1113.1817698150944,1114.9789997227351,1149.3364786605553,261.2054722250879,-141.52713497917435,-147.40266060923628,32.48070448048057,161.4751188504191
10.0075,1.36126963103467,-2.0425552829253855,0.3147153768254207,-0.0170093807630804,0.0099116158096803,-0.0022850248839069,0.0157062332144319,-0.0004640590257414,0.0414926126171687,0.9990149031927732,-0.0046173371841859,0.0775632052223549,9.779082894392264,-0.0120545698605792,-0.0044668471563508,0.0041999596457787,-5.013373437549769,4.578887147279107,2.0320683270264834,1138.8311042175703,1112.944225998886,1114.6532890994345,1149.3466767995128,314.6357022108703,-40.50001571609651,-132.274753848359,-20.924377494570376,161.4748780709658
10.01,1.3958850078563148,-2.0915425644221375,0.0041335439407388,-0.0127102641502277,0.004162394626773,-0.0024543673959356,0.0157082365407633,-0.0004676731351512,0.0414889682094744,0.9990150127567564,-0.0046422292733197,0.0758059574356041,9.776940497845459,-0.0119616896560633,-0.0049493552937509,0.0040889150164834,-5.013399563795054,4.578873794095531,2.0320770595441697,1139.685688259418,1112.979269736514,1114.3176259534937,1149.2318567730824,387.0351075230551,102.70419701999556,-152.26100283123182,-80.31601847918519,161.47463118281388
10.0125,1.2978717365361416,-2.0316674858549346,-0.3270127584362404,-0.0071607640653076,-0.0029018091446143,-0.0032709902849866,0.015721794938856,-0.0004712622873467,0.041482160530886,0.9990150760477136,-0.0044200126399908,0.0744117313517919,9.77505288978587,-0.0118730947280065,-0.0054409918122356,0.0039794740479939,-5.013426062364953,4.578860369433423,2.032084528074311,1140.766279755186,1113.457746983986,1113.891984085278,1148.9450967071168,395.7475551354328,259.34053206734046,-156.00739073808944,-129.7153916617187,161.4743272772944
10.015,1.097910770546422,-1.8810310454260768,-0.5448002654726339,-0.0028550310407579,-0.0085922458727463,-0.0045627058416006,0.0157429377315762,-0.0004778258725719,0.0414710998386667,0.9990151975898008,-0.0038923666144079,0.0733294505331762,9.773402299883546,-0.0117868148631113,-0.0059414594809535,0.0038733745852421,-5.013453104604063,4.5788460458662925,2.032091379644111,1141.6644260350956,1114.2759723968509,1113.5375889998031,1148.5832798147735,354.0446707512978,413.2421341778266,-128.98978782261858,-168.31264203136635,161.47406874282214
10.0175,0.7963552440401594,-1.6399220685512796,-0.6789073306238605,0.0004303245053547,-0.0134676203986783,-0.0068201872016952,0.0157661354422802,-0.0004838040321003,0.0414555189304783,0.999015476141553,-0.0031357471336535,0.0724802167697715,9.771967009484417,-0.0117006463907476,-0.0064501173967645,0.0037718024336965,-5.013480566165166,4.578830340805809,2.0320974674662953,1142.5365031089423,1115.5239576548747,1113.2470351461652,1148.10353349696,378.5010561267725,623.6372845026712,-88.38022491783643,-232.53549580713377,161.47380781344515
10.02,0.3675622075797267,-1.2800918936898928,-0.7274100648333623,0.0026080475597435,-0.0176794462254199,-0.0104142651736314,0.0157847453000286,-0.0004924153602285,0.041439153549433,0.9990158575150904,-0.0021011115795535,0.0717540407842903,9.770720729694224,-0.0116122139706716,-0.00696587108791,0.003675633027371,-5.0135080365719435,4.578813290950242,2.0321032242660864,1143.5569313157291,1117.3941588193636,1113.095687875214,1147.4206023357383,372.0749300843964,714.3919905460073,0.0511618433847535,-259.8035800495885,161.47349776913111
10.0225,0.0016520678428116,-0.9513038349322094,-0.6774220955355921,0.002866410483853,-0.019813117488414,-0.0133274843354931,0.0157952155342217,-0.0005058876280877,0.0414247196544705,0.9990162835690382,-0.0007619808564705,0.0710981559834443,9.76963395963679,-0.0115190642690711,-0.0074872712314836,0.0035852765814854,-5.01353572568654,4.578794682103105,2.0321087884918825,1144.3968777593643,1119.095917607605,1113.247290955382,1146.804515596712,335.4966840864948,658.5597016481977,145.6673060265757,-240.00271707755812,161.4732476717912
10.025,-0.3154441207066528,-0.6233411867400123,-0.5586689454175945,0.0016222071689443,-0.0208696731826931,-0.0151397698480765,0.0157960330955853,-0.000521578414379,0.0414121541692435,0.9990167833498188,0.0008093620356859,0.0704992352657316,9.76867615842257,-0.0114187432285745,-0.0080126001118419,0.0035005898285306,-5.013564223297457,4.578773611261689,2.0321141572906436,1145.2344147361619,1120.6869573276051,1113.824024405347,1146.2205887503503,333.9407726560449,577.8480373297282,316.8722380833236,-213.3315984287007,161.4730138952093
10.0275,-0.5551159803186545,-0.310772009383979,-0.4120402170659563,-0.0006238310116828,-0.0213468669028622,-0.015816382499566,0.0157915835523983,-0.0005426706398508,0.0414038522033618,0.9990171862830752,0.002653901846521,0.0700489729250945,9.767814721169705,-0.0113089335415454,-0.0085398242100344,0.0034212177084307,-5.01359339107068,4.578750254969237,2.0321201192217435,1146.0665816226444,1121.9851577942532,1114.8316521457984,1145.7378576045687,328.4799804892117,409.4415330043281,513.2464900178659,-152.6571288602403,161.47279901811348
10.03,-0.6724482902548234,-0.0235625488289317,-0.2658252261458312,-0.0035968113597815,-0.0214086293023294,-0.0154717051138413,0.0157864034400248,-0.0005700942033105,0.0413992261494259,0.9990174457615432,0.004764766276399,0.0698388806429761,9.767018644153039,-0.0111876034869896,-0.0090669070575491,0.0033464157427439,-5.013623240910006,4.578724478075185,2.032127101369139,1146.8768146386076,1122.7341649926263,1116.3902568554358,1145.4573031060493,345.36720602417574,175.40345143890576,798.7779039703697,-66.28958709924392,161.47261237175746
10.0325,-0.6611839879157985,0.292004593168065,-0.1179255064383006,-0.0072274768802311,-0.0211644907638746,-0.0147637468543462,0.0157797851663863,-0.0005977583190891,0.0413951877845151,0.9990177047190264,0.0069908773635681,0.0698588290698463,9.766261621962153,-0.0110532165317946,-0.0095919845381185,0.0032749987795883,-5.013654249672184,4.578695968128238,2.032134835061255,1147.7934176527656,1122.862175051448,1118.8255416656507,1145.4064096690724,321.21738395880567,-80.68196809771153,958.636399899465,26.184125645927903,161.47242670168703
10.035,-0.5377907447280889,0.5321721409648402,-0.0219552094858691,-0.0096027154523676,-0.0206589079001348,-0.0144974969763131,0.0157684693645841,-0.0006275203542797,0.0413916161144651,0.9990180151695264,0.0093321305697478,0.0700369563177881,9.76552014094432,-0.0109049464751196,-0.0101133895959398,0.0032058638200198,-5.013685771593275,4.578665354739138,2.032142941250848,1148.4829015584019,1122.3307551521375,1121.183438854934,1145.5882237342787,252.95452160476572,-320.75282207699286,957.5117196233437,105.0962030797318,161.4723070546242
10.0375,-0.3307450903907515,0.7454802974801377,0.0530445555167234,-0.0108461021520637,-0.0196418855292831,-0.0147978217064824,0.0157508225165894,-0.000658754360711,0.041387972618892,0.9990184231003648,0.0117408611864948,0.0703304888111531,9.764774804021556,-0.0107428806617711,-0.010629848164711,0.0031379680302133,-5.013716776737845,4.578633350472366,2.03215094896783,1149.0581902607892,1121.2584109410634,1123.6131002637667,1145.9318906844708,218.69385506762447,-548.0835173067642,1006.4513984784088,166.56901912371848,161.47222642418237
10.04,-0.0378101926487823,0.9563281344528176,0.1283862180537572,-0.011122168858818,-0.0175075376862735,-0.0152584889885807,0.015728631328226,-0.0006864588744568,0.0413814353682737,0.9990190197408052,0.0140879877569517,0.0707630737577707,9.764010873244402,-0.0105680622257236,-0.0111405773148147,0.0030704030487441,-5.013746420109789,4.5786004934860385,2.0321584738009224,1149.57637083374,1119.5903375656035,1126.2156958473267,1146.4210688298976,156.52167849254792,-634.0352411870672,843.6192067400088,178.4594325990559,161.47217633505673
10.0425,0.2052400230521451,1.0785276431979403,0.1792229814932512,-0.0102744873431552,-0.0147965232510804,-0.0153070019955395,0.0157033607478228,-0.0007143045515832,0.0413719297889596,0.9990197804735264,0.0164155105322824,0.0713409947646401,9.763217422332865,-0.0103824461027761,-0.0116451825649909,0.0030025775437271,-5.0137732410179305,4.578567831992122,2.032165273301808,1149.840798653252,1118.0882347351276,1127.8311962974672,1146.8241878474664,66.31826540507473,-578.29735471703,476.4146376097908,150.53809886843095,161.4721736543897
10.045,0.4093165937455341,1.126510283779006,0.2094951088404836,-0.0084492478518713,-0.0112472798406267,-0.0145818421391035,0.0156783162214584,-0.0007444795430477,0.0413591284962673,0.9990206658739844,0.0187414337484702,0.0721045999460631,9.762388758606319,-0.010188656953909,-0.0121435964186297,0.002933992078689,-5.0137970435070285,4.578535632869229,2.0321710881400974,1149.9079621607655,1116.698850792019,1128.5977690353752,1147.1737593242397,-21.55199148124185,-547.0376522915736,112.18735913828326,137.7047969990873,161.4722105738823
