t,ang_acc_x,ang_acc_y,ang_acc_z,a_vel_x,a_vel_y,a_vel_z,quat_x,quat_y,quat_z,quat_w,acc_x,acc_y,acc_z,l_vel_x,l_vel_y,l_vel_z,pos_x,pos_y,pos_z,mot_1,mot_2,mot_3,mot_4,dmot_1,dmot_2,dmot_3,dmot_4,vbat
13.925,-1.808067482632452,0.2892380191647588,0.9621540493008331,0.0039194884498338,0.0301423802277619,0.0045418555619005,-0.0041905103408866,-0.0113882727231311,0.0320152570342762,0.999412485290142,0.0594803355586649,-0.0035324517200116,9.850825554755165,-0.0011114493187683,0.0006316397283966,-0.0008323923062161,7.032955855837163,0.9900575506228922,3.642368013901325,1105.4525499814915,1115.217985134479,1098.6051377385584,1098.2693103463323,321.2976496077724,-244.6188248404796,830.392242288378,49.17243030771856,162.39741931666717
13.9275,-1.7277346273414107,0.4240991313531466,0.7923081483452433,0.0007831115185596,0.0301175513915693,0.0061481189861494,-0.0041514386793966,-0.0113288835545475,0.0320352002212084,0.9994127521758448,0.0553323412959926,-0.0015377665283897,9.851826652905649,-0.0011568672895608,0.0006161660332002,-0.0008924260959546,7.0329550613227365,0.9900567906945404,3.6423791894887385,1106.148933807331,1114.5685599738295,1100.8033007778272,1098.406704419328,200.97563785020063,-269.7636872131252,885.418469143991,63.49877111039304,162.39755359327464
13.93,-1.6178038485250847,0.5936109675877584,0.5906284627791881,-0.0018956825975706,0.0306696383784822,0.007866329272631,-0.0041509401065199,-0.0112367764885255,0.0320656380169701,0.9994128769893644,0.0506646807330714,-0.0002154628814807,9.852808926307985,-0.0012166046172036,0.0006048937398759,-0.0009758904006122,7.032952712218365,0.9900546797530092,3.6423815713031655,1106.4574281707423,1113.8691666984137,1103.0322300842777,1098.5868042018844,25.06367506470787,-302.56763154184046,921.0887446127725,88.728214980242,162.3977282373956
13.9325,-1.447132917885455,0.8076314552669251,0.3104166613131827,-0.005404773213362,0.0323681588850601,0.0096643823632799,-0.0041815762943887,-0.0111164392448561,0.0321010692025291,0.999413017854102,0.0456132285932633,0.0005723110284908,9.853813528992738,-0.0012874843347633,0.0005983565194423,-0.0010677398836503,7.03294867486122,0.9900518692307216,3.642375194408768,1106.274252182655,1113.05572181612,1105.4087445008915,1098.8503454942293,-163.46769732842577,-280.57490059482166,782.9543994843928,101.94249000395072,162.39798685421425
13.935,-1.2549384655937297,0.9668121708849013,0.0476077211372392,-0.0089352895358159,0.0348178686560345,0.0106844041328734,-0.0042181886232108,-0.0109829639288219,0.0321356019681079,0.9994132997164512,0.0405264715028355,0.0013033419614188,9.85484901015454,-0.0013664160937082,0.0005964794984459,-0.0011528242628425,7.0329433594680335,0.9900496331689264,3.6423610666234585,1105.6400896841,1112.466292195439,1106.9470020817002,1099.0965166519043,-344.9747909364991,-204.44613943386204,497.5714846026757,99.5898588257858,162.39824531390315
13.9375,-0.9860333554688884,1.0736291557280593,-0.2343927491043556,-0.0128329916828354,0.0382232672386333,0.0109934159621039,-0.0042375617452672,-0.0108527655774524,0.032163981878148,0.9994138063441852,0.0357698046450292,0.0024138887664725,9.855892003680355,-0.0014506060601839,0.0005986274630228,-0.0012171039357269,7.0329375424434,0.990048605875657,3.6423414575422526,1104.5493782279727,1112.033491118951,1107.8966019239047,1099.348294788358,-562.2490011113068,-146.11844897024818,280.01622233697276,108.72853338307667,162.39855092969015
13.94,-0.5618974305911537,1.117451587136704,-0.5701958519872316,-0.0167974100154637,0.0426470685631697,0.0101440648143759,-0.0042341347140136,-0.0107241737604886,0.0321788019769955,0.9994148000264306,0.0313332353146636,0.0040020322061538,9.85689410012125,-0.0015376157633626,0.0006038026660202,-0.0012486586194372,7.032932516166542,0.9900501621455547,3.642319721637412,1102.828844678544,1111.7356999505882,1108.3470831933848,1099.6401593188195,-678.0240223372707,-71.46442217721207,64.34077764905754,105.65290863122011,162.39897448005638
13.9425,-0.1335497011254282,1.08059246818914,-0.8240817233421386,-0.0188399892757579,0.0458995768482743,0.0083388857861971,-0.0042149147117174,-0.0105881384636996,0.0321777300407613,0.9994164098022104,0.0270450405966969,0.0059197541615833,9.857781551707468,-0.0016253159041516,0.0006109678490973,-0.0012382568855418,7.032928358936431,0.9900546998733004,3.642296961831432,1101.1592581162859,1111.6761690080648,1108.21830581215,1099.8765593315143,-690.6365293121154,11.116028211879973,-129.79423822546568,96.96803713080345,162.3993757601108
13.945,0.3392172985187513,0.97803742969401,-1.0219576226293827,-0.0192199124247487,0.0482482426773877,0.0057193598726617,-0.004193468090657,-0.010433006653804,0.0321651032919385,0.999418556305968,0.0226701303035049,0.0078879725144623,9.858459683581904,-0.0017117504907403,0.0006194420480116,-0.0011796340391272,7.032923589838471,0.990061257940121,3.642272822554661,1099.3756620319828,1111.7912800916476,1107.6981120022574,1100.1249995044736,-784.4656415695424,83.31982541914678,-287.1254938842074,119.0363663034314,162.39982752584547
13.9475,0.8999010035866905,0.7966274504085586,-1.1667002062043395,-0.0176033751693721,0.050137430336606,0.0022628966511916,-0.0041795134189606,-0.0102610251058549,0.0321509557624871,0.9994208464937208,0.0182428600782696,0.0096912158292528,9.858815081476637,-0.0017951279329576,0.0006292307774894,-0.0010696399275611,7.032916778515275,0.9900681010657983,3.6422480114269127,1097.2369299084387,1112.0927681351604,1106.7826783427292,1100.4717411630313,-768.3914265970706,134.49177653531194,-364.42897049008695,140.12722450641004,162.40042733135593
13.95,1.313624158847366,0.6050501253468537,-1.1941571806887703,-0.0145416477580004,0.051219155070179,-0.0007742119366066,-0.0041740758288284,-0.0100851800989474,0.0321417189552724,0.9994229243437396,0.0140094530148859,0.0112764308355273,9.858725384068887,-0.0018739409092073,0.0006411644184801,-0.0009083831004813,7.0329091819799485,0.9900740641780796,3.642225244780583,1095.533704898997,1112.4637389743243,1105.8759671498067,1100.8256356270056,-650.3706778890667,177.19637610159182,-375.8812050649661,157.97196389018868,162.40097404184704
13.9525,1.617451500876065,0.3714930834333665,-1.1099606458060158,-0.0100327133210105,0.0521272608860228,-0.0041724751902706,-0.0041737884348229,-0.009909745098226,0.0321377809233162,0.9994247346118093,0.0100429332540281,0.0126805507537378,9.858073545084832,-0.0019470650672988,0.0006568778645886,-0.0006992213053135,7.03290196889018,0.9900788975182042,3.6422057122465614,1093.985076518993,1112.9787500156683,1104.903272317404,1101.2616009824824,-584.2567827454584,240.0175928998601,-392.69436999633024,186.1347960619157,162.4015671373637
13.955,1.7981994881740924,0.0974343166815517,-0.9271351994123072,-0.0048059718069293,0.0530309053294438,-0.0079575551598875,-0.0041795995066675,-0.009741651218328,0.0321419815239532,0.9994261059013432,0.0064621717589561,0.0138502463757781,9.85675013056563,-0.0020137770468959,0.0006787005851288,-0.0004483969325999,7.032895443207131,0.9900817496511644,3.642189600750795,1092.6124209852703,1113.6638269388231,1103.9124952998254,1101.7563096073152,-494.14532141659777,332.8426084465926,-396.5374612887778,203.5399682380508,162.40219638252526
13.9575,1.8080854043720256,-0.231702929554326,-0.6332798610894853,0.0008011935716198,0.0538367249640652,-0.0117969052894831,-0.0041987955118988,-0.009590889934415,0.0321566182378538,0.9994268390662568,0.0034397384180302,0.0146026097715417,9.854660235942541,-0.002073659906463,0.0007093721636825,-0.0001646050170646,7.032888959878227,0.990081791552776,3.6421774232938606,1091.5143499119104,1114.6429630579012,1102.9205850109606,1102.2793008236724,-402.2114889458688,519.8138254415068,-434.43650634260416,219.3881587863528,162.40286576139044
13.96,1.6175288253664233,-0.684848915719479,-0.1955821277731077,0.0073939822789804,0.0540897705519971,-0.0149472007047956,-0.0042421717153582,-0.0094696855061558,0.032181569461093,0.9994267887670466,0.0011883811633966,0.0146825525141454,9.851730457644134,-0.0021265303172846,0.0007516345401279,0.000141492768252,7.032881935385196,0.990078945698748,3.642170679122193,1090.6013635405407,1116.262896066031,1101.740312768112,1102.8532504012471,-256.68058412271046,675.1069673372822,-429.5788825288366,187.68681475259447,162.4037103690475
13.9625,1.3052598835334543,-1.0908029259324756,0.1828564113123107,0.0121784788139506,0.0528673700430731,-0.0151546803312148,-0.0043160144258774,-0.0093850340623053,0.0322132162292562,0.9994260042685268,-0.0001799469607761,0.0139269428761547,9.847917277496844,-0.0021724544519648,0.0008077796629241,0.0004578568449345,7.03287462533362,0.9900738605850008,3.642170747229735,1090.2309469912968,1118.018497894588,1100.772690598316,1103.2177348974355,-63.23422059132448,777.4221086310445,-380.3616295332024,109.02908655982525,162.40444463375147
13.965,0.8736852240768249,-1.4843267883942024,0.4924779753077669,0.0152710284421065,0.0493034580514863,-0.0125915289773157,-0.0044253961828668,-0.0093406821996045,0.0322489823679233,0.9994245555988766,-0.0006164647612111,0.0121995068958324,9.843209305856409,-0.0022118017939369,0.0008792665123732,0.0007718845342314,7.032867108752105,0.9900668917230192,3.642176706566681,1090.285192437584,1120.1500066091855,1099.8385046204464,1103.398395834046,109.60364516525364,987.0591923295073,-397.1799793920416,29.86487272964484,162.4052052438223
13.9675,0.2827248504657187,-1.889795894160404,0.7047299223177613,0.0165434407798279,0.0428529576553825,-0.0078080207496265,-0.0045627276920473,-0.009339898825379,0.0322840858018733,0.9994226606025232,-7.261617866180514e-05,0.0096167588654974,9.837629888265552,-0.0022452839787737,0.0009663988022213,0.0010712163008608,7.032859889714484,0.9900590837281544,3.6421859080715473,1090.7789652171232,1122.9537938562364,1098.7867907013556,1103.3670592610836,231.9669828929001,1023.6130267246372,-368.637218995024,-51.799951775266074,162.40614182633507
13.97,-0.2220320610114419,-2.146623423080304,0.7206787797237522,0.0157537811617609,0.0366790904624667,-0.0035074805011525,-0.0047094770213004,-0.0093772178368679,0.0323118790296315,0.99942071195976,0.0013373621551655,0.0065209400050299,9.831240316821862,-0.0022739662125271,0.001068139303342,0.001344260030531,7.032853190121681,0.990052289745574,3.64219602395818,1091.4450273520488,1125.2680717428095,1097.995318525471,1103.1393960751695,285.7673818180615,852.2219888543863,-292.1160077905496,-124.84890508465224,162.4069370103477
13.9725,-0.6921856446123201,-2.312041599975581,0.5790856797474203,0.0136848122539003,0.0306268565244048,0.0004113286173748,-0.004845134635364,-0.0094377373850307,0.0323318620410681,0.9994189053581252,0.0033177433472129,0.0033046333393774,9.82413827764939,-0.0022992096858823,0.0011821114277038,0.0015804300160517,7.032846986009624,0.9900469127829176,3.6422069999990816,1092.2078021262132,1127.2149038005075,1097.3262106624031,1102.7428147356607,316.9971850019186,690.3161008948708,-258.60404421419526,-197.27383843723436,162.40774084900045
13.975,-1.1808149408603204,-2.41855637752489,0.2902949359343536,0.0103994675219259,0.0237909608074509,0.0031823536556554,-0.0049512210466718,-0.009508012447142,0.0323423993109572,0.9994174517126264,0.0056040741484061,0.0003278962439768,9.816451605263984,-0.0023225642712008,0.0013046632412941,0.0017702668169962,7.0328414746766335,0.9900430567580404,3.642219292806657,1093.030013277058,1128.7196522472834,1096.7022983044003,1102.1530268829836,261.0826569944994,367.6289549597521,-193.91582899685693,-220.0639249867092,162.40870729050872
13.9775,-1.5091069034075009,-2.4460575466034236,0.0223822257816735,0.0071021149337503,0.0184525000988515,0.0026226356742974,-0.0050197819487188,-0.0095782783716005,0.0323360153703847,0.9994166859279168,0.008001882647257,-0.002247290598478,9.808332416496745,-0.002345642451475,0.0014309746894337,0.0019055516182331,7.032836682775235,0.9900419649676688,3.6422329840847065,1093.513215411186,1129.0530485753063,1096.3566315174187,1101.6424951107267,133.4397443118424,-79.39586286109838,-96.81217581849829,-188.3939024011557,162.40950808958587
13.98,-1.741645065559683,-2.4248298655836567,-0.1859018957401286,0.0031219238221727,0.0132994143070147,-0.0007695428875465,-0.0050526909549588,-0.0096331489570413,0.0323106944024294,0.9994167893880318,0.0102037821384385,-0.0044370852296607,9.799955211276734,-0.0023699742166105,0.0015553664113946,0.0019794233526939,7.032832157553034,0.990044454121804,3.642249253653081,1093.6972119986171,1128.3226729329779,1096.2182374253075,1101.2110573709779,21.36718036495465,-454.1787054671653,-17.91647124792136,-145.81375347659733,162.41029713589447
13.9825,-1.885716453908614,-2.3674674465682215,-0.3034683219550554,-0.0013495638938417,0.0079523749252452,-0.0047941437901014,-0.0050530753354549,-0.009662829373313,0.0322716280375047,0.9994176716635296,0.0120142296656279,-0.0062739718598139,9.791508437214052,-0.0023968151619257,0.0016717416166601,0.0019866845566589,7.032827718613408,0.9900502205708512,3.6422684519925457,1093.6200513130107,1126.7821550479712,1096.267049161179,1100.913426343344,-84.05153381601703,-759.9573944178848,66.491256301983,-75.20378089354058,162.41107149674403
13.985,-1.9139514725733755,-2.2640954489839484,-0.3111575489607463,-0.0063862739074585,0.0022814129260993,-0.0073409201517781,-0.00502880138269,-0.0096705877167752,0.0322249047025157,0.9994190741716584,0.0134926404577516,-0.0078786952645841,9.783184367692792,-0.0024270305719146,0.0017740019157207,0.0019242291990407,7.032823133356168,0.9900586036976108,3.642289220080253,1093.2769543295371,1124.5228859608892,1096.5506937068176,1100.8350384665102,-186.91504104955845,-1067.1810476948087,176.9213476557248,21.693475818343604,162.41182253577583
13.9875,-1.808810218834633,-2.0823175086664296,-0.2418056015553353,-0.0127794251037598,-0.0044269860292042,-0.0077390710897826,-0.0049730210826039,-0.0096742653558989,0.0321673779186857,0.9994209690521996,0.0149939814362518,-0.009079803146178,9.775174459808904,-0.0024610689086323,0.0018564993690865,0.0017913407860955,7.032819373183584,0.9900704326390564,3.6423115821686385,1092.6854761077627,1121.4462498094963,1097.1516558994579,1101.0218937224358,-223.27572427744744,-1117.5704012047463,257.11929242807474,111.90659079159629,162.41269002627715
13.99,-1.6112604266915251,-1.883383928919488,-0.1640914558482698,-0.017759920776091,-0.0097543983416137,-0.0063927914001387,-0.0048831972535711,-0.0096888671639967,0.0320972922909151,0.9994233094121062,0.0168137463511333,-0.0097786448093649,9.76766452347586,-0.0024989072655228,0.0019144505591512,0.0015899614639407,7.0328169805813605,0.9900859825929788,3.6423354613593273,1092.16057570815,1118.9350339548644,1097.836290168958,1101.3945714204683,-189.29419632612863,-922.8980389182669,297.0187026053418,182.2913771894399,162.41338017460728
13.9925,-1.3212777074996263,-1.6442723035797993,-0.1015928003354885,-0.0217425083730006,-0.0146258652143114,-0.0047524948031606,-0.0047736348215247,-0.0097161653991987,0.0320206660444768,0.9994258555566736,0.0189758869970072,-0.0101906035228313,9.760828511836626,-0.0025398655695484,0.0019444291603397,0.0013249939148852,7.032815361789593,0.990103828749538,3.6423613522864975,1091.7390051261323,1116.8317596149059,1098.6367494124843,1101.9333506083829,-137.82191548759903,-783.5680942949833,355.057562037372,255.33347344785955,162.41403117851058
13.995,-0.9060040180879522,-1.334714010997568,-0.0463290721811553,-0.0249885808812031,-0.0190825350367023,-0.0041004833862095,-0.0046617367638747,-0.0097536795539666,0.0319485854011067,0.9994282609770152,0.0214167396404983,-0.0105843981633028,9.754820557178851,-0.0025823879162506,0.0019448352553133,0.0010046217411886,7.032812684849008,0.9901213231117192,3.642387044402824,1091.4714661307119,1115.017193483389,1099.6115779791453,1102.6712387877078,-48.696873006876224,-539.213871012323,341.3229132288428,269.5269253476942,162.41476164988933
13.9975,-0.5366135647122102,-1.0813548029646551,0.0005171366369528,-0.0263019133616638,-0.0213397453545927,-0.0048089918676218,-0.004556262619893,-0.0097873050747547,0.0318895498698749,0.9994303993280622,0.0238487023739249,-0.0110509178950322,9.749773444829897,-0.0026240836722855,0.0019160443102669,0.000640389973975,7.032806952617141,0.990136784084017,3.6424075992038256,1091.4955207610979,1114.1356902598438,1100.3433639786288,1103.2809852351215,63.37316824480136,-240.41465091172776,257.1073583129021,223.9138990917572,162.41532447155996
14.0,-0.1786153279635655,-0.8567576433691618,0.0694302439161207,-0.0264815837465345,-0.0226427811587395,-0.0056419598280718,-0.0044641058624265,-0.0098037428819026,0.031844773323893,0.9994322538678004,0.0259984019301282,-0.0116463816491694,9.745787667605809,-0.0026619915300331,0.0018602317466677,0.000246971288173,7.032798275693417,0.9901501476612632,3.6424188268459488,1091.7883319719358,1113.8151202288307,1100.8971147707095,1103.7908082831664,184.90618365234732,-56.1292787896148,189.04540877082704,181.26137286448247,162.41583596876967
14.0025,0.2078764713483008,-0.6314429334127567,0.186297762797674,-0.0257908124769635,-0.0239229912569711,-0.0056899116437415,-0.0043933683863465,-0.009801379769982,0.0318194052382442,0.999433559796523,0.0278149766746027,-0.0124645029368965,9.742922989851497,-0.0026929909523629,0.0017811673929255,-0.0001587223995661,7.032787705156458,0.9901605708480676,3.642417866825205,1092.4200516793594,1113.8550438658958,1101.2885910224827,1104.1872920994435,269.95219992345807,48.024735065602485,95.11112407133955,97.16178830129438,162.41638714311148
14.005,0.4803515271484686,-0.4767615977969559,0.3097511314413055,-0.0245366707972447,-0.0250705816996397,-0.0049914446589684,-0.0043516087878324,-0.0097812139259042,0.0318151954207693,0.99943416987122,0.0292947853850591,-0.0135984710925901,9.741200358257663,-0.0027142822209358,0.0016838401447157,-0.0005590643400577,7.032775883234302,0.9901675231520398,3.642404726833564,1093.1380929715533,1114.0552439041587,1101.3726703910663,1104.2766172246727,313.48722694324,75.91034988971565,-12.274877074239969,-24.27172203578796,162.4167925295269
14.0075,0.6932639977534127,-0.3446159025975511,0.4556611882413659,-0.0228657380765124,-0.0263544092344756,-0.0039124136332771,-0.0043363323098545,-0.0097562026293403,0.0318285469110896,0.9994340579258992,0.0306701036409917,-0.0149636618671821,9.740600596969887,-0.0027237301037088,0.0015739972928897,-0.0009373777653275,7.032763395720438,0.9901713732750704,3.6423808523104673,1093.9874878140758,1114.2345956153445,1101.2272166371115,1104.0659334892648,348.95509748960313,48.298475296779145,-87.88924615784637,-136.08113249459143,162.41714064342318
14.01,0.8553158352383484,-0.222837376522411,0.6184488720529508,-0.0210336138995777,-0.0275446120949092,-0.0028034878328102,-0.0043436063848218,-0.0097474496963234,0.0318561468904684,0.9994331440381063,0.0323299986545201,-0.0164658887077408,9.741066999849716,-0.0027200829508605,0.0014577120427047,-0.0012795076132844,7.032750854066188,0.9901724206094024,3.642350024399141,1094.8828684590007,1114.2967362806423,1100.9332241602772,1103.5962115622,351.68193630032835,-15.583666493464372,-139.08985715627395,-244.80125530740943,162.4174408724482
14.0125,0.9560937948622776,-0.1096644341799598,0.7993654231796509,-0.0189363101519858,-0.028242854453019,-0.0017437363773224,-0.0043804466720794,-0.0097730861701285,0.0318974134223257,0.9994312697242818,0.0345973770905634,-0.0182370808157832,9.742511878621714,-0.0027030485788858,0.0013410130663221,-0.001575029721507,7.032739045939208,0.99017018233851,3.6423181644394953,1095.7458974955775,1114.1566772828771,1100.53176735133,1102.8419272127276,350.04480764554484,-112.05942099134585,-181.24011849737948,-381.31209692263326,162.41768358680665
14.015,1.0053973942354235,0.0134290388047093,1.0261840882673705,-0.0158913160153974,-0.0283061113772287,-0.0002161976603971,-0.0044544264449307,-0.0098367843901524,0.0319496556917916,0.9994285092949547,0.0375138380478058,-0.0204249687915381,9.744829130799268,-0.0026732307850947,0.0012294170497349,-0.0018178514466546,7.032728343983452,0.9901649269267738,3.6422886756427055,1096.6330924972287,1113.7364391756855,1100.02702356779,1101.6896510775866,288.17587551963067,-193.20526008136065,-175.46338507071448,-447.85446115415454,162.41790952804067
14.0175,0.986967611500906,0.1015636431894706,1.2041873097106033,-0.012897154612042,-0.0277695044194991,0.0016829096131053,-0.0045621201661034,-0.0099296498533051,0.0320060809206974,0.9994252661478744,0.0408851481718855,-0.0229678573356118,9.747903121438739,-0.0026319919091461,0.0011274308474591,-0.0020060678536715,7.032718913860018,0.9901579035023494,3.642262787464857,1097.1867768731756,1113.1906509824703,1099.6544504259766,1100.6026549069572,176.6670617395345,-251.97408721428937,-128.23575412187716,-442.45406819763673,162.41804471515195
14.02,0.9135945123516293,0.1740219467969036,1.3342920400497391,-0.0099246055321589,-0.0269243324776504,0.0047519694525029,-0.0046836553666328,-0.0100381380436075,0.0320591091397696,0.999422070770194,0.0444394273273455,-0.0254921143684703,9.751614558575252,-0.0025812991386944,0.0010382065484748,-0.0021414107379519,7.032711072870751,0.9901512917635064,3.642239620798843,1097.5164278059265,1112.4765687396143,1099.3858447971809,1099.477380736599,99.01728469229327,-342.3852293144056,-92.94334613431057,-488.0615494801224,162.41812629837335
14.0225,0.7835715220462856,0.2515197952742308,1.3855732098551679,-0.007437558067115,-0.0261375803594738,0.0100590044364274,-0.0047973167196459,-0.0101521674665912,0.0321070836149533,0.9994191093846811,0.0479761062759676,-0.0276008631186766,9.755841650821903,-0.0025235511203399,0.0009635489352744,-0.0022286466586769,7.032704722170816,0.9901459596314444,3.642216908582757,1097.6818632966372,1111.4787248358982,1099.1897336953048,1098.1623471595562,34.17471643323927,-379.71212984456065,-59.35208947184018,-470.4183794153497,162.4181633958682
14.025,0.6612109521605095,0.3191695006235404,1.3132719668719295,-0.0065255866424307,-0.0258495344236822,0.0154466573287805,-0.0048890357568327,-0.0102605552166869,0.0321439915602957,0.999416678291389,0.0512727961062093,-0.0290516909826798,9.760466198811534,-0.0024613660419612,0.0009040645869327,-0.0022752481854938,7.032700098639316,0.9901430941864188,3.642197086571045,1097.6873013880927,1110.5780080903914,1099.0890843498216,1097.1252888395215,-6.7919278690637706,-360.53831332081137,-46.5116355543252,-401.69966970723897,162.41814407509267
14.0275,0.5427992849999614,0.4011213274202074,1.116326002255052,-0.0061510858262271,-0.0255556036241298,0.0203715415533705,-0.0049533660676906,-0.0103542549304433,0.0321654422144194,0.9994149899910644,0.0541472704158711,-0.0297770150107689,9.765376903622851,-0.0023973442470068,0.0008595143345812,-0.0022910117964585,7.032696991501184,0.9901431019904772,3.64218406992256,1097.6479036572919,1109.6760332692943,1098.9571755175334,1096.1538488110205,-9.810660806577575,-379.55384546533855,-90.36651470135843,-414.5778445137955,162.4180726307631
14.03,0.4073737254998916,0.5189647354178407,0.773521271542054,-0.0051481168979657,-0.0247612803062984,0.0239223638547225,-0.0049948191921652,-0.0104292004168814,0.0321740915398072,0.9994139519515486,0.056511466157896,-0.0299115396496967,9.77047125026621,-0.0023338272042312,0.0008292359771142,-0.0022872655301963,7.032694571613875,0.9901448714421192,3.6421811122767966,1097.6382480840596,1108.6802388630645,1098.6372517763148,1095.0523996169525,7.894171986616714,-340.5431148220864,-156.34049733546192,-393.6876094257353,162.4179260322937
14.0325,0.292235667886229,0.6285901921024096,0.4457118598531458,-0.0038354526498167,-0.0237045683974928,0.0246593725160552,-0.0050229848986703,-0.010495726302234,0.0321767712603701,0.9994131703740688,0.0585589799085418,-0.029700763820789,9.775654193189776,-0.0022727640478684,0.0008124311234767,-0.0022755618315364,7.032691899531052,0.9901469218755596,3.6421886148851166,1097.6873745172247,1107.9733176951838,1098.175473030856,1094.1854107638915,26.032383251145525,-252.26053089177657,-223.8006320439117,-332.9881474933907,162.4177522890712
14.035,0.1668435071080429,0.7383052495233293,0.1290663061118946,-0.0027275600305466,-0.0221191997997176,0.0239394905162753,-0.0050342278983652,-0.0105565703709305,0.0321812042889634,0.999412372979455,0.0603471500318267,-0.0291269164560352,9.780851957276765,-0.0022155483714747,0.0008082106524266,-0.0022662641751838,7.032689265611723,0.9901484642446512,3.6422055694313458,1097.7684100003155,1107.4189362086058,1097.5182486160954,1093.3874588794858,27.045600988554646,-198.38669659165444,-279.07654018932686,-302.0985719283236,162.41752350595988
14.0375,0.0334143576332435,0.8369205123238107,-0.150133018601582,-0.0021213254194304,-0.0199465089830941,0.0226916290358788,-0.0050115949946282,-0.0106017346073237,0.0321873167211719,0.9994117306459976,0.061696568386912,-0.0278993889706105,9.786012965082152,-0.0021629915541175,0.0008155497494067,-0.0022670492871533,7.032687391307113,0.9901498749787484,3.6422295722494007,1097.8226025221677,1106.9813842122255,1096.7800903299096,1092.67491790425,0.6782608558750174,-153.01329958531247,-277.51195485766607,-254.97772606227608,162.41724775624547
14.04,-0.1021672746883681,0.9106561164082092,-0.3698614721743208,-0.0021781147671888,-0.0171979669281784,0.0212087082762819,-0.0049536216581541,-0.0106267926531946,0.0321958462601042,0.9994112484502792,0.0625286370907303,-0.0260299035953756,9.791090508791983,-0.0021153247593536,0.000833403758992,-0.0022815606452163,7.032686233381886,0.990151202306252,3.642254789448773,1097.7718013045949,1106.6538697106791,1096.130688841807,1092.1125702491743,-58.79327391097822,-125.64603174230652,-203.57146453303807,-200.35938792322264,162.4169141372091
14.0425,-0.2541151399505652,0.9653596556336844,-0.5661686967479285,-0.0027409193312846,-0.013821692001438,0.0192762839677559,-0.0048785833859516,-0.0106305924556141,0.0322121643375068,0.9994106493860636,0.0628168110914154,-0.0239146663930072,9.796039270938609,-0.0020720955242655,0.0008606929622408,-0.0023088372364251,7.032684769265318,0.9901515103635384,3.642273634096,1097.5286361526128,1106.353154053514,1095.7622330072443,1091.6731209646339,-120.10440508354463,-96.12159061946025,-21.986944845143448,-115.08869764491024,162.41644617424865
14.045,-0.3621370824983438,0.987850780681618,-0.683947341446181,-0.0032719812898737,-0.0111478781549611,0.0175019155543952,-0.0048031372724112,-0.0106101831012038,0.0322375040565632,0.9994098345797092,0.0625010607628584,-0.0219102150861243,9.800818435377671,-0.0020321713548598,0.0008960805117123,-0.0023437276117066,7.032682125080003,0.990150655912675,3.642282934022647,1097.1712792791773,1106.173261757582,1096.0207541175812,1091.5371267609498,-166.05521327781963,-52.68487841072922,258.6234240879608,-3.0434044740110635,162.41599997931627
14.0475,-0.4381436494525464,1.0001416511823007,-0.772951613516129,-0.0038346682575134,-0.008635621942559,0.01559743316398,-0.0047358986142759,-0.0105652617379519,0.0322696364375514,0.9994088547731264,0.061578226886111,-0.0202092006257436,9.805387511800609,-0.0019939252298668,0.0009378067500642,-0.0023780091628847,7.032677607056161,0.9901489139137984,3.6422829311002927,1096.6983600862238,1106.0897296614603,1097.0553501276838,1091.6579039422638,-217.30970901554673,-3.1228207774797405,642.5581528210746,110.42263936699877,162.41549634137138
14.05,-0.4714155190515777,1.0241753853847069,-0.872965655314152,-0.0050669098501337,-0.0062904816852688,0.0134199855017153,-0.0046846242958003,-0.010495742057459,0.0323061536292108,0.9994078049883964,0.0600491202112959,-0.0189792254859248,9.809703519515558,-0.0019555085064304,0.0009835984264014,-0.0024018070203134,7.03267098585884,0.9901465546062782,3.6422731114866815,1096.0847307340991,1106.1576476536943,1099.233544881687,1092.089239957785,-219.53273859254503,62.862081329821365,930.8480731472991,200.93766830974843,162.41482760520248
14.0525,-0.4322790668008416,1.06511659389673,-0.9700269696143404,-0.006716070486018,-0.0048783183072648,0.0118244072392997,-0.0046497378764886,-0.0104072157228866,0.0323411704385748,0.9994069137302856,0.0580300829504654,-0.0182377718867932,9.813718874904797,-0.001915233713061,0.0010305391099907,-0.002405077688165,7.032663133879201,0.9901450650508424,3.642252321184277,1095.6006963932607,1106.4040400681097,1101.709590493421,1092.6625922838127,-175.37044828558317,148.55456350672512,1066.4490505663555,265.00913627983937,162.41421881690283
14.055,-0.3057918235242588,1.1307714880075028,-1.09815047227248,-0.0089143501278321,-0.0032777684695726,0.0105590527750045,-0.0046267731616606,-0.0103067010598543,0.0323664320686563,0.999406517309448,0.0556683678142864,-0.017897187785167,9.817383579243812,-0.00187184401673,0.0010751365370224,-0.0023792077990306,7.0326551962927,0.990146358310659,3.642222157581652,1095.2078784926716,1106.900420471228,1104.5657901345176,1093.4142856391838,-142.73872428714228,283.1333183073651,1248.550375182854,359.47982886317567,162.41355987596688
14.0575,-0.0521594034255236,1.2198335834783067,-1.2881643875421158,-0.0115486376217871,-0.0004775396384828,0.0091323976300238,-0.0046108072803495,-0.0101916416089908,0.0323793480838026,0.9994068015116744,0.052923025487514,-0.0178466000473797,9.820651493450857,-0.0018245807289184,0.0011136485839064,-0.0023185668785968,7.032647486990435,0.9901509970031876,3.642186557488883,1094.887002771825,1107.8197066596467,1107.9523423693363,1094.459991428129,-89.64318688702822,390.75098179817616,1163.8145912476828,397.21155640339174,162.41271586624663
14.06,0.2229245666504483,1.2789212943517108,-1.456723797959633,-0.0126837687630167,0.0026316034842235,0.0070049651055557,-0.0045989902996085,-0.0100667301142909,0.0323812770860697,0.9994077893152612,0.049894235872772,-0.0180123947348016,9.823475953186042,-0.0017732855189184,0.0011425243576506,-0.0022215660728454,7.03263924434808,0.9901579473902172,3.6421497828810248,1094.7596625582364,1108.8541753802192,1110.384863090757,1095.4003434212011,-22.596035110386712,462.27472455980313,824.2156839544169,377.837236755961,162.41197194241738
14.0625,0.5133633850870551,1.2914606509995024,-1.588898720691739,-0.0117555403829437,0.0065153646709287,0.0027303906651993,-0.0045886154045206,-0.0099410528026423,0.0323702703766454,0.9994095805639464,0.0467702282205303,-0.0183179927206935,9.825815780725641,-0.0017184284671747,0.0011587828375317,-0.002091209703535,7.032629834184957,0.9901662800957954,3.642115941673676,1094.7740225962732,1110.1310802824453,1112.0734207891076,1096.3491776119083,25.3296605954852,540.9883594442985,522.3546840103737,372.0434555990608,162.41119080777045
14.065,0.769647580057958,1.247857137195894,-1.6515013682874855,-0.0091066260915928,0.0107666910120374,-0.0031077172472996,-0.0045702892012545,-0.0098281139894208,0.0323405555240334,0.9994122139048386,0.0438330502787694,-0.0185511767195432,9.82764102500381,-0.0016611971404368,0.0011602883704169,-0.0019349897206144,7.032620507929594,0.9901764375268644,3.642090805033516,1094.8863108612138,1111.55911717744,1112.9966365108085,1097.260560699196,60.068489654886136,592.0338734715172,178.05206468698944,346.4735046898026,162.41038274925756
14.0675,0.9368791007563804,1.130651407399514,-1.6020877607656194,-0.0051169165112126,0.014644174586504,-0.0092392038113041,-0.0045510873328313,-0.0097517626822167,0.0322962986086457,0.9994151951234044,0.0415593550943353,-0.0188276538256696,9.828929764313635,-0.0016035054972059,0.0011461275624933,-0.0017639639079197,7.032612961515936,0.9901873342105582,3.642077928682124,1095.0743650445477,1113.091249649803,1112.9636811125426,1098.0815451353576,86.4310043730576,676.70615693581,-210.05866890074128,331.2154755016245,162.40954730747055
14.07,1.0038851174352803,0.9191864629402072,-1.4185394150583854,8.733351812364251e-05,0.0181032226677403,-0.0151081656345176,-0.0045413065877258,-0.0097254189430243,0.0322488482783023,0.9994178077888048,0.0402213539116722,-0.0193190048998559,9.829681566362495,-0.0015477542553982,0.0011166651206438,-0.0015913411456723,7.03260815622154,0.9901970355440424,3.642078580572505,1095.3184658830792,1114.9426479621195,1111.9463431663044,1098.9166380767044,82.19138265719081,666.0000024453856,-497.74945432391985,276.34640384809285,162.40852010467336
14.0725,0.953682240489719,0.7047340529979244,-1.1906087285036515,0.0039524234093183,0.0199463259875797,-0.018337308031786,-0.0045472855827464,-0.0097519565573534,0.032207046652758,0.999419578527588,0.0398900670175662,-0.0201114793373353,9.829919228017797,-0.0014965445309822,0.0010734090254612,-0.0014306131757861,7.0326056433625475,0.9902040011576102,3.642091552995925,1095.4853219578335,1116.4212496620296,1110.4749338409235,1099.4632771545976,49.55097681412688,562.2394859078244,-657.8454584101445,184.00894766538687,162.40764894113815
14.075,0.8292538658589342,0.4779326609431359,-0.9302560284156464,0.0065090472577956,0.020954506576785,-0.0200651629824052,-0.0045685328064455,-0.0098271421068515,0.0321706728129761,0.999420489788204,0.0405052269165711,-0.0211523766654986,9.829686639619208,-0.0014523667815171,0.0010186834599467,-0.001293656446307,7.032604538981263,0.990208137684398,3.642113726776031,1095.5662207671498,1117.7538453916593,1108.6571158742531,1099.8366828150315,12.779422866013013,537.4737929440995,-805.0547118225146,123.0182931272146,162.40676884475803
14.0775,0.6561849683093532,0.2180766957993816,-0.6259230971965887,0.007828541392099,0.0215208514659078,-0.0209994762070964,-0.0045955252031786,-0.009939702773173,0.0321357599572078,0.9994208045926092,0.0418769333705763,-0.0222097484333446,9.829046452233312,-0.0014173349223248,0.0009552369856501,-0.0011891697786763,7.032604269858832,0.9902103085472644,3.642139836356849,1095.5492190721636,1119.1086186267505,1106.4496602818103,1100.078368620234,-19.747231389923687,447.53784679269114,-765.0827423442638,56.04661945832255,162.4057106065121
14.08,0.5357061434721988,0.0260242615419631,-0.3992631337082395,0.0078044988231371,0.02158695975575,-0.0212635465735366,-0.0046238446590461,-0.0100699961941805,0.0321019735009885,0.999420769359186,0.0436489505665831,-0.0231523665688477,9.82807380205064,-0.001393012750762,0.0008859346876765,-0.0011217242202459,7.032604572710593,0.990210775563114,3.642163206121515,1095.4674846102002,1119.9915346256223,1104.8317021625328,1100.116915912323,-31.80772033034096,295.4053086690825,-559.6028761194906,-12.152409311286336,162.40483270007195
14.0825,0.4738359673317813,-0.1286693350574145,-0.2074053087281006,0.0073353250216355,0.0212346901040439,-0.0213904027914829,-0.0046538326710171,-0.0102024958925455,0.0320663369989948,0.9994206865703312,0.0455439850092538,-0.0239504622910385,9.826846298833994,-0.001380357506846,0.0008134655535333,-0.0010916482129395,7.032605591029039,0.9902107894492088,3.6421812307286303,1095.390180470512,1120.5856451700956,1103.6516459012134,1100.0176065736775,-11.144611375582903,192.362682863556,-396.7543786898949,-63.61705920666196,162.40396492399083
14.085,0.4739987461062613,-0.2620979557118064,-0.0089955882447299,0.0072482410215189,0.0203848108522248,-0.0216326324521408,-0.0046823341079146,-0.0103376920658283,0.0320253287836033,0.9994207508512384,0.0476010671951579,-0.0245219891869294,9.825435317192786,-0.0013796418622836,0.0007402010279616,-0.0010955969981949,7.032607903799646,0.9902119853144739,3.642193234949579,1095.4117615533223,1120.9533480399402,1102.847930269083,1099.7988306162897,40.40805725089108,80.38783654554771,-194.78917704702008,-86.16593368672984,162.40294117792223
14.0875,0.5208994186812869,-0.326324387614126,0.1403429982893918,0.0079938336355083,0.0193972335962368,-0.0219308552608294,-0.0047142772838496,-0.010472197278454,0.0319812735907899,0.9994209547251132,0.0497750033847422,-0.0249492190516705,9.823906754132794,-0.001390262076761,0.0006683017953431,-0.0011274832738342,7.032610954561277,0.9902142641846884,3.64219768862843,1095.5922207567664,1120.9875843528234,1102.677700015978,1099.5867769052438,113.86549382434615,-32.32994675250399,16.679334310405142,-78.3304707617091,162.40210626282217
14.09,0.5845447870688939,-0.3420401034950507,0.2822564244112238,0.0093275545857399,0.0181731090160039,-0.0221353649550691,-0.0047535968230972,-0.010587471248436,0.0319445470145247,0.9994210814513668,0.0517189466111651,-0.0252938428880467,9.822323581286447,-0.0014105943646297,0.0005998639241409,-0.0011795832374619,7.032612976185723,0.9902155836963616,3.642194221451228,1095.981089022444,1120.7916983061775,1102.931326940635,1099.4071782624812,189.2179838568768,-103.58432795531571,149.6415166416903,-59.145736235395674,162.40129361870655
14.0925,0.6353589203520424,-0.3220406603755129,0.417757361273789,0.0108726448771594,0.0168494163344405,-0.0219285616588551,-0.0047905977133231,-0.0106693608617178,0.0319197798970362,0.999421101024887,0.0531764325469979,-0.0253579115484371,9.820737123129284,-0.0014381039501021,0.0005368858522147,-0.0012436462784471,7.032612733506454,0.9902144882315204,3.6421848491934665,1096.5383106760507,1120.4696627130468,1103.4259075991868,1099.2910482240668,256.79657604987904,-138.92878042036148,224.81951708010575,-27.54222680918725,162.40050131842145
14.095,0.639318943625635,-0.2715640769176027,0.53527039487962,0.0130026350083025,0.0157454768273988,-0.0207319641753721,-0.0048049265592832,-0.0107113772053637,0.0319022267429298,0.9994212859552624,0.0540429601471801,-0.0247430318200849,9.819182922238046,-0.0014696239712755,0.0004810751434605,-0.0013118749788251,7.032609627044937,0.9902112317095924,3.642173613235357,1097.2650719026935,1120.0970544040758,1104.0554245260355,1099.2694671284353,348.3871028557825,-147.56428150465788,267.98070231289654,9.37991547371171,162.3997350428604
14.0975,0.5569315405033299,-0.2006970703959939,0.6375579183738802,0.0161305853842947,0.0153063561061665,-0.018141398375696,-0.0047799312846911,-0.0107184740617117,0.0318863376914816,0.9994218780941596,0.0544290738410287,-0.0231358678312383,9.817675122262125,-0.0015017630092035,0.0004336392191238,-0.001377444410585,7.032603960702437,0.9902072226533708,3.6421647226647926,1098.2802461903295,1119.7318413055236,1104.7658111107507,1099.3379478014351,388.813020229768,-101.6685837667612,226.96407961361697,34.977437785535265,162.39884664368088
14.1,0.4042711298307662,-0.1526257589708471,0.6831612333607991,0.0184786670072392,0.0156580315666263,-0.0155991066917337,-0.004718997253774,-0.0107011153510064,0.031875631701922,0.9994226807416212,0.054531971938706,-0.0206263234811223,9.816206014920292,-0.001531293652508,0.0003951907109431,-0.0014344929210167,7.032596923650281,0.9902028940190196,3.642158019070816,1099.209137003842,1119.588711485242,1105.1902449241036,1099.4443543173627,379.40435030694493,-7.290230362558529,111.93023162489295,46.1430688432684,162.39813268951355
14.1025,0.1705334105069615,-0.1311031718971988,0.6933505245140383,0.0198521005338952,0.0160935235435626,-0.0134610205649556,-0.0046360179265023,-0.0106680361448223,0.0318719020923022,0.999423513903368,0.0545007808054931,-0.0175124299862707,9.814752928544237,-0.0015554334953764,0.0003656454922975,-0.001477867144755,7.032589566456704,0.9901989504619272,3.642150408551091,1100.1772679418643,1119.6953901537108,1105.3254622688755,1099.5686631456515,419.0491074931542,113.710234085584,-20.31135948240854,57.66072882737725,162.39744659054176
14.105,-0.1768136086772597,-0.1374342143585292,0.6864289309153389,0.020138876076154,0.016171144731574,-0.0119235231678071,-0.0045372767757647,-0.0106276240653261,0.0318697776942245,0.999424447556942,0.0544760451379505,-0.0139434946349175,9.813283793114087,-0.0015719729419086,0.0003441998227535,-0.0015030314358261,7.032582873769557,0.9901971373567428,3.64213967266879,1101.304382541308,1120.15726265567,1105.0886881266915,1099.7326579614999,390.5018960867305,223.489227133722,-152.50300284745515,68.43290481516757,162.39665603347555
14.1075,-0.4958043590981136,-0.1625433786632687,0.6815073947477684,0.0192671770957507,0.0157955733503102,-0.0114048435589315,-0.0044442630378515,-0.010570228744386,0.0318665281676746,0.99942555974708,0.0542280486458488,-0.010358199382497,9.811763705529657,-0.0015791866355404,0.0003296316583469,-0.0015063832727135,7.032576439875617,0.9901979771470872,3.6421243609403207,1102.1297774222978,1120.8128362893792,1104.5629472546384,1099.9108276697275,281.07999697377767,305.99073456229866,-265.8385757155048,93.91338749225774,162.39602495257944
14.11,-0.8133197478395097,-0.1970949398526748,0.6851733385674283,0.0172878801113629,0.0148654591376462,-0.0107518547648494,-0.0043787216137252,-0.0104881042003464,0.0318640579998003,0.9994267593932866,0.0535584874694584,-0.0072035091868239,9.810153041439051,-0.0015758288728814,0.0003206062331855,-0.0014857627047403,7.032569535569995,0.9902004426987404,3.6421042620532167,1102.7097825261767,1121.687216328481,1103.7594952481143,1100.202224898961,167.92653691229236,407.5071443025808,-391.4783313739305,173.9345897302156,162.39542314859148
14.1125,-1.1606851376356366,-0.2421503155574949,0.686864589231245,0.0138472011352848,0.0133181460174161,-0.0088095053191697,-0.004351425047066,-0.0103839454315323,0.0318652468239538,0.9994278667598528,0.0524765386840492,-0.0047186563238627,9.808409655476346,-0.0015611662176554,0.0003159515662419,-0.0014411103606979,7.03256230671805,0.9902038512129406,3.642081331297231,1102.9694101068594,1122.8503720108924,1102.6055555977684,1100.7805006183787,4.097380485563277,417.8720996550766,-431.54790555952405,260.9795464003174,162.39473543883105
14.115,-1.405201791473556,-0.2863998984988909,0.6698953933130593,0.0104802631333012,0.0122635818639634,-0.0063394921876286,-0.004362467768068,-0.0102692993425225,0.0318700792980115,0.999428754319464,0.0511690197624659,-0.0029391084787734,9.806493485207344,-0.0015350141021339,0.0003148695754649,-0.0013750179777959,7.032555304170764,0.9902083614686094,3.642059544222695,1102.7302694286043,1123.776576826757,1101.6017557203163,1101.5071226309628,-202.2405338131596,324.2228811611502,-382.96976490053913,343.8154909504876,162.39419151678496
14.1175,-1.5899963535492008,-0.3522097661468827,0.6216334257152336,0.0069989129877992,0.0117957393986258,-0.0038899049235682,-0.0044109922145873,-0.0101639030019579,0.0318788408754798,0.999429212402024,0.0499822031739818,-0.0018878105768025,9.804369310934284,-0.0014977153668683,0.0003171392636996,-0.0012928388047763,7.032549384312693,0.9902133292048656,3.6420438388710488,1101.9582074377938,1124.4714864166979,1100.690706773266,1102.4995780731308,-395.85282113747047,212.6427792440276,-331.8818296303952,432.54841658215406,162.39367828242857
14.12,-1.7172101421826742,-0.4481791746848505,0.5492494918661918,0.0033336387402876,0.011386417934131,-0.0019353813514709,-0.0045002155523021,-0.0100834691437813,0.0318932889677475,0.9994290161405364,0.0491803751890475,-0.0016665527755799,9.80201482983698,-0.0014499884458595,0.0003232245197915,-0.001202198840203,7.032544836255055,0.9902172120661826,3.642037523522246,1100.7510053229169,1124.839790722977,1099.942346572164,1103.669864713874,-571.7218948901079,42.881197289346005,-245.4782693189898,489.69858992101376,162.39319027340315
14.1225,-1.7625541345901143,-0.5892782260745985,0.4610290196221428,-0.0008291821137424,0.0108216544142306,-0.0006890595661561,-0.0046206112738032,-0.0100292744245916,0.0319135621420627,0.9994281970261574,0.0487539833281873,-0.0021193576363817,9.799430356500151,-0.001392725000852,0.0003341583060891,-0.001111926489711,7.032541389477937,0.9902194498302826,3.642040742977696,1099.0995979633428,1124.6858924031446,1099.4633154266708,1104.9480710227363,-791.4345350854301,-207.02025485588393,-138.07606494636295,553.0661876606437,162.39273133716085
14.125,-1.7039898143316812,-0.8099464087118314,0.3592222097850621,-0.0062641768448929,0.0102307317107005,0.0001499720500933,-0.0047550450157258,-0.0099861457630394,0.0319402093335637,0.9994269678517452,0.0483783886002033,-0.0029326888600112,9.796640328225232,-0.0013268227458828,0.0003513612497744,-0.0010306877227577,7.032538267225736,0.990220313477492,3.642050904099461,1096.7938326474905,1123.804689448698,1099.2519662474324,1106.4351956521766,-862.7263137722263,-440.5450665386037,-14.894809131695416,513.6608423681649,162.39221105869728
14.1275,-1.5503909806075604,-1.0229482600967637,0.2925205108438914,-0.0107211652150719,0.0094016246766996,0.000500617531987,-0.0048983415516225,-0.0099464719517043,0.0319764987179842,0.9994253154127716,0.0478731965225193,-0.0040342403055895,9.793680362266947,-0.0012531564393906,0.0003764406183143,-0.0009657230839466,7.032534373010107,0.990219536533864,3.6420628441251166,1094.7859663944823,1122.483167070452,1099.3888413810123,1107.5163752345763,-772.5619819542019,-638.7168600749103,116.83739106159003,378.9256942192741,162.39179952893264
14.13,-1.283177067681533,-1.2290723066405118,0.2562836938913292,-0.0147169495773872,0.007133138319912,0.0007167783572901,-0.0050312630956677,-0.0099221846649258,0.0320192032801595,0.999423298977017,0.0474546725619673,-0.0050883075868191,9.790595724592132,-0.0011726514837218,0.0004108643000966,-0.0009222086631892,7.0325299669683785,0.990217668131896,3.6420726858671086,1092.9310227377189,1120.611105148323,1099.8361532027404,1108.3298241232733,-727.7824526447374,-924.4126202139261,260.442106809983,284.34501259771525,162.39140567856288
14.1325,-0.8380215566489612,-1.4072172157353784,0.2524544115795071,-0.0185020804904494,0.0025155322278563,0.0010031452120281,-0.0051245725872972,-0.0099294115159975,0.0320608110327924,0.9994211286414189,0.0474331708443436,-0.005566039891305,9.787445575938833,-0.0010863683911222,0.0004557756282323,-0.0009033109281965,7.03252571843291,0.9902157891739968,3.6420790259648,1091.1470541312583,1117.8611039693817,1100.6910519150626,1108.9381002975651,-550.7152824680547,-1067.0486921495317,358.5378518930869,160.01996815960865,162.39094594266484
14.135,-0.3770363522814125,-1.455256256228556,0.2799909195756924,-0.0205513086441208,-0.0023535243728112,0.0013140619438001,-0.0051650565143545,-0.009968360349744,0.0320984438993632,0.9994189483739214,0.0478034478232188,-0.0052432976491842,9.784304554683606,-0.0009955450102615,0.0005119438105214,-0.0009106180719082,7.032521431169814,0.9902134579401464,3.642082142348877,1090.1774463253792,1115.2758616875765,1101.6288424622055,1109.1299239640712,-262.82910118011824,-1060.8515946202876,410.50716734960537,14.595667926685103,162.39056704424024
14.1375,0.151464732855847,-1.3662998257935013,0.3309731295093292,-0.0213543278698151,-0.0075623744687502,0.0016474362237886,-0.0051584387456832,-0.0100239786127308,0.0321327758154143,0.999416858424322,0.0482571446025379,-0.0042560394022713,9.781259104366434,-0.00090166048506,0.0005796769168605,-0.0009446278384261,7.0325161908324345,0.9902096438996264,3.6420823820656087,1089.8329086253575,1112.5568459962794,1102.7435877518108,1109.0110786371988,-13.242225427163907,-1185.5971792893308,513.9697780221119,-116.20611934061345,162.39018361206163
14.14,0.821748254245878,-1.0979611248098342,0.4018946881253181,-0.0207143903209649,-0.0131901124470709,0.0022158151159182,-0.0051253169571195,-0.0100785637498356,0.0321628184309896,0.9994149796439316,0.0484334395314791,-0.003025610361317,9.778400143734114,-0.0008065926169705,0.0006586517856082,-0.0010051904995559,7.032509443092682,0.9902045315494568,3.642079045713048,1090.111235198243,1109.347875791129,1104.1986913523165,1108.548893367368,196.3497361643412,-1137.446922061689,535.4130994215367,-215.7210068064134,162.3897072742035
14.1425,1.3712875971457723,-0.7625559897177889,0.4507854087130997,-0.018595134436164,-0.016587015798201,0.0031886934145206,-0.0050733524723367,-0.0101314199610919,0.0321824355668282,0.9994135131153175,0.048321554192455,-0.0017249088382911,9.77581654754012,-0.0007128801950702,0.000747677278452,-0.0010919919898942,7.032502465085352,0.990200025773167,3.6420723501156016,1090.814657306179,1106.869611385972,1105.420653248918,1107.9324736031667,340.4548424226273,-915.9063062158114,462.1400419803658,-286.4989112532955,162.38928905341032
14.145,1.8561322847691617,-0.3623002061006493,0.4636177153907823,-0.0144583967361493,-0.0181128061071552,0.0049186167230954,-0.0050039094336001,-0.0101939225472178,0.032191042653142,0.9994124358639674,0.0481592527335316,-0.0004064031134554,9.773593022845235,-0.0006238559220887,0.0008446625881621,-0.0012050549288396,7.032497577423624,0.9901971526464824,3.6420642003189654,1091.813509410356,1104.7683442600508,1106.5093915622178,1107.1163988111018,456.5102407835834,-799.8898525429126,408.6033212071741,-397.9326977809084,162.3888399882683
14.1475,2.297239769126807,0.1194465753775357,0.4142788323054592,-0.0070455468225058,-0.0177395661302426,0.0075800534392326,-0.0049221995407972,-0.0102745483762188,0.0321890379806852,0.9994117627276092,0.0481341309551807,0.0008112494231468,9.771811692786434,-0.0005435113146087,0.0009467377432789,-0.0013450393591276,7.032496244684323,0.990195921714176,3.6420590042876206,1093.0972085100973,1102.8701621232567,1107.4636698549543,1105.942810114262,451.26220255608354,-568.5736941401522,263.7858467082012,-459.33079364296736,162.38825590723272
14.15,2.509674419943112,0.4711489602743677,0.3151319423465165,0.0005902882434673,-0.0158027416648022,0.0096326377842259,-0.0048273393365609,-0.0103752562371622,0.0321718392115873,0.99941176969857,0.048319261468494,0.001942097976066,9.770551874694048,-0.0004760971614749,0.0010504151969824,-0.0015130812556406,7.032499036972252,0.9901976188087046,3.642060199345351,1094.069820423137,1101.9254757893495,1107.828320795759,1104.8197448428866,341.31431936686994,-226.77879012289807,34.77563134961893,-477.46508638306693,162.3877249551599
14.1525,2.5419687579374846,0.7262306671074183,0.1704546337345182,0.0081939563525909,-0.0127534576422546,0.0107967410080005,-0.0047166872319481,-0.0104862865706649,0.0321415414017602,0.999412473944698,0.0485672759203534,0.0030494420482376,9.769887903582141,-0.0004255029078798,0.0011518783553424,-0.0017100516258972,7.032504969712087,0.9902022286945626,3.6420689826155255,1094.8037801069313,1101.7362681726427,1107.6375480117024,1103.5554846823472,245.691818102712,53.14514791624866,-171.39096580701383,-528.7354990395297,162.38714078601066
14.155,2.432649800585743,0.8852856210200205,0.0104633273604371,0.0149091838535392,-0.0094947414734318,0.0110263201256815,-0.0045929972380937,-0.0105931782651264,0.0321044800402529,0.9994136726807202,0.0486415381816839,0.0041024980261644,9.769881135745248,-0.0003946966051969,0.0012473404119865,-0.0019354504342933,7.032512330693638,0.9902088582594034,3.642083266310293,1095.2982795136506,1102.1912015289308,1106.9713659667239,1102.1760673476883,143.35552399218193,325.96486046681457,-366.8045976761159,-578.8537899140924,162.38650738934723
14.1575,2.179582018554383,0.9314280256864887,-0.1364559188310334,0.020568294110175,-0.0065662392508713,0.010085727486322,-0.0044739787188762,-0.0106808011360628,0.032069648401682,0.9994150368295736,0.048286783823095,0.0047872726409014,9.770572676407834,-0.0003853528168146,0.0013333886827308,-0.002186355988816,7.032519294373394,0.990215670839176,3.64209848431624,1095.5205577268923,1103.3660924749768,1105.8035250233215,1100.6612157327763,47.820909215497934,649.946022020542,-593.0481871383379,-693.5635676372401,162.38580895190938
14.16,1.7528966518832467,0.8795955480558487,-0.2655747022693149,0.0262990988788418,-0.0036139819863835,0.0079560518208347,-0.0043661929429057,-0.0107447928953996,0.032036480967506,0.9994165230477255,0.0474671475673683,0.0050110906210444,9.771978244050324,-0.0003978299957561,0.0014070331498862,-0.0024569096928349,7.032525205962612,0.9902227010905114,3.642111350302116,1095.537384059728,1105.440931639033,1104.0061250310328,1098.708249509503,-25.99856384891217,837.3995139247046,-691.21996223471,-730.8907909790921,162.38488930692583
14.1625,1.3280979175958134,0.7713521025790246,-0.3251194498294973,0.0299691965987907,-0.0017328773919657,0.0061791900276807,-0.0042600387690743,-0.0107916830877147,0.0320001275954153,0.999418212761466,0.046368831591759,0.0049982344596145,9.774085039838493,-0.0004312740733971,0.0014657144567468,-0.00273833589729,7.032530530242916,0.9902317398569932,3.642118909813332,1095.3905649076476,1107.5530900445997,1102.3474252121487,1097.0067617778816,-85.02787055270835,878.9035156990839,-658.2261760470709,-680.2254879468211,162.38405143104455
14.165,0.8710973461257807,0.6259183069772513,-0.3442694621737446,0.0321438298365915,-0.0005358713294821,0.0051477034620801,-0.0041560377410167,-0.0108263473637773,0.0319649604067238,0.9994198931549112,0.0451352091435031,0.0047801387901759,9.776850354527635,-0.0004836476929661,0.0015075824178128,-0.0030193627538964,7.032535283463736,0.9902425107564916,3.642118608819549,1095.1122447069645,1109.835449217529,1100.7149941507969,1095.3071220697684,-148.55770689230164,994.039380052872,-680.0980659980115,-722.6200929457498,162.38313640791537
14.1675,0.3264883843164418,0.4375388978229604,-0.3452047297432165,0.0331548064464655,0.0002578724737256,0.0046754288912517,-0.0040697983926034,-0.0108413412704624,0.0319384511339381,0.9994213343297011,0.0436533065569321,0.0041044447361,9.780203664282634,-0.0005517694153284,0.0015317912570013,-0.0032870876552984,7.032538731532611,0.990253160250523,3.6421106620376182,1094.647776373186,1112.5232869448648,1098.946934882158,1093.3936613131523,-187.6209532684161,948.0197942194604,-604.3200447117508,-660.4162737200063,162.38194748616968
14.17,-0.1012677693070359,0.2826996268250559,-0.3441242237900822,0.0328549929326144,0.0005549430357647,0.0045024143921952,-0.0040101361196742,-0.0108288721929437,0.0319253723131106,0.9994224436364156,0.04179972554655,0.0028543078562732,9.78404475123536,-0.0006315490377593,0.0015384958271354,-0.0035280748695637,7.032539995735385,0.9902622858766064,3.642097033783733,1094.1741399406224,1114.5755481886251,1097.6933939272387,1092.005040701169,-195.43793359952608,759.2352305222595,-452.6151701462359,-489.313755765722,162.3808808517597
14.1725,-0.484716328128793,0.1364071079305735,-0.351697006296103,0.0314526848118135,0.0006540043145606,0.0040928053513702,-0.0039788887642807,-0.0107829835139538,0.0319239493211791,0.9994233566769793,0.0394823363943371,0.0010496821482017,9.788244624449684,-0.0007182992351999,0.0015287280592963,-0.0037292655602701,7.032538529526658,0.990269689687024,3.642079864293051,1093.6705867051887,1116.3194630974751,1096.6838590314271,1090.947092534324,-203.40147601970327,686.2544426241875,-393.0149569452464,-367.27955461955105,162.37973666005755
14.175,-0.8871289336705396,-0.0321079853490897,-0.3718052920050198,0.0288425442704964,0.0006650396934712,0.0032944432003643,-0.0039896103516591,-0.0107031826685089,0.0319334736530318,0.999424068610477,0.0366983125584068,-0.0015238987679441,9.792644842372958,-0.0008071279960575,0.0015043156215937,-0.0038785879331385,7.032534076288528,0.9902752256911757,3.6420570452127823,1093.157132560524,1118.0068204017468,1095.728319142512,1090.1686429280708,-149.4637037431624,554.8417052939427,-313.9272031225992,-194.47225241889697,162.37827703741908
14.1775,-1.1780212490745552,-0.1722761961621759,-0.3942261955961079,0.0261793229397416,0.0005997821216445,0.0026629785040633,-0.0040475529699723,-0.0105948500312722,0.0319562166301344,0.9994244526122352,0.0335545974972397,-0.0049257584117427,9.797065965101265,-0.000893390201085,0.001467483420863,-0.0039656942369524,7.032527310660445,0.990278525483784,3.642026825832332,1092.9232681864728,1119.0936716239455,1095.114223015814,1089.9747312722295,-25.532749360586955,383.81293758578425,-215.02006603318208,16.67777120683572,162.37699184358559
14.18,-1.4334411551672115,-0.318415891380111,-0.4144071737914677,0.0233232688223673,0.0003875093122933,0.0021021285569222,-0.0041421382441535,-0.0104673905228314,0.031990203394157,0.9994245375196894,0.0302379177571806,-0.0089107987882522,9.801317124167108,-0.0009731120435241,0.0014204841471691,-0.0039829063186714,7.032518837126461,0.9902798605317504,3.641988947470305,1093.0294688137208,1119.9258850896751,1094.6532188123465,1090.2520317841052,112.68643426572508,307.020595957508,-163.17073563279516,179.89055887935055,162.37564008766995
14.1825,-1.6674427451840363,-0.470891751588931,-0.422457475087498,0.0203163459539438,-5.7337313424640506e-05,0.0013566520888875,-0.0042457627604831,-0.0103330948147204,0.0320286505278004,0.9994245371811832,0.0269947884784418,-0.0129055011575141,9.805206054375624,-0.0010432954590948,0.0013653115923812,-0.0039262953682101,7.0325093587865855,0.9902800384347102,3.641945533040367,1093.4867003578015,1120.6287746037333,1094.29836933765,1090.8741840666264,267.6302909416372,268.74345972010246,-119.7592370415163,311.0604690709775,162.37423722426752
14.185,-1.8781350593325512,-0.626137597417759,-0.3986762526448517,0.0167817372043252,-0.000958845289113,6.837743529720814e-05,-0.004330843227303,-0.0102039205139548,0.0320653335224332,0.999424647029203,0.0240589176491574,-0.016341178351064,9.80854737816944,-0.0011020590739887,0.0013036722400386,-0.0037966007857642,7.0324999415154,0.9902792871289076,3.6419004203441054,1094.3676202684292,1121.269602388276,1094.0544226271388,1091.8073341294603,459.2034214398158,281.6021395424392,-84.55902461261621,447.0937186564677,162.37277814023116
14.1875,-2.0938063136145724,-0.800658778467828,-0.3124424889155686,0.0114903397531087,-0.0027646864429416,-0.002034161112082,-0.0043772784303158,-0.0100776621063407,0.0320924123685554,0.999425216605556,0.0213771363550766,-0.018791861206339,9.811175896409136,-0.0011485804996841,0.001236950266372,-0.0035997939978232,7.032491500263026,0.990278815442751,3.6418587042787767,1095.782717465,1122.0367853014452,1093.875574214587,1093.1096526599083,541.7966559175225,280.47621601832486,-47.32312166862389,480.25917197133367,162.37096982370397
14.19,-2.22778724636424,-0.9209882725901188,-0.1857602266522125,0.0062589554405147,-0.0048918129982861,-0.0040165174653461,-0.0043707102156885,-0.0099443541900588,0.0321046048015417,0.9994265512996412,0.0187370179053341,-0.0199455912451992,9.812953190287917,-0.0011830484060894,0.0011662050702365,-0.0033469857352437,7.032484281599503,0.990279606458692,3.6418252306273313,1097.0766035480165,1122.6719834683674,1093.8178070187955,1094.2086299893165,485.1032235932204,240.2936128270164,-1.6419152685554923,413.2453799148416,162.3694210094378
14.1925,-2.294715939937449,-0.9961407956070732,-0.0131638881902786,0.0006014069879812,-0.0075503878945327,-0.0056961979199346,-0.0043147435629329,-0.0098061801272827,0.0321029364018162,0.999428519539904,0.0161510031009258,-0.0198578131805107,9.813765874741508,-0.0012065958022585,0.0010923727333625,-0.0030535766281304,7.0324780696879765,0.9902816204023172,3.6418012553744927,1098.2082335829666,1123.2382533655805,1093.8673646382442,1095.1758795594828,395.46072906180774,208.11890988726572,56.35910998106766,373.0195737647008,162.36783635339438
14.195,-2.2785100677474754,-1.016761530695652,0.2046940280461979,-0.0065390387834376,-0.0112991224470771,-0.0061793831601366,-0.0042232398699176,-0.0096791526045338,0.0320945643613908,0.9994305781101152,0.0138960967379082,-0.0188014482840955,9.813533484709325,-0.0012210580563357,0.0010163390617133,-0.0027380765733578,7.03247293198752,0.9902841699007732,3.641785264140132,1099.0539071933258,1123.712578017804,1094.0996025687011,1096.0737278581403,188.48820368483868,119.68334345576856,125.79233841427369,280.0419910323501,162.36590284761925
14.1975,-2.17593308161201,-0.9709225223009889,0.3495098819101188,-0.0126868049515361,-0.0146407605447722,-0.0045913986146181,-0.0041146114032448,-0.0095800102848392,0.0320826430657043,0.9994323131352792,0.0122629836218322,-0.0171448118816225,9.812219293192786,-0.0012286717845498,0.0009389647538021,-0.002420922308434,7.032469234491233,0.9902866029538988,3.6417773944476353,1099.1506746013906,1123.8366700828592,1094.4963263303155,1096.5760895146443,-107.81103413140178,-27.004858234109047,217.79076978215247,156.37607745900195,162.3642723663694
14.2,-1.981519218876778,-0.8676252709676823,0.4042858089271826,-0.0184430665548609,-0.0174400748500113,-0.0014639028337237,-0.0040090374573277,-0.0095242877709455,0.0320654352711945,0.9994336164404805,0.0115208814184857,-0.0152952040778771,9.80983365428159,-0.0012318380242774,0.0008610919656481,-0.0021233115233316,7.032466957444751,0.990289321847153,3.641779934275191,1098.5148520226687,1123.5775537266331,1095.188556417612,1096.8556082454354,-438.81444824362416,-216.40881927820627,388.42685339817143,90.54569184171163,162.36263090524443
14.2025,-1.6599339905933492,-0.7028919308052345,0.3387607044591039,-0.0242186179792235,-0.0196548898395608,0.0022386005201884,-0.0039224926349845,-0.0095223202880843,0.032041962649827,0.9994344296893144,0.0118428472956418,-0.0135796823682694,9.806435610184815,-0.001232873694134,0.0007835607797238,-0.0018658851874445,7.03246550357624,0.9902927246104128,3.6417944009105536,1096.956602360172,1122.754625986468,1096.4384605973066,1097.0288179738527,-674.9256336432587,-388.4558600077844,530.5321594216057,53.38891828429193,162.3606582888307
14.205,-1.340381074780642,-0.5543890639407268,0.1859102052524578,-0.0279201693181435,-0.0206787386008002,0.0041989649480033,-0.00387357295267,-0.0095771177266233,0.0320149153757202,0.9994346101527872,0.0132599228978232,-0.0123776359659613,9.80212841536738,-0.0012338436210818,0.0007073315175885,-0.0016671279704117,7.032463640503793,0.9902959647307172,3.6418203276025607,1095.140223854453,1121.6352744265948,1097.8412172147196,1097.1225528368568,-779.3306124319047,-528.3729619982438,622.7576567203744,45.516839504180055,162.35901863960748
14.2075,-0.998079690009778,-0.4169075323026,-0.0263678940964194,-0.0304247266170005,-0.0212112127521377,0.0046334359157668,-0.0038718578646286,-0.0096919065030227,0.0319877304749168,0.9994340042364795,0.01581693867239,-0.011896639046258,9.797052521403616,-0.0012365586738499,0.0006335069382739,-0.0015416874742761,7.032461134482227,0.990298362961806,3.6418552364721135,1093.0599492980134,1120.1127611764773,1099.5522488809079,1097.2564021713736,-825.8783364365245,-661.5590520259832,712.9730280828676,70.38511433105478,162.3573905031975
14.21,-0.6591649632985308,-0.2987066379870214,-0.2454809038764885,-0.0319039807470428,-0.0215582478422373,0.0039411161513866,-0.0039129534833752,-0.00986576151856,0.0319655230233362,0.9994324800902912,0.0194898806161225,-0.0120730558273402,9.791379245033104,-0.0012426019453634,0.0005633122005835,-0.0014989021728486,7.032459362161539,0.9902996873364546,3.641895420169932,1091.0108321722698,1118.3274791664644,1101.4060823551345,1097.474478408512,-750.9769997454176,-754.3456468059234,737.4571973739178,114.48240756893058,162.35577674026567
14.2125,-0.3452704275536646,-0.2074987932952887,-0.4223893863715099,-0.0322686914349453,-0.0218167240037944,0.0023097865416904,-0.003983615017782,-0.0100831846075802,0.0319513845785552,0.9994301311677016,0.023979110331545,-0.0126658413744535,9.785303697425666,-0.0012532752804011,0.0004980017130176,-0.0015417914586547,7.032459046826681,0.9903002883322378,3.641934970563183,1089.3050642992855,1116.341032942447,1103.239534867778,1097.8288142092183,-605.5483953940734,-888.1239037080323,747.6340855927114,190.57101941897753,162.35418552753984
14.215,-0.0113305565215005,-0.1260992406634583,-0.5331304500661375,-0.0319654893600845,-0.0221709909841586,-0.0001852195842998,-0.0040635206753496,-0.0103197176445201,0.0319469173958983,0.9994272065312884,0.0288183373916256,-0.0132952473661853,9.779032357455955,-0.0012694425763642,0.0004387325898632,-0.0016667386011224,7.032459654791707,0.9903006648265636,3.641966663607348,1087.9830901953,1113.8868596479251,1105.1442527830973,1098.4273335056068,-333.5516793092599,-889.2099957474757,613.3279121825077,247.1215778974579,162.35230810106452
14.2175,0.2315875921275514,-0.0763038884668478,-0.514498860650678,-0.0314161060832893,-0.0226229803142622,-0.0024907704837941,-0.0041412267253301,-0.0105486196160718,0.031949726909057,0.9994240709354656,0.0334952880477709,-0.0137583683743824,9.772767565660285,-0.0012913386866985,0.0003865262608892,-0.0018640849267803,7.032460701982725,0.9903015020893216,3.6419868063344008,1087.6373059027392,1111.894982963709,1106.306174428691,1099.064422098706,28.283013116192837,-763.5718378088029,345.7300878763277,278.0253250015923,162.35077405395248
14.22,0.4462810953491066,-0.0398327940012662,-0.3658870416960233,-0.0306806091700635,-0.02315512708275,-0.0047611294595821,-0.0042125810838666,-0.0107410431847753,0.031956209953749,0.9994211277114838,0.0374551024208431,-0.0139975740502402,9.766698314477981,-0.0013184229178442,0.0003423093672603,-0.0021195156971662,7.032461831794945,0.9903038839018102,3.6419955122300607,1088.124505260881,1110.0690004588805,1106.8729032224792,1099.817460130615,384.8716904986615,-747.0932219795607,96.65717515328755,346.827419579109,162.34927538142588
14.2225,0.6833492282818213,-0.0116026081489393,-0.0440860684158429,-0.02948936444402,-0.0235752051033505,-0.0069478743730109,-0.0042811362701369,-0.0108791589859522,0.0319660725902491,0.9994185364695028,0.0403547243162492,-0.0141163964561347,9.76098693493342,-0.0013493808778154,0.0003071036362348,-0.0024156959698569,7.032462070735777,0.9903069267563416,3.6419934155118416,1089.561664355232,1108.159516853812,1106.7894603044574,1100.7985591966012,635.0669407826343,-644.9770856745009,-153.8799762992163,361.2257237414988,162.34752097203983
14.225,0.8693427598904289,-0.0060332891992745,0.3208659888692594,-0.0281051342884337,-0.0235599663033797,-0.0079987672893758,-0.0043553135228245,-0.0109611358870609,0.0319833964589215,0.99941613777254,0.0421599898849084,-0.0143262661500091,9.755761542220442,-0.0013822664004687,0.0002822080849144,-0.0027339028838138,7.032460067480104,0.9903087224414706,3.641980055897823,1091.2998399647936,1106.8441150305086,1106.1035033409833,1101.623588749322,753.442490825519,-463.68006627250935,-380.9174664507141,313.74396375599287,162.34609700777833
14.2275,1.043186633824436,-0.0272451024718045,0.7371107154690667,-0.0262198832634102,-0.0231366767123657,-0.0077638462886525,-0.0044378897119852,-0.0110027071818614,0.0320146032121536,0.99941354891895,0.043181321479988,-0.0147409271361264,9.751114181853087,-0.0014148408139316,0.0002691424284049,-0.0030556475379451,7.032455560392989,0.9903078605737964,3.6419542668680793,1093.3288768093603,1105.841116522449,1104.8848729722035,1102.3672790153814,891.02555505319,-367.6471692194689,-618.550815564589,283.16041237303693,162.34471313264248
14.23,1.2284340389363972,-0.087848930144201,1.2139980182842278,-0.0234442756611263,-0.0224120212372874,-0.0048881305858677,-0.004530191509168,-0.0110232821214167,0.0320641918178567,0.99941045202358,0.0437998038336208,-0.0154477752403266,9.747105731333786,-0.0014449474984856,0.0002694025268071,-0.00336441179337,7.032449000723723,0.9903033951559393,3.6419166461701056,1095.7549677400602,1105.005879184411,1103.0107492631598,1103.0393908111876,841.0416102830222,-246.50754456129465,-720.9319753912566,190.90412470494968,162.34309821589315
14.2325,1.35079039416299,-0.1622294649831572,1.52578861256283,-0.0206953712410116,-0.0220485372740298,3.693567135746465e-05,-0.0046348160561191,-0.0110364379159324,0.0321326909618669,0.9994067594871828,0.0442805404264136,-0.0165531582009178,9.743771977829148,-0.0014708628579074,0.0002840400029319,-0.0036473600887016,7.032441027242136,0.9902952175568904,3.641872069691308,1097.5340848607743,1104.6085787996428,1101.280213095248,1103.321799638906,616.6049125343169,-101.84999688678752,-686.4333955043095,38.191359683613285,162.34178925377495
14.235,1.4190339726536818,-0.2433316231896223,1.6838193754050255,-0.017352662064341,-0.0223842784154764,0.0064913689513881,-0.0047417771775022,-0.0110573017050402,0.0322105853023892,0.9994027957945224,0.0449265128085106,-0.0179142844856746,9.741127793659123,-0.0014916513906963,0.0003130371529151,-0.0038965842919139,7.032433211717278,0.9902852600233776,3.641827902631366,1098.8379923027312,1104.4966291999772,1099.5785822856387,1103.2303476096056,420.95838673929177,-3.2200057702079414,-649.2476049117053,-102.92990653686712,162.34051591321415
14.2375,1.4247668299296592,-0.3111132482693765,1.6920785662446463,-0.0133948985437691,-0.0234382967631216,0.0129522140445492,-0.0048387593467911,-0.0110919990471975,0.032279939943701,0.9993992837785453,0.0458673859209225,-0.0193310391983435,9.739175512614935,-0.0015071937868187,0.000354991396047,-0.0041095252237686,7.032426722831436,0.9902770140410904,3.6417900169263904,1099.6388767944711,1104.5924787707916,1098.0339750706887,1102.8071501062216,187.929665597692,79.48891576182754,-554.4583678962724,-240.6136277326447,162.33926946113118
14.24,1.3384697758229944,-0.3419344076530667,1.5306431377937064,-0.008882170883135,-0.0252186263214229,0.0183980656883093,-0.0049135681883891,-0.0111401432732089,0.0323314214781886,0.9993965994903548,0.0471056987925912,-0.0205966509671271,9.737909862676775,-0.0015180602682292,0.000407169946231,-0.0042884189638536,7.032421806293587,0.9902725804528651,3.6417607190887336,1099.7776406307198,1104.8940737787864,1096.8062904461572,1102.027279470942,-86.56750712959267,167.38069953311117,-443.4479827160403,-398.2972237461009,162.33805191010694
14.2425,1.1251698503252248,-0.323555160865753,1.1929690443082988,-0.0038085372753407,-0.0274982650062803,0.0229385832830727,-0.0049583342382557,-0.0111933929443231,0.0323659543280772,0.999394743906489,0.0484866795789649,-0.0215771811250007,9.737323929382503,-0.0015252217598934,0.0004659086324367,-0.0044391322145426,7.032418063203809,0.9902718240952884,3.641740189821944,1099.2060392588235,1105.4293822684572,1095.8167351571092,1100.8156639874915,-314.2214695860239,215.9731492496238,-272.8574449697163,-463.21695929661513,162.336620602361
14.245,0.8711536800196212,-0.2677017599484005,0.844658002712884,-0.0006027806497944,-0.0288035827161529,0.0247772238178645,-0.0049772465746782,-0.0112456851922518,0.0323879389064255,0.999393567395496,0.0498937222085927,-0.022365797440194,9.737408545583214,-0.0015298676702694,0.0005271729600703,-0.0045697465125112,7.032414564898033,0.990273560282176,3.6417267923299126,1098.2065332827895,1105.9739395250347,1095.4420032213084,1099.7111946744587,-471.07501688885264,229.5846642256588,-55.738503935290666,-427.9976306992707,162.33545089170983
14.2475,0.5733773045162497,-0.1906110839585002,0.48895804812882,0.0011201502158904,-0.0290461870010827,0.02485117989984,-0.0049687324044869,-0.0113000703944463,0.0323960186902834,0.9993931117672318,0.0513939571383765,-0.022937483098847,9.73815681534813,-0.0015333103598644,0.0005868178637094,-0.0046892483216346,7.032411494241955,0.9902777729581836,3.6417203364059234,1096.8506641743788,1106.5773055895856,1095.5380426374327,1098.6756758339948,-623.3915973998468,274.51927700095445,138.82887346510904,-408.0334271512486,162.3343041270072
14.25,0.2151556387257218,-0.1007782600106949,0.1032621434261053,0.0015839277112063,-0.0285105668635734,0.0238207440657356,-0.0049446852232801,-0.0113599343857233,0.0323901143984552,0.99939331592578,0.0530546275214656,-0.0235190784545716,9.739566286735856,-0.0015367806683156,0.0006411424247913,-0.0048063948686102,7.032409115898459,0.9902844640263904,3.6417181331952504,1095.0895752957908,1107.3465359100392,1096.1361475886335,1097.671027538703,-627.1163887176382,290.2001997718012,283.4964789437545,-315.5198741746235,162.3329548159039
14.2525,-0.0515898455823566,-0.0402946699457697,-0.1690868745275444,0.0010445242847938,-0.0278294602029591,0.0226849959752331,-0.0049184514635898,-0.0114160387863088,0.0323796316020931,0.999393771385446,0.0546973619643442,-0.0243493672736069,9.741647770926935,-0.0015411765089591,0.0006871325115831,-0.0049288902652674,7.032406397574254,0.9902920376417518,3.6417160043512142,1093.7150822307913,1108.0283065884444,1096.9555250321512,1097.098076463122,-491.1112731587905,284.14570026771,369.553934230486,-173.94111203231668,162.33185386908815
14.255,-0.2576918977781976,0.0046483320760947,-0.3950904859617276,-5.6412924694475485e-05,-0.0273571830126456,0.0216648590412396,-0.0048929239623299,-0.0114610523003009,0.0323718402421698,0.9993941818513828,0.0561894784367314,-0.0254547026424703,9.744420826865696,-0.0015471702469337,0.0007225215743655,-0.0050629554415135,7.032402631900353,0.990298572111311,3.6417124833075913,1092.6340189299965,1108.767264411378,1097.9839172597865,1096.8013219785412,-382.6067541220111,339.57739837277734,471.1897353520898,-84.59321629387473,162.3307797694962
14.2575,-0.4182734220810749,0.0541694603917604,-0.6328466778537711,-0.0017206262088586,-0.0274173112797943,0.0205872146691867,-0.004857070934491,-0.0114955152768875,0.0323653243592369,0.999394597310013,0.0575627225162721,-0.0265844358757575,9.747909776567802,-0.0015553758530582,0.0007457120758806,-0.0052132949198665,7.032397957428603,0.9903033861718687,3.64170931660426,1091.802048460181,1109.7261935803083,1099.311473708912,1096.6751103816523,-223.6277900982704,360.1496590158866,484.56225443911165,-29.003121426291127,162.32952615879535
14.26,-0.4766181400655669,0.1043591392269584,-0.817693014040565,-0.0031831945812461,-0.0277830850107313,0.0196371748550944,-0.0048024679360582,-0.011531788814091,0.032354427655032,0.9993951905756924,0.0590790368423485,-0.0275372090307442,9.75213524801574,-0.0015665274198184,0.0007557588516531,-0.0053830342680324,7.032393742014186,0.990307110100839,3.641709303928297,1091.5158799795051,1110.568012706457,1100.4067285319816,1096.6563063714095,-38.206447975011024,334.93979695498854,423.4152453991803,-17.219733835961087,162.32851471212368
14.2625,-0.4608866438233161,0.1731990667138754,-0.9968976367288752,-0.0046707707033325,-0.0279048736509477,0.01834069847473,-0.0047393070590562,-0.0115806953138361,0.0323393748953738,0.999395873073084,0.0609585564118313,-0.0284682333257985,9.757112417533952,-0.0015813586154249,0.0007523583783139,-0.0055734357056772,7.032391026452186,0.9903100273081322,3.6417117975732376,1091.6110162203058,1111.4008925650835,1101.4285499359082,1096.5890117124727,90.09786124368883,319.67127586362494,395.6260956481692,-52.93020893881558,162.32754224818308
14.265,-0.3916572366847416,0.2581975233565419,-1.167258996204492,-0.0062052427369149,-0.0275369914759276,0.0165694500865137,-0.0046796910598321,-0.0116375454513738,0.0323241362712399,0.9993964719987004,0.0631169672137537,-0.0295561971974531,9.762856018793299,-0.0016003130517338,0.0007355083375934,-0.0057835202816366,7.032389735349492,0.9903121893530696,3.641715187696548,1091.9663692857239,1112.1663690857752,1102.3848590102227,1096.3916553267156,190.48191415435363,273.5964436191442,376.20803149173514,-124.10969071136346,162.32660508661166
14.2675,-0.2740553231957831,0.3591255629497072,-1.3092413969276655,-0.0073536415374368,-0.0264980225689826,0.013976797410849,-0.0046302538410553,-0.0116951587976774,0.0323096947505023,0.999396963048019,0.0654235184037929,-0.0308673923772216,9.7693712135764,-0.0016234644151949,0.0007052801588614,-0.0060097096699556,7.032389750245366,0.9903142777568108,3.641718599281351,1092.5634257910774,1112.7688747831792,1103.3095900933663,1095.968463258916,301.5982527627475,209.23814535744512,423.26725172123827,-242.2532719350356,162.32571359524508
14.27,-0.1059024593432354,0.4961793806166222,-1.4132251304200956,-0.0075422450393983,-0.0247715267869992,0.0095184752216563,-0.0045998645712395,-0.0117365007756437,0.0322991016071774,0.999397381118856,0.0675502891673246,-0.0325038086417104,9.776650445832,-0.0016502053818998,0.0006618462064335,-0.0062456992427559,7.032389687642957,0.990316183579063,3.6417201079080312,1093.474360549537,1113.2125598125624,1104.5011952688285,1095.1803889670407,354.0937399879923,108.49505801155043,472.4762929383076,-326.99885689871167,162.32469997839735
14.2725,0.035374723939592,0.6270067857971126,-1.4206654738879838,-0.0069052286976475,-0.0233589046854066,0.0049137919412423,-0.0045940271988013,-0.0117531865188724,0.032295537345975,0.999397691191508,0.0693359622327882,-0.0345063173512183,9.784661705510642,-0.001679381045624,0.0006053862471396,-0.0064824869973219,7.03238849662894,0.9903173416935884,3.6417174691571295,1094.3338944910176,1113.311350073237,1105.6719715580584,1094.3334689744222,346.94921622302934,-15.445993284672427,529.0745188934662,-354.36253653941924,162.32390411840757
14.275,0.1611895816925597,0.7834295841885225,-1.3315478089009392,-0.0060155762871081,-0.0222312934797933,0.0002711134670857,-0.0046139590026515,-0.0117454785235842,0.032300418766235,0.999397851173672,0.0707861443059475,-0.0368372400134138,9.793344965949553,-0.0017093947065015,0.000536018050056,-0.0067087466751873,7.032386200562863,0.9903180131594916,3.6417091797728385,1095.2091066306527,1113.135329846139,1107.1465678632962,1093.408576284343,363.00415691669457,-124.60707233228936,731.7574121893906,-384.04368821078066,162.32316080017915
14.2775,0.2895104340982396,1.0053197220819572,-1.1234739539463487,-0.0047001761491732,-0.0209673307503423,-0.0044870711017172,-0.0046535597814338,-0.0117167713111128,0.0323124479756182,0.9993979152030223,0.0719672581025817,-0.0393181293797591,9.802613139122291,-0.001738330569718,0.0004536923975751,-0.0069114868803659,7.032382742948228,0.9903187207261755,3.6416951318938646,1096.1489152756008,1112.6883147115757,1109.3307586190047,1092.4132505333687,306.2403424629314,-182.6344782226612,862.4291587928852,-312.2568414988985,162.32233106622536
14.28,0.3825554863575442,1.2105241987797255,-0.8903047089851238,-0.003485836328831,-0.0195673616316707,-0.007266710898492,-0.0046966813139662,-0.0116747397353021,0.0323266464302424,0.9993980495775392,0.0730307589994084,-0.0415772443580876,9.812351677577704,-0.0017641631800084,0.0003581525026821,-0.0070768214161255,7.032378553959144,0.990320434148495,3.6416752430334696,1096.7403083429676,1112.2221574550256,1111.4587136572611,1091.8472920768484,176.85641779509714,-175.31514679701093,883.7665312936208,-134.96853126423667,162.32169221770403
14.2825,0.4753484779987144,1.4078963926112442,-0.6357654497623396,-0.0024142764223389,-0.0171745012765103,-0.0085479372758094,-0.004735098308899,-0.0116203658942156,0.0323426120407587,0.9993983073013668,0.0739851404295104,-0.043397791585503,9.822420802209407,-0.0017847463286192,0.0002493288667539,-0.0071908342137106,7.032373446384059,0.9903231504137124,3.641647631339483,1097.0331973645764,1111.8117389775905,1113.7495912754734,1091.7384078770472,47.53072423542144,-132.55236980919926,988.628603690828,86.1364309760291,162.3211086024618
14.285,0.6077005881565769,1.581769883824537,-0.3510563970108547,-0.0012155246860936,-0.012533459236886,-0.0088244268018881,-0.0047617372878148,-0.0115537937462528,0.0323563823590434,0.9993988578553508,0.0748158145706586,-0.0445887580842584,9.83265735304816,-0.0017980293003863,0.0001274381847852,-0.0072405578618676,7.032368051672995,0.990326998644374,3.641612149818948,1096.9779619641447,1111.5593956059795,1116.4018566757145,1092.2779742317286,-88.82205602528249,-33.30857115698317,910.7099589508373,315.51361041167087,162.3204727295698
14.2875,0.7492846905764518,1.6316666312626091,-0.1539637773270788,-7.918581527192378e-05,-0.0071066446687839,-0.0084705809731827,-0.0047678141724638,-0.0114783373863469,0.0323600763084442,0.9993999500356436,0.0755659968304838,-0.0449326956504479,9.842878551816861,-0.0018022004079393,-6.8118783743757096e-06,-0.0072150876495486,7.032363184583004,0.9903325505285796,3.641570067672359,1096.58908708445,1111.6451961218056,1118.3031410702267,1093.3159759291054,-220.31948789873437,104.16421900125178,649.3559580271161,524.0164745958825,162.31999692615406
14.29,0.9334753185791737,1.5481759816741585,-0.0097037375122968,0.0013114866855995,-0.0008295896355564,-0.0078367781097552,-0.0047588518284669,-0.0113913470585779,0.0323525201817624,0.999401574228893,0.0761455712957841,-0.0444996152070332,9.852889190399175,-0.0017955479741938,-0.0001516781292736,-0.0071067116380498,7.0323582242733,0.9903389799635394,3.641522383542025,1095.8763645246509,1112.080216700986,1119.6486364658504,1094.8980566047085,-331.1447073794562,224.3133631935156,422.4947407941521,698.651759656177,162.31957762084488
14.2925,1.1538775976287554,1.353044407135864,0.0937373796418314,0.0031928903077101,0.0050905377231701,-0.0072461827792398,-0.0047359287791307,-0.0113066405971712,0.0323386744812679,0.9994033165724556,0.0767854879978388,-0.0432945616787558,9.862483707775096,-0.0017767826900805,-0.0003044083727932,-0.0069118044906396,7.032352786372328,0.990344764230954,3.6414700315265778,1094.9333635475523,1112.7667629377731,1120.4156147741978,1096.8092347273869,-422.30388200641056,309.46312811476463,156.49081070554004,801.5535693196174,162.31920536763107
14.295,1.41003356569157,1.058987636838382,0.1614026606420422,0.0060077109966324,0.0092566871658757,-0.0069892750996112,-0.004699483935256,-0.0112471427771319,0.0323252691788895,0.999404570580305,0.0778932682695457,-0.0413280806057739,9.871457960095379,-0.001744953825099,-0.0004611372618872,-0.006631675248753,7.03234696107894,0.9903479513726304,3.6414159822463135,1093.7648451146192,1113.6275323415596,1120.431090519378,1098.9058244513055,-550.5713246591953,371.6282932008938,-158.4392243486806,903.9158150032088,162.31889001986715
14.2975,1.7408032850184698,0.6727714529704097,0.2221237339912567,0.0103814732141475,0.0111568288851219,-0.0069069308084868,-0.0046576954099701,-0.0112223879446198,0.0323154849422891,0.999404993639584,0.0796058404550439,-0.0387671631199331,9.879627606886077,-0.0016991911143893,-0.0006169861224876,-0.0062731772542483,7.032341102910215,0.9903478719644194,3.641365779844272,1092.180506924257,1114.6249044037775,1119.6234186524543,1101.328813802402,-595.6714227062528,323.24823139324,-413.8713724219805,829.9008822000882,162.3185775064181
14.3,2.020381357387923,0.38801520271476,0.2676924733086543,0.0144886012294158,0.0103831302289346,-0.0067099535975264,-0.0046189914765926,-0.0112358438984835,0.0323107981185024,0.9994045889930104,0.0819386296981139,-0.0357935513839106,9.88683569543463,-0.0016388821814354,-0.0007665430542434,-0.0058485850969502,7.032335304607517,0.9903450535313982,3.641325654816317,1090.7864880010875,1115.243773498526,1118.361733657268,1103.0553288623069,-546.0394405589396,169.54168114241008,-591.7307090222932,588.5409913409137,162.3183719518837
14.3025,2.2819831491319422,0.1976701008038976,0.3157785410515855,0.0191254232173733,0.0085410813540137,-0.0061743216949411,-0.004590487610067,-0.0112798916421922,0.0323121272543339,0.9994035365975849,0.0846879146052685,-0.0325698881297445,9.892963655887058,-0.0015636724920168,-0.0009043018517749,-0.0053746784336821,7.032329288466278,0.9903394688601774,3.6412997992914016,1089.450309721462,1115.4726128094896,1116.6647651073426,1104.271518759107,-531.8710220511697,-4.685864534168127,-799.675944309888,389.90418847778096,162.31822292712388
14.305,2.540664343801171,0.0953798159080529,0.3795801564534581,0.0257445966464532,0.0069079757036697,-0.0052246179118612,-0.0045678350021057,-0.0113381748445957,0.0323152468688553,0.9994023145800044,0.0874852809889394,-0.0290382399575701,9.89793873004732,-0.001473567316574,-0.0010251564383341,-0.0048710292552363,7.032323210473664,0.9903320894067066,3.6412896525348417,1088.127132890832,1115.2203441758552,1114.3633539357193,1105.0048498046951,-402.05931844751,-171.68946181515867,-853.8492635635095,144.7849252140942,162.31810834150727
14.3075,2.6798408392278255,0.0981129475624654,0.4387223474732853,0.0321494778488545,0.0066235767995109,-0.0043129883206208,-0.0045377051226998,-0.0113857947374306,0.0323197130633617,0.9994013768143852,0.0898000449265338,-0.024969980924828,9.901736973129369,-0.0013690286303409,-0.0011246053357756,-0.0043578948315731,7.032316924190889,0.990323562979852,3.6412940658309614,1087.440013129224,1114.6141655004135,1112.3955187895244,1104.9954433851776,-145.73399008775135,-293.20909040102345,-763.339220498409,-116.94525821329071,162.318065165985
14.31,2.7032781455625314,0.1534741133788822,0.5043832866886766,0.0393167170354361,0.0074492242184549,-0.003384341729384,-0.0044903090810635,-0.011406444491347,0.0323303380469946,0.9994007877552168,0.0912722662277065,-0.0202232537315719,9.904372822312135,-0.0012511955170937,-0.0011988196060837,-0.0038540980429035,7.032309664774271,0.9903135827392572,3.6413084470175128,1087.3984629403933,1113.7542987238498,1110.5466578332266,1104.4201235136288,168.29084683280308,-383.81524650884234,-760.2134786298086,-347.65888726049167,162.31807433772747
14.3125,2.565261982974537,0.236064263276026,0.5883717192200739,0.0482075487436602,0.0092710849493287,-0.002079417163141,-0.0044316169346144,-0.0114005472667282,0.032352100274805,0.9994003109066224,0.0918691290081781,-0.0149868937463843,9.90589092882352,-0.0011219783070443,-0.0012447888298619,-0.0033754220959808,7.032301640709332,0.990301742794309,3.641325214117352,1088.281467363388,1112.69508926787,1108.594451396376,1103.2571489488755,490.6097245901104,-351.9450731593015,-663.205534407548,-473.0044483235392,162.31814297832128
14.315,2.301275927654409,0.2970565073300516,0.6581056305646119,0.0551261142717747,0.0108268847991713,-0.0008108635061184,-0.0043624010835403,-0.0113798798483304,0.0323801410083201,0.9993999244467436,0.0917947892629707,-0.0093566439021008,9.906369504074352,-0.000984057542077,-0.0012607631481283,-0.0029338236693918,7.032294549428074,0.990288943789618,3.6413399531439135,1089.8515115633431,1111.9945733580537,1107.2306301611895,1102.0551012720116,790.0851542703679,-201.0928878693134,-492.4510369329394,-492.632698599314,162.31824569351022
14.3175,1.8883580264040216,0.341315947208769,0.7186299752489251,0.0607326473499699,0.0118790874851657,0.0007110620810907,-0.004276552554233,-0.0113592782839781,0.0324043848914043,0.999399785921456,0.09132747384513,-0.0032947448347404,9.905919321603088,-0.0008408310119919,-0.0012463948640047,-0.0025375245038764,7.0322898828908365,0.9902770589328534,3.641352180685677,1092.2318931347404,1111.6896248285232,1106.132196211711,1100.7939854558783,1059.9089739739773,-36.66385322425749,-402.70737947960765,-493.59864071108416,162.31839217070632
14.32,1.3672742243371068,0.3734195530476475,0.7626839223929059,0.0649832922027723,0.012587044559053,0.002569317325873,-0.0041724077588707,-0.0113572647085075,0.0324203089939785,0.9993998195436216,0.0908241638272825,0.0031452426343439,9.904674922756968,-0.0006962596772452,-0.0012026543142785,-0.0021915044510023,7.032288039869019,0.9902667367800304,3.6413631646596696,1095.151056433214,1111.8112540919324,1105.2170932637912,1099.5871080684556,1249.0758595003383,158.1864423358498,-334.6823653522944,-456.4776816858283,162.31857203862197
14.3225,0.7416231404384499,0.3942322694357737,0.7761153427060896,0.0678257985241699,0.0132458255336286,0.0048914361641575,-0.0040619983222985,-0.0113749620542451,0.0324286012056524,0.9993999103059986,0.090297773756475,0.0096518950332713,9.90279719261086,-0.0005544639085971,-0.0011316815276702,-0.0018979860767557,7.032288277880348,0.9902580205143178,3.641373772200248,1098.4772724322409,1112.4805570402023,1104.45878438495,1098.5115970474499,1485.7462058592723,408.0599660662573,-315.0782937027505,-439.5539839254292,162.31878850554233
14.325,-0.0900049054908693,0.4064996852925656,0.7491028280243396,0.0693957748165606,0.0142816071614361,0.0078783919226837,-0.0039500230087348,-0.0114051093804928,0.0324302479547503,0.9994000648312442,0.0896100113450616,0.0160708640498175,9.900464708166622,-0.000419480221217,-0.0010366938342579,-0.001656655075463,7.0322899468530125,0.9902512930741252,3.6413819111511514,1102.5797874625116,1113.851553922264,1103.6417017952772,1097.3893381488283,1471.400706117808,574.5685809873532,-295.6730991446413,-387.3523281849279,162.3190857601151
14.3275,-0.8148188024811489,0.4038647373355173,0.6931979088197168,0.0688050255529686,0.0154540115287145,0.0100958530544161,-0.0038340996622592,-0.0114454329558685,0.0324239855825979,0.999400342438476,0.0887358389646829,0.0223942390971224,9.897859053162083,-0.000295062325579,-0.0009217109775067,-0.0014649999726692,7.0322935237649355,0.9902473508303544,3.6413872915353784,1105.834275962831,1115.3533999451395,1102.9804188892265,1096.5748354065247,1215.9787666453356,637.4030424741153,-270.32565694376814,-307.6735149425688,162.3193611472825
14.33,-1.5226098310262872,0.3861412069625513,0.6154388157589287,0.065907015990045,0.0167728533301455,0.0118203938760228,-0.0037214807241885,-0.0114875722836116,0.0324130026334545,0.9994006958735332,0.0875324718765811,0.0284366883089469,9.895161281608916,-0.000184419246714,-0.0007911773541309,-0.0013188145641266,7.032298751205196,0.9902459787793148,3.641391400465952,1108.659681295737,1117.038569134634,1102.2900735105586,1095.8509705741155,1101.870696570123,734.3197145752225,-314.5425423647965,-303.7870874087425,162.31966093418828
14.3325,-2.290661215743562,0.3514841032871505,0.5185988264283994,0.0596580110577086,0.018196809400416,0.0130185475134305,-0.0036235019575405,-0.0115176826320943,0.032402388389783,0.9994010718096364,0.0857541524812936,0.0339470514732089,9.892546150663508,-8.998513870239981e-05,-0.000649657789797,-0.0012125616053364,7.032304395688112,0.9902460083590908,3.6413941783837696,1111.3436294456803,1119.0249985180149,1101.4077061774028,1095.0558999694815,848.2878396483595,688.5675680270938,-329.2242372972791,-281.1933793785117,162.32004378245517
14.335,-2.8229158116767934,0.3192577931866504,0.4495940368420203,0.0524732200435912,0.0190623799893201,0.0131995854995569,-0.0035434163300918,-0.0115294463649348,0.0323908217328653,0.999401572904842,0.0833160223119714,0.0388434534201589,9.890171025946866,-1.330811956273658e-05,-0.0005016072905486,-0.0011396310098844,7.032309603242123,0.990247481504737,3.641395850534866,1112.9011204939795,1120.48140697477,1100.643952324072,1094.4450036772228,474.8197169606268,510.0781184432547,-299.131067840925,-232.32585257734175,162.3203782941747
14.3375,-3.2106268588879256,0.2959820824488183,0.3990633076263254,0.044079084178839,0.0196040899008813,0.0131552995444106,-0.0034715238791743,-0.0115280159438329,0.0323774524298693,0.9994022026076528,0.0803728772454425,0.0433048603448451,9.888169230003511,4.492086987134859e-05,-0.0003511781509685,-0.0010925849217606,7.03231385858512,0.9902508275471829,3.6413967032584473,1113.717728030484,1121.5753891102315,1099.912050838198,1093.8942707065946,196.60185311585607,377.28844598467055,-291.7902074561551,-222.26019878666975,162.32072428474015
14.34,-3.4948985607674805,0.2915382513190488,0.3460154493886575,0.0336843884236664,0.0200621351925584,0.0137399487967565,-0.0034020478574324,-0.0115225063763207,0.0323683619091304,0.9994026799443068,0.0771579404015468,0.0474398126874609,9.88664871922872,8.477734883812232e-05,-0.0002019903189151,-0.0010633732999673,7.032317573929483,0.990254909878496,3.6413964329628943,1113.8841297595586,1122.367849204693,1099.1850012867915,1093.3337026832899,-58.57132921441001,199.40304479756895,-222.83519388644132,-181.93427373595904,162.3211475182528
14.3425,-3.583456644633044,0.3134809553304451,0.2879455156505179,0.0250402368178875,0.0204609862244943,0.0149556185934939,-0.0033430502910351,-0.0115057300303191,0.0323688676534497,0.9994028732041976,0.0735745015297133,0.0511045040475731,9.885698872879695,0.0001070277790962,-5.698327588678552e-05,-0.0010435001069453,7.032320582310121,0.9902586574463766,3.6413946502285026,1113.424871384412,1122.5724043342195,1098.7978748687656,1092.9845993379147,-279.77236469273697,-8.51562190482449,-91.33087202525012,-106.48369685080225,162.32150364808368
14.345,-3.5281283608263228,0.364030949359441,0.1919153807733346,0.016294343804038,0.0210825674757778,0.016635942719048,-0.0032958569168945,-0.0114687860640714,0.0323779308503393,0.9994029039916416,0.0694958656934928,0.0543000249456055,9.885383115016223,0.0001129709652459,8.154031336887053e-05,-0.0010242164749116,7.032322912021984,0.99026219262837,3.6413915166616952,1112.4852679360947,1122.3252710951688,1098.7283469266652,1092.8012841990355,-430.51520077610274,-165.46775895106856,31.918026724822063,-41.284107626742326,162.3218605669318
14.3475,-3.3639675601347014,0.4365605127282978,0.0561363949440521,0.007598357299128,0.0219945749224367,0.0181401823140041,-0.0032548169660702,-0.0114058490224804,0.0323896602604199,0.9994030527975656,0.0648585045516338,0.0571715885598661,9.885735988850323,0.0001042957836135,0.0002118506703246,-0.0009967594462331,7.032324501638313,0.9902664461847936,3.6413869943824992,1111.272295380532,1121.7450655394643,1098.9574650023897,1092.778178799781,-521.6681320658281,-298.64493258643535,162.32564834261711,30.83919001952085,162.3222169489628
14.35,-3.0866623425965,0.5318775678140796,-0.1202461410349237,-0.0004848843227227,0.0232594229735107,0.0189187313422644,-0.0032173100625075,-0.0113203789905021,0.0324057501293424,0.999403253005702,0.0597773537343766,0.0598018312507975,9.886760669319647,8.294453955684046e-05,0.0003327954051475,-0.0009525983346115,7.032324774134333,0.9902710306936258,3.641379493883228,1109.876927275766,1120.832046432237,1099.539975168378,1092.955480149133,-627.4201347304297,-459.1608908960744,324.8421636824734,122.24661137227392,162.32257231171357
14.3525,-2.654839772018189,0.6687569877592358,-0.3497208067344479,-0.0088761423929448,0.0250809715827518,0.0186500841213644,-0.003184767603913,-0.0112202884182217,0.0324297736379091,0.9994033368968926,0.0544489553054082,0.0621930638512778,9.888433411209517,5.096681732702616e-05,0.0004438243246567,-0.0008837962332951,7.032323798190888,0.9902752850813588,3.6413673308863848,1108.1351947068792,1119.4492610849836,1100.5816758208023,1093.3894118566425,-639.144883032841,-541.0757950159286,424.1132188793264,194.03155137094168,162.3229984468698
14.355,-2.239482266598103,0.8001971119465935,-0.5260433383324022,-0.0144804707336992,0.0266919288365725,0.0172963036046572,-0.0031647831810928,-0.0111069457874696,0.0324605016559608,0.9994033734537467,0.0489322017209064,0.0642317228644547,9.890711320537854,1.0338051483175595e-05,0.0005449633692303,-0.0007835822326487,7.032321589165149,0.9902791562964371,3.641351047843,1106.6812028606012,1118.1266674571568,1101.660541262775,1093.925637905988,-580.9641517532574,-549.0363974660978,456.61063659526906,250.772650044796,162.3233549268832
14.3575,-1.797531296443575,0.9478253994733205,-0.651491787922087,-0.0185319845834295,0.0282654443973505,0.0148161629573826,-0.0031637271144314,-0.0109824299173529,0.0324910995958696,0.99940360910778,0.0432961680732923,0.0658273611079678,9.89353305207011,-3.725118237789343e-05,0.0006367256316089,-0.00064701996766,7.032318815830863,0.990283132204378,3.6413324692690487,1105.2303739481135,1116.7040790976537,1102.864729003778,1094.6432751068662,-643.9911172822038,-630.7550649527348,542.2827104667417,360.273844738166,162.32371591060397
14.36,-1.2619933851183924,1.1347435299053712,-0.7169090898260443,-0.022006113191079,0.0303866713454428,0.0110898994004838,-0.0031849021941958,-0.0108398786072631,0.0325165573132777,0.9994042661525188,0.0374306699344097,0.0669515754140997,9.896827035565575,-9.051439505418124e-05,0.0007200583629342,-0.0004715464255921,7.03231537667295,0.9902875186680306,3.641312545200756,1103.461247274191,1114.9728921323936,1104.3719548151082,1095.7270071296787,-657.1039734886535,-623.4595193641716,555.7457953261332,435.0579483587583,162.3241591541968
14.3625,-0.8196913628805005,1.2834207908324295,-0.6991432534642233,-0.0241902773560191,0.032730287889076,0.0082160493971053,-0.0032232579347142,-0.0106874790031848,0.0325331563495326,0.9994053929346838,0.0315244740217636,0.0677255015151377,9.900506522397366,-0.0001486761136202,0.0007963609719355,-0.0002573279784809,7.0323119097136155,0.9902932821744538,3.64129217105172,1101.9448540806695,1113.5867815008323,1105.6434579804093,1096.8185648486603,-613.7901334894145,-521.4141462093816,506.01210165197057,470.329237476307,162.3245408085369
14.365,-0.3822973099010782,1.3963263775603807,-0.6269076098732616,-0.0259349956423034,0.036079039525481,0.0064066794249231,-0.0032716454435791,-0.0105410010223979,0.0325380120584465,0.9994069382580576,0.0259144080302229,0.0682994340073322,9.904477813731443,-0.0002114436512903,0.0008676163285905,-7.43607430483219e-06,7.032309592526349,0.9903009639543812,3.6412739159396783,1100.3922966067435,1112.3658214013465,1106.9020153233685,1098.0786533170603,-680.3612250914274,-471.81968450281886,541.0175524223345,575.0519794494501,162.3249398081497
14.3675,0.135691550928583,1.453731502197182,-0.5158647559286231,-0.02731011036766,0.0412326916579032,0.0053501596630026,-0.0033234987588845,-0.0104060314714112,0.0325352055882283,0.9994086543689262,0.0207327593304673,0.068808898034793,9.908651386355208,-0.0002788534315577,0.0009365947543333,0.0002722272816613,7.032308334640009,0.9903092319437836,3.64126088104188,1098.5430479552133,1111.2276830783187,1108.3485457425204,1099.693824745907,-661.744707678132,-343.06616492298514,507.33274133905326,587.1395040724102,162.32544384196143
14.37,0.5520840831398983,1.417022781396531,-0.42938646344507,-0.0274814853797558,0.0458858921196749,0.0050227721202113,-0.0033770163976099,-0.0102941502074024,0.0325291765673764,0.9994102122415852,0.0162248588017793,0.0692815735539635,9.912939022327341,-0.0003510799067894,0.0010069716479373,0.0005734323971404,7.0323078116979305,0.9903158819592957,3.64125665590242,1097.0835730683523,1110.6504905767313,1109.438679030064,1101.014350837423,-544.4873534307648,-132.5901918374959,391.19489549387504,488.11489793262456,162.32588857891116
14.3725,0.9260499737295854,1.2870980935179368,-0.3696610117695477,-0.0263119944657967,0.0500960891423716,0.0049329105294597,-0.0034367784643389,-0.0102142799996401,0.0325200681961177,0.9994114565826152,0.0125768341237564,0.0696106867276778,9.917259310688909,-0.0004282607127492,0.0010831911334562,0.0008865968362227,7.032307574229463,0.990319968984108,3.6412632983634623,1095.820611188059,1110.5647321191311,1110.30452021999,1102.1343992355703,-453.1574736347912,60.05816442053687,291.5506899633453,386.08586265253,162.32636323327563
14.375,1.2347446835046867,1.0898172722337363,-0.3370086565148997,-0.0240376980358966,0.0536179356816863,0.004730703391967,-0.003498527891129,-0.0101661369030266,0.0325060387144636,0.9994124423874908,0.0097955703967403,0.0698603913841941,9.921540878413742,-0.0005103981700039,0.0011701476820282,0.0012021143857427,7.032307455722325,0.990321917696746,3.6412805677707354,1094.8177857001788,1110.950781398834,1110.8964324798803,1102.9447801506851,-314.51421088951867,278.77191306721306,151.36997567777428,217.0600868774704,162.32686579488032
14.3775,1.4212875853413596,0.8358476319313479,-0.3316290015930285,-0.0207232962552521,0.055955907776368,0.004153096855824,-0.0035525155183686,-0.0101392413423899,0.0324895162066803,0.9994132201406416,0.0076867987397573,0.0702002578638017,9.92572174779842,-0.0005972976943049,0.0012728169794517,0.0015118425079195,7.032308009407156,0.9903221446222356,3.6413059613493406,1094.2480401336115,1111.958591684467,1111.0613700983788,1103.2196996699577,-124.5636946364162,592.683236789797,-44.15290811024753,-35.023499089214944,162.32740564376553
14.38,1.446734571184999,0.5034513080649556,-0.3419520719310118,-0.0158496608065445,0.0571843716456395,0.003182461761031,-0.0036034491869453,-0.0101173587520184,0.0324789089958968,0.9994136553545822,0.0059299985092515,0.0705079600121871,9.929745421666324,-0.0006884896347558,0.0013958358398425,0.0018104259183222,7.032308275461868,0.9903194699015893,3.641334706943157,1094.1949672269964,1113.9141975827831,1110.6756679393293,1102.7696626552392,96.9123599550888,838.4857885360415,-245.08534268498613,-307.39005397617547,162.32810111921395
14.3825,1.265839124032279,0.227346994400868,-0.3522767563893646,-0.011256438001604,0.0573896974771444,0.0021273789360623,-0.003659271355641,-0.0100890582466761,0.03247860514746,0.9994136954941412,0.0042945384797005,0.0705883907735137,9.933554808304008,-0.0007831846720572,0.0015430728667295,0.0020960211212984,7.032307468447021,0.9903134231251012,3.6413611149581255,1094.7326019333873,1116.1510206271475,1109.8359433849537,1101.6827494000763,334.9274973975964,1008.4828156593364,-442.4976378382297,-579.8418043666305,162.32872360768215
14.385,0.8473531708890581,-0.0301621476597616,-0.3517928358588486,-0.0068645823375907,0.0571489592215981,0.000920679436469,-0.0037240369079539,-0.010049270959847,0.0324899530896114,0.9994133505949082,0.0026753563370174,0.0703168069236271,9.937088621147987,-0.0008803386896765,0.0017171395572057,0.002370268660357,7.032305352932095,0.9903044896517988,3.641382032451283,1095.8696047139842,1118.956611661079,1108.4631797501384,1099.8704536334067,614.8840222075654,1340.4650259070145,-715.602115433946,-937.0910313584216,162.32939435377597
14.3875,0.0718716910381296,-0.3093778520509576,-0.3304771387492527,-0.003329352507771,0.0560344631511283,-0.0005645690807371,-0.0037938369685202,-0.0099991156104356,0.0325088048673509,0.9994127887913342,0.0010921923544247,0.0697238923191836,9.940278312211092,-0.0009788192377255,0.0019189041293312,0.0026376294208181,7.032302546133461,0.9902938556140584,3.641397354937701,1097.8070220444256,1122.853345756684,1106.2579328077832,1096.9972942432837,772.7615099907935,1490.4009029652511,-886.6381482806424,-1133.7074090207855,162.3302591667073
14.39,-0.7752468225620557,-0.5180443907951239,-0.2949997980564414,-0.0026719835897907,0.0545388363238363,-0.0018151545967485,-0.0038611952148378,-0.0099448601752112,0.0325292071821591,0.999412205146737,-0.0003334436899142,0.0689126095562024,9.943045702414487,-0.001077536570031,0.0021470960935704,0.0029044848051216,7.032299739084275,0.9902834347747131,3.6414090630735414,1099.7334122639388,1126.4086161759064,1104.0299890087347,1094.2019165883019,781.8062801484493,1443.4163675465384,-947.6336252111715,-1144.6331269272837,162.33103267310852
14.3925,-1.7724162423333985,-0.7115518594618939,-0.2483850080378644,-0.0049332704773757,0.0529872620724231,-0.0029924014351507,-0.003927943685548,-0.0098811942818681,0.032546009268381,0.9994118512137178,-0.0017187724081924,0.0678166278121861,9.945306329162502,-0.0011755781017183,0.0023980701979766,0.0031783469940873,7.032296940424164,0.9902755635149368,3.6414187267915312,1101.716053445167,1130.0704275944152,1101.5197646817285,1091.2741286086484,817.4421140287712,1574.3744091581852,-1134.3592831229655,-1246.822337342221,162.3318643340898
14.395,-3.0513316532580106,-0.9436651746296744,-0.1988855150385934,-0.0115489336627142,0.0511669976122615,-0.0039421854512956,-0.0039930919452102,-0.009806154104268,0.0325538121414136,0.9994119816713152,-0.0031152445095747,0.0664354493129258,9.946964290613069,-0.0012721062359445,0.0026659968094874,0.0034672614929279,7.032294350970738,0.990272621953624,3.641425454422941,1103.8206228340819,1134.2804882216958,1098.3581925931207,1087.967804901592,682.08234999541,1464.6580501702813,-1155.1400281053716,-1129.684182731449,162.3329332322438
14.3975,-4.111693079431595,-1.146960222066863,-0.1827601308037888,-0.0205312683219392,0.0494358507022862,-0.0040011294371,-0.004057985724381,-0.0097203045733751,0.0325536513861479,0.9994125941302938,-0.0045274460804783,0.0647345791970549,9.947913282448383,-0.0013662433948031,0.0029433174242567,0.003779302409667,7.032291516695755,0.990275361403982,3.641428149949728,1105.1264651951446,1137.3937178452677,1095.7440645412007,1085.6257076949903,393.9806336546392,1110.5161263347863,-1005.0986453837388,-806.9310628145661,162.33388562566185
14.4,-5.0814604062180475,-1.3623911671026356,-0.215112981882139,-0.0327444616975904,0.047020382319503,-0.0032759924777842,-0.0041242325319936,-0.0096093911630601,0.0325484845981579,0.9994136768647832,-0.0062566368824769,0.0627006511843954,9.94804439042156,-0.0014571560506199,0.00322144347577,0.0041218676671755,7.032287657369395,0.9902833017971095,3.641426339840285,1105.7905260023551,1139.8330688533706,1093.3326993662015,1083.9331495875183,149.34682819178548,835.5581352033212,-903.8596996733284,-549.0763821759357,162.33490484815533
14.4025,-5.923123869254102,-1.580884980475059,-0.2950003978994024,-0.0471382306058739,0.0437476740358244,-0.0024262774094307,-0.0041906576176351,-0.0094640757310521,0.0325364853694327,0.999415337644431,-0.0085061609172127,0.0603909870473217,9.947243718234718,-0.0015439900297994,0.0034915014990793,0.0045009524116238,7.032282630787598,0.9902964602218272,3.6414207110168064,1105.8731993361034,1141.5715085212835,1091.2247660428347,1082.8803257841112,-98.8515614873295,512.9703262780475,-738.8140983126714,-258.06153787016734,162.33598130627124
14.405,-6.565394301870758,-1.788621047758046,-0.4212503775448477,-0.0632788294173958,0.0394455006896387,-0.0021958622709489,-0.0042513637003849,-0.0092879581284986,0.032513216677948,0.999417685552402,-0.0112198993245104,0.0579664214977381,9.945395317168403,-0.0016258582653452,0.0037450920042883,0.0049204143955124,7.032276646210259,0.9903150165129924,3.6414129308826744,1105.2962681949186,1142.3979204847612,1089.6386288746376,1082.6428418981675,-375.4076737843529,164.65230719497566,-541.1685622463729,78.20618758677169,162.33712847017563
14.4075,-7.07225096926326,-2.007992307559427,-0.5880068504687097,-0.0836289621689344,0.0335557452870322,-0.0032653113891435,-0.0042994293293071,-0.0091003001348755,0.0324780193375147,0.999420572694318,-0.0140298784916605,0.0556136633119653,9.942386921426438,-0.0017017907928351,0.003975019949784,0.0053814074451198,7.032270251460488,0.990338315541239,3.6414034963770687,1103.9961609671811,1142.3947700572585,1088.5189232316027,1083.271356722045,-546.9969223731547,-141.14511191381175,-259.14614845510795,368.3678700873593,162.33858831637227
14.41,-7.263439074014418,-2.1577368879222223,-0.7018397052242709,-0.1011227474448587,0.0283476093524761,-0.0054668467128817,-0.0043436689339056,-0.0089180336394625,0.032437501161277,0.999423571683588,-0.0166246046544301,0.0532208624442996,9.938121804947778,-0.0017708603739761,0.0041758005293558,0.0058819806360108,7.0322633505733245,0.9903640902832936,3.6413917043925785,1102.5612835830534,1141.6921949251923,1088.3428981323623,1084.484681248604,-608.6190724182717,-384.6883446223584,100.12098905255873,601.2333299006345,162.33987484110799
14.4125,-7.210351661989501,-2.268954933480196,-0.7476682127604544,-0.1191116899039026,0.0229218943928917,-0.0088003702271635,-0.0044079915638274,-0.0087485080259399,0.0323963684378943,0.9994263345030252,-0.0188926195754541,0.0503933116108971,9.93252787737108,-0.0018323565564041,0.0043440224609924,0.0064166034603397,7.032255818009688,0.9903900389598068,3.641379488280746,1100.9530656050906,1140.471328334147,1089.0195281768652,1086.2775233715477,-709.5331668200088,-608.1466556325227,489.48383858020486,879.3797863376302,162.34123415605399
14.415,-6.871578249811411,-2.357312414351453,-0.6993773939726174,-0.1404972132255272,0.0162698588962419,-0.0130113424891732,-0.0045121407586537,-0.008607614228537,0.0323571495986471,0.9994285223469864,-0.0205494743945584,0.0468211210440936,9.925560447019402,-0.0018856257666543,0.0044786596464452,0.0069757377531385,7.032247620868024,0.9904144817997478,3.641371565100167,1099.0136177489528,1138.6514616470292,1090.7903173252637,1088.8815801802928,-691.6619052244015,-697.4604040787927,789.0466001445152,991.8281333296632,162.34294891219145
14.4175,-6.377680929545387,-2.3941706077278924,-0.5788791258474947,-0.1573478451803325,0.0108522708663751,-0.01571204242416,-0.0046666342253598,-0.0085044028584147,0.0323229152657058,0.9994298795294232,-0.0214395440344361,0.0423850450425163,9.917213534444622,-0.0019303091800475,0.0045810286824158,0.0075458317001489,7.0322381867287005,0.990436113484907,3.6413717749118266,1097.494756078968,1136.9840263137523,1092.9647611775883,1091.2366640381967,-571.2774048543224,-675.8473941114952,973.7768265527512,930.3960477872384,162.34444660778254
14.42,-5.7018689423713775,-2.392093558852855,-0.4065805241444777,-0.1722812964690172,0.0056392674909599,-0.0170332745394034,-0.0048695993166983,-0.0084488866010204,0.0322955562576394,0.9994302365117008,-0.0213785708769999,0.037209569925325,9.907523345281128,-0.0019663972497073,0.0046545205279174,0.008110014137397,7.032227904754893,0.9904545895115932,3.6413816823753575,1096.1572307246815,1135.2722246764724,1095.6592014580265,1093.533560419228,-539.5056830636513,-752.1042084827191,1245.0018290589671,942.0825195771667,162.34601397791187
14.4225,-4.74093926883039,-2.336154674413905,-0.1903522097530974,-0.1870640476005286,-0.0009437012676842,-0.0171610745278412,-0.005118052131521,-0.0084519744952322,0.0322795072828317,0.9994293430353108,-0.0201617961391812,0.0314341649063968,9.896571152287214,-0.001994333697891,0.0047040153897436,0.0086493111252191,7.032218131238534,0.9904698621403428,3.641401291212868,1094.7972276636503,1133.2235052713395,1099.189770322882,1095.9470766360816,-459.92306810428175,-749.7253392106096,1298.174808666251,795.995081512695,162.34797291222995
14.425,-3.862404850749479,-2.2343544155085104,-0.0358827493307656,-0.1967794545397767,-0.0068578192942637,-0.0163776965511218,-0.0054054271254521,-0.0085167031179135,0.0322774847267086,0.999427092877532,-0.0177353305251177,0.0252643164314297,9.884487269630569,-0.0020152443072264,0.0047354092438769,0.0091438588080379,7.032209769334876,0.9904821496025132,3.641430211501117,1093.85761538416,1131.5235979804188,1102.1500755013587,1097.513535826792,-345.2958290126759,-685.0719469556518,1137.838336530562,512.5654661502375,162.34966844682333
14.4275,-2.95285971236262,-2.06512620671111,0.0660632326392829,-0.2042493794806236,-0.0128426396888753,-0.0149010013011052,-0.0057166853883012,-0.0086419169849099,0.032289910084144,0.9994235388668776,-0.0141189100041961,0.0190622200648558,9.871449620545306,-0.0020307972301139,0.0047552189524729,0.0095741410386683,7.032202935341605,0.9904923393719288,3.641467803898456,1093.0707485185867,1129.7981455365607,1104.8789620055359,1098.5099039668332,-326.52980398545094,-779.2949554526062,1099.0642397537072,306.15613651572585,162.35142690358268
14.43,-1.87081382298596,-1.7862713093928213,0.1241733978924654,-0.2106831552450578,-0.0193059405002105,-0.0128626877165165,-0.0060361933185376,-0.0088190067819041,0.0323167023763695,0.999418826645562,-0.0094741457841017,0.0131898513073326,9.857680457926387,-0.0020430773752811,0.004770034875211,0.0099222642607445,7.032197058537009,0.9905010204239282,3.6415138093292474,1092.224966364233,1127.6271232031563,1107.645396700126,1099.0443165093704,-303.3279581937203,-823.4038279039928,901.9323349685646,101.45325467745585,162.35360656873524
14.4325,-1.003486863634834,-1.5040392006217536,0.136995215344196,-0.2137640085587551,-0.023775889152133,-0.0117409218048959,-0.0063523773968401,-0.0090355896295544,0.0323514699725764,0.999413332226004,-0.0040335556339278,0.0079141195165327,9.843438526857025,-0.0020544063557441,0.0047860547395286,0.0101731807486796,7.032191790381929,0.990508682019028,3.641567166168549,1091.5541087276179,1125.6811263970403,1109.3886236803792,1099.0171702402204,-265.41075172481607,-812.3117846124936,556.1143213408326,-75.71475150956483,162.35547835834606
14.435,-0.1967956442942109,-1.1968270019425056,0.1532729456840938,-0.2146664668691874,-0.0271204326223917,-0.0118249525966291,-0.0066564307587571,-0.0092777505132657,0.0323865455692298,0.9994074914599084,0.0019448413542462,0.0034302227648737,9.829009878563106,-0.0020671001726802,0.0048088563822466,0.0103157612719571,7.032187312941609,0.9905158664453696,3.6416260907401634,1090.8979126056088,1123.5655642800934,1110.4259683068308,1098.6657427518223,-255.79705611090137,-868.3743916381353,285.8447473383535,-164.1217631692015,162.3574044216442
14.4375,0.5463818157410542,-0.8934484663920959,0.2058726376579798,-0.2141957025788519,-0.0294830340025651,-0.0127469725263884,-0.0069476455239386,-0.0095372520432159,0.0324188639745536,0.999401513328989,0.0083151754953657,-0.0002478703148778,9.81469400924868,-0.0020831120722701,0.0048431155031553,0.0103437616915878,7.032183612293537,0.9905225757643412,3.641687707118415,1090.2751234470636,1121.3392544388505,1110.8178474170709,1098.1965614243747,-228.1603231182088,-895.611686369826,-4.782985936118208,-181.60226054182175,162.3593729120516
14.44,1.2009540810858836,-0.6244241249104174,0.3293155815925817,-0.2124099408914161,-0.0308486872802778,-0.0140539238634657,-0.007221778870337,-0.0098062559284289,0.0324452915418587,0.9993956642976932,0.0149460983646332,-0.0030535722898283,9.800795267608912,-0.0021040125609738,0.0048927027354485,0.0102562444671029,7.032180629545988,0.9905299611939052,3.6417479375175006,1089.757110990018,1119.0875058482452,1110.40205337715,1097.7577314491136,-183.6620887324611,-956.0626392341288,-362.51174055636307,-153.8054405861872,162.3613892332596
14.4425,1.865307214348645,-0.3738835993041084,0.5614494033228092,-0.2086096419220867,-0.0316634604072339,-0.0148492418417163,-0.0074754238969416,-0.0100829056162631,0.0324647547755828,0.9993900700916416,0.0218258677639925,-0.0049563172706596,9.787607754799692,-0.0021306970475944,0.0049605813649428,0.0100577397168994,7.032178596565563,0.9905392092825738,3.6418046469218384,1089.3568130034012,1116.558941242679,1109.0052887142888,1097.4275342214437,-99.09193381452766,-867.5315004312333,-643.2354739439593,-77.02672328649602,162.36385953472762
14.445,2.297980196400789,-0.242787116217598,0.8005451447061235,-0.2037308144863909,-0.0318036744165647,-0.0139213788813655,-0.007708912191108,-0.0103525827247759,0.0324802658568196,0.999384673103199,0.028691926237714,-0.0060051035660565,9.775409323436207,-0.0021635773948567,0.0050489053399682,0.0097578665947019,7.032177029553081,0.9905498975552633,3.641856217686516,1089.2616513209452,1114.7498483460884,1107.18587600743,1097.372597832681,12.82582710469142,-635.0682054322887,-824.8598528894767,22.67664697456436,162.36595683378786
14.4475,2.5765720107665495,-0.2039410592712351,1.0381670771621918,-0.1968694032008478,-0.0314589788979013,-0.0109556889404428,-0.0079322406497217,-0.0105942426994308,0.0324969403992141,0.9993793471999792,0.0351507211030606,-0.0064457282612541,9.764447485024775,-0.0022023111501681,0.0051590955768283,0.0093708132937558,7.0321746381518615,0.9905607711838732,3.6419000282855953,1089.4209421389246,1113.3836002155183,1104.8809894498422,1097.5409174563165,113.25604927144973,-490.2538946079092,-1063.5553738556312,109.96565977014242,162.36808982954503
14.45,2.709922083002492,-0.2620012595581234,1.2658856541968184,-0.1871045811577948,-0.0309290065363832,-0.0059067753785657,-0.0081510482467441,-0.0107931268917837,0.0325149004989312,0.9993741579610604,0.0409333551020318,-0.0064511587079509,9.754927084652627,-0.0022456039281665,0.0052921993279233,0.0089143802355647,7.032170752079865,0.9905716636179072,3.6419352701895127,1089.8279315673024,1112.2985788730484,1101.868099138151,1097.922426131532,165.18025952243227,-316.751333862108,-1093.8874529252753,152.61691502971533,162.37068515416456
14.4525,2.6568082912768936,-0.3832264651691701,1.382777829222677,-0.1789130135533913,-0.0308494610378547,-0.0013843267979375,-0.008366057103671,-0.0109466940783317,0.0325300702839232,0.9993692751252882,0.0460087288374284,-0.0061129694861546,9.746999532354632,-0.002291276539567,0.0054489249912552,0.008408915968557,7.0321657712725525,0.9905841752647317,3.641962039476104,1090.246843436537,1111.7998435462075,1099.4115521852148,1098.3040020314652,158.06539189692063,-147.5433611952051,-911.4736724177869,143.60577085865899,162.3728734301758
14.455,2.467098093673973,-0.547881063018518,1.418079647152401,-0.1719459365429846,-0.0315771535754541,0.0028414718161294,-0.0085918304151785,-0.011056423567453,0.032548492969467,0.9993644506329464,0.0504091795775752,-0.0058028393239961,9.740756878576713,-0.0023365086403128,0.0056294996041632,0.0078763433549739,7.032159374629899,0.9905975265183706,3.64198010630686,1090.618258526787,1111.5608620670723,1097.3107307760629,1098.640454985825,131.26372940599023,-96.99346831959811,-787.7475790934772,114.9878558918546,162.37508280656155
14.4575,2.14848018712253,-0.7456927978188562,1.3829758092567777,-0.1655335450527074,-0.0337080721899292,0.0071156232754087,-0.0088475223622601,-0.0111310570329846,0.0325779725145387,0.9993593548580672,0.0542984330896272,-0.0059904843823571,9.736228982743953,-0.0023781110724861,0.0058339671654439,0.0073389619531757,7.0321510907448355,0.990610285761092,3.641989329940349,1090.9031620835667,1111.3148762046096,1095.4728142897484,1098.8789413109243,74.09420359925868,-121.27964404474292,-536.7766343749806,47.71809098382782,162.37775185247472
14.46,1.860931740616536,-0.8731921028672088,1.3092347602285852,-0.161788207543473,-0.0365624399725257,0.0097821124038237,-0.0091446453420438,-0.011190827719467,0.0326212268206905,0.999353873678007,0.0580608854029089,-0.0070051815920875,9.733383248270787,-0.0024128558708619,0.006062339999963,0.0068182068081334,7.0321413062385485,0.9906225225249164,3.6419907289053457,1090.9887295447832,1110.9544638468487,1094.6268476041876,1098.8790454407442,13.9978615090491,-208.28767685726612,-191.23214906714304,-49.611037873084086,162.37998582065575
14.4625,1.604185960720101,-0.9270927856950568,1.210409478796976,-0.1592334371678852,-0.0401030293080626,0.0118955004384777,-0.0094853087817999,-0.0112535481768758,0.0326724188850644,0.9993482979083324,0.0620318652505291,-0.008990519551423,9.732133202380755,-0.0024380289537734,0.0063144597132437,0.0063334983925353,7.032131396008587,0.990635266536665,3.6419870642311065,1090.973151391112,1110.2734378203231,1094.5166535444123,1098.630886121559,-6.0717910706456015,-331.99254641192294,64.7066039403982,-142.2689487661329,162.3822235727802
14.465,1.397073947333146,-0.9081996714726293,1.0977876584596127,-0.1571135494821153,-0.0435493814917628,0.0138931656527732,-0.0098699725137419,-0.011320777193799,0.0327258029822104,0.9993427736592938,0.0662243855028813,-0.0120466543991989,9.732348522335624,-0.0024516171009085,0.0065898342776881,0.0059014427865999,7.032121954233476,0.990648847185516,3.6419791926568226,1090.95837058943,1109.2945011147895,1094.9503806238895,1098.1677006969137,17.11518355709546,-446.37177253336927,271.3433281300271,-234.90343940985403,162.3844594843033
14.4675,1.256222983424826,-0.8070745251959157,0.9646110890814809,-0.1549370280144717,-0.0461715730904519,0.0160007997952843,-0.0102964355278606,-0.0113810796597201,0.0327814193547738,0.9993371391942172,0.0703940179393535,-0.016211979241922,9.733861465008868,-0.0024521193490174,0.0068876603961141,0.0055352385376771,7.0321123545456965,0.9906625692283944,3.6419657995626022,1091.0587273088975,1108.041578957656,1095.8733701850629,1097.4563689245094,92.19246219534777,-565.9800948659292,461.02950700971695,-363.4426223448259,162.3866868581308
14.47,1.1490499317691427,-0.6148115996487414,0.7658011885827625,-0.15198638900584,-0.0481218135835587,0.0188348814627966,-0.0107502654777019,-0.0114270726966365,0.0328347732433537,0.9993315102412054,0.0743771355318184,-0.0212829613536473,9.736470209630525,-0.0024384569183548,0.0072068419981542,0.005244032967044,7.032102377502707,0.9906769272450572,3.6419476910079074,1091.4193329004067,1106.4646006404591,1097.2555281589384,1096.3504875851893,176.73683405804573,-544.0473437519076,505.5605625519189,-440.18437387307694,162.38934128628347
14.4725,1.0910435312430768,-0.4165997391253695,0.5562112503101837,-0.1494696779901262,-0.0489963676715508,0.0212980165874152,-0.0112027207688838,-0.0114624474282988,0.0328809031560345,0.9993261466448928,0.0782298792810729,-0.0267765308196204,9.739946563102015,-0.0024099332182925,0.0075459929672519,0.0050322903342318,7.032091901813445,0.9906923122690248,3.6419279123695985,1091.9424114791875,1105.3213422388967,1098.401172997822,1095.2554470551445,245.33433981733077,-366.9899051816449,405.3330261134203,-462.0604228291096,162.39153143481312
14.475,1.0369741837036652,-0.2001946685324431,0.2971792070148875,-0.1470785348083946,-0.0495533985360269,0.0234333808067374,-0.0116208012059906,-0.0114982297811851,0.0329166169329194,0.9993212875274674,0.0821503711874707,-0.0321214243647657,9.744046958361618,-0.002366329036002,0.0079033873120136,0.0048995452803605,7.032081876257872,0.9907088184404804,3.6419115319279793,1092.6460045994932,1104.6296511145515,1099.2821932895051,1094.040185471044,324.6912185720195,-153.2698349623603,283.7104398180156,-543.1550934495195,162.39369074346263
