t,ang_acc_x,ang_acc_y,ang_acc_z,a_vel_x,a_vel_y,a_vel_z,quat_x,quat_y,quat_z,quat_w,acc_x,acc_y,acc_z,l_vel_x,l_vel_y,l_vel_z,pos_x,pos_y,pos_z,mot_1,mot_2,mot_3,mot_4,dmot_1,dmot_2,dmot_3,dmot_4,vbat
20.625,0.0693731343214741,-0.0183311837009161,0.9709037550663752,-0.0019780906417122,-0.0843644861710304,-0.1598665311499298,-0.0224991573158892,0.0112757344296536,0.9916634968719684,0.1263724905708941,-0.0985534447397417,-0.0714622924631305,9.803311824952303,0.0203095232506102,-0.0008012235585739,0.0067153703723009,3.5668796797193028,4.940077595551657,2.0913375807892303,1140.0829396175995,1138.8787448476767,1149.6407651807117,1139.1037992651607,503.5065664288293,-221.72588566461425,-131.70222320852727,-144.27320037618196,157.44774999761594
20.6275,-0.095036848609229,0.0934065601629933,1.1856228603434045,-0.0007659764220096,-0.0849117105373063,-0.1548807061413474,-0.022415291142467,0.0112653636699804,0.9916437201751872,0.1265433136750273,-0.0983679441190217,-0.0697006878193192,9.80281947675817,0.0211426270984917,-0.001226543095608,0.0067421909133796,3.5668310311135087,4.940093712073863,2.0913506100360086,1141.5551647829716,1138.3724263003503,1149.1613646363617,1138.8469267031069,571.7144917092584,-137.70398581448728,-203.73472913210625,-33.76706477388996,157.446971040996
20.63,-0.2611737813766669,0.1857589254363511,1.2189599128710207,-0.0002277812699718,-0.0853734325287,-0.1503831584330002,-0.0223260954129327,0.0112530378974171,0.991623314372146,0.1267198620552093,-0.0981069731340948,-0.0679788480154935,9.80210845370259,0.02197305707466,-0.0016481385034979,0.0067722514932372,3.566779929439018,4.940111716917468,2.091363794691242,1142.9415120761455,1138.1902249186044,1148.6220915350511,1138.9349639412912,575.7974075290131,-28.827885304832584,-228.8680627353188,105.48293288731936,157.44623613898108
20.6325,-0.4396797733156743,0.275764105318696,1.1014017076645155,-0.0004662228383446,-0.0855275668657911,-0.1461980515381783,-0.02223222884711,0.0112380185112341,0.9916025415073512,0.1269000292803307,-0.0977893705832092,-0.0663126115551494,9.801154113884298,0.022799952824079,-0.002066460009149,0.0068049237750057,3.5667260698997127,4.940131425826488,2.091376684942828,1144.434151820616,1138.228286873826,1148.0170243226853,1139.3743413675431,661.1898278993777,39.05594379073412,-267.42876931430106,268.2936089073783,157.44541402704945
20.635,-0.6304528363662345,0.3629680398945404,0.8184936373438906,-0.0019112304242459,-0.0847731344553683,-0.1423959131752658,-0.0221352412529967,0.0112206529299848,0.9915817297974682,0.1270809392586504,-0.0974544119166471,-0.0646976532221379,9.799935415399652,0.0236224194961482,-0.0024820968170956,0.0068394408528374,3.5666694441553366,4.940152360815033,2.0913893686640415,1146.247461215644,1138.385504637558,1147.2849476884792,1140.2764319858288,652.8256108799658,47.069591996624055,-261.19589931541407,376.736831550927,157.44432962141548
20.6375,-0.7371819083892164,0.398864783983651,0.5044146406022987,-0.0041928476474266,-0.0833629069735061,-0.1405684956751661,-0.0220389325469402,0.0111971716923273,0.991560760940714,0.1272631665675271,-0.0971745293866947,-0.0632135005516832,9.798435474526467,0.0244396886291408,-0.0028955893531694,0.0068748879087269,3.566610228357583,4.940174359083144,2.0914018854129544,1147.6982798750153,1138.4636348338092,1146.7110448261085,1141.2580255252976,551.787065711979,-12.91370552508199,-214.35200278251327,410.60282050401827,157.4433471043461
20.64,-0.7555531322360267,0.3765056613807265,0.165297794287032,-0.0074524299199177,-0.0814291022543374,-0.1401590811182419,-0.0219463960860061,0.0111667110090764,0.9915394838620872,0.1274474086619228,-0.097016098083252,-0.0618806709434783,9.796642993384014,0.0252512624725205,-0.0033073893896338,0.0069101265598751,3.5665488890587844,4.940197433873729,2.0914146750624174,1149.0063965442034,1138.3209361099327,1146.2131876745668,1142.3294460883485,491.7052834757428,-108.95799379053524,-183.2724752503026,418.7434625647388,157.4422866528782
20.6425,-0.6880915990582817,0.3000337033500308,-0.1532586589994986,-0.0110998434100206,-0.0793246249306843,-0.1408469937427842,-0.0218557386018604,0.0111304349983803,0.991517843115005,0.1276343053064443,-0.0969543655070284,-0.0606675427654905,9.79455403108088,0.0260570544856115,-0.0037177819273799,0.0069435858574449,3.5664855109962894,4.940221779236077,2.09142769136752,1150.1568062923952,1137.9188448648563,1145.7946824498565,1143.3517428381224,418.7292775256916,-223.2964359412552,-148.9867663944393,369.6246065706699,157.44116496673152
20.645,-0.5280359718147171,0.168953861136202,-0.4057509357191133,-0.0143945057264436,-0.0777005017305999,-0.1427195512958501,-0.0217623454005755,0.0110910765608429,0.991495599937038,0.1278262602437396,-0.0969163854014637,-0.0595050635796823,9.792171992880656,0.0268574169841733,-0.0041267208322201,0.0069733786902462,3.566420574894899,4.940247161626523,2.091440685246963,1151.1000429318315,1137.2044539302267,1145.4682538425948,1144.1775691212015,368.94957954016786,-362.90661705054794,-129.1540480955775,289.19276588295656,157.43997394631094
20.6475,-0.2801599097738236,-0.0146134035591056,-0.5988485369423732,-0.0164392759904469,-0.0772760338807104,-0.1459651016156487,-0.0216622005070233,0.011049996568895,0.9914731498068192,0.1280207693296649,-0.0968395587246173,-0.0583540159739576,9.789507293325126,0.0276530452027046,-0.0045341729489804,0.0069974384654634,3.5663545504936347,4.940274083938393,2.0914535221417307,1152.0015541900957,1136.104311779604,1145.1489122093788,1144.7977066675369,295.02062261138605,-414.7580136365984,-111.3514395169544,151.2796226249201,157.43847069638508
20.65,-0.0831177757508515,-0.1537243243709475,-0.6629561000508746,-0.0156890728782982,-0.0782109702476405,-0.1488823431436615,-0.0215549446337701,0.0110099235384373,0.9914509165676838,0.1282143728828912,-0.0967372618031886,-0.0571592285743786,9.78657681320448,0.028444890849404,-0.0049398826367552,0.0070137225480216,3.5662878142863206,4.940302872357971,2.091466342912902,1152.5751460448892,1135.1306638620426,1144.9114966450095,1144.9339672343265,193.25776330874055,-362.40939213555913,-91.17048481545673,-30.698881312088556,157.437160980265
20.6525,0.0414998686946335,-0.2409039507188232,-0.6449996159235684,-0.0128098196407566,-0.0798754747985582,-0.1509467972150549,-0.021444136078838,0.0109741253465703,0.9914290372985908,0.128405130483633,-0.0967012621190165,-0.055866440446084,9.78340396736024,0.0292340672365948,-0.0053432989996894,0.0070202421441061,3.5662214019300382,4.940333703020774,2.0914797658497006,1152.9678430066392,1134.2922648189265,1144.6930597853016,1144.6442122609765,123.29357567521308,-288.0552743572598,-77.00323481450764,-181.4311197106596,157.43579792527203
20.655,0.08464526675099,-0.269007208012492,-0.585535673425355,-0.0096988410339714,-0.0819502587820147,-0.1520751642781269,-0.0213331264659031,0.0109414816366636,0.99140770991212,0.1285910499199487,-0.0968091368716639,-0.0545083337898741,9.780019821419705,0.0300217048833418,-0.0057438338105657,0.0070148078413475,3.566155171255601,4.94036637718211,2.0914940422202433,1153.191613923265,1133.6903874902566,1144.5264804709373,1144.0268116357731,38.37781197222139,-166.26352098872883,-32.664062915871135,-307.7782995084974,157.4343951862368
20.6575,0.0487140798937638,-0.2271788454209413,-0.5090196459625924,-0.0082222073931942,-0.0840948873617896,-0.1523506400985863,-0.0212246796303607,0.0109100439542079,0.9913871045828964,0.1287705339562609,-0.0971252125457115,-0.0531346050101366,9.77646271682457,0.0308087047999303,-0.0061409157857925,0.0069951662318908,3.5660882826240017,4.940400568094634,2.0915094430813697,1153.1597320665003,1133.4609472139828,1144.5297394707222,1143.1053207634343,-90.40110231978339,-12.900642158777211,77.80838259856591,-440.3818452186409,157.4329503328338
20.66,-0.0204291076871505,-0.1278514066331092,-0.4250595910441242,-0.0089741390632147,-0.0853438370631371,-0.1521722150506967,-0.0211200456325806,0.0108783995147913,0.9913669065819736,0.1289459277527569,-0.0976848097465065,-0.051782721379678,9.772777792456221,0.0315955983138119,-0.0065338218038182,0.0069591230630147,3.5660197675042165,4.940436151516719,2.091525961388176,1152.7396084116663,1133.6258842794628,1144.91552238393,1141.8249024096804,-228.7514728685176,120.81604439247899,229.54697025226855,-468.1505214244104,157.4311755458844
20.6625,-0.0473846481751818,-0.0428717065203903,-0.3648708965031166,-0.0110302782210341,-0.0846875761295034,-0.1524578050244176,-0.0210170541394959,0.0108520652647951,0.9913467372711414,0.1291200251975741,-0.0984731917558309,-0.0503499856899999,9.76901620341219,0.0323824370223208,-0.0069218040090602,0.0069047456334108,3.5659492002537614,4.940472484384873,2.091543413589204,1152.015974702157,1134.0650274359457,1145.677474321984,1140.764568156311,-373.3962097708461,208.4620635932384,409.1898830578789,-386.3283570883909,157.42966826725458
20.665,-0.0029298275102176,0.0005539853926659,-0.3018448146416408,-0.0129596304373343,-0.0828061417213848,-0.1537836011891592,-0.0209128659156803,0.0108334803435278,0.9913263779865824,0.1292947527411309,-0.0994529540379484,-0.0487947904394999,9.76523357586092,0.0331687581674369,-0.0073042398987843,0.0068304944266521,3.565876204408008,4.940509693799834,2.0915610106202838,1150.8726273628124,1134.6681945974287,1146.9614717992188,1139.893260624239,-524.9314522054327,238.4185749951504,591.4641408901201,-293.0202253307599,157.42813858433504
20.6675,0.1054898691998099,-0.0060139955865,-0.2249791657590567,-0.01384615527671,-0.0809874468371151,-0.1554477422693863,-0.0208084948212894,0.0108219753182081,0.9913055292719184,0.1294722926715431,-0.1006502855171476,-0.0471482318453874,9.761487417225048,0.0339535959841906,-0.0076804611320138,0.0067356168074837,3.5658009856108523,4.94054848071711,2.091578484612302,1149.3913174411305,1135.2571203109212,1148.634795026434,1139.2994670296575,-662.8552989349165,191.78477360168665,728.0540235813901,-148.75814117605506,157.426595195323
20.67,0.2745176901614286,-0.0629546093413923,-0.1292726382596043,-0.0135438741903508,-0.0805095839996631,-0.1566289183329311,-0.0207066937397825,0.01081650465616,0.9912841433512964,0.1296526508435783,-0.1021201264760474,-0.045456026226136,9.757835904296495,0.0347355509599263,-0.008049836106046,0.0066201472113535,3.565724236726796,4.9405896540223715,2.0915959964182687,1147.558350868136,1135.6271184654377,1150.6017419171278,1139.1494699183584,-862.2123096491474,64.79662539906182,862.0286676291822,50.17988122286713,157.4250406487834
20.6725,0.5154947172872161,-0.1544642997349437,-0.0074375184059107,-0.0124873480507309,-0.0816892489787826,-0.1569613794771875,-0.020606295066598,0.0108176517586218,0.991262299035382,0.1298353579656955,-0.1038405370685775,-0.0437247938461029,9.754337538660998,0.0355129399579654,-0.0084117015498654,0.0064846277802682,3.5656459682565207,4.940633340784606,2.09161305149476,1145.0802558928856,1135.5811034379165,1152.9449383645792,1139.5503664357718,-928.5229988475778,-121.62760498952284,794.1307135865133,239.88659880901875,157.4231685676321
20.675,0.7229892525991571,-0.2257751617862957,0.0827705676487975,-0.0107403429453313,-0.0832530573785737,-0.156361152330666,-0.0205028158317506,0.0108254213582156,0.9912398895603544,0.1300219451879993,-0.1057178987778101,-0.0419654902603026,9.751049429823478,0.0362838625653653,-0.0087653550795264,0.0063300858724247,3.565566155777807,4.940679088524106,2.0916287819554515,1142.9157358738992,1135.01898044049,1154.5723954850596,1140.3489029124032,-846.8130029747715,-337.70095789164776,512.8144024990538,392.6015489895046,157.4216070837417
20.6775,0.9094116316279868,-0.2790367751252549,0.1442991461250069,-0.0078602705713317,-0.0843349718909186,-0.155279774341984,-0.0203938925989705,0.010835777752042,0.9912168079444992,0.130213948320154,-0.107683039999861,-0.0402738447612547,9.748024478570956,0.0370461464330278,-0.0091103622701552,0.0061582264232309,3.5654837908324564,4.940726670207336,2.0916424711926567,1140.8461908780096,1133.8925986484571,1155.5090103770758,1141.5133741807203,-836.8608606534809,-595.7628960445894,195.06227361888944,548.0475626551378,157.42004847449465
20.68,1.0891307889806636,-0.324019277816373,0.1795049777509061,-0.0040405953763231,-0.0848442310780369,-0.1540282287616747,-0.0202840597955882,0.0108443380139882,0.9911931907832224,0.1304099795625562,-0.1097929240817995,-0.0387707697130428,9.745308359007977,0.0377973356075069,-0.0094468058614857,0.0059717093896508,3.5653984084650934,4.940775533823953,2.091654122649348,1138.7314315706324,1132.0401659602678,1155.5477068531538,1143.0891407256784,-676.8356670200756,-720.7268131025626,-182.93120113652552,561.0228364202819,157.41818581810583
20.6825,1.2000664420135891,-0.3483025103964699,0.1831428661772958,-0.0011941683157463,-0.0851061670843476,-0.1533739166214679,-0.0201780894960674,0.0108499587090422,0.9911693586261434,0.130606944593624,-0.1121107117441159,-0.0375152410879874,9.742939765342935,0.0385349616678872,-0.0097751617112002,0.005773594769237,3.565310958484006,4.940825304500361,2.09166428666823,1137.4620125429099,1130.2889645829453,1154.5943543713931,1144.3184883628212,-368.46936714539936,-682.1148213387908,-571.9873333843,414.6703687595988,157.41664272492173
20.685,1.275640276219875,-0.3546385724455916,0.1753857146401152,0.0011222521328713,-0.0859705802263309,-0.1530419375479337,-0.0200776003162189,0.0108551057182849,0.9911455421652536,0.1308026285881162,-0.1146412613926733,-0.0364874555072518,9.740950331170854,0.039256758644134,-0.0100960443714813,0.0055669360846574,3.565222563024513,4.9408756928435205,2.0916737047370635,1136.889084734906,1128.6295918535743,1152.687770186233,1145.162492569476,-96.33280373888836,-605.2029312230228,-887.7850020451153,234.63784480163784,157.41511182365633
20.6875,1.3225170229954568,-0.3391530705837332,0.1705907286579228,0.0033504190719037,-0.0872233731893424,-0.152642821437204,-0.0199824656960564,0.0108623985453379,0.9911219170660176,0.1309954995524695,-0.1173503118790366,-0.0356584282511103,9.739363864366807,0.0399606405177735,-0.0104101889260088,0.0053546825902179,3.565133461642207,4.940927289849945,2.0916826716344405,1136.9803485242155,1127.2629499268307,1150.1554293611687,1145.4916775868292,199.20185677691543,-439.7908824906632,-1103.8979719346835,-20.273261030696265,157.4135926797992
20.69,1.3236250158534435,-0.2921523210353078,0.1835459297674863,0.0062189775768061,-0.0884315221519637,-0.1523040338766863,-0.0198870994363794,0.0108737951278559,0.9910986200475403,0.1311852139725502,-0.1200915732109497,-0.034995364031787,9.738197223869182,0.0406446634037575,-0.0107183894649329,0.0051393306643973,3.5650427765428185,4.940980636636168,2.0916907102110316,1137.885094018791,1126.43063744112,1147.1682803265567,1145.0611262643224,561.4218772808024,-225.00743379537127,-1329.5501641662129,-364.38406732084303,157.41208924239157
20.6925,1.2462858612370105,-0.2013174187104924,0.2365331209271122,0.0108386849703807,-0.0895198410958055,-0.1527375903232821,-0.0197858213512013,0.0108891489933072,0.9910757988577716,0.1313715437477481,-0.1227080173275406,-0.0345024916674685,9.737458917885322,0.0413069264478439,-0.0110216334226558,0.0049232424923994,3.564949292303589,4.941035942945711,2.091697557506189,1139.7874579106187,1126.137912757854,1143.5076785403387,1143.6697572502253,796.3027127508886,2.062167461827313,-1290.1565944159595,-627.1659682551101,157.410304667799
20.695,1.1006175575659543,-0.1038615442671231,0.3172991786107025,0.0152254109240832,-0.0900831034721297,-0.1536800317563363,-0.0196747731458629,0.0109052052142757,0.9910536045610514,0.1315542203249165,-0.1250677306614042,-0.0342446093195624,9.737148834307234,0.0419456960570994,-0.0113211669965777,0.0047086980434918,3.5648520803618604,4.941092447329977,2.0917029619886223,1141.8666075825447,1126.4409482784292,1140.717497354478,1141.9252964230475,874.1960057946092,205.19914300542453,-997.3421745199075,-757.5124261144301,157.40883441619857
20.6975,0.8715970262588297,0.0036871808029476,0.4214298231133289,0.0188004366418879,-0.0903210745286061,-0.1539691951709555,-0.0195586841146333,0.0109174040832125,0.9910318423978892,0.1317343829631094,-0.1272006980377236,-0.0343288501481882,9.737256403816914,0.0425596685262449,-0.011618326973456,0.0044984143236913,3.5647514223281678,4.941149465327278,2.091707162837817,1144.1584379395943,1127.1639084728815,1138.5209676677368,1139.8821951196512,904.2398277503232,328.77286790460124,-746.4849882917526,-809.6439701534355,157.40738193432173
20.7,0.5921392042853894,0.1082072459233447,0.5157898841021977,0.0209231879038721,-0.090313779365207,-0.1529109760597688,-0.0194430995373514,0.0109225993921618,0.9910103733874224,0.1319125102262896,-0.1291579879977021,-0.0348320479505023,9.737763322207952,0.0431483142681415,-0.0119145687068963,0.004294947508101,3.5646485411470854,4.941207114234631,2.0917104137171645,1146.3878067212954,1128.084812617952,1136.98507241302,1137.877076572281,827.0037339257494,381.38409594738135,-434.6280400363822,-726.8516248476852,157.40594400639907
20.7025,0.2863213615237658,0.1933645228562081,0.5536905300200081,0.0212771448759019,-0.0900042410210511,-0.1502787157307478,-0.0193276393479017,0.010921896052453,0.9909893535438478,0.1320873800666792,-0.1308913056960519,-0.0357282276109017,9.738646355100036,0.0437121197314995,-0.0122114156762042,0.0041001665331081,3.5645440602753062,4.941266075606308,2.0917128637263582,1148.293456609222,1129.0708289526183,1136.3478274675551,1136.2479369954135,719.322339126434,419.4732367159887,-71.77380584322202,-568.8588165390502,157.40452300885724
20.705,-0.0714547548202661,0.2511513022715302,0.4907808419085238,0.0203169351107891,-0.0892350076236355,-0.1465287523390214,-0.019210684653425,0.0109179684914169,0.9909688056638876,0.1322588268117511,-0.1323386023338474,-0.0369517471310107,9.739877277859607,0.0442527249354973,-0.0125101983979019,0.0039154856177845,3.5644385102290115,4.941326842264798,2.0917146395596338,1149.9844184169294,1130.1821788015327,1136.6262033838038,1135.0327824895844,504.0568532235377,389.54054322888186,258.90571458504076,-304.4792529529028,157.40283644162088
20.7075,-0.3455373010272822,0.2464562263905871,0.3397085998914303,0.0188718383807816,-0.0882364579123835,-0.1438273280123026,-0.0190903998362642,0.0109096734550677,0.9909484632109627,0.1324292023021707,-0.1334319086616585,-0.0385036238480682,9.7414242298935,0.0447730143411582,-0.0128119997672257,0.0037417178649946,3.5643322861355142,4.941389428936844,2.0917157280719407,1150.8137408753391,1131.0185316687623,1137.6423560404803,1134.7255407306493,207.14796314432104,324.87402002518235,529.4555570176416,9.665254977200782,157.40144605327967
20.71,-0.5926401786263459,0.1722576205530981,0.1068367418511341,0.0173060050294969,-0.0869439331188469,-0.1421020602094898,-0.0189673142335263,0.0108955642694352,0.9909281708979392,0.132599710255647,-0.1341585851953895,-0.0403904867263673,9.74325180800808,0.045276994895584,-0.0131180539235829,0.0035793847883017,3.564226382821733,4.94145326830098,2.0917158615512217,1151.0201582326508,1131.8065489016583,1139.2734811688915,1135.0811087644704,-15.084215191601755,320.1927190593959,712.2109943753452,219.75503279361544,157.40007121940715
20.7125,-0.8252684169311305,0.036792874474711,-0.1594716838261447,0.015934923679236,-0.0856486704559089,-0.141590928236877,-0.0188411336955761,0.0108735847594218,0.9909080402150164,0.1327697276577515,-0.1345005764059606,-0.042622262998977,9.74532335860717,0.045769677127436,-0.0134299098299034,0.0034283812643623,3.564122126303886,4.941517478371632,2.091715358938174,1150.738319799381,1132.61949526406,1141.2034110123589,1135.824315894618,-215.42657384688675,344.83559683415064,782.8693912631218,337.6678712141928,157.3987095299582
20.715,-1.0506677640565527,-0.162940821268536,-0.4110870690276412,0.0146635027794819,-0.0850121460325441,-0.142959985778587,-0.0187085983966541,0.0108440215711982,0.990888015936336,0.132940108214836,-0.1344011646681455,-0.0451494536254304,9.74760267476024,0.0462568614009356,-0.0137491495553897,0.0032878435396249,3.5640205222516927,4.9415810484152765,2.091715154511619,1149.9430253634166,1133.5307268858287,1143.1878281252064,1136.769448120541,-439.7668423316156,427.18139425164134,803.6690657130526,396.81770117252813,157.39736438483843
20.7175,-1.31196992261209,-0.4466874782836981,-0.6278659463430863,0.0122650787391283,-0.0858478848889838,-0.1465737621458381,-0.0185680755853887,0.0108070906239988,0.990868303020264,0.1331095371896502,-0.1338481666578565,-0.047922082421915,9.750053746026067,0.0467445114771133,-0.0140776811315125,0.0031564809963385,3.563921492645762,4.941643702133916,2.091716218238017,1148.5394855877237,1134.755402235318,1145.221756340923,1137.80840440048,-562.155041256322,458.5439450987454,633.7472295115628,330.91294670245804,157.39577074509288
20.72,-1.5079879200440527,-0.6919282734543896,-0.7053604265717962,0.0089219994821293,-0.0877098991785595,-0.1502406813649879,-0.0184164719794347,0.0107628385320547,0.9908490695412648,0.133277188833021,-0.1328131029149492,-0.050883912968447,9.752642627809603,0.0472382491322065,-0.0144173675665552,0.0030324475837511,3.5638245542249143,4.941705882046599,2.09171881003158,1147.1322501571356,1135.823446611322,1146.3565642727635,1138.4240128540528,-573.9520264740128,405.02669766732527,290.06950843942235,178.6184944239622,157.39446122407662
20.7225,-1.6570531941794489,-0.9174029781817334,-0.6702883657428947,0.0043915843022451,-0.0902584322802236,-0.1531206001838098,-0.0182573766500934,0.0107116516953041,0.9908302772646608,0.1334427881650239,-0.1314085858813588,-0.0539844782577022,9.755335338929552,0.04774274192709,-0.0147698789619989,0.002914329389323,3.563729273175204,4.9417683617288155,2.091722802482665,1145.669725455354,1136.780535723654,1146.67210388312,1138.7014968725998,-563.9713366285675,333.2625826850859,-27.080130762792365,62.664244841848586,157.39317302190668
20.725,-1.7527439575338517,-1.1119979873404555,-0.5595182472280144,-0.0005671915841102,-0.0931590423259803,-0.1548273773718532,-0.0180901033388889,0.0106557500749047,0.9908118319029832,0.1336069041650077,-0.129678318268778,-0.0571226421176429,9.758101713383981,0.0482613031032245,-0.0151365773829185,0.0028004810298072,3.5636341251434596,4.941831344242682,2.091727124514344,1144.3123934739913,1137.4897595247485,1146.2211636189495,1138.7373340782624,-484.0436849643592,189.907952974992,-360.97361206150606,-17.450736009735753,157.39190417211077
20.7275,-1.778693063198661,-1.2601590769852202,-0.389943933612983,-0.0055993151763973,-0.0962412496224073,-0.155374027361513,-0.0179170380898391,0.010597662115735,0.99079342882178,0.1337712236448328,-0.12773254651707,-0.0601963021370239,9.760913134394524,0.0487955606522427,-0.0155184286757199,0.0026897972623423,3.563537221247972,4.941894792090867,2.0917312760765507,1143.2495070305329,1137.7300754885289,1144.8672358228127,1138.6142431925512,-366.5143977437585,-26.630608375404172,-767.9753835937555,-50.05413713112007,157.3906599638946
20.73,-1.7385996557789287,-1.3789692182920907,-0.1556187379296144,-0.0112567748920114,-0.1000006280486361,-0.1556182474628333,-0.0177413441092805,0.0105355107032758,0.9907746987456708,0.133938160506198,-0.1256885106764566,-0.0631890489412281,9.763743196896902,0.0493454100078469,-0.0159159517071065,0.0025813785649619,3.563437159756526,4.941959415087731,2.091735346839848,1142.4798214852729,1137.3566064828715,1142.3812867009815,1138.4870633926068,-184.27124663184836,-244.79607302602045,-1010.185728785638,-18.88744570609504,157.38919563049063
20.7325,-1.6617816352584471,-1.4260659395873687,0.0458382096765583,-0.0154046782417362,-0.1033636120508781,-0.1558423236811149,-0.0175653271969143,0.010469483225592,0.990755475734516,0.1341085852876497,-0.1236531136418053,-0.0660424108690919,9.766567463022689,0.0499091286321358,-0.0163292972875979,0.0024746978821798,3.563333133732382,4.94202571531948,2.0917392871378855,1142.3281507973732,1136.506095123398,1139.816307178882,1138.5198059640206,42.47586137185798,-426.1305814376039,-1061.9324651811733,55.33249545538829,157.38799838404967
20.735,-1.5633459547128574,-1.4154779681082572,0.233969921485777,-0.0187895838650819,-0.1072016624568885,-0.155731407450272,-0.0173897726036441,0.0104014981803757,0.990735525649194,0.1342839477971457,-0.1217060582210895,-0.0686620612369096,9.769363099693422,0.0504838093454001,-0.0167579564782368,0.0023695697218461,3.563225191260482,4.94209435393409,2.0917430193569864,1142.692200792132,1135.225953575684,1137.0716243750767,1138.7637258698835,261.48009018498414,-612.4476974487916,-1168.4568917723532,148.2871331349383,157.3868227132927
20.7375,-1.4426086628221169,-1.3362099284391156,0.4182286054766768,-0.0221350182897852,-0.11204329638455,-0.1548938262803258,-0.0172156701849176,0.010331516951524,0.990714106813071,0.1344695769776683,-0.1199204552500824,-0.0709952826492273,9.772107705126164,0.0510659174692307,-0.0172004043056888,0.0022661756446215,3.563113754721824,4.942165730735071,2.091746269067434,1143.6355512482978,1133.4438566361548,1133.9740227200216,1139.2612416296952,405.09248213649886,-653.9616871057042,-1049.3938546328625,197.576656826085,157.38543256738063
20.74,-1.3466099085385468,-1.2230680130644955,0.515733022922859,-0.024629887800325,-0.1156009408857323,-0.1536066132389594,-0.0170464214514722,0.010259361244405,0.990691152101625,0.1346655240604224,-0.1184100094805965,-0.0730038845540377,9.774777808209741,0.0516514126238033,-0.0176550700701298,0.0021653702149711,3.562998855970401,4.942239756337601,2.0917489452369575,1144.7176632028156,1131.9561451401537,1131.8246551019097,1139.7516091540147,453.40604971584,-554.5831918361467,-718.4239312524888,181.37218968116912,157.38428716115007
20.7425,-1.2489228486497335,-1.0812686007136134,0.5301875159824638,-0.0273283149721254,-0.1182058014951302,-0.1515997185025075,-0.0168845176101463,0.0101862409509723,0.990666745362316,0.1348707457672147,-0.1172665805456954,-0.0746273524442487,9.777349225425247,0.0522362946064902,-0.0181200090178148,0.0020684266504233,3.562881668237192,4.942316701288943,2.091751411607415,1145.9025814968763,1130.6709406769746,1130.3819030637599,1140.1681025781008,456.7828427098447,-461.5837839937294,-432.9788616571429,133.1394456422723,157.3831491258495
20.745,-1.13637812717012,-0.9332414033030584,0.4625752702226451,-0.0304705927576177,-0.1201340265765062,-0.1490212245410704,-0.0167270245989354,0.0101146819157805,0.9906409161939564,0.1350851950696101,-0.116471184746708,-0.0757737064769684,9.779797892675937,0.0528170043561449,-0.0185928042636033,0.0019765727087524,3.562763069274318,4.942396063196096,2.09175301184262,1147.0015774163644,1129.6482262201855,1129.6597607936244,1140.417306382226,380.71625991868433,-340.67180036988657,-97.70111162563023,45.03450431289807,157.38201202929767
20.7475,-0.9885809841401716,-0.7938615519815277,0.2964728247896055,-0.0339305721595927,-0.1216282311847771,-0.1465331084355643,-0.0165687975824882,0.0100490991515967,0.9906142835234094,0.1353046391225405,-0.1159583136379354,-0.076318384314492,9.782098533923472,0.0533903880912348,-0.0190712368689652,0.0018912670118658,3.5626433276307807,4.942477009349088,2.091752369549016,1147.8061627964696,1128.9675816751255,1129.8933975056318,1140.3932750996653,250.38611955074407,-233.58027285421585,326.585666338698,-71.41095066164382,157.38087019973085
20.75,-0.7607439942221921,-0.6466305913623441,0.0136474824856172,-0.0376227851801071,-0.1233814645054158,-0.1448841319486455,-0.0164069769008219,0.0099899501105602,0.9905874153855828,0.1355252411307369,-0.1156866903615245,-0.0762303351589716,9.78422328845393,0.0539539151849368,-0.0195528750479091,0.0018141432270056,3.5625228397182824,4.942559010192195,2.0917489227433688,1148.2535080141179,1128.4803248559147,1131.2926891253176,1140.0602516289175,65.37001968387197,-142.5070811883596,687.197084333287,-157.01079360470584,157.37948806202684
20.7525,-0.5354077322304579,-0.541927068364024,-0.2509334324326539,-0.0398697047381611,-0.1249419633237643,-0.1449643151690917,-0.0162449101744469,0.0099340257444843,0.9905606884809918,0.1357440875701966,-0.1157162193639633,-0.0755778079055,9.78614083688283,0.0545056794352195,-0.0200349832237011,0.0017470876546124,3.562402167903969,4.942641966823682,2.0917435739267485,1148.1330128948891,1128.2550462691831,1133.3293829273,1139.6082211316411,-148.1028968281702,-77.71020516708359,963.2565236609578,-187.8643734024909,157.37832242655705
20.755,-0.2950442461462252,-0.4561728293566489,-0.4871164651026916,-0.0408308858785504,-0.126304978115833,-0.1465208883190352,-0.0160862146797957,0.0098783611901737,0.99053443971459,0.1359585261172204,-0.116103867581622,-0.0744375650382048,9.78781885202747,0.0550443108674519,-0.0205145337664948,0.0016915322797237,3.562281096950428,4.942726322898046,2.0917373580678498,1147.5129935299772,1128.091773830079,1136.1089717436212,1139.1209297619055,-316.9529197587229,-70.69603143792435,1198.8771700922027,-177.5469943885481,157.37713873088802
20.7575,-0.0632501814413967,-0.3882225005414057,-0.6584984093590002,-0.0404693583004386,-0.1269836718234528,-0.149173874418238,-0.0159341587668902,0.0098210853047726,0.990509045865795,0.1361655988744794,-0.116894643498668,-0.0728770890513225,9.789225141664076,0.0555688474247966,-0.0209882423328272,0.0016482454986522,3.562159798658536,4.942812426697639,2.0917309925958394,1146.5482482960958,1127.9015661119938,1139.3237687777598,1138.7204861596988,-439.9813703455061,-93.97866117132902,1335.9666751755851,-117.3912952450191,157.37593804311476
20.76,0.139285341045813,-0.3427206957836319,-0.7169202171424466,-0.0391286855440736,-0.1268635599890282,-0.152473116680454,-0.0157932933790871,0.0097592400495973,0.9904846273860952,0.1363641468066057,-0.1181477026883937,-0.0710011054128304,9.790328351625597,0.0560787202697773,-0.0214523671465548,0.0016173133839216,3.56203891292993,4.942900967874157,2.0917247974013655,1145.3130866782485,1127.6218805242224,1142.7888051195027,1138.53397328568,-558.4056426248227,-149.2764654279496,1503.7757930957275,-19.297694127457564,157.37471532079698
20.7625,0.3449295432260068,-0.3012679328832627,-0.6411501004748896,-0.0377675794623641,-0.1268388914242047,-0.1561311781505419,-0.0156605520661836,0.0096959036018798,0.9904612806544032,0.1365536213111913,-0.1197836430191394,-0.068789241639029,9.791101864142847,0.0565735995468286,-0.021902951834319,0.0015976230684418,3.5619183708998845,4.942991994726559,2.0917187853232524,1143.7562200829723,1127.1551837848542,1146.8426477432367,1138.6239976890615,-546.5933344453966,-192.3970039787874,1410.7174770800689,82.42078064751517,157.37322172195363
20.765,0.4952965480304703,-0.2554414655605699,-0.4671379627476985,-0.0372350085143957,-0.1273396921375979,-0.1583568992816034,-0.0155273219038469,0.0096345398914572,0.9904390049824884,0.1367347944118849,-0.1216101430328517,-0.0662101621116856,9.79152456279216,0.0570532945648968,-0.0223359357948383,0.0015867826621776,3.5617974079970205,4.943085927604645,2.091713061464508,1142.580120006022,1126.6598955043287,1149.8423925049017,1138.9460771889176,-407.03433242176385,-216.0576947826289,1057.7146738999136,163.3673081058606,157.37195523124524
20.7675,0.6367060300457236,-0.163065984402855,-0.2101555077151848,-0.0368420236917735,-0.1283822437330225,-0.1594270653694807,-0.0153880815752436,0.0095794314176677,0.990417211982086,0.1369122885021488,-0.1234909742325186,-0.0632349541715015,9.791579449251337,0.05751778139613,-0.0227470642289282,0.0015821138572181,3.561675959341914,4.943182873754534,2.091708304533374,1141.7210484208624,1126.0748953109403,1152.1312211127392,1139.4408342295912,-271.99529793470856,-243.4108087714351,760.1892445359374,207.84882619941115,157.37066688698155
20.77,0.7713846232926131,-0.007823538860235,0.0838891587510522,-0.0359299283463507,-0.1299582955414807,-0.1595187904360116,-0.0152446231251524,0.0095345878956515,0.9903955994296832,0.1370878212205421,-0.1254267611800274,-0.0598681052928984,9.79125332028168,0.0579668869186155,-0.0231329024150756,0.0015811764220142,3.5615541086569715,4.943282732463094,2.091705345212736,1141.2201435163488,1125.4428414604715,1153.6433387275806,1139.9853213199144,-107.24121773393875,-254.28921490702635,391.2610162193556,206.3927433156506,157.36936144026333
20.7725,0.8853582271639295,0.2376563047754647,0.3828814111465764,-0.0340291295104332,-0.1317098584696801,-0.158500817421872,-0.0151005881757138,0.0094973467845196,0.9903736399842388,0.1372649685441464,-0.1274315165287924,-0.0562547915857468,9.79053949204165,0.0584005284238085,-0.0234905544169851,0.0015810146584517,3.561431916379035,4.9433853066063245,2.091704596029387,1141.1848423321928,1124.8034492364056,1154.0875261938356,1140.4727979461693,79.60863427506885,-267.22109060979136,-56.696810873489184,177.75390744377546,157.36803711437477
20.775,0.9738977094412206,0.6202941054402912,0.7018772269336874,-0.0310488933783546,-0.1327154482402401,-0.1562065056106958,-0.0149557229319869,0.0094653159973592,0.9903508751432676,0.1374472169355645,-0.1294406610086086,-0.052528160734532,9.78943999484946,0.0588186244254602,-0.0238181206107872,0.0015782431745311,3.5613095265207315,4.943489972440228,2.091705547794203,1141.6181866877243,1124.106736007422,1153.359854673213,1140.8740908571335,217.2134308305408,-232.0698211566657,-460.69490405252577,107.32790065269316,157.36642900727705
20.7775,0.9906563534656642,0.9723942882509596,0.9088271086229152,-0.0282687581755026,-0.1318046087895984,-0.1537446955963916,-0.0148111068511384,0.009434720768032,0.9903273130679432,0.1376346316603812,-0.1314089796664849,-0.0488524632442673,9.787964187581968,0.05922088595538,-0.0241152876679834,0.0015698004094407,3.5611869674793644,4.9435960501644285,2.091707418375345,1142.270909486345,1123.6431001306223,1151.7840516735735,1141.0094374494327,289.943701962296,-149.92890589335985,-792.5660254726366,12.451783420422291,157.36507575513903
20.78,0.933812573565399,1.286842628658776,1.0338822244934809,-0.025366742526348,-0.1287092213623274,-0.1510926166677684,-0.0146669313146188,0.0094023793585826,0.9903031523884628,0.1378259628643068,-0.1332730485115126,-0.0453756368113504,9.78612921537928,0.0596068560155908,-0.0243832009761684,0.0015530371142631,3.5610639230146375,4.9437027334863775,2.091709751490244,1143.0679051975355,1123.3570914779555,1149.3970245458506,1140.9363497742359,348.8243918399588,-77.01488471968045,-1175.2376904662533,-68.96113825843265,157.36371251501222
20.7825,0.7746466371423164,1.5304723778977243,1.0744531101834405,-0.0221539391902994,-0.1226222740028028,-0.1472821463566773,-0.0145255050768617,0.0093654896100007,0.9902785345656956,0.1380201227856199,-0.1350093870558131,-0.0422385428136324,9.783958570189405,0.0599759220937578,-0.0246242977035606,0.0015261566188692,3.560939555677067,4.943809463623264,2.091712305601228,1144.0150314455448,1123.2580257070242,1145.9078632212431,1140.6646317581403,326.78482438083984,6.0388096685995345,-1331.5425380749195,-116.48931413981288,157.3620700693049
20.785,0.5705960033746729,1.5707348935778258,1.0128046405232192,-0.020021367030252,-0.1161127931913778,-0.1436047150103477,-0.0143893763022065,0.0093214506816947,0.990253431686157,0.1382172054477148,-0.1365982286141846,-0.0395706101717653,9.781482020250781,0.0603273872133338,-0.0248420811412635,0.0014880573798727,3.5608129441914413,4.943915753216644,2.09171449833532,1144.7018293194394,1123.3872855262985,1142.7393118554771,1140.353903203537,243.3983973900132,92.89757291503315,-1257.3684026799515,-123.06490132862633,157.36069994085955
20.7875,0.3070432279928641,1.4190381102227372,0.8621205050046798,-0.0186188821527937,-0.1097484008951519,-0.1405179706887896,-0.0142565241305316,0.0092682209637196,0.9902280613042782,0.1384159859389819,-0.1379325883587872,-0.0374673681477136,9.778736384720313,0.0606604691543369,-0.0250412162900466,0.0014378105883106,3.5606840690535786,4.944020716121787,2.0917159160076553,1145.2320234324955,1123.7225135715996,1139.6210212078404,1140.049307251497,188.63145821641524,162.7838774432217,-1191.9889003615124,-108.65043812798264,157.35933321311424
20.79,0.0106462654014587,1.1266497437614322,0.6580970763186048,-0.0179150994173305,-0.104731999667004,-0.1386663317867141,-0.0141210439317113,0.0092029622310414,0.990202538995585,0.1386164313815583,-0.1388288854906078,-0.036016638698155,9.775764650874525,0.0609745873739818,-0.0252269079066812,0.0013745515663991,3.5605528142878065,4.944124000450313,2.0917153290947588,1145.6449866105213,1124.2012049135144,1136.7793673536708,1139.810651012897,149.0779414305349,216.0772557068388,-1017.5019630863268,-70.42250813362025,157.35797277146105
20.7925,-0.3003748393569807,0.7232066456805579,0.4208660495481237,-0.018264772778949,-0.1019798516172206,-0.1380865753526483,-0.0139800161090559,0.0091238720057384,0.9901770521795084,0.1388176292385344,-0.1391666242293041,-0.0352802141784381,9.772612756961946,0.061269418689679,-0.0254047418929859,0.0012981710775386,3.56041847770825,4.944225573602584,2.0917119118070264,1145.977413139648,1124.8028998501336,1134.5335113924095,1139.697194710829,147.54271316530048,278.1139289939288,-793.1628893910365,-16.64910913699772,157.35662385376884
20.795,-0.6554539793050107,0.2091776152680676,0.129963843318518,-0.0198966676256656,-0.1013276119026159,-0.13813505650192,-0.0138334551157647,0.0090322143617022,0.9901519223771956,0.1390172106727411,-0.1388944899047752,-0.0352537828463864,9.769328719959296,0.0615450864340217,-0.0255803236665701,0.0012091228752501,3.560281965493628,4.944326048554268,2.0917060384119623,1146.382700176348,1125.5917745584848,1132.8135529067135,1139.727405467212,161.87483426286727,289.5253581448408,-437.9606702598683,38.62420833252913,157.3550232602318
20.7975,-0.9120015969345172,-0.1724170994641337,-0.104319674987027,-0.0220635868683872,-0.1027538693632355,-0.1384525936728315,-0.0136820015347287,0.0089330580790332,0.9901270679557566,0.139215373186028,-0.1379890249888979,-0.0358467257334513,9.76596283923606,0.0618025801519176,-0.0257584028627144,0.0011078610030898,3.560144970129801,4.9444261832478,2.091698969521044,1146.786787310962,1126.2505266408575,1132.3437080411109,1139.8903157524917,181.72726978790683,252.4126694197596,28.743272711477665,92.8451677958222,157.353707794789
20.8,-1.1032698575179658,-0.4382778031893748,-0.3236201844120178,-0.0248353492501557,-0.1057156169118925,-0.1389091303023743,-0.0135312970358519,0.0088318055442501,0.9901026262135184,0.1394102224959926,-0.1365320817856188,-0.0369616723460449,9.762566215853296,0.0620435891433153,-0.0259432068315507,0.0009948762053877,3.560008083039176,4.94452647430567,2.091692384703972,1147.2913365252875,1126.8538379055833,1132.9572692702711,1140.191631306191,215.10597977833547,225.43297897784504,419.99816215030813,143.3589297897646,157.35241504131386
20.8025,-1.2261899585022051,-0.5813494067727119,-0.5278780663557691,-0.0280124827733196,-0.1092686279021373,-0.139534338484163,-0.0133824849694029,0.0087311111267343,0.9900782496914085,0.1396039221402505,-0.1345198460542076,-0.0385296659198499,9.759193881228777,0.0622707903680988,-0.0261375775898715,0.0008693647192446,3.5598714066278965,4.944627831998327,2.091687556281325,1147.8623172098544,1127.377691535747,1134.4436988518635,1140.6071104014409,231.2243156902701,184.94517049979592,775.848318016069,193.36528857419793,157.35114366535188
20.805,-1.2550444576931068,-0.5789735158593179,-0.707288382149346,-0.0315699217169979,-0.1122641706838686,-0.1405639909339956,-0.0132342667309316,0.0086362449323074,0.990053474784926,0.1397995489004707,-0.1319192938619467,-0.0404132279897959,9.755903143141785,0.0624875843636038,-0.0263433640789094,0.0007300291129085,3.5597352793150945,4.944730466102641,2.09168560868528,1148.4474581037387,1127.778563758082,1136.8365108603507,1141.1584577490619,236.41147655794316,143.71412219232428,1197.0407724464271,270.23324708376015,157.3499009728058
20.8075,-1.175520321061505,-0.4494737485428177,-0.8764716106719281,-0.0359072865063918,-0.1140624436662124,-0.1425793364552319,-0.0130849773883079,0.008551152546737,0.9900281685163592,0.1399979734150172,-0.1286993891532804,-0.042489679617118,9.752752520640506,0.0626978206146469,-0.0265619057709478,0.0005754320255693,3.5595999644791334,4.944834279770196,2.0916863689848726,1149.0443745926439,1128.0962621467088,1140.4289027140944,1141.9582766368594,182.26767567033664,86.88154450102866,1373.9030917514815,309.4524855087617,157.34844669758095
20.81,-1.0190963582208876,-0.2793796056616235,-0.961148405550072,-0.0391672792484392,-0.1140450414579596,-0.145046883555921,-0.012933680544301,0.0084792244670098,0.9900024053823206,0.1401985832299222,-0.1248554170982642,-0.0446410537399119,9.74980033465208,0.0629056891092746,-0.0267940532297354,0.0004046270613483,3.5594655122771863,4.944938859004158,2.0916885165912644,1149.35879648209,1128.2129714805872,1143.7060263191067,1142.7057201766052,68.83710612757119,12.873558936737767,1284.8525075482312,302.34152948848174,157.34726852540413
20.8125,-0.7859537998385688,-0.0904264226547195,-0.9662607441179178,-0.041751979753317,-0.1132221542166275,-0.1481560395953754,-0.0127830099256613,0.0084189260180674,0.9899766815651482,0.1403977569190147,-0.1204527944932629,-0.0468480054150426,9.747102888649552,0.0631154691143379,-0.0270404465535533,0.0002175337360268,3.559332169169781,4.9450445826367355,2.0916903896106187,1149.3885601232816,1128.1606299413925,1146.8531652518343,1143.4699842843015,-43.541876550285,-50.899502973899295,1176.4005801554852,295.8793365028519,157.34612906370927
20.815,-0.5084645174877699,0.0938404237766385,-0.8959210814045809,-0.0435743353321031,-0.1124344469317345,-0.151379276933226,-0.0126371930119315,0.0083699066369112,0.98995181046855,0.1405894273641221,-0.115605841358591,-0.0490682879380822,9.744713290651951,0.0633313716455218,-0.0273015422245043,1.5283490612270105e-05,3.559199767470951,4.945151599170376,2.091690890301056,1149.1410870993386,1127.9584739657175,1149.5880292198872,1144.1851168591204,-166.33294109736775,-116.78072001379908,936.9278778775468,259.7186091018164,157.3450246344088
20.8175,-0.2058063198829754,0.2638314867283349,-0.7365880428746445,-0.0441347132793375,-0.1118308054039969,-0.1540622164988412,-0.0125000950399061,0.0083318729025005,0.9899285103539908,0.1407682364920755,-0.1104365081127423,-0.0512550370837014,9.742680698315091,0.0635575381479712,-0.0275773346378421,-0.0002001304516832,3.559068248579372,4.945260013511506,2.091689896564691,1148.5568954177947,1127.5767263413236,1151.537804641221,1144.7685773298103,-322.661501789135,-202.7264204287752,634.8188342637412,213.70176704990328,157.3439661987125
20.82,0.1509998883189642,0.4490287135647677,-0.4617153313773372,-0.0435456322792448,-0.1110290270564573,-0.1561552724306497,-0.0123717639998504,0.0083003360396803,0.9899069264632998,0.1409334478008781,-0.1049949972908106,-0.0534308623012423,9.741050007271278,0.0637981088834082,-0.027866983780188,-0.0004267124093587,3.5589373116766065,4.945370285142299,2.0916872694500577,1147.5277795903933,1126.9448418635739,1152.7621233912053,1145.2536256943697,-414.68511936251775,-249.50235104011847,259.2643829467344,138.55103356984003,157.3427543559878
20.8225,0.4232162830429591,0.5859059437788102,-0.1841896695792963,-0.042556408081884,-0.1103840793944873,-0.1569599286720132,-0.012251296404313,0.0082713557556672,0.9898870511240604,0.1410854576879471,-0.0993273710339364,-0.0556052100399367,9.739859290013129,0.064056914618128,-0.0281694192654118,-0.0006619585468012,3.5588068314995893,4.945482446682444,2.0916828718550207,1146.483469820981,1126.3292145861224,1152.8341265559554,1145.46133249766,-429.19215160799814,-244.3863192040712,-144.87484374129207,44.384027438499935,157.34179697295815
20.825,0.6534727318112822,0.6959541426683129,0.1160085604301052,-0.041281656284859,-0.1093171943730708,-0.1567877692620622,-0.0121373512313798,0.008240832592867,0.9898687209620852,0.1412258063147411,-0.0934819810665886,-0.0577904996082171,9.739138579987715,0.0643373933041626,-0.0284835097320322,-0.0009030320969803,3.55867680033436,4.945595959351974,2.0916763450481404,1145.3818188323537,1125.7229102675535,1152.0377491724987,1145.475545831562,-428.5787401872256,-223.2004074874556,-431.5191636403091,-20.851501135170626,157.34089892273923
20.8275,0.8391160696968138,0.7701820343738939,0.4157468037247711,-0.0393566270709238,-0.1073404289526994,-0.155975692990892,-0.0120288794334161,0.0082068737554608,0.9898514893822826,0.141357863149792,-0.0875279946365199,-0.0599594009455277,9.738908833253596,0.0646425375635477,-0.0288081031327565,-0.0011467195209798,3.5585474537737647,4.9457094614698,2.0916672852006406,1144.3405761200456,1125.2132125486853,1150.6765307377543,1145.357074991984,-379.66491831942807,-162.31659504920452,-637.357159455943,-68.95673331310829,157.34005368522395
20.83,0.9601287711651026,0.7828667755733336,0.6949753411323282,-0.0365825204575667,-0.1045471344344758,-0.154491272304356,-0.0119240056374121,0.0081691302550963,0.9898350575424864,0.1414839370905738,-0.0815300777084007,-0.0620553634604633,9.739181846974049,0.0649745792631691,-0.0291424005005099,-0.0013898796747485,3.5584184552597327,4.945822144245328,2.0916555750142765,1143.4834942407556,1124.9113272923073,1148.8509633752176,1145.1307621649964,-315.60085204120605,-73.19703334316365,-857.7184094707151,-109.12868177440384,157.33927633903403
20.8325,1.0244492519703912,0.7154795064911613,0.983892588861103,-0.0330854788369829,-0.1012278358438296,-0.1515496460302071,-0.0118208127927505,0.0081309078447576,0.989819084928865,0.1416064106173163,-0.0755666225444394,-0.0639548343915472,9.739959969539694,0.0653348637228483,-0.0294856716780391,-0.0016294776985192,3.5582896243310578,4.945934177662799,2.091642619470493,1142.76257185984,1124.8472273819696,1146.3879386904016,1144.811431583112,-207.5745249194328,23.799051978317223,-915.4732611877992,-114.89018224499443,157.33842722528402
20.835,1.0140698635966627,0.5955761241818933,1.173780945949122,-0.0304302107163665,-0.098924854438675,-0.1481522819163787,-0.0117184784877647,0.0080948478505512,0.9898032971102152,0.1417271423474464,-0.0697370347784714,-0.065554425320858,9.741236218380482,0.0657236347256332,-0.0298371081712184,-0.0018629665865392,3.5581607256065624,4.946046433178606,2.091629757380695,1142.4456216161586,1125.0303225521989,1144.2735970692795,1144.5563112537716,-70.46265713071112,108.55529186323012,-825.8322026877845,-91.53579772050625,157.33779302907234
20.8375,0.9474704878949608,0.4298282592374124,1.306701482781642,-0.0280791133765077,-0.0974133141482712,-0.1445434167279235,-0.0116140608378177,0.0080621123470097,0.9897874202226152,0.1418482427043123,-0.0640944607809733,-0.0667784616422712,9.742995381041752,0.0661399286740619,-0.0301955638962762,-0.0020887609687533,3.55803078405744,4.946160246375276,2.091617188130982,1142.410258574186,1125.390003841286,1142.2587776769603,1144.3537525945092,37.407679143287325,175.79150626760426,-830.9254096722104,-73.25648884817932,157.33723918870547
20.84,0.8164843409882451,0.2122272629016974,1.4107030145082515,-0.0255452184924844,-0.0968232038366483,-0.1406715801864863,-0.0115045499475921,0.0080337326804701,0.9897711786510104,0.1419718438455143,-0.058686192199142,-0.0675593467530322,9.745214056320254,0.0665815403241383,-0.0305595496968059,-0.0023057858698573,3.5578994158800272,4.946276356138118,2.091605070921817,1142.632660011875,1125.9092800835367,1140.1189700209193,1144.1900288095308,112.9620590399324,188.4227416642636,-716.6419328606087,-47.22601532222173,157.33667209158156
20.8425,0.6747475766444264,0.0403549717382323,1.4626178207384484,-0.0237213632739272,-0.0972659976251199,-0.1378811560030015,-0.0113905504309769,0.0080072885719408,0.9897547694045896,0.1420966600838849,-0.0536133175868395,-0.0679127733379995,9.747860656181665,0.0670449244576098,-0.0309277502132911,-0.0025131345860384,3.5577663572215146,4.946395274992735,2.091593836764551,1142.9750688693855,1126.3321175496071,1138.6755680126582,1144.1176225178983,153.0061186879115,153.7333023598727,-485.12160381938526,-18.72181821318381,157.3362839878977
20.845,0.5109456760714673,-0.1009644374722531,1.4859844843250742,-0.0223559594857859,-0.0982571166070068,-0.1351961401911427,-0.0112700929540179,0.0079800025962551,0.9897381273249422,0.142223449181128,-0.0489167050037415,-0.067861295229096,9.75089724760531,0.067525677286459,-0.0312984752346768,-0.0027103983261021,3.557630575453769,4.946517043974278,2.0915833512933704,1143.3976906053144,1126.677946595336,1137.6933620018228,1144.0964197184649,170.98622018150982,123.31154531568878,-306.2388099788832,-3.303852284262323,157.335987211133
20.8475,0.3374158031541449,-0.2121110905717233,1.4815685921260997,-0.021405652138508,-0.0993687250161985,-0.1320939139733342,-0.0111421445862641,0.0079531140595766,0.9897210896305908,0.1423533434349188,-0.044655173360245,-0.0673601852236825,9.754279553880894,0.0680187291688675,-0.0316700603147452,-0.0028966671557665,3.5574914070624004,4.946640721631565,2.0915735157778768,1143.829999970293,1126.9486752761854,1137.144373962764,1144.101103256477,163.50414401009223,97.14295883754436,-114.16642461207246,4.467481687786392,157.33576862180624
20.85,0.1614650069638491,-0.2938157905137407,1.4284685609880237,-0.0208658264995113,-0.100357584669232,-0.1283269875213232,-0.0110083480150402,0.0079244216945649,0.9897032539405582,0.1424891181253181,-0.0409168716805997,-0.0664465483620046,9.757957418188504,0.0685187989904878,-0.0320406979940373,-0.0030707179531405,3.557348925290213,4.946765262118656,2.0915636182543182,1144.215211325365,1127.163661389524,1137.122529878762,1144.1187571269038,144.69497950629523,97.59877921075837,96.87740417795902,8.621701834319433,157.33564677256416
20.8525,-0.0417241298312872,-0.3774013294217236,1.287676232961779,-0.0206795966999797,-0.1011578062430484,-0.1237094728025358,-0.0108695221296534,0.0078909942691008,0.9896842655539154,0.1426333271262167,-0.0377587451593032,-0.0651778926432268,9.761876090325062,0.0690206186754733,-0.032408630570886,-0.0032311243423326,3.5572036581748887,4.946890219202916,2.0915524386632516,1144.5534748678244,1127.4366691722391,1137.6287609836538,1144.1442117656486,94.02299000568797,113.4823364370048,252.497683200959,11.103943877744705,157.3356148675861
20.855,-0.1967835524430308,-0.4509551207761625,1.0970016575995178,-0.020866694474627,-0.1014383629542584,-0.120223710904268,-0.0107299260427426,0.0078494036468078,0.9896639330316682,0.1427871504423986,-0.0352895575607449,-0.0636400068618532,9.765976415808737,0.0695191804367527,-0.0327721352708986,-0.0033757355770197,3.557056192459456,4.947015916431318,2.0915387806405414,1144.6853262753937,1127.7310730717088,1138.3850182947667,1144.1742768462923,13.710924073977628,137.14545404229543,338.95872938206526,17.47734831500581,157.33568484325164
20.8575,-0.3270927517861961,-0.5402355907368223,0.829395928076416,-0.0214085529392118,-0.101674048508201,-0.117175128857464,-0.0105921649762352,0.0078029607876127,0.9896423537630614,0.1429495069605532,-0.03359217824531,-0.0617932758299708,9.770196499674986,0.0700098591886507,-0.0331295608057767,-0.0035019213004679,3.556906744770461,4.9471422947386525,2.0915222129464976,1144.6220294881944,1128.1223964424507,1139.323554630565,1144.2315985072237,-58.47436258883389,168.73171363348493,381.58537400493833,29.81199343681193,157.33585600554187
20.86,-0.4282176568436518,-0.6406789706329012,0.5059619313742865,-0.0223692376093956,-0.1022071428135373,-0.1144762704181645,-0.0104597219528833,0.0077543798790425,0.9896199300944574,0.1431171797083392,-0.0327528685767241,-0.0596215638321211,9.774472468610591,0.0704885987093598,-0.033479135547772,-0.0036072025286641,3.556755356832028,4.947270249487073,2.0915028560190887,1144.3929544624496,1128.574731639876,1140.292945164791,1144.3233368134763,-123.43584328575798,181.62801442703287,373.41211272462874,44.22599527066238,157.33611134717796
20.8625,-0.4834305737191783,-0.7379804445916304,0.1390639348059871,-0.0238716047707683,-0.1032992688594945,-0.112539070827715,-0.0103376490717268,0.0077036732483416,0.9895971461154794,0.1432864265782562,-0.0328696991800155,-0.057174751473866,9.778739796623361,0.0709521762524068,-0.0338186800190237,-0.0036897230730188,3.5566030760766996,4.947400777192551,2.091481685372836,1144.0048502717657,1129.030536514586,1141.1906151941876,1144.4527284835767,-184.5016693467153,174.60787124209835,363.24132674657966,58.819336122921335,157.33646798268737
20.865,-0.4877071929314168,-0.81552761621177,-0.2981421965890824,-0.025955593450463,-0.1054524682274732,-0.1122363840548981,-0.0102256165316602,0.0076522613503171,0.9895743358515172,0.1434548606345163,-0.0339306482459224,-0.0544693239025421,9.782935740511796,0.0713983884170283,-0.0341454866729793,-0.0037491085088122,3.556450886136456,4.947534039772366,2.0914602180752127,1143.4704461157155,1129.447770996087,1142.1091517985249,1144.6174334940913,-183.62703411234196,108.43657345983384,307.9274459140992,53.99965525212957,157.33701211303668
20.8675,-0.4400557238462523,-0.8166441889341733,-0.6090343050694929,-0.0274879079465361,-0.1081689035949532,-0.114330740169837,-0.0101190556180687,0.0076011037798177,0.9895515634430616,0.1436222952409897,-0.0358317364178379,-0.0515269799735702,9.7870009329814,0.0718261206125529,-0.0344563937852152,-0.0037866318754406,3.55629957761916,4.9476697907846345,2.0914393403110494,1143.086715101204,1129.572719381885,1142.730252423758,1144.7227267598375,-109.96670395863843,-22.820389190615053,221.94515075907344,24.796505575482502,157.33756133866976
20.87,-0.3480885633453034,-0.7208222313431744,-0.8087801165448029,-0.0285528970853554,-0.1115410243596928,-0.1182191992995904,-0.0100146434957331,0.0075525134980762,0.9895287632733007,0.1437892852524063,-0.0384899329207076,-0.048354086141968,9.790880393280364,0.0722351726747586,-0.0347482573310947,-0.0038043089344605,3.5561496654709295,4.947807768120954,2.0914195230045065,1142.9206125959224,1129.333669050134,1143.21887755232,1144.7414160219687,-11.00027996103782,-170.08162617647687,176.71751742426628,-14.240049050616213,157.33820856477527
20.8725,-0.2295730828475576,-0.535505907346678,-0.8944398154186,-0.0293023949943611,-0.1146478882828716,-0.1222515464576487,-0.0099100782478133,0.0075071002666309,0.9895058673355024,0.1439564264375151,-0.0418316303109512,-0.0449990651839472,9.794525257294609,0.072625989751327,-0.0350182897504049,-0.0038050616942324,3.556000983399392,4.947947710348584,2.091401143258917,1143.0317137013988,1128.7223112510028,1143.6138400108791,1144.6515265145845,123.72369672264271,-336.4258580536203,134.72994908850475,-68.54851228069037,157.3389358784999
20.875,-0.0927284467539179,-0.2550923415625719,-0.8477318465051688,-0.0297827495796485,-0.1166027426222674,-0.1252568682363249,-0.0098036020439009,0.0074648191431647,0.9894829531163516,0.1441233149394986,-0.0457874609653249,-0.0415292059598201,9.797894176130512,0.0729993287442327,-0.0352644598910607,-0.0037924922318288,3.5558533712754423,4.948088854911364,2.0913847032338833,1143.5392310795355,1127.651539759866,1143.8925272977624,1144.3986734605653,312.0199228136012,-554.4691912341369,85.74890938066505,-152.20092998244067,157.33975819226683
20.8775,0.073522051691111,0.1495257663904741,-0.6727798793536173,-0.0299841433561272,-0.1173219235183481,-0.1273067003101875,-0.0096921165727451,0.0074259109390455,0.9894602350207709,0.144288683290737,-0.0502590138835264,-0.0380050816167297,9.800954532071632,0.0733559919649322,-0.0354856590989224,-0.0037707935428784,3.555706942957663,4.948230851794844,2.09137054363258,1144.5918133154676,1125.9499652948307,1144.0425845577827,1143.8905218646719,443.6801621220612,-658.5818710958339,11.423595195403776,-218.6633694503124,157.34085257020683
20.88,0.1979813026300513,0.5022353558284154,-0.4582288607834844,-0.0297679533565189,-0.1165756329962581,-0.1281332598915849,-0.0095762949663536,0.0073920530136382,0.9894377131601606,0.1444523977153819,-0.055221355164312,-0.0344703143738665,9.803682063370834,0.0736967453086404,-0.0356815062645781,-0.0037436379308897,3.555561393898106,4.948373565207711,2.0913590496108885,1145.7576318901451,1124.3586304043877,1143.9496452737394,1143.305356613314,493.54374167429154,-617.0446198365744,-99.61537043506887,-260.8195341845722,157.34185245330207
20.8825,0.2869280976525936,0.8181699767743813,-0.2022535805017455,-0.029078553152823,-0.1142637203136542,-0.1288220748613359,-0.0094543063961304,0.0073663362640852,0.98941523986008,0.1446154307568589,-0.0606012635137532,-0.0309319579971713,9.806061786752931,0.0740220163941956,-0.0358524237731222,-0.0037146443598981,3.5554160581268626,4.9485167244879324,2.091350854671445,1147.0595320238388,1122.8647421956484,1143.5445077056074,1142.5864241937493,557.1779581049547,-569.191264601868,-264.3114263897599,-334.04142860150574,157.34294129707135
20.885,0.3284008483323781,1.1011773389200483,0.1249749042308612,-0.0276775882082972,-0.1098688633432636,-0.1294323475060719,-0.0093232718018398,0.0073492607682792,0.9893924315847534,0.1447805757064221,-0.0662936949889869,-0.0274399651155561,9.808087703397069,0.0743317663013344,-0.0359995008625408,-0.0036871359688795,3.5552704349385036,4.9486595205795485,2.091344167193909,1148.5435216806716,1121.5126740813769,1142.62808814179,1141.6351494703056,497.0796695183333,-385.38233125426297,-409.0066941021537,-351.56669806317666,157.344347891217
20.8875,0.2945760301398585,1.232589933416878,0.3916403344251443,-0.0261379284371021,-0.105613205353418,-0.1292582223141105,-0.009185811994688,0.0073382031634442,0.9893690804145702,0.1449492233786435,-0.072286964604513,-0.0241139799818337,9.809760923866376,0.0746251822788136,-0.03612487564838,-0.0036629858435815,3.555124134975323,4.948801156800742,2.0913362067485504,1149.54493037143,1120.9378305393775,1141.499474235097,1140.8285907034335,319.85820168462845,-94.45066648665549,-516.4559896324708,-311.9004744798697,157.34560112927437
20.89,0.1833423846789632,1.2507086094063715,0.6177862373057895,-0.0246187541593588,-0.1017728392368796,-0.1279422845495683,-0.0090480072703993,0.0073265549075401,0.9893455735062804,0.1451186632504361,-0.0786200851611313,-0.021152123898974,9.811088959080514,0.0749003896843652,-0.0362319694558338,-0.0036429627165587,3.5549767109833907,4.948942731735439,2.091325539336293,1150.1428126890944,1121.0404207489437,1140.045808193628,1140.0756470979063,159.8696949413443,148.6704024952054,-620.0650819305804,-285.3524564754839,157.34693566321351
20.8925,0.0141047424197334,1.1864211367190551,0.7821506535388861,-0.0235222295430214,-0.0984572607320556,-0.1253826005470444,-0.0089134420219638,0.0073079986377914,0.9893216468158024,0.1452907663653431,-0.0852781607833624,-0.0187292847930455,9.812085325841837,0.075155057579365,-0.0363240580628364,-0.0036274366746915,3.554827153997117,4.949084751996964,2.0913124691033937,1150.344278846137,1121.681182551854,1138.3991488254424,1139.4018284210556,-12.410043969068932,357.15058628436793,-682.0891992664649,-247.56348505075417,157.34833533584535
20.895,-0.2038129102546594,1.0463157443721947,0.8456123806113182,-0.0232914182898256,-0.0956285923958218,-0.1217258536317659,-0.0087806127136501,0.0072784689910926,0.989297125194106,0.1454670098642169,-0.0921474727145432,-0.0169501786684568,9.812768854256015,0.0753861732733137,-0.0364049336726248,-0.0036169352318026,3.554674977654475,4.949227128887332,2.0912980536574945,1150.080762469249,1122.8261736803652,1136.6353621972964,1138.837829672653,-198.2094779803386,562.3543725950849,-770.5417209918945,-225.98896269641904,157.34981062501762
20.8975,-0.4815638101500606,0.8257579012592902,0.7976531800120139,-0.0242842293941181,-0.0928339869384426,-0.1176672292463774,-0.008646470334287,0.0072365850283364,0.989272243793386,0.1456460523132016,-0.099085462091951,-0.0158497391389568,9.813161925112345,0.0755901647176861,-0.0364791719916025,-0.0036119082476688,3.5545198340824835,4.949369322475886,2.091283241867284,1149.3532314562356,1124.4929544148288,1134.5464402204839,1138.2718836075735,-304.78586026968384,612.264838957986,-735.2629926545764,-195.28242855084517,157.35166436873627
20.9,-0.6939540253601248,0.6255761195579542,0.6710284258978403,-0.0262055905994999,-0.0911982787957415,-0.1155194729533471,-0.0085098259142802,0.0071845547012836,0.9892470632151356,0.1458274591687567,-0.1059896573092684,-0.015384861826635,9.813288585967868,0.0757635293236398,-0.036551412656913,-0.0036123081970325,3.5543619993187363,4.949510920812884,2.091269164307718,1148.5568331678999,1125.8874978751567,1132.9590472340217,1137.8614175298983,-315.6667400750112,509.17929064149695,-568.5921548066966,-159.30346953185548,157.35327554349007
20.9025,-0.8523360381181634,0.4403562667673817,0.4895831856963236,-0.0289180448629801,-0.0903276458010245,-0.114550028512257,-0.0083737321615754,0.0071210784097589,0.9892218986304144,0.1460089905679164,-0.1128245518310728,-0.0155788658747981,9.813173819703865,0.0759029716687274,-0.0366264983000505,-0.003617913965659,3.554202068489113,4.949652346545621,2.091255758425816,1147.7748977558608,1127.0388508680355,1131.7034794464507,1137.4753662599146,-281.33927001773515,396.0667482138766,-420.6700279144042,-152.24721648103997,157.35495170527264
20.905,-0.9489367436371156,0.2882149109195272,0.2891453796980192,-0.0319652707270365,-0.0899824825776591,-0.1140601599056079,-0.0082430779458887,0.0070485684779564,0.9891971333126166,0.1461876440077964,-0.1195967983803693,-0.0163750084747233,9.81284241819368,0.0760057395739265,-0.0367091743710467,-0.0036278998776782,3.554040386951673,4.949793106056576,2.091242466362265,1147.1501368178115,1127.8678316162257,1130.85569709445,1137.1001814474932,-188.08186782092997,246.68360766627663,-213.9247566597958,-141.2887361643524,157.3566786649268
20.9075,-0.9638857172928756,0.1936624567223589,0.091034463347152,-0.0351002252241912,-0.090086246057699,-0.1140942055513964,-0.0081212130496393,0.0069631783894073,0.9891728121592908,0.1463630878215327,-0.1262627284261925,-0.0178219191288885,9.81232053300824,0.0760700620513345,-0.0368032912075094,-0.0036421952214182,3.5538776992092607,4.949933390773188,2.091229457004553,1146.8344884167564,1128.272268906367,1130.633855663152,1136.7689225790928,-56.79610886883204,99.54838545570216,65.90280868000666,-118.23981411596456,157.3584629315156
20.91,-0.8951438280192873,0.1573310248486947,-0.1210544525187803,-0.0383052418454527,-0.0904821942945325,-0.1149713968595961,-0.0080067978211032,0.0068636396498231,0.9891487567779162,0.1465366489627261,-0.132694675563641,-0.0198945012756879,9.811635180871864,0.0760952060532097,-0.036911848950215,-0.0036610484412871,3.5537139587628586,4.950073240791639,2.0912176812704137,1146.8661562734671,1128.365573543504,1131.18521113785,1136.5089823769135,71.99469618481953,-0.193407410506453,336.05801062281984,-57.126333839521855,157.36066492942052
20.9125,-0.7803235920234948,0.1888678017532989,-0.268232168762105,-0.0401941000916542,-0.0908418137273728,-0.1161868729199487,-0.0078994527153986,0.0067545797207425,0.9891248270625222,0.1467090720949348,-0.138802763974478,-0.0224474145168503,9.810811890492888,0.076081466243026,-0.0370371931530934,-0.0036838040476523,3.5535499547923908,4.950212983813448,2.091207380620579,1147.1944618976806,1128.2713018693144,1132.3141457162671,1136.4832909098952,167.40836790562443,-28.16583803669906,566.6994584313888,43.61847065566466,157.36254653589205
20.915,-0.6257939469803291,0.268711443775628,-0.3874739140008782,-0.0417824652531858,-0.0909351629135043,-0.1173922553293064,-0.0077947687041971,0.0066427328395823,0.9891007635728504,0.146882037413912,-0.1444297688006968,-0.0252767937740078,9.80987657859884,0.0760303062781892,-0.0371806397003596,-0.0037097728785847,3.5533862860963468,4.95035277829037,2.091197394121856,1147.703198112995,1128.2247443533206,1134.0187084300064,1136.7270747301918,204.36447719798224,19.764135510653727,745.9421501607386,146.00361009782495,157.36447135229085
20.9175,-0.4517511638884276,0.3675827093660845,-0.4933806430058259,-0.0434244831751023,-0.0905622117374431,-0.1183338608970067,-0.0076924508695019,0.0065323287529045,0.9890764836998028,0.1470559406251985,-0.1494986449614341,-0.0282352742097733,9.808853306799008,0.0759442553033008,-0.0373426931627611,-0.0037374220912704,3.5532236374274286,4.950492810212266,2.0911858004824,1148.2162842836703,1128.3701225468676,1136.04385646707,1137.2133089603842,167.40099612548497,126.92000310278544,839.8149188174353,248.17067095164967,157.36642794976174
20.92,-0.2722700998395444,0.456053825163889,-0.5972951752366232,-0.0447534584474276,-0.089492112595832,-0.1189704310386553,-0.0075976189783313,0.0064239188508739,0.9890524523560078,0.14722736549225,-0.1540369791492445,-0.0312604622755424,9.807763653019975,0.0758266573659352,-0.037523413068837,-0.0037644173831104,3.5530626172857054,4.950633795420408,2.091171265456425,1148.5402030936232,1128.8593443688349,1138.2177830240955,1137.9679280849507,54.653604249562655,299.103433883934,928.2488933126416,380.3254857151689,157.36841772937632
20.9225,-0.0820326715736724,0.5047546062292885,-0.729086731780042,-0.0451210101451534,-0.0873400008464008,-0.1196719059920992,-0.0075094460120302,0.0063180663049603,0.989028877529382,0.1473949295424027,-0.1579691738094937,-0.0342740651945852,9.806630481573027,0.0756818921896782,-0.0377216489142955,-0.0037891848677537,3.552903964275795,4.950775975033338,2.091153960424919,1148.489552304918,1129.8656397162868,1140.6851009336324,1139.1149363889597,-113.164719624069,424.1963733535093,841.6565114228288,448.9528182466967,157.37083686668223
20.925,0.0300474955060168,0.4693515657326632,-0.8393364558001144,-0.0441719978714529,-0.0848702807047291,-0.1205345157760949,-0.0074237269839005,0.0062169707109409,0.9890058789198404,0.1475579609088419,-0.1611730344249013,-0.0371598466842803,9.805477593234345,0.0755151105366496,-0.0379354120840663,-0.0038108110547896,3.5527474828802617,4.95091927677884,2.091134341257124,1147.9743794955027,1130.980326235602,1142.426065581209,1140.2126921761835,-311.1347062633058,468.9177145037194,598.7289069368792,454.7722474213917,157.3728736761599
20.9275,0.0733169014973832,0.3381505070074012,-0.9260195739910476,-0.0423528665939636,-0.0821241518214267,-0.1221241730612151,-0.0073365440380251,0.0061247697813766,0.9889837348426862,0.1477146365727456,-0.1635533687091257,-0.0397699991277656,9.804329137374546,0.0753319113328952,-0.0381623315286353,-0.0038288824997867,3.552592802262992,4.951063114463746,2.0911134974288244,1146.9338787736008,1132.2102282888068,1143.6787454683183,1141.3887976260676,-492.77024115768455,478.1653392120048,410.1463164870345,474.0174434878133,157.37492565026326
20.93,0.0610486922940926,0.1342894912383969,-0.9647821408948594,-0.0407111457698456,-0.0799465898971042,-0.1245816963219041,-0.0072435439379237,0.0060448282654601,0.9889622703070966,0.1478662273441305,-0.1650207800882981,-0.0419783206124417,9.803210957631672,0.0751384581173775,-0.0383991138670824,-0.0038440997229655,3.5524410229732686,4.951207514579207,2.091093822649243,1145.510528289715,1133.3711529316615,1144.4767971636438,1142.5827793936223,-630.9709876992092,407.36995296878297,215.27398913721944,472.1402550069826,157.3769853904703
20.9325,0.0077625721655038,-0.1231775260848568,-0.9088057043919452,-0.0404871777949743,-0.0795574574320043,-0.1281138495272915,-0.0071437357172515,0.0059730143671083,0.9889413343092904,0.1480139798127503,-0.165546254655648,-0.0438221673392053,9.802150434979824,0.0749410150712218,-0.0386420636239078,-0.0038584235975465,3.55229234443166,4.951353102109278,2.0910768029796434,1143.7790238351051,1134.2470780536503,1144.755115414004,1143.7494989011022,-777.0230288630228,277.14293093209614,28.17313978958388,496.56364411344714,157.37904879316608
20.935,-0.0557365469584212,-0.4319941067408239,-0.7004498570784355,-0.0420980417480374,-0.081386811465377,-0.1328466630266936,-0.0070388831107797,0.0059011447794058,0.988920971706396,0.1481578479263521,-0.1651590295112247,-0.0454342935883443,9.801176938916921,0.0747455235486907,-0.0388874736822689,-0.0038745779746704,3.552146997979106,4.951500490269212,2.0910625990884166,1141.6254131454007,1134.7568675863215,1144.6176628625915,1145.065597614189,-755.7218171438446,78.8184185850398,-101.93192229960212,461.2376506786412,157.3815218828298
20.9375,-0.0818083705035865,-0.6473636220137727,-0.409791855842357,-0.0441122809322602,-0.0840256881540929,-0.1361389609645527,-0.0069253491002518,0.0058250852480081,0.9889008858118452,0.1483001434825822,-0.1638107930130134,-0.0468632647633449,9.800324732015213,0.0745574914236315,-0.0391314143413385,-0.0038959779813249,3.552004717216173,4.951649697839957,2.09105027675426,1140.000414749387,1134.6411701465754,1144.2454558025063,1146.0556871544948,-560.4932844530911,-159.4521927359986,-168.41523012913538,362.37732007302486,157.38357511598036
20.94,-0.0756646068034796,-0.7885498705227995,-0.0320910723107497,-0.0455491086050827,-0.0867539087605979,-0.1377776095110605,-0.0068026901892403,0.0057432085152011,0.9888805901092308,0.1484441914913846,-0.1615364785474256,-0.0481278422519522,9.799629824858163,0.0743816534650301,-0.0393701917476483,-0.0039253469608484,3.5518641863865823,4.951799694475715,2.0910391736346186,1138.8229467231336,1133.959606622641,1143.7755867119456,1146.8774842145551,-362.05388739274815,-405.1093465398832,-196.90910373805588,302.14727636208966,157.38561430279913
20.9425,-0.0593319103634642,-0.8619567450082632,0.4488770528895286,-0.0459560105438956,-0.0897108876192394,-0.1373818084364904,-0.0066754666719584,0.0056566254551444,0.9888601031176996,0.1485895985882771,-0.1584884381464348,-0.0492160686213426,9.799128941243588,0.0742213945641722,-0.0396012514592556,-0.0039642035436503,3.551724272434873,4.951950252174862,2.091028822555294,1138.1901453124235,1132.6156234138764,1143.2609102838162,1147.5664235363051,-75.79723833670556,-546.5671537747489,-166.00851580795853,183.56761567614757,157.3880381497895
20.945,-0.0692281632904503,-0.846068087302723,0.8101214801032754,-0.0452646092042099,-0.0919740950129289,-0.1350499114174629,-0.0065475076523334,0.0055663779085497,0.9888393153860124,0.1487368588856796,-0.1548145209055512,-0.0501232163237457,9.798861228810996,0.0740789892155441,-0.0398225440992841,-0.0040137575885767,3.551584062370763,4.952101803037343,2.0910191119267996,1138.4439605314503,1131.226770853768,1142.945544132906,1147.7953222929357,275.23237810959944,-558.5821458302105,-98.59179896702203,-3.5215756025973124,157.3900337424159
20.9475,-0.1346838065800462,-0.7593671173321737,1.0616692200631055,-0.044166421670798,-0.0941704015460056,-0.1309999015064017,-0.0064179059703771,0.0054768645406273,0.988818148083309,0.1488863408640704,-0.1505881108401339,-0.0507722311916756,9.798868288687379,0.0739555554683091,-0.0400327457485982,-0.004074970625495,3.551443428647695,4.952254071429229,2.091010501266515,1139.5663072029722,1129.822712684724,1142.7679512889808,1147.548815658292,584.4177101618951,-520.8621036379682,-54.22800169764001,-189.042966251592,157.39199872410495
20.95,-0.2558006660267908,-0.6237577893997766,1.1871747571901083,-0.0435043209271066,-0.0962323263835374,-0.1262606945580346,-0.0062838282862405,0.0053881204213733,0.9887964947459084,0.1490388429973225,-0.1458375945844117,-0.0511702626508849,9.79919198719152,0.0738512592549744,-0.04023111041181,-0.0041488086989559,3.5513019871690017,4.952406709132207,2.0910022641484676,1141.3660490822592,1128.6224603355788,1142.6744041244178,1146.850107461678,851.4495173283523,-382.37471547566525,-30.3274080379257,-386.74298356912414,157.39393513582635
20.9525,-0.4366177210242794,-0.4459716596286973,1.1477145223949443,-0.0437057577184155,-0.097752515964671,-0.1217759767243287,-0.0061444828094517,0.0053005299012844,0.98877402480051,0.149196563459055,-0.1406345379427897,-0.0513276457052462,9.799870840476787,0.0737656063416954,-0.04041732113542,-0.004235113540643,3.551159219872727,4.952559587362347,2.0909942821602194,1143.8235547896131,1127.910839107346,1142.6163142487912,1145.615100740447,1168.9056094537523,-153.04952180228057,-32.11553943809298,-637.4027192952249,157.3958344741373
20.955,-0.696076554720051,-0.2115847338508018,0.92947936491852,-0.0449472218850444,-0.0986319987818503,-0.1174997920255804,-0.0060017184980418,0.0052143223918016,0.9887505502298664,0.1493606644338524,-0.1351018713464582,-0.0512674956824474,9.800937979413854,0.0736974717841186,-0.0405917574311697,-0.0043325081609431,3.5510146513999743,4.952712269718641,2.090985663843433,1147.2105771295307,1127.857212726567,1142.5138264272273,1143.6630938652,1256.6200108226212,131.18832644270577,-46.01332811226717,-752.2339659759969,157.39806899705067
20.9575,-0.9212437203091596,-0.0202426784432169,0.6392043508299678,-0.0469856148547517,-0.0985932774040781,-0.1152482687067327,-0.0058579302488643,0.0051335616533465,0.9887260044662128,0.1495313594445905,-0.1293831323412986,-0.0509410489835891,9.80241973891135,0.0736453590703725,-0.0407553735305401,-0.0044382776343305,3.5508683225177196,4.952864412548007,2.090975993236888,1150.1066548437248,1128.5667807395591,1142.38624760823,1141.8539309105677,1100.7605908989178,437.3765484326174,-50.36922579775912,-695.4283372399478,157.3998936524916
20.96,-1.1224834973695834,0.144795045889099,0.2884221028456884,-0.0499389298638991,-0.0979845685733584,-0.1146452170187608,-0.0057155870658767,0.0050601770486764,0.9887004087907336,0.1497083715896569,-0.1236143102757842,-0.0503409931631113,9.8043343074372,0.0736076966628268,-0.0409093745284619,-0.0045491303818177,3.5507211239775573,4.953016068892404,2.0909653297602726,1152.7143800840245,1130.0440954687297,1142.2619802982383,1140.185952179001,946.0809753528044,698.4146995391776,-34.241437167139104,-591.5012243239446,157.40168050446633
20.9625,-1.282657935417124,0.276392006062254,-0.0741979689730278,-0.0534410287746712,-0.0971932586307898,-0.1151484557369657,-0.0055786305794247,0.0049907257458606,0.9886740703480636,0.1498896633171175,-0.1179402791646486,-0.0495673074498651,9.80668979280722,0.0735829394283748,-0.0410551723691302,-0.004661474798519,3.550573723774561,4.953167844007713,2.0909534539214394,1154.8370597204914,1132.058854237257,1142.215040422394,1138.8964247889464,688.8104365817532,894.5688031260902,20.600534077588694,-372.4822371648147,157.40343778239307
20.965,-1.3762086086213556,0.3592659564263018,-0.4146169497101679,-0.0573046929455192,-0.096302650735022,-0.1163993773543317,-0.0054466962305344,0.0049263450085177,0.9886473489721582,0.1500728447713132,-0.1124308791480836,-0.0486170110774739,9.809483965337359,0.0735697352368346,-0.0411941661814329,-0.0047713073240653,3.55042682011434,4.95332012121864,2.090940277533597,1156.1584322669323,1134.5169394843592,1142.3649829686265,1138.3235409931774,369.9191013959361,1118.484570077039,131.80638486840402,-50.28183323466783,157.40516267660735
20.9675,-1.4020332856052156,0.3954556774659904,-0.764504443880684,-0.0615814816250327,-0.0948484004381675,-0.1182918469397301,-0.0053239116921601,0.00486212758623,0.9886204117365552,0.1502568228551183,-0.1072194386237398,-0.0476159291315679,9.812701236659379,0.0735671414407963,-0.0413273508270406,-0.0048743000561873,3.5502812554638608,4.9534727773304015,2.0909254695654407,1156.6866552274707,1137.6512770876411,1142.874072346736,1138.6450156227731,22.219767862047647,1129.04553069138,247.32720582328884,283.2827551768441,157.4071999585668
20.97,-1.3508990550648299,0.3707827099992113,-0.9887646291088265,-0.0644690034553109,-0.0933650287518436,-0.1202262215519449,-0.005216536487696,0.0047937119121995,0.9885935561002882,0.1504395598021651,-0.1024759693772212,-0.0466834303087958,9.816312587687023,0.0735743231187038,-0.041455752293586,-0.004965635660991,3.5501373426387604,4.953625358733414,2.0909088777401688,1156.2695311062428,1140.162167137815,1143.6016189977427,1139.7399547690611,-313.3161166291471,925.8425799458131,348.77498146386307,571.3104950802744,157.4088736170116
20.9725,-1.2217164055437884,0.2938856804383668,-1.1210646158565072,-0.0671729162142808,-0.0920777814141163,-0.122817462876242,-0.0051232912948921,0.0047207367177872,0.9885671412346912,0.150618750516957,-0.0982291505911349,-0.0458368327323617,9.820277865620797,0.0735903215574,-0.0415804173630037,-0.0050411676324751,3.5499947280682247,4.953777968422065,2.0908902689920343,1155.120074644325,1142.2804899873693,1144.617947254055,1141.501568098174,-544.2075088409127,746.7596157727075,442.79982732596267,765.2652516593838,157.41052505654108
20.975,-1.0204891056018472,0.1839057149503214,-1.159642476197485,-0.0704314331038842,-0.0912498617733884,-0.1261473212542044,-0.0050407115972817,0.0046444988537377,0.9885415900094036,0.1507917120951299,-0.0944627330871925,-0.0450524821978466,9.824544729230771,0.0736138901265149,-0.0417024086371066,-0.0050972138433316,3.549852845615965,4.953930813574155,2.090869837123912,1153.5484935620368,1143.8959652166805,1145.8156181343736,1143.5662810273602,-679.9248460033584,497.5477768323879,502.61464581777534,825.8138700691512,157.41215945179164
20.9775,-0.7250222200727608,0.0519721027387973,-1.069048432159731,-0.0741471660456514,-0.0910778401463249,-0.1302248069186682,-0.0049622302127412,0.0045685049080403,0.9885171616243836,0.1509568749472836,-0.0910987657670497,-0.044252544100879,9.829049774927762,0.0736434727689987,-0.0418226016567883,-0.0051308886400908,3.5497108887001088,4.954084110762515,2.090848107851816,1151.7204504143092,1144.7682288715307,1147.1310204831434,1145.6306374485189,-803.6528942749788,200.6425588161109,576.599429401973,820.3913890057079,157.41377412210497
20.98,-0.2750182386856995,-0.1076889658067976,-0.8108541651331302,-0.0775302693019763,-0.0915412290219675,-0.1349686535726053,-0.0048854424187885,0.0044910209114942,0.9884938544319808,0.1511143941787964,-0.0881162139640987,-0.0434715840147163,9.833718685240392,0.073677292584537,-0.041941512716176,-0.0051401383719442,3.549568324554518,4.954238561009536,2.0908259698599294,1149.5302290906627,1144.8991780107608,1148.698615281383,1147.668237972388,-767.7664598360643,-96.14669610000048,551.8788206938913,629.2708095224007,157.41568891168217
20.9825,0.1461777859263922,-0.227387354872011,-0.4932038434564856,-0.0783226789808339,-0.0922829183613693,-0.1377572964416436,-0.0048095468871938,0.0044124080242221,0.9884716729752072,0.1512642640566572,-0.0855229294119373,-0.0427066527404248,9.838468365783264,0.0737132491039442,-0.042059704193829,-0.0051234281036795,3.5494249499587607,4.954393636217721,2.0908049311452928,1147.881618115127,1144.2874953910305,1149.8904145866143,1148.7769914961325,-593.8402238016623,-367.8837620681684,431.04628748569144,302.4098397837553,157.417264765401
20.985,0.556672996735249,-0.3217545650453541,-0.1198303290420674,-0.0767464866601085,-0.0930716271669696,-0.1383243279932108,-0.0047285830989569,0.0043327738995598,0.9884501085038156,0.1514100013454514,-0.0832169281284983,-0.0419437127146762,9.843210765899245,0.0737492899375693,-0.0421772469860939,-0.0050808380658746,3.549280235684941,4.954548320068763,2.0907855998853764,1146.5610279716548,1143.0597592004203,1150.8538467188107,1149.1802871713064,-484.7676173723413,-637.639543535342,352.7509799158699,34.84102687057896,157.418818186389
20.9875,0.9699147950183462,-0.3974788545862412,0.3228270346227385,-0.0729434697489035,-0.0941526223011762,-0.1368061133230906,-0.0046386942035,0.0042529294676065,0.9884289156667092,0.1515533186375987,-0.0811307744795533,-0.0411604408762614,9.847853356788056,0.0737831916203772,-0.0422944134787523,-0.0050128105396577,3.5491340037601664,4.954701802992549,2.090767843546321,1145.4577800282657,1141.0992976733544,1151.6541694861933,1148.9511966304851,-315.34232905407646,-762.0606701757165,227.854090880848,-168.85002950785295,157.42065319947207
20.99,1.2138628706296914,-0.4243004891810137,0.6448148299881103,-0.0690012182215459,-0.0953850644302276,-0.134680758539121,-0.0045383176014354,0.0041720781711628,0.9884082555012736,0.1516932535609838,-0.0792288271408316,-0.0403723938873398,9.852301621738546,0.0738126339109881,-0.0424115634423969,-0.0049201552905979,3.548987121246293,4.9548544611906,2.090750754191857,1144.9843163263838,1139.2494558495396,1151.9931171732155,1148.3360370237667,-91.68760395270515,-737.6518063662492,71.41922683105406,-286.0300150204808,157.42215554956246
20.9925,1.3356429164979216,-0.4097379594726261,0.8851981983214876,-0.0649734277293421,-0.0967873163931232,-0.1321847920586743,-0.0044317394045104,0.0040869520070056,0.98838809461025,0.151829997588101,-0.0775743447478252,-0.0396617907876513,9.856460736435032,0.0738356611354466,-0.042528322792837,-0.0048035425385216,3.5488399963755657,4.9550070905681345,2.090733216627531,1144.9993420085023,1137.4110386415239,1152.0112656203485,1147.5210465553832,86.02148715060031,-699.6562967376149,-34.09844120956901,-327.17923165093595,157.42362687462622
20.995,1.357677000624756,-0.3620739241770408,1.043994605795904,-0.0612378500985036,-0.0979957787319706,-0.1291664157439439,-0.0043247686225076,0.0039975694130183,0.9883683932246764,0.1519636488176683,-0.0762633532004894,-0.0390530253345383,9.860238471016295,0.0738505798692731,-0.0426437071022116,-0.004663492994204,3.548693022412548,4.955160714189328,2.0907144161546687,1145.4144237621367,1135.7511743658524,1151.822624967168,1146.7001408655124,253.77024689492416,-586.3416916525041,-103.97577883834197,-304.5350635773199,157.42507003311195
20.9975,1.2724579978245587,-0.2810355379013562,1.0981788818415987,-0.0579167664577091,-0.0987999354605272,-0.1258068119343833,-0.0042221115140406,0.0039037729614225,0.988349009518877,0.1520950081702838,-0.0753639585686073,-0.0385728600831406,9.863548168317731,0.0738560215950617,-0.0427559956402468,-0.004501257521439,3.548546588624712,4.955316742162445,2.0906950581555064,1146.2681932429766,1134.479330183262,1151.4913867261569,1145.9983712374967,455.8621866012797,-440.36607073439546,-150.90854018524897,-269.0186896968579,157.42647619152893
21.0,1.068898965719508,-0.1564167246218819,1.0489189684925535,-0.0544584754066946,-0.0993934587492801,-0.1222059417045193,-0.0041231922039613,0.0038107410353328,0.9883297057998456,0.1522254953022892,-0.0748522593144528,-0.038130708117168,9.86631129585979,0.0738509306121482,-0.0428630088020447,-0.0043189498947214,3.548400836572001,4.955475496987606,2.090677142535119,1147.6937346951427,1133.5493440121809,1151.0680822662418,1145.3550474170283,568.2071493562764,-234.81532480133677,-144.4528530152354,-206.2472425341493,157.42811677031816
21.0025,0.8328992854918714,-0.0379010962912323,0.925815386570482,-0.0523009753613061,-0.0996720126160594,-0.1197913502125959,-0.0040243537386548,0.0037194773245296,0.9883100013541356,0.1523582895034296,-0.0746275984445465,-0.0377108143901612,9.868459542978009,0.0738347127878188,-0.04296216969446,-0.0041202647851145,3.5482553633536305,4.955636469734718,2.090661769067688,1149.1092289897595,1133.3052535592547,1150.7691224610803,1144.9671350248257,583.7268391070918,1.3185900375449713,-100.269562378864,-137.02062993336764,157.42944187753537
21.005,0.5484730676789087,0.0862516469033149,0.7367469241492101,-0.0509915261485988,-0.0996416815409638,-0.1179110677417316,-0.0039204877062001,0.0036316777168546,0.988289568914486,0.1524955962581597,-0.0745600139066285,-0.0372817108021993,9.86993586343644,0.0738070673533137,-0.0430512749250711,-0.0039095337062834,3.548110169803582,4.955798413487465,2.090648909161109,1150.6123688906775,1133.5559369623686,1150.5667344543476,1144.6699442673616,592.5341848325658,160.86669949303104,-65.7568693522211,-114.99124827262236,157.43071962176472
21.0075,0.2360426079218171,0.2075007631860275,0.5068047787860942,-0.0502022235533595,-0.0992611292205456,-0.116412709436467,-0.0038105802428529,0.0035473630129572,0.988268545389595,0.1526365410391654,-0.0745924148791904,-0.0368582648808688,9.870694905228481,0.073767872889429,-0.0431289855482254,-0.0036909565294108,3.547965975975538,4.955960922342055,2.0906378441102014,1152.0718999139217,1134.1095870567196,1150.4403381143193,1144.3921787834627,547.2363926095496,257.7936431421722,-38.483951823562485,-117.7048083812986,157.43195528070945
21.01,-0.0994346703660386,0.3161745198730862,0.2432208653092147,-0.0499129881911216,-0.0983971302154367,-0.1154678418292729,-0.0036953851694951,0.00346580432722,0.9882469329059884,0.1527811037731617,-0.0746988921957775,-0.0364763253838274,9.870704484586899,0.0737174592255496,-0.0431943638628126,-0.0034685828118228,3.5478228932521327,4.956123480606532,2.09062745277526,1153.3485508537267,1134.84490517808,1150.3743146952295,1144.0814202254548,492.9106107113128,313.5589344534479,-25.9712456798349,-153.8636650127352,157.43313696628647
21.0125,-0.5147790867487311,0.4232270414565529,-0.0912808744211131,-0.0503901934552868,-0.0968653850545821,-0.1150157586632829,-0.0035778248775358,0.0033870556737605,0.9882246227429708,0.1529299189208626,-0.0748980408724159,-0.0361629553947995,9.869946082449129,0.0736564704128108,-0.0432469698255842,-0.0032459934465792,3.547681312521343,4.956285661268593,2.0906173501521406,1154.5364529674775,1135.6773817289863,1150.31048188592,1143.6228604583991,365.8592131661681,262.5390031475558,-29.180187899015785,-185.58090190526,157.43448877717023
21.015,-0.8579002280631339,0.4909592619173744,-0.3682607944991837,-0.0514586671510333,-0.095368864446443,-0.1151787134419462,-0.00346419456442,0.0033080733598542,0.9882018268958934,0.1530815370363532,-0.0752654681923604,-0.0360141936733326,9.868415225984954,0.0735854528663219,-0.0432872521739598,-0.0030265659062445,3.547541088347608,4.956447670864267,2.090607888253409,1155.1778469195572,1136.1576001938176,1150.2284137557347,1143.1535157159287,178.06826096598328,119.13840411692306,-47.416568069523535,-205.46985470649307,157.43555758125112
21.0175,-1.1741293740704226,0.5407718492525408,-0.6184535757726836,-0.0534453751766083,-0.0939549015448261,-0.1159536535166005,-0.0033604395598082,0.0032282609150152,0.9881789406591298,0.1532332742787638,-0.0758783827434145,-0.0360744355455175,9.866121876134484,0.0735047217531659,-0.0433164648351642,-0.0028133854361712,3.5474015726717854,4.956609478107405,2.090599486676102,1155.426794272308,1136.2730737495715,1150.0733990455724,1142.595511184866,35.717780475722805,-22.341834526564423,-77.82202237437289,-234.5536796753561,157.43656376773836
21.02,-1.443529277850174,0.5828490221370984,-0.8226562295003929,-0.0564509273152845,-0.0927742089446204,-0.1175190706093118,-0.0032668479405714,0.0031472183094194,0.9881557071440368,0.1533867720298806,-0.076705697308131,-0.0363638085544646,9.863091427030781,0.0734146969993894,-0.0433358137180277,-0.0026101529593787,3.547261821482792,4.956770700841494,2.090592347253061,1155.3564358219355,1136.0458910211848,1149.8393036438629,1141.980747317552,-97.46337171452188,-165.60008386730823,-111.08944201457624,-251.87116628222165,157.43751621253963
21.0225,-1.6222206005782076,0.6242039719153065,-0.9382654506167376,-0.0608065168835341,-0.0916951886471853,-0.1203023428305266,-0.0031798239384933,0.0030654897136749,0.9881320798802674,0.1535423844630774,-0.0776454715720517,-0.0368670032144114,9.859363763389277,0.0733154170747755,-0.0433472251420923,-0.0024207846039238,3.547121168691441,4.95693143271976,2.090586245664562,1154.9394774137356,1135.4450733302351,1149.5179518354996,1141.3361553534553,-246.15149929178327,-322.45390595882657,-148.4355176893282,-277.5774820532605,157.43840191493143
21.025,-1.693887209233349,0.678507171042192,-0.9378488460020652,-0.0674057736171728,-0.0899177344603786,-0.1249277320798867,-0.0030974167473835,0.0029844090764269,0.9881081764137558,0.1536993641798551,-0.0786326745678931,-0.0375521077931036,9.854991320029784,0.0732066781806688,-0.0433531900321718,-0.0022486170095618,3.546979532186908,4.957091625942294,2.090580517076943,1154.1256783254762,1134.4336214913899,1149.0971260554159,1140.5928599072852,-332.3157340068271,-391.6436668565763,-142.32514526191255,-257.92316703846734,157.43938542614904
21.0275,-1.6224752440192227,0.7283510652506078,-0.8108717769161827,-0.0733400119327023,-0.0878331919160619,-0.1292222162015076,-0.0030199713210778,0.0029039859071573,0.9880837314401592,0.1538594124106299,-0.0796457593504852,-0.0384136787340479,9.850038020883678,0.0730884905370327,-0.0433560926796643,-0.0020965163867867,3.5468372699808914,4.957251148772404,2.090575526281628,1153.2778987437018,1133.4868549959526,1148.80632610919,1140.0465395182632,-346.167581297437,-367.8278436713576,-76.86930113801901,-193.58068737132484,157.44013762808297
21.03,-1.4298246256393636,0.7864350762644271,-0.571882053815475,-0.0784079840488065,-0.0856669760706149,-0.1326191356741593,-0.0029501392984431,0.0028213615935077,0.9880583760849568,0.1540249146320169,-0.0807025111837075,-0.0395021715240767,9.844578055432688,0.0729610531109046,-0.0433583310219981,-0.0019670323161312,3.546694724677109,4.957409857794176,2.090570805451713,1152.3948404189891,1132.5944822730335,1148.7127795497258,1139.6249564704287,-335.23661170558927,-328.73887725874914,14.111568186311239,-142.1732418088878,157.44081893505054
21.0325,-1.169598613853206,0.8587566817605455,-0.2800463855200824,-0.0818364604403755,-0.0840549974620396,-0.1342315395609027,-0.0028929917924338,0.0027330813320169,0.9880322874841416,0.1541947137532814,-0.0818694757307802,-0.0408792560081566,9.838694141267416,0.0728244655897107,-0.0433628120510545,-0.0018621357527509,3.5465523410439697,4.957567726346796,2.0905661886312266,1151.6017156851742,1131.8431606096592,1148.8768839501215,1139.3356733092187,-268.54619784672536,-252.12268570835943,141.52782405483865,-78.27569145303379,157.4414412628823
21.035,-0.8804906379804307,0.9568379871725118,0.009536897024822,-0.0831564401369544,-0.0829948934305404,-0.1334552138468377,-0.0028476170182478,0.0026386630425019,0.9880057207083784,0.1543672070634203,-0.0831098248836433,-0.0425237437650499,9.83247744734118,0.0726789941179747,-0.0433723768486884,-0.0017839465514486,3.546410477743107,4.9577246878286205,2.0905623275251988,1151.052109429756,1131.333868844492,1149.42041867,1139.2335780131637,-161.1389178639541,-160.10778056971495,328.40697207131166,4.1402234763587975,157.44199287435157
21.0375,-0.5577474942274045,1.0997167634432532,0.2765377874611167,-0.0833875659416294,-0.0810240698277786,-0.130975773331805,-0.0028093228995969,0.0025368326001532,0.9879789793652862,0.1545405748628894,-0.0843155815839638,-0.044412274326786,9.826025594575562,0.0725250831827317,-0.0433896138582443,-0.0017348194972534,3.546268516889875,4.957880663211598,2.090559673197817,1150.796021095854,1131.0426217068102,1150.5189188104791,1139.3563744266007,-21.196390032177657,-54.0917484953405,466.2061633532194,88.98029925646321,157.4425743800119
21.04,-0.3317191871318089,1.2222961207815854,0.3953116301434043,-0.083128972640842,-0.0781870634228727,-0.128555133385327,-0.002774056253934,0.0024282093360371,0.9879526564763452,0.1547111070777692,-0.0854022888730738,-0.0464813320518742,9.819439539391809,0.0723632216585323,-0.0434169561794059,-0.0017163711225044,3.5461258622022,4.958035334810927,2.0905579651651047,1150.9461274795951,1131.0634101020153,1151.7514494867655,1139.6784795094459,123.9357200195419,54.513721316708974,532.9234947663887,175.31902501440376,157.44299348874816
21.0425,-0.1524974530948298,1.321032402130486,0.3915698800923715,-0.0829025018915826,-0.074449927685561,-0.1261706128369176,-0.002733603122769,0.0023143882073887,0.9879268594540104,0.1548782449074435,-0.0862134663907581,-0.0486328375762323,9.812822655949523,0.0721944260970349,-0.0434557460495082,-0.0017300679543189,3.545982679015383,4.958189250137685,2.090556822069957,1151.4156996959516,1131.3151903133935,1153.1835362843103,1140.2329695516723,245.148261838278,143.1551298066274,633.453650985524,291.74573095709627,157.44334715461818
21.045,0.0289803579821945,1.3877647547167467,0.2614460903535954,-0.0830787349626478,-0.0697332026133019,-0.1237062590384218,-0.0026889083953454,0.0021931384232849,0.9879015178179776,0.1550424326857395,-0.0867646905428802,-0.0508689814964819,9.806275702507342,0.0720201903348518,-0.043506335254507,-0.0017759211343807,3.5458398436609806,4.958342868164535,2.09055568329453,1152.1718687887872,1131.7791857510488,1154.9187177416948,1141.137208164232,273.383672526288,175.01763408853392,602.8685424364829,360.7654077619636,157.4436996768216
21.0475,0.1727587686285471,1.3922018135032987,0.0794712817340643,-0.0833602370863157,-0.0658875965998374,-0.1224818954819615,-0.0026438762295847,0.0020646451128928,0.9878769221656348,0.1552017199219567,-0.0871421266292094,-0.0531534053299467,9.799895616281638,0.0718422105454482,-0.043568508613922,-0.0018525812078977,3.5456986360416214,4.958496831556662,2.090554161640094,1152.7826180585828,1132.1902784838362,1156.1978789964924,1142.036796590482,194.0988437078817,140.05373457760527,433.2770587205639,370.8920209562449,157.44393679995883
21.05,0.3286100152405366,1.3439372570296984,-0.1242054524929291,-0.083648407851335,-0.0624523510113141,-0.1224374124731221,-0.0025976339573355,0.0019318138557722,0.9878530871131704,0.1553559638349937,-0.0873534517375646,-0.0553844264237039,9.793775210595976,0.0716626540971813,-0.0436409034893011,-0.0019583139128267,3.54555997804177,4.958651742115173,2.090552142966114,1153.1423630073264,1132.4794544239367,1157.0851030352972,1142.9916682690127,72.51381396714278,76.95878233162757,259.92287588615346,374.06369078884336,157.44411918300366
21.0525,0.5004332464984569,1.2567402747293694,-0.2987449994741204,-0.0838528664088746,-0.0597505412374091,-0.1233357858124139,-0.0025477482403377,0.0017998211452431,0.987829980955962,0.1555053245188488,-0.0873887193401263,-0.0574150062165142,9.788000465320179,0.0714838382093181,-0.0437213849708492,-0.0020906670996769,3.5454245571640657,4.958807768264466,2.09054978485994,1153.1451871284187,1132.5750723954943,1157.4974933759236,1143.9071150444272,-106.74551546660344,-17.912238543389247,20.543793322489808,337.10808152493314,157.44425908934895
21.055,0.682454686848921,1.12593215629263,-0.3835059129705076,-0.0833120155284897,-0.0577932610307341,-0.1253168667941546,-0.002490534180522,0.001671450434193,0.9878075356692332,0.155650252482886,-0.0872116202796742,-0.0591453160903323,9.782648775019325,0.071307936153523,-0.0438072758725901,-0.0022469676050775,3.5452918985362065,4.958965032664995,2.090546855573057,1152.6086354299935,1132.3898932312195,1157.1878220019096,1144.6772086766373,-363.87882216125,-134.7997259604922,-329.6073064882622,287.0803881944201,157.44435111671956
21.0575,0.8804434598832775,0.908980727536894,-0.3276107718862298,-0.0812141659606731,-0.0551966240077391,-0.1289309199434387,-0.0024256712472112,0.0015475579296878,0.987785672743396,0.155791237176995,-0.0868492016767682,-0.0605286624109997,9.777786158788423,0.0711366759801146,-0.0438956647984029,-0.0024237188808364,3.545161445863956,4.959123658010159,2.090543005701618,1151.3257930176128,1131.9010737656922,1155.8494568434828,1145.342516985399,-560.0206163039024,-197.5796144316912,-658.4064265937686,195.4259594153361,157.4444102771007
21.06,0.997418262524276,0.6625693508646198,-0.1342109658222411,-0.0782777435479984,-0.0525801396027157,-0.1324104585245765,-0.0023524636413599,0.0014278518443009,0.9877639190012732,0.1559312975920772,-0.0863205996682343,-0.0615461537733508,9.773466798654864,0.070971320078315,-0.0439833234301595,-0.0026170721781029,3.545032328055996,4.95928368185825,2.0905371737140155,1149.8085323484745,1131.4019951590615,1153.8957898689412,1145.6543384737136,-661.3349443651209,-172.8638786781974,-942.7415926286867,77.48462726278099,157.4444196552793
21.0625,1.032368307005621,0.3328158314230598,0.186911157549139,-0.0746160265192773,-0.0501151352376154,-0.1347031908022072,-0.0022734074657668,0.0013135138714018,0.9877416639282318,0.1560742657683864,-0.0857125967933496,-0.0621669948608722,9.769731211211766,0.0708124158468599,-0.044067204060003,-0.0028222597787116,3.5449034747325165,4.959444463212999,2.0905288333785004,1148.0191182957878,1131.0367543723014,1151.1357488803403,1145.7299401217128,-724.148052799085,-87.47728600283226,-1210.3071063062719,-1.7557048810422315,157.44439073776513
21.065,0.9870779578002848,-0.0651770149036918,0.5611821153358936,-0.0708320282402929,-0.0482506845823756,-0.1346335606238522,-0.0021925081344049,0.0012040045355979,0.987718645203994,0.1562217661781015,-0.0851359883342982,-0.0624045708819332,9.76660627725368,0.0706595188167523,-0.0441450125059195,-0.0030344324017319,3.544774461245988,4.959605701441521,2.090517879832501,1146.1877920844772,1130.964608729047,1147.8442543374067,1145.6455599493083,-697.8879351706861,74.0040582935,-1390.0980631939583,-62.09789752462128,157.4443322572405
21.0675,0.8501924328319262,-0.52272255842292,0.9115585785380143,-0.0672323823280869,-0.0476621497079849,-0.1314630272774792,-0.0021097042409912,0.0011025111182786,0.9876949752106248,0.1563730849048342,-0.084633241097711,-0.0621941042120609,9.764106384687928,0.0705112358245352,-0.0442153238193747,-0.0032490772185919,3.5446447987551624,4.959767229625094,2.0905051403377635,1144.529678619935,1131.4067746637688,1144.185258564372,1145.4194506340896,-642.2864646397925,323.15653326652017,-1603.8670822210413,-121.33419001554698,157.44424063477197
21.07,0.6140806867897917,-1.0832469626955092,1.1993959408351216,-0.0640738057261071,-0.0493286129459433,-0.1255743434902219,-0.0020201401608981,0.0010151056280307,0.9876708800000886,0.1565268379565132,-0.0841607340754876,-0.0614066996020811,9.762233978324415,0.0703655065189225,-0.0442773373822904,-0.0034624398897482,3.544513826590209,4.9599283916361525,2.0904921578877205,1142.976359761279,1132.5803913953791,1139.824918926303,1145.0388889992307,-475.4526149334948,515.6541373111941,-1521.2362109792996,-152.58262902999755,157.4440956691139
21.0725,0.3987406273456845,-1.5043577551343918,1.2790398977033577,-0.0630327402228317,-0.0530318162738117,-0.1201060299796025,-0.0019152170357845,0.0009450179460524,0.987645929359944,0.1566858492420325,-0.0835904478917872,-0.059963446525466,9.76098015183846,0.0702202374979402,-0.0443300539452075,-0.0036720976659471,3.5443813365790966,4.960088749344553,2.090479545448523,1142.1524155452664,1133.985045350326,1136.5790775094715,1144.6565374889394,-225.5121747652532,593.5134135488896,-1138.3987461177176,-162.80542563894016,157.44394826302076
21.075,0.2190482655142404,-1.8123137490808223,1.1749660407322056,-0.0633686365611435,-0.0585287118468564,-0.1148572360908619,-0.001795454042013,0.0008880289360976,0.9876200691593368,0.1568504814765685,-0.0829431633722424,-0.0579617195856927,9.760322848585009,0.0700730266768153,-0.0443729906050495,-0.0038757933547217,3.544247613746227,4.960248191029618,2.0904673936879647,1141.8487988874529,1135.5479584631232,1134.1329251957159,1144.2248618710364,-44.277410229651366,596.2068731141065,-801.6302086971566,-177.8599044211559,157.44377655860637
21.0775,0.1025051128913232,-1.9904385648772744,0.9365410530374062,-0.0643234045171213,-0.064781736248394,-0.1103306011409518,-0.0016687981729128,0.0008348641034012,0.9875939894411652,0.1570163342883436,-0.0823624704043811,-0.0556230208182531,9.760228642609034,0.0699211820381497,-0.044406293605571,-0.0040712749948096,3.5441128589896485,4.96040694009039,2.0904551992410574,1141.9310284941182,1136.966079715896,1132.5709264659863,1143.7672379668338,102.06951423032712,470.4323776290816,-386.85367626106415,-181.37487097151092,157.44358735415946
21.08,0.0840577144181135,-1.9929911633088175,0.5908133690819664,-0.0655473818229622,-0.0712971988976054,-0.1076899879995183,-0.0015433522887688,0.0007804586947108,0.9875682129134032,0.1571800438941258,-0.0820025927135448,-0.053092957338919,9.760655647420288,0.0697623923964642,-0.0444298009587562,-0.0042560949406495,3.543977816647248,4.960565541771301,2.090442461777205,1142.3591464586048,1137.9001203512698,1132.1986568144096,1143.3179875161784,229.3096346694257,250.56629779988253,99.70280434192483,-176.22535026674865,157.44338046586375
21.0825,0.175690009880883,-1.8025804991485168,0.1486219443032775,-0.0665999955235653,-0.0786662157678928,-0.1075609679280703,-0.0014251932928557,0.0007234190164392,0.9875430469494358,0.1573396228727548,-0.0819849106923523,-0.0504446919320196,9.76155549104239,0.06959487689518,-0.0444428978625043,-0.004427916542111,3.5438433111017105,4.960724985042998,2.090428592644052,1143.077576667465,1138.2189112048952,1133.069440487696,1142.8861112155003,268.87131128847506,-19.57318507584594,500.1796984525385,-120.87437918583095,157.4431164453131
21.085,0.3282075374896855,-1.5131913071365757,-0.1718867670310585,-0.0665584534876905,-0.0837179430854659,-0.1095975425011817,-0.0013183011275706,0.0006651624746676,0.9875188589191444,0.1574927291056387,-0.0823943725439833,-0.0476945184464099,9.762874869534308,0.0694172948984087,-0.04444479378522,-0.0045846758678992,3.543709561392953,4.9608854772422735,2.090413534435516,1143.7035030150469,1137.8022544258906,1134.6995553066715,1142.7136156202491,227.5975788594878,-274.18735925411573,767.2547396193006,-8.809057653020359,157.44288691744092
21.0875,0.522917329953762,-1.1464752878731403,-0.3826807272312459,-0.0652410487536808,-0.0868836469566626,-0.1123560649239222,-0.0012266614263785,0.0006042454264443,0.9874956974472158,0.1576390367497781,-0.0833030978675648,-0.0449176407425223,9.764556974441655,0.0692289882404311,-0.0444342789305683,-0.0047250476886704,3.5435770411664422,4.961046937509026,2.0903980704633414,1144.2155645617631,1136.847974408624,1136.9057141857943,1142.8420659272351,177.84127142116532,-476.26197433265054,1006.1622652188544,133.01008580508923,157.44265203857603
21.09,0.7598875831885262,-0.6954828435055822,-0.4834136089914981,-0.0624707838938467,-0.0884440739109106,-0.1150499382036482,-0.0011479714118591,0.0005384876269006,0.9874729062128316,0.157782685154437,-0.0846561035979122,-0.0421877734383343,9.76654453373843,0.0690301195948312,-0.0444095912485987,-0.004849057743195,3.543445604352386,4.961208928524826,2.0903818685048057,1144.5927093721525,1135.4209445542278,1139.730366632765,1143.3786660492747,92.51069217363714,-519.9775055568023,999.079841720612,246.36920758503396,157.4423691205647
21.0925,0.9346576288535994,-0.3610715968870933,-0.4453375806046398,-0.0598445162364901,-0.0882207636140531,-0.1165153877892959,-0.0010800832241392,0.000465983509284,0.9874502709017856,0.1579250448103642,-0.0863990203083602,-0.0395752073938789,9.76878000201851,0.0688210176102802,-0.0443695882426847,-0.0049572263620033,3.5433157582270582,4.961370663109769,2.0903649162353495,1144.6781180226312,1134.2480868808404,1141.9011133943964,1144.07391196516,-9.41872249623162,-424.7302251184855,770.7832766152192,289.72652310022875,157.4421357673205
21.095,1.0674818970793092,-0.1086842423792965,-0.2993117554563641,-0.0574486765394896,-0.0870569899887981,-0.1175029557381669,-0.0010189566102629,0.00038558760186,0.9874275200082032,0.1580678624493505,-0.0884404840224879,-0.0371309006714564,9.771207598566644,0.0686023206371346,-0.0443134124460457,-0.0050508239975801,3.5431884418278865,4.961532340669892,2.0903479969935654,1144.5456157596711,1133.2972934286358,1143.5842830158404,1144.8272986647755,-78.34083530671445,-334.51689893065407,567.5428322048666,270.0825574010278,157.44190822058266
21.0975,1.1559817862600563,0.0672268349205016,-0.0806792173394387,-0.0549571469810467,-0.0855555228742355,-0.1183229624293651,-0.0009603968395681,0.0002998215330939,0.9874044692608592,0.1582123373390098,-0.0906948549626933,-0.0348345253844727,9.773774121832925,0.0683747037089111,-0.0442407355498819,-0.0051313440367182,3.543063089211018,4.961693773390633,2.0903323682622315,1144.2864138460975,1132.5755023861875,1144.7388275554204,1145.4243247521647,-114.03877499882206,-247.6334535110352,327.7389421433924,151.53580888128522,157.44168748327803
21.1,1.178175481261,0.1661605451579925,0.2016852109145984,-0.052021573692297,-0.0840292564466297,-0.1187270448405138,-0.0009009902703366,0.0002127454327343,0.9873816390956504,0.1583552609103875,-0.0930936379958613,-0.0326364091325594,9.776430054165303,0.0681383112366496,-0.0441523552249292,-0.0052004974278077,3.5429387864254487,4.96185462838585,2.09031839378645,1143.9754218846767,1132.05912616108,1145.222977726558,1145.5849777091823,-117.64903397613647,-216.45199699341657,71.55512095775126,-75.86447306013415,157.4414767979184
21.1025,1.1113043633506805,0.2428563050069982,0.5742889154426529,-0.0481803268287722,-0.0831282537779244,-0.1181114101232746,-0.0008365633913756,0.000130363303686,0.987359670083156,0.1584926775761608,-0.095557041516127,-0.030444614062052,9.77913080107404,0.0678929221936387,-0.0440497140816032,-0.0052601184713826,3.5428149438142613,4.9620142080084975,2.090306168625,1143.6981686762172,1131.4932424012206,1145.096603160209,1145.0450023868643,-62.15122756804121,-227.2809987900016,-145.14334014364226,-330.27446072039515,157.44123724761107
21.105,0.969366227493726,0.3168070193091228,0.8767434747320018,-0.045079274395967,-0.0837431035455678,-0.1163282020222835,-0.0007685941129178,5.474333916203685e-05,0.9873390118803944,0.1586217880628301,-0.0980995271093656,-0.0282578129956066,9.781836258535485,0.0676381107141382,-0.0439344950849386,-0.005311752207298,3.542691414901853,4.962172392820718,2.0902958726618515,1143.6646657468368,1130.9227211671302,1144.49726102584,1143.9336054055807,52.01773129690149,-272.59862004502486,-315.58525728130235,-560.2549035358014,157.44104936467767
21.1075,0.736789061131519,0.4460353300212406,1.1248595849970506,-0.0422951216197376,-0.0851504750774783,-0.11309071677389,-0.0007021846949991,-1.7915072287102025e-05,0.9873195258702488,0.1587434322771874,-0.1007847037393207,-0.0261963524630147,9.784511807784842,0.067373423559506,-0.0438081350054526,-0.0053568252627118,3.5425678302537995,4.9623297027109885,2.0902863451000404,1143.9582573327018,1130.1302493009948,1143.5186768738015,1142.2437278691839,183.5418569312789,-358.038093041276,-434.41596288061646,-732.3911393712117,157.44087392512196
21.11,0.4365381499792688,0.6320654347692203,1.2986588885922037,-0.0401186440857371,-0.0861119760769536,-0.1089389574963485,-0.0006395585744309,-8.950969777224561e-05,0.9873009301799042,0.1588593545393637,-0.1036235294469838,-0.0243307511782314,9.787129244410893,0.0670981108186267,-0.0436721741666163,-0.0053963735659309,3.5424437558433874,4.962486085407797,2.090276469369804,1144.582375031493,1129.1325307019242,1142.3251812114374,1140.2716497087251,331.8964513116249,-434.93552986260073,-506.9271352453696,-790.3015134156003,157.4407089091552
21.1125,0.0750390046537751,0.8645653004311977,1.363308460527014,-0.0392596790075365,-0.0855406264357322,-0.1045553358371288,-0.0005793304318593,-0.0001599866483267,0.9872831099884514,0.158970280271377,-0.1065600739409627,-0.0226774087785105,9.78966680151908,0.066811041062487,-0.043528409454276,-0.0054310723423402,3.5423192498146894,4.962641186291991,2.090265264741656,1145.6177395892596,1127.9555716516822,1140.9840411975752,1138.2922203021067,536.5592008652112,-522.0090679732097,-598.2261945785135,-780.0591544542486,157.4405570837037
21.115,-0.39388702964279,1.1352989736611048,1.3135824146672357,-0.0398415609540875,-0.082483563213391,-0.0998075745722801,-0.0005182978032261,-0.000229023930012,0.9872661410157416,0.1590757628371255,-0.1095008335797464,-0.0212362740375659,9.792108630346982,0.0665108283850167,-0.0433787618767525,-0.0054613178327587,3.5421942723309376,4.962795608875092,2.090251815283459,1147.2651710358205,1126.5224853620568,1139.334050238543,1136.371353936452,649.7127726980963,-494.40145124059035,-595.0966657831306,-569.005451266798,157.44039175019037
21.1175,-0.7867546539412384,1.300747497414774,1.178783408216686,-0.0414850318293375,-0.078099962581344,-0.0964054996421417,-0.0004560321740916,-0.0002993686755805,0.9872500662258632,0.1591755396633655,-0.1123933531842264,-0.0200699320291329,9.794443681695826,0.0661961329631339,-0.0432249453255275,-0.0054873012612994,3.5420691662487727,4.962950199830729,2.0902359316707053,1148.8663034527494,1125.4835643954796,1138.0085578686603,1135.4471930457732,652.642124129118,-345.328378598038,-503.7691201849249,-182.97668286044427,157.44026977294956
21.12,-1.1527257032398674,1.3541371897923056,0.9715814552837506,-0.0440992807391576,-0.0728924677945561,-0.0936928599300782,-0.0003901238167525,-0.0003739430644001,0.9872341613463864,0.1592741018991254,-0.1151440730904915,-0.0192343329705876,9.796666396468323,0.0658661616906355,-0.0430678866971498,-0.0055095948615796,3.541943990965092,4.963104766265155,2.0902182873402575,1150.5283816564652,1124.7958434690668,1136.8152046376192,1135.45647052215,646.6301302710158,-198.51420196495692,-446.4908056943365,166.94221962833265,157.44016697689952
21.1225,-1.4780245216414796,1.2994821145216404,0.7261842283789722,-0.0473656034388799,-0.0681239519670118,-0.0917462581236868,-0.0003225871508743,-0.0004558718274253,0.9872181244581316,0.1593732954195687,-0.1177421268174423,-0.0187975000958428,9.79877469784875,0.0655202281524378,-0.0429087529337568,-0.0055287075187758,3.541818801432704,4.9632586292184975,2.0902004659156144,1152.0994541041039,1124.4909933856552,1135.776103840189,1136.2819041439147,576.4666342487327,-24.958824764012626,-369.766620540241,503.1434093880853,157.44008267932523
21.125,-1.7351246604890511,1.1238280415583923,0.4611343300086162,-0.0516128683667931,-0.0643904106100681,-0.0907764223654642,-0.0002566861047004,-0.0005477542110038,0.987201664550566,0.1594748960852219,-0.120201201925204,-0.0188166522323252,9.80077047786284,0.0651580555563245,-0.0427486164748215,-0.0055455256088327,3.541694509000204,4.963411393784922,2.0901839045535513,1153.4107148277085,1124.6710493452467,1134.9663715349184,1137.97218756909,490.2574661370402,176.85622525523334,-290.350338796167,877.836340834216,157.44002445007985
21.1275,-1.945223880969912,0.8082097903816551,0.1483705439176112,-0.0577872763967513,-0.0608794516872793,-0.0905256125835599,-0.0001914091713589,-0.0006489979114325,0.9871844163120808,0.1595811612494841,-0.1224619058682018,-0.0192699866864068,9.802660566445407,0.0647797970283246,-0.0425883703929327,-0.0055615990710012,3.5415712399740693,4.96356270840577,2.090169166719204,1154.5507414347903,1125.3752745119318,1134.3243521462075,1140.671085848088,337.27274332547836,319.523546830187,-167.94102649854426,1038.804557179062,157.4399902911744
21.13,-2.031713487657424,0.4937254284323542,-0.0943742934780362,-0.0633976435643669,-0.0590167531996852,-0.0908183571814612,-0.0001211092705856,-0.0007569625925849,0.9871665101107644,0.1596912990509888,-0.1243818429418495,-0.0200770522303646,9.80445664757315,0.0643856781181373,-0.0424290996966273,-0.0055790655793357,3.541449005224773,4.963712929633718,2.0901567530487015,1155.0970785443355,1126.2686670793976,1134.1266664024258,1143.1662103549843,136.69969816817675,393.5534689050983,7.391918161103255,973.1516325503552,157.43999579861205
21.1325,-2.0315290456960344,0.1756832764158377,-0.3102768098260579,-0.0686957980024612,-0.0588570558586283,-0.091324673248566,-4.177189332155996e-05,-0.0008670763500397,0.9871483940955746,0.1598025678777264,-0.1258576867414656,-0.0211214823690074,9.806172845660221,0.0639761093914071,-0.0422718420135918,-0.0055996327352342,3.5413274006251463,4.963862566508265,2.090146138464056,1155.234239925631,1127.3430418564567,1134.361311737013,1145.5368440108389,-5.445964112274793,440.14595430758385,174.25131248542309,879.6449213773078,157.440041121664
21.135,-1.9716734134954403,-0.1097901158423929,-0.5004678988385522,-0.0732814874183051,-0.0599485469027998,-0.0920478939559473,4.467656278564559e-05,-0.000974639127064,0.9871304564618728,0.1599125874675575,-0.1269042612895361,-0.022300836204238,9.807823740167068,0.0635519214135528,-0.0421172273045693,-0.005623978122922,3.541206573880598,4.9640119213683835,2.0901371541123908,1155.069848723774,1128.4693968509366,1134.9979229648532,1147.564434961873,-127.49144156435058,441.95474297261774,350.9571393159847,690.6064186712239,157.4401223975648
21.1375,-1.8558882387043996,-0.3270301626194105,-0.6537139558043821,-0.0773953523165878,-0.0616876180648016,-0.093320722656973,0.000138303133522,-0.001081341572818,0.9871123224716836,0.1600236443529403,-0.1274819030576291,-0.0236301418702077,9.809426420168032,0.0631146560484514,-0.0419648890361298,-0.0056530672703295,3.541086924502366,4.964160726161031,2.090128592628204,1154.5967827178094,1129.5528155713196,1136.1160974335924,1148.9898761041943,-268.3644038840691,442.86942331541184,585.0265076812575,470.7781784607532,157.44025001082113
21.14,-1.6653944516255268,-0.495432837524431,-0.7836028332766631,-0.0823183468323751,-0.0639394307853878,-0.0955553106270389,0.0002347572116093,-0.0011912033363991,0.987093523010171,0.1601386048696962,-0.1276338487289145,-0.0251827546438167,9.81099679330248,0.0626662890029458,-0.041814081783984,-0.0056868615352564,3.540969068547017,4.9643093754209655,2.0901191454660215,1153.728026704354,1130.6837439675132,1137.923055503259,1149.9183258541764,-363.68303112708,371.57351340705736,716.4615990813645,218.11444056168267,157.44045984659547
21.1425,-1.468833434419,-0.5639247761498488,-0.8385140788495585,-0.0861675524872689,-0.0656826208624334,-0.0977606990889875,0.0003239529343957,-0.0013104758731424,0.9870739719510923,0.1602579632749193,-0.1275126619682082,-0.0270922086341256,9.812547861280082,0.0622089387537497,-0.041664141076432,-0.005724208452593,3.540853250786938,4.9644586083841,2.0901078724072044,1152.7783675621731,1131.4106831383558,1139.6984054290012,1150.0804483070033,-422.4091809597597,231.89950914093123,731.5925081317891,-36.95392891573473,157.4406837213254
21.145,-1.2384430290356023,-0.575356845788024,-0.8314296122938882,-0.0893737831510338,-0.06691764231789,-0.1000591444373013,0.0004006941298926,-0.001440199142216,0.9870532728815126,0.1603841536230299,-0.1271989164321524,-0.0293764715204287,9.814090959175328,0.0617450484103252,-0.041514202771893,-0.0057634456205652,3.5407388215718614,4.964608386647581,2.090095049869648,1151.6159807995557,1131.8432415132177,1141.5810180439173,1149.7335562095975,-553.3137330060716,111.81519013605288,812.2253731758769,-233.9464846012572,157.4409599518151
21.1475,-0.9293699464823943,-0.5468719607161021,-0.7494208844804467,-0.09254337371075,-0.0679707478344678,-0.102914757557086,0.0004669075334957,-0.0015749651737775,0.9870317145264355,0.1605154235588492,-0.1266618315348302,-0.0319049895621242,9.81563539906598,0.0612768017823034,-0.0413641889226777,-0.0058027457466531,3.540625431523416,4.964757733118256,2.090081232845973,1150.0117988971433,1131.969759089036,1143.7595322948798,1148.9107158839972,-613.6839120593365,-21.35071383335161,758.9829164377744,-344.21835887119994,157.44135292705755
21.15,-0.6493894227207805,-0.500693672226242,-0.6239040035363991,-0.0947292922959315,-0.0687935943105517,-0.1053415701476127,0.0005289792996686,-0.0017072295436481,0.9870095363644316,0.1606503387138704,-0.1257980204027165,-0.034492071574113,9.817187397106329,0.0608065120999066,-0.0412142975196163,-0.0058404299681331,3.540513936024197,4.9649058125861885,2.0900675475588564,1148.5475612392574,1131.7364879440509,1145.375932626108,1148.0124644152409,-595.3564431042016,-158.51544650857676,581.5939912556835,-378.34181366755064,157.44173200500586
21.1525,-0.354212362732243,-0.4382687359973262,-0.4543709531414931,-0.0962780447456658,-0.0696274797688672,-0.1073984946040915,0.0005882502666116,-0.00183231482172,0.9869867708689604,0.1607887306117833,-0.1246000686936678,-0.0370241364478472,9.818747064741745,0.0603367137939066,-0.0410648233810355,-0.0058745066794214,3.5404051094838134,4.965052109367944,2.090054669378558,1147.035016681623,1131.1771818564932,1146.6675022511577,1147.0190068156598,-597.3369824131902,-268.0384499156013,451.95408620506794,-398.2237038780905,157.44216483447127
21.155,-0.056433530821781,-0.3627124686012195,-0.2696465498697081,-0.0970004675467908,-0.0704563054378409,-0.1085498311810069,0.0006432911896266,-0.0019521619022876,0.9869635033548524,0.1609300464407395,-0.1231003403012725,-0.0395248122411914,9.82030900971588,0.0598697892681402,-0.0409162703193868,-0.0059032430066654,3.5402983122856,4.9651969632908335,2.090042044485657,1145.560876327192,1130.396295694473,1147.635703057133,1146.0213458958508,-560.2128081545038,-348.51890907341493,303.82680012327586,-384.1056769489878,157.44264224529675
21.1575,0.2280739247831517,-0.2683019665553293,-0.1000922091072141,-0.0966201564636634,-0.0713027824811655,-0.1082333797418162,0.0006962928858345,-0.0020663498855961,0.9869398643321003,0.1610734746643369,-0.1212751009131073,-0.0419608316138334,9.821863316546212,0.0594077041226935,-0.0407693735120152,-0.0059248708669938,3.5401927476716586,4.965340124941314,2.090028269683388,1144.2339526408507,1129.4345873111265,1148.1866362517735,1145.0984784309153,-526.4140456513496,-439.4828843665401,146.8422035209934,-367.3856255361719,157.4431732566606
21.16,0.5328384575985051,-0.1291384594355243,0.0488416162839284,-0.0950900524190576,-0.0722835723849011,-0.1064853403377421,0.0007530783432847,-0.0021726393745179,0.9869161894714336,0.161216964033016,-0.1190419564124596,-0.0442522121341744,9.82339580945886,0.0589517903241033,-0.0406250995747583,-0.0059377036813839,3.540087679209739,4.965481178371816,2.090012182545728,1142.9288060989359,1128.1988812726408,1148.3699140747378,1144.1844177681703,-417.81896497851903,-448.50794163012114,-6.4791988984292,-286.58944058155504,157.4438720157772
21.1625,0.7442919815097179,0.0082405530027719,0.1169159622186182,-0.0931991020523856,-0.0728708067925202,-0.1046845754370486,0.0008205966671009,-0.0022695559341852,0.9868927929507086,0.1613585897474225,-0.1162996768252908,-0.0463308647220203,9.824887971278295,0.0585028479754376,-0.0404842677707984,-0.0059403750260374,3.539982468174313,4.965620814430659,2.0899935375099283,1142.1448578159573,1127.1920476029748,1148.1542402572816,1143.6655312280068,-241.31206960428497,-378.9326950594685,-149.259697593409,-140.88960540514637,157.44450513762536
21.165,0.9035945613872192,0.161202173987875,0.1409808139447891,-0.0910357962690548,-0.0727466004453548,-0.1037909337581009,0.0008988873580073,-0.002357116234709,0.9868699723358328,0.1614965372436397,-0.1130809807654624,-0.0481804358017966,9.826315428737777,0.0580613025624429,-0.0403473528006564,-0.0059314458421958,3.5398770802998625,4.965760540641076,2.089972909107004,1141.7222457509147,1126.3042177973439,1147.6236155867707,1143.4799697411447,-106.76121249345977,-323.18911242006897,-250.2373766892604,-14.531450363713864,157.44519026749387
21.1675,1.0172265138386587,0.3185454374136433,0.1539518910061095,-0.0887112998625035,-0.0719380570140886,-0.1042689899181158,0.0009840041231645,-0.0024368521855961,0.9868477999910183,0.1616303711307344,-0.1094951455667657,-0.0498283498216489,9.827650008265495,0.0576274348032472,-0.0402142830964429,-0.0059100648260246,3.539771490230565,4.965900912265189,2.08995174336044,1141.61105175349,1125.5761020408747,1146.9030533738355,1143.5928739761882,28.373174533029704,-238.61863146509293,-314.35798831505343,106.84037792247172,157.4459178263355
21.17,1.07431927890814,0.471942874425231,0.1821280199493146,-0.0861433353598761,-0.0708485662472898,-0.1057319109746041,0.0010708492900699,-0.002510978052231,0.9868261142356316,0.161761086825497,-0.1056749897093404,-0.0513210398920066,9.828861866650445,0.057201553544156,-0.0400845238885449,-0.0058763757239916,3.5396664554957695,4.966041331300069,2.08993174159926,1141.86411162358,1125.1111246400178,1146.0518256451949,1144.0141716307571,187.07438166738115,-123.4717374059319,-380.5527965179256,222.4483825972572,157.44669552612652
21.1725,1.0761433830149347,0.6430492341155712,0.2421068790004654,-0.082898062250253,-0.0696986654614111,-0.1066813951490001,0.0011542150848796,-0.0025860098517781,0.9868046010691,0.1618905450241431,-0.101744474766371,-0.0527909650581615,9.829921347102326,0.0567840811074585,-0.0399572044047548,-0.0058319481592235,3.539562422436788,4.966181342625187,2.089913825889836,1142.5464236618268,1124.9587433538452,1145.0002893912463,1144.7051158891743,303.91650731700474,28.275549671076245,-375.9578036482546,248.9033441077067,157.44768518229927
21.175,1.022178212446611,0.7666988889236354,0.2972287738807856,-0.0802319234253558,-0.0686546503678865,-0.1061659418402891,0.0012299017424155,-0.0026682332664995,0.9867832581311152,0.1620187056270625,-0.0978106474763092,-0.0543645396672267,9.830800229364607,0.0563753797361632,-0.039831557022063,-0.005779218417588,3.539459575912588,4.966321052045262,2.089898746508108,1143.3836941601646,1125.2525023883732,1144.172036626954,1145.2586883512956,376.3264880133086,223.13304622050464,-308.76120170417045,172.94041733357764,157.44855560978087
