t,ang_acc_x,ang_acc_y,ang_acc_z,a_vel_x,a_vel_y,a_vel_z,quat_x,quat_y,quat_z,quat_w,acc_x,acc_y,acc_z,l_vel_x,l_vel_y,l_vel_z,pos_x,pos_y,pos_z,mot_1,mot_2,mot_3,mot_4,dmot_1,dmot_2,dmot_3,dmot_4,vbat
45.2225,1.0160343041319984,0.555830365662805,-0.1945207064134712,0.0371320548329336,-0.0156010382272868,0.0020780201571652,-0.0001512752486155,-0.0039112545832151,0.0285275878893581,0.9995851325286736,0.0118119104151013,-0.0399360238528656,9.279037207321556,-0.0067291457798702,0.0497554159857813,0.0303867335429212,-0.0205302423003529,1.6810353798892943,5.7087567329395785,1122.4811224188563,1096.8003860625663,1105.4871076051143,1108.6423014875948,129.66258151011704,-554.7420317503911,-58.681952050362256,-52.6154732447325,153.42833200990702
45.225,0.9924304572541562,0.8509388679190381,0.1509153805781959,0.0387328326256117,-0.0140416918017346,0.0023591101260039,-0.000103568450307,-0.003915441214861,0.0285273833759613,0.9995851323158332,0.014559161717434,-0.038189950226077,9.276813202681364,-0.0067517970667625,0.0498993112962252,0.0290171542045394,-0.0205553243835466,1.681159927208376,5.7088261049141265,1123.093203224223,1095.3127666601515,1105.1636453863518,1108.585079839932,322.3590034980337,-515.228627609272,-185.86085890604943,6.217563306023492,153.4256485607592
45.2275,0.9892241739013324,1.074525724788604,0.4471687685630535,0.0406994790657294,-0.0121162282172164,0.002817330707476,-5.9488781878170576e-05,-0.0039167811993011,0.0285267490681112,0.9995851572629096,0.0170560937378025,-0.036342720435351,9.27479438827091,-0.0067571423255682,0.0500459313154382,0.0276478251085988,-0.0205814998440406,1.6812844050079745,5.708892700801939,1124.0929174363453,1094.2242429245223,1104.5578033105849,1108.6733893041248,502.18922846080886,-379.14524669234805,-319.73142559288146,49.35254196773007,153.42336633952107
45.23,0.9710448584511076,1.2514038732154265,0.7345989332099812,0.0434928745851414,-0.0092110945512844,0.0039700875309758,-2.0836267320280984e-05,-0.0039136648618218,0.0285246582885928,0.9995852414878256,0.0192106660662718,-0.0344518262939423,9.272985809759888,-0.0067454597296233,0.0501971229494457,0.0262800275172361,-0.0206092042383672,1.6814084377986098,5.708956998529365,1125.6041493665284,1093.417040426689,1103.5649882583866,1108.8318425497707,776.127989598502,-270.2274122152612,-528.7200986987069,61.703883560190015,153.42104225071773
45.2325,0.895094069263243,1.3794314991664252,1.0436510245546076,0.0473740803276211,-0.0049360794827919,0.0066692016446722,1.2721973152397306e-05,-0.0039048782501575,0.0285253167356951,0.9995852674235804,0.0209442733127745,-0.032542240496315,9.271387945285124,-0.0067168430652084,0.0503549888955361,0.0249142960541064,-0.0206382814951032,1.6815315508660895,5.7090187206122165,1127.9735573843395,1092.8731058634455,1101.91420281709,1108.981908721926,946.6322601498146,-124.20747367948405,-675.7187804745861,29.72097515023936,153.41820997569607
45.235,0.7701197743159399,1.3972830063581991,1.251268067856322,0.0505583381357995,-0.0008092477660909,0.0099533165587676,4.256903240182654e-05,-0.0038908906826279,0.0285313099822237,0.9995851579468276,0.0222158517373767,-0.0306262845548855,9.269997543504829,-0.0066720594484846,0.0505215602954213,0.023550693095307,-0.020668159341303,1.6816535394413454,5.70907766617364,1130.3373106672732,1092.796003058292,1100.1863943560168,1108.980447425522,992.3124637820291,39.54584697433143,-745.1173776484491,-43.99750986619915,153.41581609590608
45.2375,0.579842797784055,1.3108502783164144,1.3887938356699785,0.0529368066345427,0.0039596741447383,0.0138497038179476,7.183342622111433e-05,-0.0038734174863982,0.0285448986900695,0.9995848415374404,0.0230161129010945,-0.0286898184161633,9.268808411247607,-0.0066126436096556,0.0506986329122512,0.0221888427969535,-0.0206978624169133,1.6817749136925957,5.709133482014318,1132.9351197032524,1093.0708350983173,1098.1886159288458,1108.7619211725948,1039.8246294341925,154.6190455950755,-821.3765042142658,-128.29174446895,153.4133888661951
45.24,0.3472045006194206,1.1432150293262595,1.46243787420282,0.0542905318799986,0.0085605933811282,0.0177764093707802,0.0001040155766195,-0.0038540103077352,0.0285713316054469,0.9995841630101236,0.0233429400395894,-0.0267161889113239,9.267812625776816,-0.0065407100028119,0.0508875488179387,0.0208281087368348,-0.0207264880579589,1.6818965533375083,5.709185709483326,1135.5364338144468,1093.569098286268,1096.079511834943,1108.3389887031767,985.0245384738492,232.35951256199985,-836.7055535123078,-211.95467857420405,153.41093412663545
45.2425,0.0853279431404974,0.908062718279511,1.4613547550689063,0.0544320448060034,0.011679867547158,0.0214828242925235,0.0001421039764833,-0.0038351567191132,0.0286114673653284,0.9995830886980696,0.0232216301383745,-0.0247014059493633,9.26700125495604,-0.0064595898465283,0.051088960995716,0.0194677119446224,-0.0207533457510487,1.6820193702085202,5.709234350279358,1137.8602423956172,1094.2326326611262,1094.005088161288,1107.7021477797248,885.5191049647469,306.1984135278237,-858.8942539548124,-307.6829192746188,153.40844519350205
45.245,-0.2366956744091566,0.6087266241600741,1.3830931695445448,0.0536382808717617,0.0130785198772472,0.0256556396559868,0.0001867741796797,-0.0038182510489472,0.028660690097813,0.9995817432025126,0.0226672771474318,-0.0226849801015139,9.266365567833097,-0.0063738516807072,0.0513027857767639,0.0181068661274864,-0.0207783529312694,1.6821435120684523,5.709280123723172,1139.9640293392663,1095.1000903539057,1091.7850405651732,1106.8005741068052,613.85398037351,318.36794149278006,-738.0205092433107,-331.8618269974316,153.4054169058503
45.2475,-0.4986182993432746,0.3894226242594578,1.2623117111565647,0.0525936393111871,0.0127739258198361,0.0288205599921739,0.0002375319768457,-0.0038033518261758,0.0287156398190055,0.999580219479182,0.0216827379521165,-0.0207277328578109,9.265897326746783,-0.0062883596629743,0.0515284552425072,0.0167446933105345,-0.0208013583870443,1.6822691054210823,5.709323827653336,1140.9295122974863,1095.8244723685907,1090.3149856150696,1106.0428386447368,192.06064659623917,283.85344724455564,-478.21788892950366,-278.38112133380804,153.4028575881874
45.25,-0.7443262501418793,0.2355088556636412,1.0941858533598492,0.051327882347352,0.0120171468523721,0.0316316467889778,0.0002945763390738,-0.0037909311842435,0.0287719201122548,0.999578639525626,0.020291939438747,-0.0188766644253567,9.265588439109862,-0.0062081561587082,0.0517650783744713,0.0153802011679288,-0.0208221817084649,1.6823964929136235,5.70936585741213,1140.9243325722482,1096.5193575901292,1089.3939511205244,1105.4086685001355,-166.6653501780426,272.19903602847097,-259.98241953435354,-216.94630177091037,153.400260689456
45.2525,-0.9693987301785596,0.1419526082791499,0.894202039567491,0.0497370702816434,0.0114027000097665,0.0342239091731582,0.0003569409283593,-0.0037812527728351,0.0288250077094303,0.999577130845152,0.0185272928425172,-0.017197782389427,9.265431384147057,-0.0061380993682982,0.0520115320162855,0.01401268582096,-0.0208415555806503,1.6825251656979683,5.709405969749104,1140.0961855465969,1097.185467548732,1089.015073517399,1104.9581071358832,-509.9813824659242,259.53559143804705,-7.241716641916288,-122.24198893275683,153.39763291063807
45.255,-1.15559110188072,0.1088148866632011,0.6661400285518316,0.0474204444653185,0.0113928942051456,0.0364499581997432,0.0004225564141135,-0.0037744307693762,0.0288733857027612,0.9995757357806022,0.0164306498551559,-0.0157738840499273,9.265419013875693,-0.0060822812328436,0.052266633249763,0.0126419608065128,-0.0208603507346423,1.682654262426934,5.709443368685087,1138.3744256599173,1097.81703554732,1089.3577425373148,1104.7974585554712,-911.3610510121247,268.16364123183047,324.1602129849686,6.263524594029583,153.39496902851502
45.2575,-1.309247350538048,0.1101984404810501,0.3790457282431624,0.0434617065903264,0.0119949793998411,0.038230548102656,0.0004896376402759,-0.0037690981568997,0.0289190103329215,0.9995744025124041,0.0140282796773131,-0.0146768593074678,9.265544112618675,-0.0060438567677306,0.0525292185361756,0.0112683555683059,-0.0208789928562802,1.6827833333776987,5.709477211703053,1135.539380291534,1098.526285754892,1090.6358745823247,1104.9894247588531,-1114.914624978942,249.24867013282824,607.902929594873,136.46990092751045,153.39173311641693
45.26,-1.36150378926512,0.124464759957022,0.1468535286833197,0.0392758294039437,0.012363572930579,0.0386443025037769,0.0005553290682266,-0.0037635780794082,0.0289664883411904,0.9995730043970577,0.0113500784826751,-0.0139920510359336,9.265799045379776,-0.0060250355267966,0.0527980344102773,0.0098929226185395,-0.0208977904481609,1.6829119561774395,5.7095070435947,1132.7998525350276,1099.063278897983,1092.3972571852864,1105.4798080601083,-1105.0380450270754,200.54924472350396,827.3422749029892,261.1121004388707,153.3890063686557
45.2625,-1.3251752754065385,0.1301663383614414,-0.0563324832148984,0.0349285083769537,0.0123813045572704,0.0381313192884424,0.0006168042341772,-0.00375781412087,0.029018643581893,0.9995714606816342,0.0084631253617769,-0.0137974524143974,9.266174904211754,-0.0060275200009265,0.0530715834576009,0.0085173063076073,-0.0209166766955076,1.6830401501749053,5.7095326951409575,1130.0141900663957,1099.52903197851,1094.7725859568416,1106.2949852610484,-1163.97212102283,188.06289812113772,1138.928462574367,421.53207393136006,153.38625223059304
45.265,-1.1900959502945532,0.0994693923060477,-0.2503784473518313,0.0303687225103769,0.012818116927743,0.0372018281944224,0.0006734349211593,-0.0037519806217255,0.0290784139662727,0.9995696858751804,0.0054451972555326,-0.0141217901773589,9.266660968243912,-0.0060523724301184,0.0533480254994902,0.0071433851150501,-0.0209352185014172,1.6831688121520736,5.709553707134405,1126.9799919299105,1100.0035933885893,1098.0918994981612,1107.5874684297662,-1022.2679330103094,162.43060495290814,1245.2566984055877,511.3410240735096,153.38292070734008
45.2675,-1.022764553398755,0.0209202502663706,-0.3658709266766949,0.0272997467232229,0.0138990382871813,0.0362994871952735,0.0007260777605607,-0.0037473410002896,0.0291500814723711,0.9995675508468238,0.0023980775917068,-0.0149572353486535,9.267244659097878,-0.0060998555419944,0.0536250622097993,0.0057731938253493,-0.0209531663637963,1.6832988533013045,5.709569427270188,1124.9028504013488,1100.3411850032735,1100.998869448864,1108.8516903814136,-714.0745224698989,127.55035609727952,1120.2662889348355,519.243222318808,153.38012587276637
45.27,-0.8340101099596333,-0.1298977371514035,-0.4326337940415732,0.0250663777701906,0.0151524491029516,0.0350211501655729,0.000775173288095,-0.0037471613799919,0.0292320244978518,0.9995650910252571,-0.0005403456335626,-0.0162940362635468,9.267912027700898,-0.0061701362334574,0.053899837605241,0.0044089029253186,-0.0209705312231593,1.6834306184360335,5.7095796774112655,1123.4096193175592,1100.641345169076,1103.6932309428382,1110.1836845413616,-501.5583396143192,116.17402618888688,987.3781507848385,520.4818084476822,153.377315652057
45.2725,-0.6568892270829763,-0.3390798134198417,-0.4614277789076665,0.0235471302304495,0.0158503973552152,0.0335339500460698,0.0008200528412993,-0.003753842464947,0.0293178601191357,0.9995624840811044,-0.0032518605216465,-0.018131444624105,9.268648640931364,-0.006263111829528,0.0541690661501588,0.0030525552785419,-0.0209877465654307,1.6835639534680615,5.709584746246141,1122.395058703276,1100.9220551342185,1105.9357602027908,1111.4540994236531,-309.56097243157234,107.13061942897832,732.797859824025,462.65835237946953,153.3744953020338
45.275,-0.5271709501234315,-0.5965983940704606,-0.4528647888286101,0.0228971786855557,0.0152003315858288,0.0321636615075391,0.0008589310953061,-0.0037651378186879,0.0294038263941811,0.9995598497146811,-0.0057091915086665,-0.0204757792653381,9.269440567688596,-0.0063775341980581,0.0544292737834613,0.0017057131948876,-0.0210056307131576,1.683698616138486,5.70958510911248,1121.8618144554027,1101.1769982662204,1107.357220241955,1112.4969763032568,-159.0743823101643,101.85269817015315,394.7850031493344,371.23288900492406,153.37166560238165
45.2775,-0.4582725771264694,-0.9168089197779794,-0.4168305721884418,0.0230501874853326,0.0126486346056263,0.0309773674283121,0.0008895203887436,-0.0037764307996234,0.029485511135047,0.9995573386117564,-0.0079363905047307,-0.0233301915366373,9.270274896533119,-0.0065112908032782,0.0546768916399139,0.000369188961097,-0.0210247542813112,1.6838345018768688,5.70958161104802,1121.5996867917247,1101.4313186250695,1107.9096852185385,1113.3102638686787,-58.16332884520969,79.82200471820313,9.71755041691225,208.76533635817628,153.3682624678178
45.28,-0.4816342644166982,-1.1590938095788423,-0.3795005950354895,0.0236025298119042,0.0093972080938962,0.0303756725746017,0.0009103897867698,-0.0037837696966576,0.029555806475641,0.999555180671474,-0.0099541865864385,-0.026671556391868,9.271140305582222,-0.0066616967933599,0.0549083357630676,-0.0009571911922602,-0.0210457678951351,1.6839715120702765,5.709575490469977,1121.5709978111763,1101.5761082898116,1107.4058079940396,1113.5408029850482,8.003831754884235,37.14341097128194,-365.6711423223584,-2.7289480540755258,153.36542242576337
45.2825,-0.573490594142982,-1.3450236198117198,-0.3478052676632929,0.0237562556709409,0.0055899206388751,0.0300290538153468,0.0009215026754171,-0.0037845063619118,0.0296082185008546,0.9995535853274012,-0.011768933821958,-0.0304417734026972,9.272028084000771,-0.0068253323914952,0.0551201358267875,-0.0022746218881692,-0.0210695239984223,1.6841097530004707,5.70956775424055,1121.639705950499,1101.6170356799255,1106.0813295069283,1113.2966191284083,38.548296331853926,-6.229402421737628,-615.6515768820589,-163.18216494110695,153.3625803903596
45.285,-0.690586793983798,-1.4711761505046148,-0.3250811199443936,0.0228498955508986,0.0016444298620137,0.0297362838763959,0.0009264751511333,-0.0037800301655888,0.0296400146713017,0.9995526342705574,-0.0133214638969478,-0.0345086534350074,9.272932679406717,-0.006998010532331,0.0553090717171409,-0.0035853478563369,-0.0210959754698029,1.6842500631660984,5.709558653464165,1121.763739292836,1101.544961277703,1104.3275501096275,1112.7248921603423,67.07573837253427,-61.47588292775746,-728.9611366954797,-277.40797682217266,153.35973816959162
45.2875,-0.7844653157747657,-1.5199051388451297,-0.3102998546031403,0.0205435350508362,-0.0021758451294585,0.0293134324781664,0.0009304201369953,-0.0037747346087652,0.0296557399773108,0.9995521793990192,-0.0145077930623606,-0.0387069252025346,9.2738530444556,-0.0071747418402794,0.0554724117429922,-0.0048921760010627,-0.0211243414623277,1.6843931056512131,5.709548008695135,1121.975084642362,1101.3096562652868,1102.436523823449,1111.9095792442968,126.00100216634564,-144.66705385843366,-768.659118666136,-368.6987948878765,153.3568972474745
45.29,-0.8017678900162136,-1.4894440844309562,-0.2897389404208532,0.0168212993498958,-0.0067186880941912,0.0284562242983768,0.0009341012331467,-0.0037709205524751,0.0296617305310583,0.9995520306921664,-0.0152779299939008,-0.0429458333472435,9.274794265771233,-0.0073505714606686,0.0556081975299274,-0.0061976301646446,-0.0211541952034486,1.684537917732421,5.709535706768945,1122.393744303667,1100.8216260084112,1100.4842545163003,1110.8813981859043,191.89375161667343,-212.4063762551764,-610.6528522345857,-354.5633918456138,153.35349130173407
45.2925,-0.69902194921967,-1.3929585491212944,-0.2589928907781193,0.0132863932555472,-0.0107245757463923,0.0273958321389215,0.0009384349759977,-0.003769406726863,0.0296652933988101,0.9995519780526164,-0.0156219104451187,-0.04712847698812,9.27576678563163,-0.0075208361049426,0.0557155053216097,-0.0075041773616408,-0.0211850540195886,1.684683459837347,5.709521314845862,1122.9345534004456,1100.2476243840104,1099.3832595622744,1110.136762285068,266.7648895418096,-259.75165708878546,-301.54590335712817,-249.99434403690367,153.3506566474123
45.295,-0.4546430546655582,-1.2319609118196595,-0.2040862326487912,0.0097130906934724,-0.0145929729658783,0.0261273062820224,0.0009451142467605,-0.0037707112743068,0.0296735822684847,0.999551820100602,-0.0155468427375654,-0.0511435994570943,9.276785897783153,-0.0076814138654591,0.0557945737833187,-0.0088140631978282,-0.0212167694998169,1.6848290220107276,5.709504395172536,1123.7275687513768,1099.5228677229668,1098.976524999514,1109.6314264657194,411.70602606867914,-344.77877082740156,-27.617662926175047,-158.07675882347945,153.34782672083867
45.2975,-0.0167153084765901,-0.988282132218692,-0.1106077857299735,0.0068211388164515,-0.0182022769029141,0.0249493331628137,0.0009553402681052,-0.0037765077241926,0.0296892608239397,0.9995514871663566,-0.0150496874841268,-0.0548926898484825,9.277871111479966,-0.0078293191778144,0.0558467813140254,-0.0101289892714648,-0.0212491695511109,1.6849739710127956,5.709484697734252,1124.993083530787,1098.523730529875,1099.2451712476438,1109.346378490951,511.455140921464,-379.492270456,195.96064049395844,-56.32989581583234,153.34443710111947
45.3,0.4257111477402763,-0.768303051026864,-0.0195269275171074,0.0067789841968494,-0.0200744286690998,0.0247369314420106,0.0009687381039855,-0.0037851564033159,0.0297140317355057,0.9995509533019749,-0.0141986175827874,-0.0583103265146352,9.279045528344238,-0.0079622848502184,0.0558746560205156,-0.0114499798115104,-0.0212818488866911,1.685117927953782,5.70946179903434,1126.2848444559854,1097.6254063706858,1099.9563282019844,1109.34977698664,548.4376494225139,-361.5392924891663,339.8326994610296,34.34248438327875,153.34161808844019
45.3025,0.8775430446059069,-0.5612914131472778,0.0679905863598773,0.0094568979527361,-0.0208584960838632,0.0253926642991241,0.0009845988295334,-0.0037931019042141,0.0297520410661056,0.9995501250859614,-0.0131042619860843,-0.0613443653123466,9.280334365006729,-0.0080784009632699,0.0558817796200605,-0.0127774556062403,-0.0213145281889146,1.6852606192776616,5.709435132251764,1127.7352717779013,1096.716034067428,1100.9443347449499,1109.5180909128678,585.381184152798,-356.95991534185566,408.3012835603843,76.50301518467721,153.33880527563787
45.305,1.2867764644406083,-0.3814546331459672,0.1426910102141488,0.0137476172191869,-0.0210559939954793,0.0263933889099057,0.00100431569502,-0.0038003696977556,0.0298042462544383,0.9995489814477964,-0.0118148331917598,-0.0639158432043701,9.281762973837479,-0.0081768624866119,0.055872450181326,-0.0141114211877013,-0.0213470149347685,1.6854016394927631,5.709404546098392,1129.2117503767467,1095.840606793978,1101.9978346197845,1109.7322920625631,566.70759025648,-333.1512400132243,408.24743697695186,71.97201895589566,153.33599770187143
45.3075,1.6051777265626272,-0.2407671056180426,0.2002881107619316,0.018778177808374,-0.0209306361317244,0.0273397297287822,0.0010301096716416,-0.003808637905564,0.0298672417446403,0.999547613098332,-0.0103504414987241,-0.0659430951228555,9.283355662548985,-0.0082580486539063,0.0558514310981264,-0.015451426851984,-0.0213794122741435,1.6855403027058553,5.709370393636485,1130.568809729181,1095.0502778673635,1102.9855719298328,1109.8779510076467,536.4049860154394,-320.88663592864526,398.6856847411452,20.175079311855963,153.33319640984269
45.31,1.8635663381631065,-0.1074996928812203,0.260083115380434,0.0247326410312131,-0.0207406200233477,0.0282431093134235,0.0010649258704596,-0.0038182745462696,0.029938581333628,0.999546068330056,-0.0087556151424113,-0.0673430472041668,9.285134469020583,-0.00832281464449,0.0558237151703925,-0.0167966778409046,-0.0214119163098128,1.685676323554898,5.709332791326248,1131.893775306825,1094.236173614334,1103.9912630434912,1109.8331674591225,423.0825403517083,-274.67223334451364,333.0891920328328,-64.50832365982362,153.3298418944794
45.3125,1.9786976223596917,-0.0086848738624702,0.3150365044838948,0.0295738825533513,-0.0206842679912152,0.0287811543752352,0.001111884272351,-0.0038299214627809,0.0300147593855709,0.9995444001376502,-0.0070684188217124,-0.0680426606831173,9.287117705000524,-0.0083727451788079,0.0557941373713884,-0.0181459711921968,-0.0214443782028254,1.6858102272953512,5.7092917633659725,1132.6842224309407,1093.6769167006403,1104.6510178899975,1109.5554093893477,254.99333609468977,-201.0394933659436,225.7707744142188,-158.22857166291053,153.32705204177014
45.315,2.001861361997228,0.1047899558850436,0.3911049290299618,0.0345349737123409,-0.020786964570291,0.0291124391447669,0.0011736847494353,-0.0038453965220853,0.0300906072375505,0.9995426709182104,-0.0053022925768439,-0.0679902481152972,9.289318651225699,-0.0084102531967784,0.0557670385649063,-0.0194976261119201,-0.0214763979044393,1.6859426582270267,5.709247275819489,1133.1687419872976,1093.230976147505,1105.1201169155613,1109.0420246008086,157.4496726931206,-162.2655553166703,156.62026450996737,-229.58594013704973,153.32426750731577
45.3175,1.9603847558054732,0.2510620808727133,0.4924727312231545,0.0395819265689956,-0.0209860687523325,0.0293988214326981,0.0012509945909622,-0.0038644341805555,0.0301624744811189,0.999540860524332,-0.0035057805745481,-0.0671828914711324,9.291744892728577,-0.0084380594091411,0.05574611661714,-0.0208493891974642,-0.0215075799568451,1.686074075629031,5.7091990862976445,1133.4714707944067,1092.8655889240565,1105.434119212548,1108.4074796886619,100.85296425590356,-128.53045183831244,89.2593981108801,-254.48071148126184,153.32148694422548
45.32,1.8584107327772144,0.455265167375873,0.6237747355838082,0.0443522606614373,-0.0211559125756536,0.029898177540156,0.00134304037409,-0.0038852039326384,0.0302286715129125,0.9995388417177836,-0.0017514263750006,-0.0656545779972355,9.294397463033448,-0.0084590349171666,0.0557342491311131,-0.0221985312628648,-0.0215373445125787,1.686205355844845,5.709146768464635,1133.6730068085772,1092.5883238883134,1105.566413906116,1107.7696210434017,93.61481719556069,-100.06234234047048,18.41039595234944,-241.83722131760243,153.3187105447452
45.3225,1.6930251331834727,0.7739923902956706,0.7989704217190277,0.0492648936473806,-0.0209760408275264,0.0311741582785095,0.001447317899026,-0.003906085954453,0.030290081905219,0.9995365014427164,-0.0001021243092498,-0.0634811056746858,9.297270267408413,-0.0084760177014146,0.0557334499351023,-0.023541868817466,-0.0215654298650783,1.6863372392201632,5.709090014262588,1133.939544880384,1092.3652772123546,1105.5261711923097,1107.1982935820747,116.944712856761,-59.55400005010824,-45.36907801564164,-153.4825088179001,153.3153827786217
45.325,1.5390010182903853,1.0888982535016627,0.936446597069332,0.0526074447156273,-0.0201205345134791,0.0331110685700786,0.0015592035453082,-0.0039264427638591,0.0303479328456644,0.9995339367209652,0.0014033062857231,-0.0607860015041836,9.300349966234588,-0.0084918657791066,0.055744892130012,-0.0248758447097798,-0.0215921982872234,1.6864699354659403,5.709028894606595,1134.2577303728615,1092.2905538880627,1105.3395685160376,1107.0022084993116,157.32060781953032,0.6333732922027081,-102.72816216674273,-5.648141315120323,153.31261233058015
45.3275,1.385137866549885,1.4177500438445447,1.0308134541432032,0.0552521313773056,-0.0179485778029373,0.0361523638876949,0.0016747642242864,-0.0039459511232692,0.0304029072148658,0.9995313097793036,0.0027392889669161,-0.0576860883288532,9.303616077167868,-0.0085093048628612,0.0557688648021742,-0.0261970157983226,-0.0216181015509322,1.6866040054743812,5.7089634675403165,1134.726147919482,1092.3684440788156,1105.0125303814757,1107.170052875499,243.76337068846965,80.59049146430024,-172.39135979877793,151.79304733551524,153.30984456462335
45.33,1.20505020331723,1.761604784868744,1.060379263089975,0.0578367574393715,-0.0131741004804452,0.0407186995641537,0.0017883437380586,-0.0039632446468593,0.0304549151486983,0.9995287602392284,0.0038664979765957,-0.0543338025365038,9.30704203000087,-0.00853069559823,0.0558050445331835,-0.0275019761140501,-0.0216435086475308,1.6867398659816608,5.708893649055044,1135.4765472263027,1092.6935063453839,1104.4776117170445,1107.7611737359887,304.1028757839094,165.6690262776072,-217.47751027926608,261.3989736406465,153.3065272276213
45.3325,1.0488301917185836,1.951815207247774,1.0047361796729175,0.0599154830036854,-0.0072167519968239,0.044476181286753,0.0018951024782882,-0.0039780194583585,0.0305018998154338,0.9995264361939123,0.0047716153831174,-0.0508695003761891,9.310595741071943,-0.0085581515391718,0.0558525720768587,-0.0287877650809073,-0.0216685247020442,1.6868775260466833,5.708819382152958,1136.2466622984025,1093.196789210204,1103.9251428300788,1108.4770477437032,331.29121811936204,255.0996984988219,-240.44106721645653,295.4742818686862,153.30376743505775
45.335,0.8606906111236042,1.9919591594035275,0.8751043713300082,0.0625399336379683,9.412745721054076e-05,0.0472985604962298,0.0019956791515504,-0.0039904160735414,0.0305446541625799,0.9995243501248972,0.0054578935746846,-0.0473330594094995,9.314240413447068,-0.0085928947185573,0.0559100880893166,-0.0300525832104847,-0.02169321025926,1.687016795789122,5.70874089220692,1137.1330033169004,1093.9690048378786,1103.2754063809616,1109.2385451453329,366.74191732756,352.4511649644432,-273.6694973980081,281.51893059401255,153.30101490333195
45.3375,0.6243461112906665,1.89562887526265,0.7033719763670353,0.0654340974613188,0.0072696905964467,0.0491687091810869,0.0020920573944101,-0.0040003056463973,0.0305868878091058,0.9995223978807768,0.0059284559228677,-0.0437391709107227,9.317936587680732,-0.0086351212523516,0.0559761582656375,-0.0312955293660563,-0.0217176854504946,1.6871574912294232,5.708658207414454,1138.0803718850386,1094.9590450350247,1102.55679534309,1109.884642396672,383.8305294368948,440.49301620134634,-300.3695990220704,199.3200693424004,153.29827083897527
45.34,0.3145382963897993,1.6589386320455617,0.5082487426866457,0.067810659213777,0.0128872489448004,0.050042538958765,0.0021844443997162,-0.0040068669605899,0.0306313513993879,0.9995204951639703,0.0061750745994515,-0.0401342300878855,9.32164438996822,-0.0086843332441469,0.0560495986242233,-0.0325164297481451,-0.0217422543851373,1.687299273702008,5.708571600315868,1139.0521559640858,1096.1714699188865,1101.7735583858505,1110.2351454920451,420.5797455187744,569.3133163520358,-353.92925985797854,60.55671633099877,153.29554072309648
45.3425,-0.1381233163140827,1.2807204577663343,0.2755231694009506,0.0693244189967743,0.0170154845881965,0.0502850230998576,0.0022712382631596,-0.0040064536854297,0.0306794446719576,0.9995186046920121,0.0061370613169854,-0.0365951737664133,9.325325726524147,-0.0087392092112969,0.0561296433778247,-0.0337160141569442,-0.0217679297660888,1.6874412238858647,5.7084824496208375,1140.1832706126336,1097.8056116167863,1100.7871490437992,1110.1874259783272,401.0263623758428,617.7783415967203,-365.4573746358123,-100.89975773903544,153.29228653882546
45.345,-0.5631200056542294,0.9457023613107604,0.0940838252564688,0.0691884593536657,0.0183987104540731,0.050070407136999,0.0023510502584713,-0.0039953329921323,0.030731093227031,0.9995167300953304,0.0057522432190095,-0.0331929883076766,9.32894556583502,-0.0087978590966763,0.0562158958711966,-0.0348961010327021,-0.0217955776578842,1.6875828801531365,5.708392230004594,1141.0572877759632,1099.2603616268673,1099.946271512673,1109.7306467033507,327.93206861557843,592.3779751372574,-336.70479597563883,-259.8475486124733,153.28959784948552
45.3475,-0.9998447103400399,0.647438432323501,-0.0731294703077763,0.067397018631093,0.0182740092658306,0.0496949049697627,0.0024231828569877,-0.0039726007213225,0.030787294041959,0.9995148288018976,0.0050110316310849,-0.029985285786413,9.332473158503294,-0.0088579562029483,0.0563083205322241,-0.0360594162159783,-0.0218252976689451,1.6877241339996845,5.708301565016618,1141.8229309557123,1100.767501492474,1099.10362506392,1108.888188235264,282.10097648601845,609.9401868966713,-335.1004479232065,-383.15351039430834,153.28693882210243
45.35,-1.412551378412202,0.4015167028141617,-0.2346884380623281,0.0641906538310253,0.017569458539856,0.0493811020425938,0.0024865079043716,-0.0039396191614379,0.0308493070798322,0.9995128436327236,0.0039448114311001,-0.0270366593858589,9.335883569042572,-0.0089170978466303,0.0564072314044412,-0.0372091543222064,-0.0218569969864507,1.6878644877620887,5.708210475241727,1142.467792658394,1102.310062561352,1098.2707692730562,1107.814879151378,216.06262308552328,628.464902782915,-326.1209085215579,-452.3533848252576,153.28430806047734
45.3525,-1.757297658343906,0.2142494585762488,-0.3994034489353013,0.0594314303245079,0.0170486215618111,0.0492564437643848,0.0025394162483238,-0.0038981810454366,0.0309149322841796,0.9995108263820112,0.0025911261756772,-0.0244182338810236,9.33915877736528,-0.0089734047268633,0.0565131085167001,-0.0383486328982669,-0.0218905487805641,1.68800363799544,5.708118752248147,1142.9032440711387,1103.9098260063859,1097.4730205213139,1106.62642131114,118.4194960546696,722.6150499310673,-331.79909120500577,-496.3708407810562,153.28171506694665
45.355,-2.055529145987381,0.0203960322241626,-0.6058655343002747,0.0523095219790699,0.0173115647500307,0.0488851591672933,0.0025793610717681,-0.0038496391170783,0.0309805251728518,0.9995088819735464,0.0009776105794442,-0.0222154978853026,9.342288249877635,-0.009025511619669,0.0566264949432363,-0.0394808997748737,-0.0219258031241865,1.68814180973488,5.7080258892322995,1143.0598901386677,1105.9231378110092,1096.6117738170303,1105.3330249474716,-23.924831256760207,756.194221753935,-288.0081160349054,-409.7656953573455,153.27865095019033
45.3575,-2.1972025829110264,-0.1517180759151738,-0.7777416131208481,0.045805860404936,0.0182029327192053,0.0479140779668049,0.0026028908564272,-0.0037975184707793,0.0310421907019806,0.9995071215145838,-0.0008284503403566,-0.0205288802452838,9.345268602195294,-0.0090728986971413,0.0567478439878528,-0.0406083808143692,-0.0219624137089295,1.68827927074912,5.707931057546116,1142.783619914855,1107.6907971151575,1096.0329799411384,1104.577592834352,-213.39949939862288,723.4183663036432,-186.23412642976857,-190.31838912732408,153.2761391917878
45.36,-2.2387697897684165,-0.3696091892424729,-0.9269907289558132,0.0397508803277327,0.0191309987766982,0.0458445134287238,0.0026090826460429,-0.0037469565228259,0.0310960994245784,0.9995056437959656,-0.0027275835440702,-0.0194088157712609,9.34810254736192,-0.0091160610660308,0.0568770874517702,-0.0417330793497716,-0.0219997064119237,1.6884163949031619,5.707833684963616,1141.9928926416756,1109.5402296425243,1095.6806031848823,1104.3814330018358,-469.8564504036182,818.5412392185659,-84.07562664270036,73.33006217273464,153.27367242021674
45.3625,-2.2079562964238204,-0.6962536052565186,-1.0468342895654108,0.0338771071449275,0.0195096931176912,0.0420280676268625,0.0026010523538885,-0.0037020698497926,0.0311426426929377,0.9995044111749676,-0.0046347854335436,-0.0188254260199097,9.350797981407768,-0.0091559708361596,0.057013432470492,-0.0428567150594011,-0.0220368784158714,1.6885539448054523,5.707733440208036,1140.4343376628356,1111.7835033112524,1095.6126018079249,1104.944243145216,-658.9732690127033,805.8872496815154,45.592578460831966,339.6807906402127,153.27076534550926
45.365,-2.142303045492844,-1.0088327806431852,-1.0789999966994477,0.0300247455366415,0.0187500515207285,0.0382030741958765,0.0025823752249982,-0.003666901688896,0.0311850843202554,0.9995032966506509,-0.0064629777678158,-0.0187352029359244,9.35336744779514,-0.0091943088508534,0.0571555704827172,-0.0439802869713839,-0.0220728909730414,1.6886924256418128,5.707629715172418,1138.6980262966104,1113.569665890934,1095.9085660771866,1106.0798369550375,-750.9954035693236,660.8008997314853,200.53037503385036,565.8468924549342,153.26838729877537
45.3675,-2.0516761459560726,-1.322346761223371,-1.0367960344284493,0.0265173472046491,0.0164152152366162,0.034743085849907,0.0025569656922313,-0.0036441542016124,0.0312237114341517,0.9995022699152948,-0.008146649193087,-0.0190818174460227,9.355827095385742,-0.0092338964303364,0.0573016103681467,-0.0451041455468226,-0.0221069466731484,1.6888319357916717,5.707522165498577,1136.6793606449924,1115.0875078099068,1096.6152536830932,1107.773477607488,-820.6064190542025,530.4032640519657,352.24144681151506,735.0223320013673,153.26605614901476
45.37,-1.9340503487733096,-1.5941618534321365,-0.9441323273075602,0.0227076329157936,0.0125831013750257,0.0320505087697164,0.0025312505851637,-0.003633874131673,0.0312599290030948,0.999501269167896,-0.0096640321567915,-0.0197543249294144,9.358195192984525,-0.0092778422837088,0.0574490211200286,-0.0462283999588122,-0.022138712449609,1.6889727812337791,5.707410752170286,1134.594994201343,1116.2216822111911,1097.6697733112424,1109.7549486150413,-807.579122114608,324.3990459217616,498.58295879263966,813.4440496508818,153.26376509464285
45.3725,-1.75683080482386,-1.763321114062622,-0.8135713387740211,0.0182342337313314,0.0071888938571217,0.0302591012033918,0.0025129637735398,-0.0036356270486577,0.0312976590621622,0.999500153520022,-0.0109967594076501,-0.0206106373055698,9.360491086229123,-0.0093291995017969,0.0575948641978887,-0.0473529008006151,-0.0221677754392471,1.6891157937353447,5.707295158148161,1132.6414650344175,1116.7095030395164,1099.1081684770577,1111.8406978557443,-783.419363343009,32.70726935537059,699.2977313110774,885.9128012732541,153.2615247698388
45.375,-1.432320417400203,-1.798179334519031,-0.6417770998522389,0.0123327523220197,-0.0001248998784458,0.0287844155019549,0.0025080096954289,-0.0036494462533691,0.0313376803117893,0.9994988834640334,-0.0121149385512917,-0.0215366077610375,9.362734775532717,-0.0093912744832182,0.0577361760041855,-0.0484770508243779,-0.0221940202205226,1.689261543094706,5.70717526722337,1130.677897384626,1116.3852185579683,1101.1662619677995,1114.1845126214096,-634.4966066330785,-276.53560665655874,785.1757735104321,803.1145317911098,153.25889928778872
45.3775,-1.0454241124100552,-1.6735828763740717,-0.5009218566332074,0.0073492359881329,-0.0062953275700212,0.0278213708433177,0.0025165685073569,-0.0036727772706392,0.0313788109475292,0.9994975030285552,-0.0130371968720214,-0.0225173946923802,9.364947061505289,-0.009466732658879,0.0578706596152488,-0.0495996376923841,-0.0222185384928633,1.6894090164629976,5.707051604513173,1129.4689820012547,1115.326825006235,1103.0340473446063,1115.8562705146965,-386.0328070414952,-567.8391364999067,743.978105257685,589.6173815263577,153.25676777807936
45.38,-0.5359284016669141,-1.4056974667120767,-0.3720436477849392,0.0031076974498911,-0.011805456434727,0.0269369897629179,0.0025354697611976,-0.0037009051675079,0.031421883181755,0.9994960086246368,-0.0138220255730947,-0.0235937826971389,9.367148497766127,-0.0095567834210523,0.0579968238344989,-0.0507192801986849,-0.0222427057501084,1.6895567207391993,5.706924678309718,1128.7477333494176,1113.546022875467,1104.88615249409,1117.132599529043,-213.68643989756475,-798.1787142625772,713.0897964953409,438.58419479211375,153.25470056862633
45.3825,0.0488970384694835,-1.0556688411756223,-0.2563315142453427,0.0005033212730403,-0.0159521911083983,0.0261902065450451,0.0025614935125447,-0.0037303129625389,0.0314686451199603,0.9994943645650552,-0.0145046714823699,-0.0248029249310063,9.369358225375358,-0.0096614393918996,0.0581137553332565,-0.0518348464277294,-0.0222674620026031,1.6897035773050075,5.706794842935192,1128.4005498017666,1111.33593143492,1106.5994963270848,1118.049191488658,-66.57868291555731,-928.8682753633373,628.6127964257308,279.09546742719533,153.25269176427565
45.385,0.6594213444673358,-0.6737325943694757,-0.1589126395215839,0.0009508060754399,-0.0177852013316219,0.0259336239886544,0.0025919829699379,-0.0037595783029642,0.0315202278305661,0.9994925468949568,-0.0150818636990953,-0.0261680659297204,9.371593640776586,-0.0097797867291316,0.0582209419698127,-0.0529455512209812,-0.0222936661004672,1.6898490328486069,5.706662425073391,1128.41483993484,1108.9016814986549,1108.0292164762159,1118.5280768661776,62.441520666256906,-1040.5153374537028,548.2663445228733,112.99398148115544,153.25076025550413
45.3875,1.3155354534992731,-0.2726634747670719,-0.0635396304476865,0.0052228525796844,-0.0173897421848745,0.0262176975964637,0.0026258731207671,-0.0037875735447807,0.0315760605299284,0.99949058154133,-0.0155467433979087,-0.0276789360458011,9.373870282402503,-0.0099100707470201,0.0583179351939283,-0.0540511112336338,-0.0223217979835001,1.6899936631546844,5.706527606652001,1128.712757405098,1106.1333547476488,1109.3408280497003,1118.6141613960642,138.36161852952696,-937.6049860301216,414.76323017838394,-45.89818031379234,153.24854032698056
45.39,1.7262677424288355,-0.042768843676924,0.0030766510839816,0.0111344665114203,-0.0154292991159831,0.0264900062098256,0.0026626310535746,-0.0038109960539243,0.031633942231946,0.9994885542292148,-0.015937332046772,-0.0293108649971804,9.376202149529025,-0.0100496380726605,0.058404256961059,-0.0551516357619538,-0.0223520806993507,1.6901384197337963,5.706390769782492,1129.106648027488,1104.2136565685018,1110.1030326271089,1118.2985859646087,172.92414665582595,-648.5727817065241,250.4844894166131,-200.8392115482828,153.24677731725566
45.3925,1.9396422585943436,0.0442132218885173,0.0697040219318902,0.018329096644947,-0.0128142552339488,0.0263147211155764,0.0027007032236254,-0.003826545176714,0.0316898877009912,0.9994866105889356,-0.016297998637595,-0.0310559036642658,9.37860177381453,-0.0101954403479762,0.0584794922741933,-0.056247304644965,-0.0223848270823367,1.6902837100337773,5.706252493958885,1129.5773781383764,1102.8904908391191,1110.5932504967825,1117.6099653383235,194.2908001772964,-423.0178795407592,167.3583725480565,-331.10038025521476,153.2451098373733
45.395,1.9794646853334688,0.0184702285452206,0.1472629151205958,0.0256084892672545,-0.0107678368217976,0.0257487467650124,0.0027395921546756,-0.0038344500484145,0.0317394740487037,0.9994848930690862,-0.0166128534272267,-0.0328867400038775,9.381079580756946,-0.010344586756668,0.0585431262276195,-0.0573383666211063,-0.0224198698601275,1.6904296682957043,5.706112917976445,1130.078102028375,1102.0985671707967,1110.9398244898496,1116.6430840633316,202.223858869944,-204.8777095129797,123.22178969823716,-441.2744365253291,153.24352471747412
45.3975,1.839177871610776,-0.1011937803785839,0.2427554471232296,0.0318758784676058,-0.0103732065358336,0.0251666998770887,0.0027813638331832,-0.0038367138407065,0.0317831204056208,0.9994833759863256,-0.0168376935867044,-0.0347280854563739,9.383643649883357,-0.0104938599544679,0.0585945390602954,-0.058425157498827,-0.0224566025965583,1.6905763777654519,5.705971403142566,1130.5884974327266,1101.8661022915535,1111.209359445274,1115.403593155696,220.6377737603094,-16.07400256531589,115.1212991822514,-582.9245982803358,153.242041729294
45.4,1.5411800325491145,-0.2765272304204811,0.3652900843066942,0.0369935254134352,-0.0115850021746039,0.0255594040467215,0.0028262538370955,-0.0038354757003034,0.0318238292285443,0.9994819558840482,-0.0169337053122423,-0.0365388576918324,9.386300294097225,-0.0106400277267672,0.0586335531862381,-0.0595074652592948,-0.0224945440826188,1.6907235481968277,5.705827139682739,1131.1812908971756,1102.0181971579705,1111.5154309857603,1113.7284610719328,209.46455683550283,89.40219561904969,107.78392753376409,-620.4846751680188,153.2403826109654
45.4025,1.2555449736914455,-0.393608913441974,0.4540825272522332,0.038887441565439,-0.0133814487817836,0.0274020597512513,0.0028699351098097,-0.0038332090185614,0.0318627707351299,0.9994805982118468,-0.0168654890838221,-0.0383644539455982,9.389054159069405,-0.0107805456579322,0.0586607736790299,-0.0605841421299616,-0.0225336714305934,1.6908706372575584,5.705679742210638,1131.6358202169047,1102.3131132696492,1111.748279082943,1112.3011697798543,169.46272142345575,111.10944520722796,72.22494420903729,-543.5405873590701,153.23910125952744
45.405,1.0040959440206443,-0.4281552601074379,0.5092110158566931,0.0392331907266613,-0.0156737877662324,0.0302652403687819,0.0029076215126474,-0.0038335480906597,0.0319019301521701,0.9994792392294012,-0.016582114474667,-0.0402611187115124,9.391907298364611,-0.0109135027937976,0.0586772139931336,-0.0616535957932655,-0.022573940111485,1.691017564326716,5.705528732149997,1132.0286045042933,1102.573744384007,1111.8765557068057,1111.010758135136,159.197145473817,74.39245191865157,3.606544017523999,-500.6317581610352,153.23792501513404
45.4075,0.7850898354850937,-0.3383916417597437,0.5407685717300575,0.0394658774164508,-0.0183907613370904,0.0330208324826154,0.0029391913147236,-0.0038391897526,0.0319430628426004,0.9994778119180268,-0.0160525097777053,-0.0421992683612171,9.39485846307655,-0.011037636961481,0.0586836148058225,-0.062714548053133,-0.0226145889172403,1.6911645532463395,5.705373690211323,1132.431805944273,1102.685075529242,1111.7663118030307,1109.7980109890511,142.6686426996364,-1.6272608824229653,-102.71596246893041,-372.8152139476518,153.23663419815307
45.41,0.6721602108154072,-0.1470649534894548,0.5611442354408411,0.0401111978394741,-0.0201780728019362,0.0338768661248622,0.0029686222049658,-0.0038489524331065,0.0319856612139066,0.9994763228547912,-0.0153199822628276,-0.0440729181419459,9.397903445384632,-0.0111522497173005,0.058680393751508,-0.0637662163522935,-0.0226548149556533,1.6913112817727125,5.705214972331337,1132.7419477177918,1102.5656080795948,1111.3629758944608,1109.1466820653968,132.55245893253726,-85.65847417644528,-234.66420445653785,-185.3585648091628,153.23565825474466
45.4125,0.6059811990309562,0.1523701771710109,0.607680732902326,0.0414345385929716,-0.0211618925099483,0.0338205628264424,0.0030010727868132,-0.0038605053712046,0.032028138678214,0.999474814652134,-0.014451328385138,-0.0457566237458052,9.401035510664114,-0.0112573240937019,0.0586679847199257,-0.0648080836858194,-0.0226942140503103,1.691457400078706,5.70505306200214,1133.094568238936,1102.2567831583597,1110.5929907807474,1108.871218165005,160.7848979865237,-141.8048073377502,-362.0759193422255,-61.6581677609353,153.2347846933538
45.415,0.5503640919673296,0.5177156301221739,0.6884768739743627,0.0431530520405395,-0.0212581712231445,0.0338706166677801,0.0030420523522428,-0.0038726606313502,0.0320696257055767,0.999473303377611,-0.0134928204117896,-0.0471229060726775,9.404245657225129,-0.0113534681323242,0.0586469186757149,-0.0658398732814941,-0.0227323969280862,1.6916034278280507,5.704888022406801,1133.5458722077235,1101.8565840429067,1109.5525962977513,1108.8383912265924,217.15972402824067,-163.0986356293381,-458.44779160810697,16.093117634855798,153.233995066887
45.4175,0.4743152313613783,0.9194081022020468,0.8030650358887333,0.0451453487981779,-0.019902988501101,0.0346860493679602,0.0030937163446822,-0.0038842551361005,0.0321117684380493,0.9994717354443008,-0.0124921039971932,-0.0481115960587659,9.407523540847665,-0.01144135861858,0.0586182994075688,-0.0668612389576035,-0.0227693272392382,1.6917497641238937,5.704720023901383,1134.1803668590778,1101.4412899802123,1108.3007518227057,1108.9516837531792,327.5876791012395,-164.23736407092076,-558.4535759128684,41.12148796391636,153.2333053518618
45.42,0.3282577126159482,1.3759205056934336,0.9457571667199122,0.0475897499515545,-0.016196056753327,0.0368200929857311,0.0031521975863712,-0.0038936246572625,0.0321567037542295,0.9994700622284904,-0.0115088077694779,-0.0487800571000141,9.410858290551102,-0.011521678754426,0.0585841514383593,-0.067871537572902,-0.022805488636053,1.6918959562238032,5.7045496073378255,1135.1838106032308,1101.0353972225516,1106.7603284181855,1109.043998666412,401.73276038908784,-120.9840576278302,-538.7698884922327,1.5155018087184684,153.23259134992574
45.4225,0.1514977654739575,1.6852818543670687,1.034786284768564,0.049235563763119,-0.0113620918487463,0.0396011058400447,0.0032120470610571,-0.0038999285135054,0.0322073877692025,0.9994682109763964,-0.0105860529908481,-0.0492206750890225,9.414238392126164,-0.0115950909716472,0.0585468794608341,-0.0688703336489041,-0.0228411805821812,1.6920414926104543,5.704377211605486,1136.1890306610214,1100.836369692074,1105.6069023802468,1108.9592612622228,416.48939989433137,-40.596233429348246,-399.4113084417907,-79.36328851342782,153.23208959382575
45.425,-0.0753764483817248,1.8746098129409423,1.0527764534215132,0.0500582880123682,-0.0052472152133116,0.0430921300231209,0.0032693707154583,-0.0039021335701123,0.0322669614863705,0.9994660983298332,-0.0097669853620188,-0.0495011322686545,9.41765193219232,-0.0116620682985628,0.0585087666903401,-0.0698577477972425,-0.0228766755185137,1.6921859966336117,5.7042030317906125,1137.2662576027035,1100.8324160554048,1104.7632718759755,1108.6471822238448,421.3754209421159,34.963123407106046,-265.68569005530713,-154.0209518634705,153.2316827366144
45.4275,-0.3267687468131472,1.948657061654508,0.9904401956398092,0.0499859703038284,0.0011200330502834,0.0468032212166029,0.0033210117596547,-0.0038970790469273,0.0323316486226938,0.9994638681289376,-0.0091315726771818,-0.049678223241535,9.421087333307705,-0.0117233848869389,0.0584717801651896,-0.0708343178353108,-0.0229127874249346,1.692329153463522,5.70402737754424,1138.295907765733,1101.0111853091096,1104.2784739299696,1108.1891565029052,374.40577993904697,117.52228279962539,-92.09683261391736,-189.1053003370772,153.23135306612767
45.43,-0.5784069533136094,1.8922997514793225,0.8226438015809081,0.0486263030351788,0.0068891237228718,0.0504720313108995,0.0033660863869224,-0.0038818814185603,0.0323938108429061,0.9994617788996344,-0.0087498052996276,-0.0497698592795949,9.424533339284617,-0.0117801111347657,0.0584372526490929,-0.0718009833497942,-0.0229502700029989,1.6924710440137707,5.7038504542991415,1139.138286502397,1101.4200274694024,1104.3027877129064,1107.7016557221602,301.4783358542004,233.6128890322776,133.33808439964136,-170.30289412843587,153.23111452742043
45.4325,-0.8422733937616687,1.7132008981510247,0.5158956286171134,0.0457891479621953,0.0121593518541094,0.0538891956841489,0.0034074935053468,-0.0038565688749186,0.0324490466692812,0.9994599602089332,-0.008630390923631,-0.0497275928124185,9.427978814029089,-0.0118333045537219,0.0584056459266969,-0.0727590306100552,-0.0229890947861951,1.69261241597003,5.7036720404786605,1139.8032994450027,1102.17924975427,1104.9451643519672,1107.3376420322638,175.42558407130974,323.0430629968108,328.855942512987,-59.46922936456444,153.23093097309547
45.435,-1.0090065391402308,1.5082902657530204,0.2042693481468752,0.0430498600583273,0.0150874698137763,0.0548999332035014,0.0034501293919841,-0.0038247372661788,0.0324954935312953,0.9994584399788324,-0.0087091916826824,-0.0494698784201071,9.431412940258717,-0.0118843863574078,0.0583766634799011,-0.0737097097871584,-0.0230285936405001,1.6927542540708336,5.703491740632241,1140.015414422754,1103.0352427843873,1105.947067425472,1107.4043095753373,10.87390551733177,387.7473307188956,471.1608120142364,136.13170350410968,153.23086153599235
45.4375,-1.1053341260316507,1.2819451767307724,-0.1161383963660963,0.0402233983584036,0.0172798840682707,0.0537532469254629,0.0034974342840075,-0.0037909438408034,0.0325347048576778,0.9994571368638568,-0.008900178514413,-0.048944832509839,9.434825758496821,-0.0119347946785886,0.0583497670438435,-0.0746537970521558,-0.0230681218891606,1.6928968934678483,5.7033092238082315,1139.8576689725894,1104.1179864078651,1107.3009684120395,1108.0183005497847,-149.1425941678691,524.618568843675,628.6652739394673,408.8224389348932,153.23087622081152
45.44,-1.1306257261422163,1.005049935338898,-0.4654244089145433,0.0365678712959874,0.0196500444258434,0.051456395961918,0.0035498490711872,-0.0037584968504108,0.0325720061555534,0.9994558615501504,-0.0091379872571508,-0.0481573488757589,9.438208363836921,-0.0119856388514874,0.0583245197361911,-0.0755914284432684,-0.0231070547524063,1.6930402968240799,5.7031241532289085,1139.2697014519151,1105.6583356286033,1109.0903937951666,1109.4484217700099,-275.58662706628184,599.0431764804389,640.8165554312195,627.8589129388791,153.23098794930144
45.4425,-1.0743572477813395,0.7703478471106727,-0.711679159803722,0.0332242933649383,0.0214453741661596,0.0496362253314237,0.0036056848966275,-0.003730070184599,0.0326122118600302,0.9994544518871448,-0.0093661469794092,-0.0471525240700236,9.441552553956013,-0.0120382190520023,0.0583005032438949,-0.0765221898080989,-0.0231450384465694,1.6931842583669348,5.7029362204839344,1138.4797358372573,1107.113202290269,1110.5050511891975,1111.1575951144807,-372.4398533071876,607.479755763514,498.7716701521271,752.1185531031069,153.23115707750188
45.445,-0.9440378928220609,0.5223002381656336,-0.9071301358462466,0.029966638970408,0.0230760668173684,0.0478792768680872,0.003662288304204,-0.0037074295545353,0.0326574405535674,0.9994528419251356,-0.0095419405564634,-0.0459931037614027,9.444850520642467,-0.0120941032583442,0.0582771999513104,-0.0774453169675111,-0.0231822855793468,1.6933284252743217,5.702745308790991,1137.4075021853785,1108.6957344074224,1111.5842521459283,1113.209014535527,-473.7787331365087,645.1347491165462,345.0515970068364,833.8331202305961,153.23140212332606
45.4475,-0.7665880689646963,0.2541991806852901,-1.0592204432678487,0.027183689854338,0.0244570851274686,0.0459832459239195,0.0037178998895208,-0.0036910163232154,0.032707963191371,0.9994510296607974,-0.0096435805060126,-0.0447239217207981,9.448094505413897,-0.0121548123873789,0.0582537896588607,-0.0783600168711091,-0.0232188158700113,1.6934732263570411,5.702551364854568,1136.110842171577,1110.338876035849,1112.23030917423,1115.32676071563,-570.6506394040198,659.9597269543472,134.04671430059767,803.6429156943977,153.23170779754707
45.45,-0.5613788619457846,-0.0449829078179621,-1.1525560144322635,0.0254723663092358,0.0252004650233434,0.0434791042920878,0.0037710761264379,-0.0036797388276529,0.0327636279860298,0.9994490335670048,-0.0096751531877139,-0.0433826525168945,9.451276822604145,-0.0122214589325581,0.0582293430091015,-0.07926552106944,-0.0232544043985822,1.693619695547964,5.702354268386141,1134.554248988357,1111.9955330421958,1112.2544857174319,1117.2272291140011,-735.811457025271,716.3633802105751,-129.88111119527906,717.4133240384857,153.232083651014
45.4525,-0.3280259047443736,-0.4392998900937181,-1.18242468022002,0.0251587842096463,0.0250484778765291,0.0394299802576021,0.003819262471393,-0.0036731385055284,0.032821813748498,0.9994469553979266,-0.009627615343231,-0.0420282890020157,9.454389933660897,-0.012295147852205,0.0582031806537754,-0.0801609921078939,-0.0232891641323982,1.6937681054096487,5.702153808906923,1132.4317848864487,1113.9206929369036,1111.5809036182532,1118.913827335824,-805.9409843686863,683.2775905975116,-340.3017325224849,484.6736574037865,153.2326118735926
45.455,-0.1722327699373409,-0.7898726141828338,-1.1313311400142896,0.0259695729936237,0.0240524946624693,0.0356278260880903,0.0038615951044446,-0.0036710190227824,0.0328771568790193,0.9994449774671899,-0.009485111833606,-0.0406883951364923,9.457426269741111,-0.0123767997565828,0.0581746723181901,-0.0810460127520373,-0.0233236859377033,1.693917820982196,5.701950292930757,1130.5245440665171,1115.4119209951803,1110.5529770548208,1119.650597401018,-763.9732072289646,555.7453789425721,-459.2942527692609,138.63370935766582,153.23311341160573
45.4575,-0.0706791869183807,-1.1467808117736824,-1.0058087850331217,0.0267655161468275,0.0221482592533892,0.0323023876675743,0.0038991263940476,-0.0036703444158694,0.0329274753091634,0.99944317885197,-0.0092842146830337,-0.0393535010026668,9.460378670810451,-0.0124658384650766,0.0581435454118828,-0.0819208456425925,-0.023358890146082,1.6940679306437936,5.701744621260598,1128.611918850302,1116.699419831618,1109.284432354406,1119.6069958826129,-739.6722324540714,465.28096320947793,-502.49608680184554,-142.2977128548791,153.23367494682995
45.46,-0.0083695706049556,-1.4908438017972407,-0.833382900638548,0.0271798432111607,0.0194862852294642,0.0297422981050312,0.0039306012049411,-0.0036678038257367,0.0329729508164627,0.99944157051773,-0.0090692415519396,-0.0380592012731132,9.463241072949575,-0.0125606594028093,0.0581106971046591,-0.0827859337768639,-0.0233955952940655,1.6942173130904457,5.70153742569612,1126.826182904245,1117.7383258112288,1108.0404966208105,1118.9391088367431,-649.443433129863,333.64148439548774,-438.0616546954462,-396.4965420901504,153.23428338466235
45.4625,0.0258693142941779,-1.7902516410326044,-0.6307265042669081,0.0271525310430991,0.0159051967977125,0.0282192898632829,0.0039529194699677,-0.0036619414654889,0.0330133315434869,0.999440177793478,-0.0088528579270174,-0.0368794346739835,9.466008599961656,-0.0126594448155719,0.058078069184869,-0.0836418444202542,-0.0234343519728319,1.6943646657853604,5.701329110390061,1125.3647016846555,1118.3676272535938,1107.0941240809307,1117.624513172164,-526.7994123052664,155.19097855432184,-292.0760968623069,-687.9953913527634,153.2349448099307
45.465,0.0630935773607506,-2.0518303567283263,-0.3869302148656555,0.0266390919581609,0.0101232610257436,0.0274032557849007,0.0039653341257762,-0.0036529648588395,0.0330506026551806,0.9994389370492835,-0.0086176704718845,-0.0358475258244333,9.46867719705648,-0.0127601037498365,0.0580478357468192,-0.0844896291208969,-0.0234752369076976,1.694509159614518,5.70111999730322,1124.1921858427172,1118.5142807040008,1106.580116136498,1115.4991318799775,-308.89173285174934,-61.25855999386253,-60.59019088080815,-835.2803799374035,153.2357950057238
45.4675,0.1074321026622482,-2.1531943760607146,-0.2027727494910883,0.0261005019394768,0.004043144514707,0.0272035907391784,0.0039692551442606,-0.0036436753578254,0.0330857516053977,0.9994377999816262,-0.0082994878561203,-0.0349606824656888,9.471243660517949,-0.0128611187735193,0.0580220119702753,-0.0853305855479209,-0.0235177516569201,1.694650903596164,5.700910094703369,1123.820243020396,1118.0613344536243,1106.7911731265265,1113.4481112724748,-5.7071080350449,-302.47982885662395,222.64940690945207,-830.7631205053718,153.23654697425425
45.47,0.1743232834827706,-2.1019648727726272,-0.052340432038227,0.0259559698994318,-0.0026320457973498,0.0272154964808932,0.0039674597611633,-0.0036383772925779,0.0331181857107323,0.9994367582031204,-0.0078087975118853,-0.0341942108748326,9.473705781378007,-0.0129617131668186,0.0580021629183259,-0.086165991216596,-0.0235611602058194,1.69479058979771,5.700699104897977,1124.163650302542,1117.001881559719,1107.6933631710444,1111.3453162774547,318.07974307345927,-584.5055749413143,533.9866704969152,-878.0897704901746,153.23733962970624
45.4725,0.2775488760437411,-1.8553169192863572,0.0818828315020278,0.0263265473593164,-0.0102766082169635,0.0274261380259301,0.0039657720300883,-0.0036409924845529,0.0331498540487555,0.9994357073839412,-0.0070652014596355,-0.0334682358196406,9.476062050561202,-0.0130612386577921,0.0579888560824831,-0.0869971749231656,-0.0236044180502149,1.694929551574578,5.700486482180612,1125.410641735764,1115.1388065789163,1109.4611064790124,1109.0576624200216,583.3221145832539,-749.499313938057,729.8954143410714,-758.3988540184904,153.2383325247997
45.475,0.3752565168649185,-1.5117549858108894,0.1529349394592389,0.0269844791265417,-0.0154954064843978,0.0278034733390502,0.0039717549306529,-0.0036534780872042,0.0331835831455096,0.9994345155304888,-0.0060282750995313,-0.0326708337328462,9.478311692394495,-0.0131591093452272,0.0579816247237718,-0.0878253036898245,-0.0236464167801671,1.6950696250889328,5.700271475069373,1127.0802608754595,1113.254384990027,1111.3428402427517,1107.5533220073603,765.8338953593246,-769.9484400043002,786.6716226752819,-479.5906969349558,153.23919068194508
45.4775,0.4733007408734974,-1.0676029398534987,0.1809223839936801,0.0279850223465066,-0.0189072047171793,0.0284355968940848,0.0039898782643549,-0.0036743925672371,0.0332199553288729,0.9994331508777388,-0.0047279079003188,-0.0317478586342789,9.48045521910843,-0.0132547301995658,0.0579797417401103,-0.0886508624893741,-0.0236871166021946,1.695211619866259,5.700053469262357,1129.2398112125572,1111.2890643788983,1113.3944645923852,1106.659708935349,908.9150851909278,-756.2914939031766,807.2028542963799,-240.8811645974897,153.2400758126002
45.48,0.5618322594103177,-0.581914335248631,0.1746301335915335,0.0292411888229366,-0.0208159947669423,0.0291108800907556,0.0040198823843855,-0.0036991844992882,0.0332564834102657,0.9994317141742723,-0.003259818388233,-0.0307333035298368,9.482494434997411,-0.0133473847129809,0.0579827102834498,-0.0894735527191519,-0.0237275463034008,1.6953550935208996,5.699832347462596,1131.6248363014167,1109.472927520509,1115.3788545142356,1106.3489161843722,955.6397266536464,-643.9956621098534,730.7443255222905,13.053881288208371,153.24097950755626
45.4825,0.6270142936755732,-0.0985418225630246,0.132262115281858,0.0307911043207362,-0.0210784420397151,0.0296527051109708,0.004060917368267,-0.0037228661720359,0.033290464434482,0.9994303180196136,-0.0017318898346348,-0.0296717464678491,9.484431414045556,-0.0134362204552635,0.0579898812316251,-0.0902928400248498,-0.0237684319372059,1.6954996668357385,5.699608196341064,1134.018009845828,1108.0690860683471,1117.0481862199983,1106.72497834179,987.0446050989694,-480.8838857242616,616.2961641740969,293.4711577653102,153.24190084291112
45.485,0.6644206318851693,0.41815507401653,0.0505284891279631,0.0330398370629128,-0.0196174507881918,0.0300477042861686,0.0041116303917344,-0.0037423521625191,0.0333228458305913,0.999428948734393,-0.0002192095357962,-0.0286174171014723,9.486268186368967,-0.0135201764696659,0.0580007507005624,-0.0911080517734014,-0.0238098734346601,1.6956447162425363,5.6993811846355324,1136.560059326907,1107.06850809189,1118.4603353351033,1107.8162719731974,837.7698299837255,-240.23640675651663,402.32689856245423,471.2619130625489,153.24302051975073
45.4875,0.6546042991350274,0.7612581046751693,-0.0334596641208196,0.0351613171674094,-0.0170275480136536,0.0301321990884326,0.004168175462136,-0.0037572005737136,0.0333561069730549,0.99942754105583,0.0012488741617323,-0.0276715896346396,9.488007000469457,-0.0135983976515494,0.0580153920163851,-0.0919182594899962,-0.023851737386596,1.6957892105717902,5.699151728874352,1138.2068589957487,1106.867904034564,1119.0598207128119,1109.081287907104,536.7059762092123,44.742568120523025,120.84398608561244,533.8004073918453,153.24396056329613
45.49,0.6011515287707976,0.9896299439572732,-0.1208608823520866,0.0371325972535669,-0.0134948782156618,0.0299252045162677,0.004227181639112,-0.0037687688240944,0.033391559579393,0.9994260599312554,0.0026747293353074,-0.0269249305918791,9.489650043766927,-0.0136704749437824,0.0580338411106586,-0.0927227369431543,-0.0238936572803856,1.6959327929950827,5.698920222759508,1139.2435892079543,1107.2922209324927,1119.0645552655317,1110.485274010158,315.41484250871275,254.87871612236165,-82.12282742754915,555.0072990680792,153.24490201649647
45.4925,0.5171505933710573,1.1215463741712968,-0.2010433867310261,0.0387449916530491,-0.0098238367000667,0.0294400241202986,0.0042865050602922,-0.0037778598333759,0.0334279087255332,0.9994245553064772,0.0040485111675525,-0.0264408820546279,9.491199763127582,-0.0137362107960373,0.0580557902840024,-0.093521154747796,-0.0239355389470468,1.6960757025665187,5.698687021161824,1139.7839332082908,1108.1422976151748,1118.6492065756745,1111.856324402442,119.2341844990726,409.43874488385467,-237.4460086248177,515.7331332464453,153.24584015193116
45.495,0.4086464829226832,1.1549975064819853,-0.2613690045427833,0.0397944795964018,-0.0067477267671785,0.0285908803623537,0.004345336548551,-0.0037849106353497,0.0334614868456088,0.9994231523055808,0.0053522442164293,-0.0262529124734298,9.492659121512196,-0.01379561769629,0.0580804365278069,-0.0943135684583638,-0.0239778114098004,1.696218292806768,5.698452417444452,1139.8397601304491,1109.33941465691,1117.8773252224087,1113.063939676388,-42.98555470284175,558.7208546058589,-374.97918780371856,476.1876887967738,153.2467686982035
45.4975,0.2675501717648769,1.1178387396491143,-0.3005955328882893,0.0401820169240007,-0.0039844796132457,0.0272256870260878,0.0044042939403253,-0.0037903964034445,0.0334918644948766,0.9994218616228624,0.00656853107066,-0.0263624325713453,9.494031865602093,-0.0138483514869883,0.0581065191386799,-0.0951003570617963,-0.0240208899197048,1.6963610135001368,5.698216362133073,1139.5690054347765,1110.9359018882055,1116.7743106366547,1114.237262846427,-120.8360295843086,578.3435326120749,-398.871045677493,380.0727575641633,153.2478644388793
45.5,0.1495948259028916,1.0481407827282527,-0.3035847765683766,0.0399512603623934,-0.0021581016307709,0.0260314828528562,0.0044645664847444,-0.0037952564586179,0.0335238093017145,0.9994205159808927,0.007688830186118,-0.0267546937809103,9.495322954715283,-0.0138936192217759,0.0581325101392344,-0.0958820379891574,-0.0240644694840491,1.6965045668631005,5.697978348817736,1139.2355799825275,1112.231132319972,1115.88296999402,1114.9643034642097,-121.08930331885048,477.4357808311629,-313.61498898928727,240.64976426724627,153.24875655328017
45.5025,0.0310213882955879,0.9581320719049388,-0.2811494974294678,0.0397791220668075,-0.0004613655892762,0.0252613329667066,0.0045260476744465,-0.0038007707830314,0.0335619161297465,0.9994189568729788,0.0087101190473514,-0.0274333368742969,9.496539199412894,-0.0139308389374856,0.0581568879922135,-0.0966590209220986,-0.0241079943393946,1.696649169935747,5.697737809263318,1138.9635589181828,1113.3230807923592,1115.20623569171,1115.440511667762,-80.88449411684861,407.1585527130728,-214.7746586128771,159.00910468595663,153.24962003050018
45.505,-0.1240648599926393,0.83364387086308,-0.2366892885724259,0.0402673876083051,0.0019198689902409,0.0249940973319029,0.0045855096735816,-0.0038059071692948,0.0336067906446314,0.9994171796030824,0.009583809933329,-0.028452679874768,9.497690132993837,-0.0139595801455936,0.0581784918584939,-0.0974315211815752,-0.0241517561889081,1.6967938530858169,5.697494707585217,1138.831157511943,1114.2669250835384,1114.8090967009553,1115.75934898764,-9.396981269078163,275.3582518522263,-60.59284109052525,82.37755415430334,153.25061494210615
45.5075,-0.2716680892958332,0.7149032940835639,-0.1911573308010701,0.0409455215010996,0.0041852507388839,0.0249334238174313,0.0046407032198094,-0.0038077456208474,0.033655533550177,0.9994152996186558,0.0102273063118192,-0.0298397846762459,9.498787503974452,-0.0139796129508388,0.058195815762597,-0.09820010476798,-0.0241963244600936,1.6969379587923694,5.697249392935014,1138.9165740118372,1114.699872051621,1114.9032714862572,1115.852399438534,72.55349717999938,100.43563861963815,131.1417591440942,11.978494946753907,153.25140366409462
45.51,-0.4332227083973239,0.5809147797823909,-0.1366706517528699,0.0411200291318623,0.0061492385432329,0.0245433907574888,0.0046916000157832,-0.0038041668999948,0.0337037927084153,0.999413469842052,0.0105769503148751,-0.0315724447316834,9.499844910792278,-0.0139912675157951,0.0582067950931122,-0.0989658122582838,-0.02424208042061,1.6970817186671083,5.697002473111606,1139.1939249978427,1114.769103276636,1115.4648054966751,1115.8192414623736,135.76411901633367,-22.963867457553608,292.8547417257371,-25.981778305809154,153.25214351053663
45.5125,-0.58850407767817,0.4396677123664113,-0.0713757901347497,0.040223666682522,0.007632782683904,0.02381883854091,0.004738614112623,-0.0037965863080504,0.0337480472976013,0.9994118006593212,0.010639959840763,-0.033614807031819,9.500877800864007,-0.0139958479218981,0.0582091658762808,-0.0997298625925845,-0.024289035275192,1.6972256081397297,5.696754586372451,1139.5953946069192,1114.5850527143332,1116.3675451948864,1115.7224905470048,177.18210210910033,-113.43637416992912,414.6663493345084,-45.21347386578288,153.25283779247675
45.515,-0.7043992132972174,0.3014390181921656,0.0073990099823388,0.0378156092447142,0.0088163180023459,0.0229327939982994,0.0047834289093558,-0.0037892909204677,0.0337873087680138,0.9994103000959657,0.0104834460585022,-0.0359015597128339,9.501903307227932,-0.0139954961361513,0.0582003320810732,-0.1004936772533015,-0.0243362703636266,1.697370485406445,5.696506038148208,1140.0798355083887,1114.201921405786,1117.5381372433487,1115.5931740930444,209.5519347802652,-180.8125412552552,522.9033335602006,-55.27580800308466,153.2534712486968
45.5175,-0.7634975935874164,0.1598149290839215,0.1048831842317829,0.0341230816019192,0.0097602828219401,0.0224061403003106,0.0048276532847848,-0.0037847482713195,0.033823884325683,0.9994088721133242,0.0101453232753613,-0.0383609422845102,9.502940729581631,-0.0139922608217424,0.058177705354268,-0.1012587130636093,-0.0243828267735618,1.697516765149178,5.696256966386136,1140.6431542808195,1113.6809900080575,1118.9820618626852,1115.4461115069896,183.82648643787124,-177.8041054730238,492.5348313593285,-46.871292096123966,153.254153741541
45.52,-0.7364581500080822,0.08128167273897,0.1692588949418045,0.0311859036364234,0.009520414540978,0.0229740026817805,0.0048715222340117,-0.003782879024912,0.0338606600063145,0.9994074182358692,0.0096201452092982,-0.040939556489732,9.504011300074346,-0.0139882096754557,0.0581390567183978,-0.1020261359419269,-0.0244284092121143,1.6976638771720187,5.696007378853443,1140.9989679405785,1113.3129008784204,1120.0008114001466,1115.3588176325638,93.8227384908234,-113.51290155529217,325.1574011718432,-20.758689176035045,153.25465260927373
45.5225,-0.6396575911573528,0.0642296204138161,0.1902016670786236,0.0288772762203287,0.00811003323787,0.0245125810284617,0.0049156584005757,-0.0037834279470131,0.0338997780271225,0.9994058648626862,0.0089056745617646,-0.0435713903962027,9.505136931646833,-0.0139859343467988,0.0580823049111331,-0.1027967395889333,-0.0244728176218178,1.6978113570976885,5.695757022262339,1141.112267973274,1113.1134255002808,1120.6078488685453,1115.3423180611092,-12.288830602676434,-44.27044356702415,154.1516719635221,9.968458279727171,153.2550730043883
45.525,-0.5038995987920591,0.1006389205561318,0.1637538048927555,0.0272708693659753,0.0065340847964364,0.0261892850559805,0.0049641222088008,-0.003787615982855,0.0339443922795399,0.9994040820703352,0.0080364991487242,-0.0461223078113458,9.50633879071266,-0.01398852781361,0.0580050488879825,-0.1035710601080374,-0.0245153037364475,1.6979597345549067,5.6955050670862,1140.9375237875652,1113.0915486605857,1120.7715697599635,1115.4086599239624,-154.99598600041537,36.34013218068464,-47.18517279199975,49.69268397441924,153.255424050375
45.5275,-0.3507682293741762,0.1788941641479686,0.0843499091841191,0.026615546157244,0.0058336469667325,0.0272932353586681,0.0050226149670372,-0.0037985644194028,0.0339958592368645,0.9994019850874568,0.0070906708194236,-0.0484258857725516,9.507636626249113,-0.0139997456504378,0.0579049583228809,-0.1043490531039284,-0.0245550912768149,1.6981097160344603,5.695250233574592,1140.3372880432717,1113.2951261611845,1120.3719230045851,1115.5907814809816,-370.48259465381454,140.38870728538407,-291.91301157555773,104.49922156603061,153.25568662471773
45.53,-0.182878911421861,0.2648867228837666,-0.0468125737982092,0.0267807775113868,0.0064985471587419,0.0275498390186772,0.0050931278572404,-0.0038180725715723,0.0340528861511101,0.9993996008206824,0.006124481621629,-0.0503847991096989,9.509048861179961,-0.014023045981147,0.0577810234772358,-0.1051296333455297,-0.0245925273000286,1.6982609372455535,5.69499162811711,1139.0851108142951,1113.7934921970127,1119.312004702085,1115.9311560317929,-542.5202988889782,222.96853620943963,-463.7412449069996,137.72241729101344,153.2558941217158
45.5325,-0.0741615095348788,0.2815130468008054,-0.1605106440589315,0.0272843587005339,0.0082450245571966,0.0269080788389852,0.005172318892499,-0.0038432982450941,0.0341146512768628,0.999396983522939,0.0051074224508008,-0.052001650742194,9.51059218761418,-0.0140601133122871,0.0576341918116626,-0.1059108090987713,-0.0246286639088369,1.698412367445631,5.694729032650896,1137.6246865488292,1114.4099688422307,1118.0532167800523,1116.279393567436,-650.5679761985757,284.2333254889037,-548.0209991535428,137.27338707692323,153.25597438587647
45.535,-0.0054142579115874,0.192888277011806,-0.2505031947000636,0.0277408557124091,0.0108195008507061,0.0257573681629216,0.0052531204242607,-0.0038686889239486,0.0341800109938258,0.9993942283061876,0.0039585280273076,-0.0533516980941044,9.512280384852462,-0.0141110501867618,0.0574671793265405,-0.1066901039378046,-0.0246647641096355,1.6985628525637666,5.694462835907332,1135.8322709333006,1115.214658824458,1116.571899706316,1116.6175229671778,-826.0963411586865,386.7142780907511,-660.2425161399684,121.976084114914,153.25595598588652
45.5375,0.0368058702549762,-0.0574798123399168,-0.3095735291327454,0.0281253505464839,0.0137466466738542,0.0243072632257932,0.0053288792206867,-0.0038895546817626,0.0342470210094436,0.9993914533817752,0.0026154519509883,-0.0545084484239093,9.51412299103505,-0.0141750993409437,0.0572836015985253,-0.1074652000793309,-0.0247021657458663,1.6987112439093996,5.69419392153968,1133.4942048430337,1116.3435402326854,1114.7520041993507,1116.8892739880107,-851.5963622819996,425.4646536393242,-643.3318101114249,58.12813418320559,153.25581829759616
45.54,0.048660492527979,-0.3716505475413746,-0.3107645487899338,0.0282777636085284,0.0151713670339471,0.0230954013421772,0.0053972322904858,-0.0039037521830645,0.0343135378966849,0.999388752628902,0.0010675106132649,-0.0554728491616587,9.516124527451527,-0.0142510607276218,0.0570869920290021,-0.108234509145242,-0.0247414181927398,1.6988571033127946,5.69392317295314,1131.5742891218945,1117.3419820926529,1113.3552406557617,1116.9081636380936,-713.4187969563743,381.89966618682337,-501.56616428927725,-54.19259272732189,153.25560698617195
45.5425,0.0512583378477142,-0.74252783086998,-0.2618966079071063,0.0282667749969311,0.0145988268167057,0.0219350478204584,0.0054586934340662,-0.0039112858422508,0.0343763192332956,0.9993862352775252,-0.0006541981084798,-0.0562013187765715,9.518284744020628,-0.0143375457073521,0.0568807817915423,-0.1089970716689477,-0.0247825202015669,1.6990005564350752,5.693651192564976,1129.92711085825,1118.2530385636203,1112.244173377903,1116.618311024374,-579.2884910626291,322.574892480287,-380.0984917746848,-173.87046857843615,153.25529622205218
45.545,0.0569289526020816,-1.1027961882880468,-0.1774034842497556,0.0281466149651069,0.011991102322612,0.0210200291355105,0.0055142340280586,-0.0039130185313046,0.0344307365716232,0.9993840537555654,-0.0025040529538618,-0.056651992401923,9.520599152333235,-0.014433004155645,0.0566684999764366,-0.1097522617774282,-0.0248256908739066,1.6991417021663364,5.6933783901918575,1128.6778466665799,1118.9548565550551,1111.4547481968873,1116.0388112952007,-373.0556505390933,198.3230054832332,-230.64793786486976,-297.9420598887354,153.25490436402717
45.5475,0.0762807603002973,-1.3778906802094266,-0.0635854947414706,0.0279057681877167,0.0071878398423516,0.0205857117747137,0.0055659616438109,-0.0039104303956159,0.0344731403649179,0.9993823192924012,-0.0044269216051779,-0.0567723427034833,9.523059164062678,-0.0145357088347969,0.0564534151965008,-0.1104997348730215,-0.0248711118420629,1.699280992207756,5.693104909746001,1128.0618326055562,1119.2446535910356,1111.0909336885795,1115.1286007249319,-107.25373594299496,3.0058964905932126,-70.21354517265581,-457.3065816146416,153.25441727142044
45.55,0.1214981611717467,-1.5400819566384385,0.0843642196975579,0.0277278769087559,0.0001230342111341,0.0206946546160743,0.0056155179219352,-0.003904554044462,0.0345054880159102,0.999380954323406,-0.0063800178411653,-0.0565291823278389,9.525652571369017,-0.0146433011593422,0.0562387912352335,-0.1112391112502911,-0.024918540366029,1.699419148103663,5.692830453138521,1128.1415779868646,1118.969886037508,1111.1036804710238,1113.7522783871264,160.8866401070004,-212.185557701269,62.25721076854368,-528.8792588399269,153.25372682038153
45.5525,0.1763206774767836,-1.5146048993972727,0.200085672753266,0.0279363278332301,-0.0058745123737605,0.0212873431253358,0.0056616209859428,-0.0038964262513383,0.0345327137665904,0.9993797931924744,-0.008326094588193,-0.0559554295664482,9.528363997253992,-0.0147534747754135,0.0560282409218438,-0.1119695296965027,-0.0249673007704129,1.6995564636827936,5.69255457478944,1128.8662658060916,1118.183725802529,1111.4022197424226,1112.4842044307309,403.8340182950868,-419.67838770271527,151.90565273396888,-497.41185916882154,153.25306672637703
45.555,0.243035243644902,-1.3377831008599668,0.2905162265120323,0.0286373155421892,-0.0108721481968534,0.0222686050184974,0.0057018773568292,-0.003888371787845,0.0345576912251999,0.9993787403129722,-0.0102076017065566,-0.055115861645041,9.531174900461423,-0.014865075574057,0.0558251376465853,-0.1126897073557998,-0.0250165848156079,1.6996927677045894,5.6922767402265775,1130.1607480783382,1116.8714940989964,1111.8632087346928,1111.2652190912847,587.5221112388203,-588.9263914248103,191.85217681564777,-450.25075102948927,153.2523235722415
45.5575,0.3152967572310953,-1.0725461119051487,0.3510106778689878,0.0295709234826876,-0.0142249918893297,0.0233752202448822,0.0057368001138056,-0.0038846366179615,0.0345830945612677,0.999377682221583,-0.0119315100024761,-0.0540301493705661,9.53406349467939,-0.014978179455029,0.0556317099178996,-0.1133983487474121,-0.0250652760642456,1.699828334709497,5.691995862439756,1131.803876362283,1115.2390938454075,1112.3614806265,1110.2329506755855,707.7139604117764,-685.5683980236012,192.9082920391388,-333.15537187478424,153.2515156467135
45.56,0.3925249637706935,-0.760756980484749,0.3701491591026666,0.0305209176187789,-0.0153191469801137,0.0245168560584271,0.00577101103343,-0.0038906502841467,0.0346107291264681,0.9993765077707728,-0.0133819733033544,-0.0526482670899853,9.537005160702424,-0.0150939793968888,0.0554486678536604,-0.1140944086839442,-0.0251122154611519,1.6999639092765002,5.691711022946109,1133.699317880399,1113.4436521088767,1112.8277501948892,1109.59944223191,849.3098006536659,-758.2058327177707,193.4719709910416,-149.5263270808354,153.2506351529285
45.5625,0.4920753999921113,-0.4015693787218463,0.3445300608847535,0.031401416065564,-0.0146379766921935,0.0259451236255636,0.0058102976467233,-0.0039086578808212,0.0346410873223815,0.9993751570794436,-0.0145049816094123,-0.0509023446267817,9.539973677717793,-0.0152136089227144,0.0552758000529724,-0.1147771665894661,-0.025157153256916,1.7000998059170975,5.691422380432888,1136.0504253655536,1111.4480646818167,1113.3288404814557,1109.485319040181,846.1098013026423,-655.5080323094949,181.56980472552416,81.57371430255041,153.24950254816088
45.565,0.5799282730965082,-0.1427790913931135,0.28642072346917,0.03190820901157,-0.0134233229656425,0.027071680183921,0.0058585966002608,-0.0039365974030256,0.0346746621191636,0.9993735976243991,-0.0153314105083014,-0.0487620544500637,9.542942393122607,-0.0153373722560748,0.0551127534270823,-0.1154462561241535,-0.0252004706609736,1.7002362760199423,5.691130632541944,1137.9298668869083,1110.166111947332,1113.735599218516,1110.0073108034223,706.6476953768438,-388.4446160285111,176.12148327998597,335.0857039486632,153.24850164649072
45.5675,0.6626388373894769,0.0736582816174513,0.2004036293998094,0.033043182937513,-0.012915695455815,0.0278509736915442,0.0059165703859355,-0.003970901377266,0.0347106824993288,0.9993718659114674,-0.0159243444432369,-0.0462622810694119,9.545885179291453,-0.0154651747677011,0.0549594703417975,-0.1161016875099705,-0.0252428252265762,1.7003736109751604,5.69083677995916,1139.5836638424396,1109.5058416016732,1114.209447897856,1111.160747559925,651.9919628476903,-123.61055154117864,239.63845435938785,621.8204813463219,153.2474495619712
45.57,0.7323027147667953,0.3104100063886495,0.0827645613897572,0.0359803221196022,-0.0133537147013786,0.0282554570520455,0.005980468213238,-0.0040064712815082,0.034747912763077,0.9993700465351952,-0.0163802142149819,-0.0435235685302021,9.548777724974457,-0.0155961674662947,0.0548166428650896,-0.1167438758698699,-0.0252855688957486,1.7005113314297302,5.69054206004693,1141.1898267011484,1109.548059189626,1114.9337914903135,1113.1164132101555,516.008660574349,149.62158257235353,295.5347621830202,773.3517344390051,153.24613743965844
45.5725,0.7515119023320039,0.5054547348342027,-0.0128884230232067,0.039090439191523,-0.013817402127884,0.0282887295008633,0.006044923101466,-0.0040375553738223,0.0347867282395814,0.9993681804292768,-0.0168101290804826,-0.0406980795707068,9.551598270757935,-0.0157286482008889,0.0546852859370545,-0.1173739052149201,-0.0253300097098524,1.7006486231401698,5.690247251658918,1142.1637071453088,1110.2539495145343,1115.6871217087698,1115.0275062321164,311.01750436507706,393.81917470862254,325.57939154027446,767.7055119634751,153.24500947020462
45.575,0.7314914805181553,0.6988308040206779,-0.0895151352174935,0.0414314837380133,-0.0133014949876279,0.0281554407274321,0.0061067691172726,-0.0040607478274646,0.0348297126847845,0.9993662092730335,-0.0172799859596583,-0.037897457679238,9.554327835999455,-0.015860834600465,0.0545659476924498,-0.117993674482752,-0.0253765486920595,1.700785053606622,5.68995262732302,1142.7449142229743,1111.51715506317,1116.5616884480155,1116.9549407699749,171.65668880657307,566.5032458986219,356.61020679894995,733.7820859843188,153.24385356175307
45.5775,0.6923457838960179,0.8756836130102648,-0.1384041113191154,0.0429016555870235,-0.0114965257342186,0.0277465580609263,0.0061648954820483,-0.0040754296996213,0.0348811104096763,0.9993639930469675,-0.0178019609126932,-0.0351946591806671,9.556950811481778,-0.0159912771025735,0.0544586921473919,-0.1186056138750147,-0.0254249374446495,1.7009204350391232,5.689658247166848,1143.0219905893423,1113.0864657440288,1117.4701727427655,1118.69641666204,50.334730028908176,659.2829504305968,347.75193295849726,614.0110173818939,153.24268022368543
45.58,0.6488482874857721,1.006410126359636,-0.1406120969685784,0.0436806166862986,-0.0083972413510769,0.0268899124744931,0.0062194004109597,-0.0040820178901464,0.0349428374085543,0.999361461397362,-0.0183684247075144,-0.0326378390886378,9.55945547124188,-0.0161191465632593,0.0543630725170574,-0.1192123742847777,-0.0254745586134916,1.701054926794971,5.689364079058674,1142.9965878731189,1114.81356981532,1118.3004481128066,1120.0249958568816,-54.66241209016448,743.1486589161813,310.4585759484738,462.68041402217,153.24149261480193
45.5825,0.604155425531743,1.084643375462074,-0.0792318254409346,0.0441161650986455,-0.0043142104774043,0.0255802342335743,0.0062720922484427,-0.0040804941668516,0.0350154557800023,0.999358582998427,-0.0189795093362138,-0.0302386861260014,9.561833917377674,-0.0162439730373934,0.0542779341058059,-0.1198166586392103,-0.0255244859088231,1.7011892664929351,5.689069983494711,1142.748678528891,1116.8022090386116,1119.0224656225087,1121.009818732152,-101.36119389243775,679.9672778619583,191.28593525392023,259.296053878783,153.2400594594705
45.585,0.567980908908908,1.0780527198344616,0.0229684233732663,0.0445043549642954,-0.0011894949411463,0.0247492708502209,0.0063244545545424,-0.0040715020510477,0.0350982613019161,0.9993553697736136,-0.0196232951265665,-0.028011019202215,9.564081926100302,-0.0163659481108675,0.0542018706669994,-0.1204207071711868,-0.0255738699658199,1.7013240304759731,5.688775664561133,1142.4897819036564,1118.2134062046316,1119.2568777890767,1121.321476126276,-79.27358700124321,478.74789294130886,-10.072054360271132,39.431358764240414,153.2388644870678
45.5875,0.5080706505014119,1.0015378408318545,0.1620065721750527,0.0454811787490938,0.0015444370358525,0.0247788276225914,0.0063769358189232,-0.0040576979895387,0.0351860202166562,0.9993519886941636,-0.0202503872530659,-0.0259844576492668,9.566198325709834,-0.016486540872981,0.0541333444582036,-0.1210259499922123,-0.0256222220597327,1.7014591933758476,5.6884807739398555,1142.3523105938855,1119.195948503316,1118.9721053507071,1121.2069755259731,-9.908232733636783,304.2457993967936,-210.7538115943784,-90.66930667731776,153.23767569803283
45.59,0.4007412038329423,0.8755626452307924,0.31305732843168,0.0472131279182898,0.0040345997937011,0.0255687539830227,0.0064287075786156,-0.0040422511943001,0.0352735648161415,0.999348610088659,-0.0208024113505103,-0.0242071957043466,9.568184245931718,-0.0166074691155117,0.0540709534920127,-0.1216328746071278,-0.0256693979329209,1.7015945877648895,5.6881845269349744,1142.4402407399882,1119.7346352016164,1118.2031087311043,1120.868129592889,110.34342002661828,100.88448679134056,-418.25959563044734,-154.09249372361347,153.23649668397707
45.5925,0.205233207132328,0.7038622406340697,0.4563412042156371,0.0495802737110067,0.006155563045703,0.0268572948104061,0.006477740386113,-0.0040278173980822,0.0353577767188265,0.999345342930486,-0.0212314001768455,-0.0227431647612927,9.5700421548193,-0.0167300215712707,0.0540135324423944,-0.1222410024631548,-0.0257157614043142,1.701729955769115,5.687885788010849,1142.9040276940189,1119.7003709372727,1116.880807372554,1120.4365130573547,297.46224604600445,-136.11260203673385,-672.7637080243064,-169.92596460442647,153.23533416108555
45.595,-0.1472115873673831,0.4674631215737843,0.5965932497993244,0.0522085722577077,0.0081242556877445,0.0285168244957335,0.0065244123894028,-0.0040160801515265,0.0354355259590551,0.9993422864372634,-0.0215062249557393,-0.0216022089721838,9.571774235714669,-0.0168550118493959,0.0539592235525388,-0.1228493545721028,-0.0257623090338107,1.7018648297459595,5.687584025072939,1143.9275519702169,1119.0540721914333,1114.8392901909858,1120.018499769868,440.28491272556704,-313.86473417648943,-778.0033630244019,-115.26830994842852,153.23396306074977
45.5975,-0.523599808568168,0.2648642151029049,0.673779987231987,0.0534645798323646,0.0093970707912959,0.0299631221615098,0.00657178498435,-0.0040075602238093,0.0355032055872289,0.99933954698044,-0.0216161419554392,-0.0207342663351707,9.573381425288009,-0.0169826942717121,0.0539053490298654,-0.123456669149024,-0.0258101401572863,1.70199911961172,5.687279139053443,1145.1054522576478,1118.1310472663895,1112.99079055743,1119.8601715076122,503.6246296583765,-405.82922812666015,-700.4873279742751,-14.71791689781796,153.2328430932375
45.6,-0.9320756389673408,0.0848853897314042,0.6942663064838241,0.0526017316757066,0.0098427013522014,0.0316577826008432,0.0066243467161743,-0.0040032320898661,0.0355569259189581,0.9993372332206074,-0.0215407879654859,-0.0200542490822842,9.574862895087673,-0.0171131888461881,0.0538486800171789,-0.1240614444308283,-0.0258598630663592,1.7021337397985363,5.68697098133562,1146.44567511851,1117.0249260507987,1111.3368535511127,1119.9449101853788,570.762169554492,-471.6281828257448,-602.1347551435175,80.70694462351702,153.2317487680327
45.6025,-1.365781237634438,-0.067854680822788,0.6351678985609456,0.0480159451597472,0.008691810870861,0.0341866691665818,0.0066839316812707,-0.0040032174172486,0.0355965343427815,0.9993353430034094,-0.0212778121254727,-0.0195191526467841,9.576216529904716,-0.0172458656089482,0.053786587470383,-0.124661816150392,-0.0259114320077006,1.7022694924600472,5.686659631905449,1147.9592631054177,1115.7729063522631,1109.9801167817152,1120.2637062307294,497.1061073836339,-408.3881840159577,-347.0370935692288,131.30044149682013,153.23046644785563
45.605,-1.6129030182659585,-0.1221514970146146,0.5068320914277377,0.0417815836724766,0.0067030488218421,0.0366405295139718,0.0067465814163941,-0.0040037871796525,0.0356255775815441,0.9993337959350992,-0.0209024559496535,-0.0191863245057216,9.577439704178182,-0.017378786065506,0.0537179473287968,-0.1252556039816164,-0.0259642758353266,1.7024059047104996,5.686345613757164,1148.9312056554295,1114.982985130718,1109.6016680832656,1120.6014123928633,289.08265739108845,-230.7580100317138,31.317857025789984,119.00831628616567,153.22942361940488
45.6075,-1.6933059067040055,-0.0999234738178692,0.2985711597608315,0.0350748657986815,0.004918667789998,0.038892167932639,0.0068070463459307,-0.0040019218540014,0.0356463152419965,0.9993325664331568,-0.0204774686938248,-0.0191310030759169,9.578528640620448,-0.0175105827148199,0.0536420711083977,-0.1258408404788949,-0.0260173703708051,1.7025424948127332,5.686029227199546,1149.4046763923739,1114.619116302104,1110.1367060668442,1120.8587478121603,90.37472963954349,-64.02608193276504,359.63572556657675,70.56641498099503,153.22840675663812
45.61,-1.6340458807453695,-0.0348220127080535,0.0405940782619817,0.0292836924573032,0.0040114461446536,0.0403000269023893,0.0068603432347026,-0.0039986683576956,0.0356596242364902,0.999331660239316,-0.0199876946565657,-0.0194194497928271,9.579478622880618,-0.0176413949415263,0.0535584380622214,-0.1264159776503457,-0.0260699056651096,1.7026790357971309,5.685710385512961,1149.3830793036268,1114.6628547210546,1111.3998467110969,1120.954244467768,-129.4682068254835,110.70695938746005,643.1038894247997,-10.649473231109376,153.22741066214476
45.6125,-1.4392989066757098,0.0397969202611133,-0.24006137499708,0.0252224737068813,0.0043899411973537,0.0399270818280778,0.0069027188645411,-0.0039963811913284,0.0356672247557376,0.9993310330443532,-0.0193920437532119,-0.0200894098213631,9.580284867632344,-0.0177718999294489,0.0534665272760374,-0.1269802450320828,-0.0261218642220416,1.702815120329737,5.6853894089442445,1148.757335358246,1115.1726510990416,1113.3522255139699,1120.8055004460048,-395.7388792220876,304.8734367409711,940.5588114623888,-112.65436219267632,153.22643892563204
45.615,-1.111131977433604,0.083695345408272,-0.5477653822290766,0.0220546371381116,0.0059347349208438,0.0375383311371718,0.0069354598663097,-0.0039956293331501,0.0356728392402096,0.9993305446742412,-0.0186800946318645,-0.0210760429319925,9.580943089870388,-0.017902325653305,0.0533648322323487,-0.1275342952166483,-0.026173609536332,1.702950775013056,5.685067256217093,1147.4043849075151,1116.1872219047602,1116.1026407684112,1120.3909726568043,-570.6924737098424,409.44337413148736,1009.3445249664996,-169.62309782440536,153.22530048588214
45.6175,-0.8037721680832093,0.0517774938221767,-0.748026382638242,0.0204489651897835,0.0074273949918906,0.0348034678264137,0.0069620213488338,-0.003996965517636,0.0356803352919606,0.999330046291282,-0.0178404135920599,-0.0222693356399822,9.581451082343198,-0.0180329638677111,0.0532514896080409,-0.128079859578641,-0.0262252222089435,1.703086580633324,5.684744843114201,1145.9038729896995,1117.2198679696971,1118.3989481387976,1119.9573849568835,-639.1340449936607,414.4387061444053,842.674173456037,-155.22137175130885,153.22437471624698
45.62,-0.5043409560856327,-0.0663895284263227,-0.871309092741986,0.0198215574111384,0.0083952238820418,0.0321175446993282,0.0069856457003714,-0.0040026372928731,0.0356918853786133,0.9993294547343828,-0.0168297222253743,-0.0235622529921416,9.581810098967837,-0.0181646970005751,0.0531248550521157,-0.1286193272363258,-0.0262761086276878,1.703223553113422,5.684422817998491,1144.20871468255,1118.2594154354804,1120.3160116356876,1119.6148657980484,-680.4912940716961,394.3141589528097,658.7805440248569,-94.9807273782395,153.22347294492442
45.6225,-0.2331584866108746,-0.2523291290825281,-0.9294518931784884,0.019933423085819,0.0087590532438698,0.0296146274248479,0.007007942475939,-0.0040130361687797,0.0357099976874133,0.9993286815430245,-0.0156421167804196,-0.0248769568488465,9.582026134400216,-0.018297729437948,0.0529840452109246,-0.1291555260150371,-0.0263259834357857,1.7033620956593,5.68410152855734,1142.5014165193393,1119.191438764462,1121.6928508589235,1119.4824813199923,-654.9713626781628,331.4992839947204,390.30915417045475,18.19491380059823,153.22259146760695
45.625,-0.0071399840738244,-0.5020256211370427,-0.9158500023390292,0.0204514365728299,0.0084078653673571,0.0272294334581862,0.0070273594408266,-0.004025824607619,0.0357346356785276,0.9993277275252204,-0.0143273714353084,-0.0261951036080926,9.582110754672689,-0.0184314658167713,0.0528294569557426,-0.1296913151005147,-0.0263756821568039,1.7035010687601675,5.68378096564693,1140.9338578691575,1119.9169118554548,1122.2675574065408,1119.7058403670515,-630.7728061454152,266.7928933169304,65.85326870696541,181.67172679353064,153.221735237963
45.6275,0.2152423358200759,-0.8395077653472773,-0.8301061010961814,0.0210686325193523,0.0070677067552001,0.0244580189557194,0.0070414017164676,-0.0040396410832364,0.0357608607006635,0.9993267624965816,-0.0129189799080494,-0.0275194803788086,9.582080618948574,-0.0185655925147349,0.0526623311186101,-0.1302293627855185,-0.0264263410098185,1.7036388061010639,5.683460549404449,1139.347552488615,1120.5254032310456,1122.0221172024583,1120.3908399539591,-524.1437631697455,183.41604013116637,-221.25329228845249,301.8952271585751,153.22073821238197
45.63,0.3697570964900193,-1.1183479420706897,-0.713291122852607,0.0215565976110283,0.0047798924015125,0.0224422505897018,0.0070489880522945,-0.0040539794877023,0.0357838954627075,0.9993259466780609,-0.011435126356276,-0.028830272409267,9.581956833294877,-0.0186995357383914,0.0524843185602234,-0.1307721332822288,-0.0264786507928379,1.7037741149767642,5.683139374492136,1138.3131390533072,1120.8339920561111,1121.161290945098,1121.215316502845,-354.9015479106405,89.36192200994786,-428.9982684621997,341.6168245145471,153.21993350960284
45.6325,0.5045191119623391,-1.3497759770553879,-0.5671833254077054,0.02225387584325,0.001221100577388,0.0210115598772699,0.0070529662334295,-0.0040688744394367,0.0358022041043192,0.9993253021131484,-0.0098833220213983,-0.0300380935601248,9.58176395653399,-0.0188322336240468,0.0522967354870524,-0.1313219910170964,-0.026532469909467,1.703906985146286,5.682816836674975,1137.5730447490607,1120.9722128410956,1119.877125860146,1122.0989240765327,-265.79891187404047,25.766720606021195,-590.535573432217,344.62792158664763,153.2191563890951
45.635,0.6514379891228557,-1.5264522962727198,-0.379023833131831,0.0235330854647594,-0.0041143289845173,0.0199681410652864,0.0070596023440442,-0.0040836362142497,0.035818604812451,0.9993246784018204,-0.0082852675551279,-0.0309941602562814,9.581529268969454,-0.0189618967913282,0.0521004393432473,-0.1318811269589335,-0.0265874105117992,1.7040381582250403,5.682493009984294,1136.9841444939384,1120.9628256591411,1118.2086130779396,1122.9384561107768,-172.53309139096285,-34.28404284448399,-582.779149468226,232.92335127245585,153.21825557834092
45.6375,0.7623706992084814,-1.5668621458205803,-0.2242089247573145,0.0249890870561948,-0.0090899680060842,0.0195371850525648,0.0070738345065969,-0.0040969018166043,0.0358359585858543,0.9993239401657256,-0.00667934968093,-0.0315822077874751,9.58128233563088,-0.0190866130635245,0.051896680821994,-0.1324510361216402,-0.0266432555329382,1.7041680771244143,5.682168110434153,1136.7103792921057,1120.800792626873,1116.9632301128036,1123.2635408328956,-69.10801652257862,-103.21815592919114,-422.4172921940975,24.6763072852774,153.21753080088516
45.64,0.8575551411776727,-1.488501078569674,-0.0815477112779819,0.0268653630329255,-0.0138141316084277,0.019405074961145,0.0070991914163149,-0.004108016286899,0.0358559904066674,0.9993230040334558,-0.0050941576134038,-0.0317216188665686,9.581053494352332,-0.0192049560022546,0.0516869551054587,-0.1330324190020384,-0.026699351525126,1.7042974248456593,5.681841880181701,1136.638604411325,1120.446734879495,1116.096526616968,1123.0618376472032,4.719243869480779,-178.72955748346496,-265.9065124206026,-169.19132427576113,153.21683174092274
45.6425,0.9346700022739104,-1.3207206329824308,0.0469800185714742,0.0290942822947794,-0.0177338813662201,0.0194447717575646,0.007136759102327,-0.0041168586947631,0.0358808324146427,0.9993217899954095,-0.0035522092707375,-0.0313874180447968,9.58087251636199,-0.0193158201269152,0.0514732781683424,-0.1336250564921101,-0.0267553385924762,1.7044265319425964,5.681514023161632,1136.733975511453,1119.9071448394564,1115.6336975507015,1122.4175842115176,81.23999034838043,-263.081028098306,-87.9250320976103,-340.81498814058097,153.21615275793
45.645,0.9839283246975788,-1.0681524739998478,0.1559875729744178,0.0315886729102722,-0.0205409967537616,0.0196724436761833,0.0071839651928455,-0.0041240269684367,0.0359100377561967,0.999320335566515,-0.0020668848132425,-0.0306336985887625,9.580767287157277,-0.0194187623396361,0.0512584134660903,-0.1342276837957461,-0.0268117638486979,1.7045546784350327,5.681184393162429,1137.0448043630674,1119.1313297390027,1115.6569014564795,1121.3577627064994,188.99379076610208,-390.80102591395206,98.41119667175427,-508.3607679936577,153.21549601566608
45.6475,1.0057584170881484,-0.7007027965332429,0.2614926876364019,0.034641601936697,-0.0228057152182046,0.0202214368968764,0.0072387437804506,-0.0041307822837324,0.0359420104410154,0.9993187164429856,-0.0006400696485682,-0.029513619834791,9.58076177415819,-0.0195138781994632,0.0510448008194264,-0.1348384555282593,-0.0268688844889527,1.7046816755553746,5.680852603767558,1137.678944465284,1117.9531397098858,1116.1257535340608,1119.875780371548,273.9087474569023,-463.3149629341127,216.90447488241887,-532.550819618275,153.214730571139
45.65,0.9915653122572387,-0.3632565423480884,0.3257375270183389,0.037151960465281,-0.0239214057977984,0.0209832635530415,0.0072997747737514,-0.0041395227973979,0.0359761450918132,0.99931696723858,0.0007477475082335,-0.0280747637471899,9.580874723239626,-0.0196017617000199,0.0508345082811583,-0.1354550231319931,-0.0269263516539143,1.7048081193036455,5.680518302700835,1138.4143481003507,1116.8147549243342,1116.7414238308909,1118.6950086084105,329.10081643382443,-470.5316383347829,256.1527665564026,-414.3622719987588,153.2141092241528
45.6525,0.9443540630126602,-0.0161503973066238,0.3624250760816983,0.039583533188136,-0.0244109412338662,0.0221173436298536,0.0073647609264775,-0.0041534304481122,0.0360117408659224,0.999315133370816,0.0021301890583891,-0.0263912696992883,9.581118994294004,-0.0196835538822521,0.0506296123948719,-0.1360744952139713,-0.0269832826722105,1.7049348742453367,5.680181563081243,1139.324448547454,1115.6004815182107,1117.4065173668434,1117.8039690115531,384.4894674787008,-482.9667362221501,250.530917481282,-288.22768949397675,153.21350251109376
45.655,0.8715921079537021,0.3230695058267858,0.3761693099601732,0.0417780239406875,-0.0244355821050268,0.0234986087631172,0.0074304138537939,-0.0041731497522268,0.0360502970675321,0.9993131911414804,0.0034921485767497,-0.0245610816362108,9.581501256402557,-0.0197597591881546,0.0504323114092271,-0.1366937251004942,-0.0270391348665925,1.7050623542127648,5.679842461163385,1140.3367954377452,1114.3999212432223,1117.994078418298,1117.2538701609399,419.0381148080351,-458.2253256176575,196.14645567566745,-136.31165136233568,153.21290633721057
45.6575,0.7709918106093125,0.6303000247436211,0.3682687956065767,0.0435300304906462,-0.023601286187105,0.0248561239806924,0.0074924863513288,-0.004195778741122,0.0360931139866584,0.999311126466624,0.0047511289055191,-0.0227036632431727,9.582021844699858,-0.0198300636346698,0.0502449410590599,-0.1373095001166568,-0.0270944429835265,1.7051898032701387,5.679500811202013,1141.4196391214923,1113.3093548901245,1118.387249645221,1117.122410754742,480.836988829405,-433.483813764684,113.46434452719784,14.743766803477872,153.21232128999875
45.66,0.6195689616289792,0.9260218626597124,0.3509930899201998,0.0453505600497655,-0.0210575155548615,0.0259938961973175,0.0075462891512947,-0.0042186616974245,0.036139107645452,0.9993090091476224,0.0058308054162721,-0.0209515963670479,9.582674408167918,-0.0198944441616371,0.0500698823688709,-0.1379185805495999,-0.0271498449687345,1.7053161131614143,5.679156271456398,1142.7409803818935,1112.2325021743975,1118.5614001409342,1117.3275889949573,480.8678620434689,-344.81908171201763,11.89585128408299,104.89429866615046,153.21163049977793
45.6625,0.4661555807751833,1.08463695256338,0.3465724162546335,0.0468969174720116,-0.017626689163567,0.0265002113805653,0.0075886486758825,-0.0042401875621633,0.0361876167404984,0.9993068832468384,0.0066783619753855,-0.0194124945391679,9.58344593021227,-0.019953065526486,0.0499091059288119,-0.1385180481795366,-0.027205579364746,1.7054406891454374,5.678808332777448,1143.8239784317109,1111.5852594815635,1118.446728901641,1117.646882248073,422.1927113243712,-198.92786530453932,-91.84051369260656,115.16020727218816,153.21106338872443
45.665,0.2829522954485829,1.13077280371236,0.3699660908469502,0.0482972494530895,-0.0132630588164226,0.0267094177266269,0.0076211146783743,-0.0042590262464609,0.0362389216251632,0.9993047259910758,0.0072527249770879,-0.0181056803787496,9.584317010150496,-0.0200060719740365,0.0497631375061473,-0.1391059009138166,-0.0272612736927537,1.7055640804791004,5.6784567048647245,1144.8519439385132,1111.237862847876,1118.1021975724716,1117.9033900313177,432.47143224667224,-81.2019937953249,-181.50659127054303,51.90222197208713,153.2105045327089
45.6675,0.0348205880252715,1.060641092494249,0.4398219567363162,0.0493301202856811,-0.0080135175683582,0.0269244155992299,0.0076489169067751,-0.0042727315796663,0.0362928285019553,0.9993025109716396,0.0074976447492158,-0.0169796084859887,9.58526330708532,-0.0200533532262362,0.0496310913737414,-0.1396813036142882,-0.0273169120747511,1.7056868043270743,5.67810215484988,1145.9863355929451,1111.1792495125867,1117.539195945288,1117.9063933579337,394.43902547989467,35.66248738691677,-207.48410775480195,-72.93900467571709,153.20984322506078
45.67,-0.1839122780933428,0.9256446979897816,0.529464111106918,0.0494648444473282,-0.0046234689369146,0.0274567538598672,0.0076758301235234,-0.0042781483435626,0.0363454129692358,0.999300363131191,0.0073463890785335,-0.0160087503430388,9.586257844644592,-0.0200949319861463,0.0495118546664755,-0.1402443243506065,-0.0273733276746871,1.7058082511191504,5.677746250553795,1146.8241390659139,1111.4161752848106,1117.064777033697,1117.5386950079387,306.4335041581275,146.6311110323173,-161.41411318550254,-230.747271727824,153.20930006570399
45.6725,-0.3946658807097392,0.7678416260183641,0.6356030809228359,0.0487389457823846,-0.0028592867317779,0.0286822887891824,0.0077056799690674,-0.0042735617466469,0.0363912293457946,0.9992984591179568,0.0067646535359664,-0.0151645888107053,9.587272039730397,-0.0201314102797143,0.0494036694393657,-0.140796090419318,-0.0274309367680337,1.7059283249991637,5.677390389788301,1147.5185031137344,1111.9124050677476,1116.7321253793612,1116.7526569992956,248.86768356901484,233.4023022716053,-93.5383092659298,-370.169146436903,153.20876572428955
45.675,-0.5815254459442922,0.6390507227092888,0.7379138387881495,0.0472910323653353,-0.0023813350241655,0.0304605765674397,0.0077425494434313,-0.0042600480991231,0.0364272465301185,0.9992968770983424,0.005777406588865,-0.0144109893453808,9.588277025860714,-0.020164103869231,0.0493041060211079,-0.1413386378828802,-0.0274897824166003,1.7060476533016136,5.677035663766135,1148.0684774837596,1112.5831867961692,1116.5970854873672,1115.6878492757535,179.810786969664,298.8879427523733,-1.4428288015089388,-456.4714977229808,153.20823942705303
45.6775,-0.7210476887050243,0.5916464039935491,0.8141105634455766,0.045125779756874,-0.0029865341063535,0.0328315383824368,0.007787231077892,-0.0042408671771159,0.036455042412392,0.9992955466729369,0.0044555320535254,-0.0137701360007678,9.589245754912191,-0.020194804758671,0.0492110463996557,-0.1418742963887359,-0.0275496499544016,1.70616672460585,5.676682639130888,1148.4175570485831,1113.4068447815102,1116.7249112353538,1114.4702995106795,104.32403183995513,382.15120529660646,102.35744995361743,-511.0815545935212,153.2077240739439
45.68,-0.8189873864817105,0.6546542400247684,0.8544981955028373,0.0420110377447319,-0.0039387089958635,0.0361412995946749,0.0078385905837197,-0.0042202529509727,0.0364807207825653,0.99929424738728,0.0028941954307099,-0.0132939820104293,9.590153938749971,-0.0202256301980663,0.0491222706351733,-0.1424054624006631,-0.0276098775585586,1.7062860949066736,5.676330879996994,1148.5900976429589,1114.4939428226503,1117.1088727371348,1113.132441502788,24.79320369973247,404.14114712666935,156.1657171704666,-428.2764457753076,153.2071203686379
45.6825,-0.8413946624043404,0.794461064264103,0.8394198128813146,0.0393111032078046,-0.0038315316351095,0.0387853597095581,0.0078961077116897,-0.0042028670311384,0.0365111551624152,0.9992927284025538,0.00120442457011,-0.0130137467896238,9.59098029282243,-0.0202593599697549,0.0490346405382895,-0.1429344441890772,-0.0276695896087855,1.706406733241518,5.675979628637628,1148.541523067082,1115.4275505171415,1117.5057398212055,1112.3289172818047,-51.07081361740826,368.3181213998003,140.13653104641088,-220.02615884801,153.20663138580716
45.685,-0.8130187935502213,0.976641067499642,0.7778752965637438,0.0371878303504019,-0.0016054288946821,0.040521331801105,0.007959372592042,-0.004193207321311,0.0365492245210406,0.999290886931842,-0.0004985660659276,-0.0129481506036458,9.591706967502317,-0.0202997004547898,0.048944209388069,-0.1434630977458527,-0.0277278696994673,1.706529912145241,5.675628040640207,1148.3347435748717,1116.3355334296505,1117.8095553923672,1112.0323107085476,-100.95475099582764,353.647315672698,81.3900030112147,-20.459273473387377,153.206159634439
45.6875,-0.7562687368353003,1.146889357662903,0.6839920292711569,0.0356168113927474,0.0022094109836918,0.0415544972635542,0.0080275166605492,-0.0041925112364965,0.0365977328109184,0.999288629153342,-0.0021550637424057,-0.0131118286775279,9.592319865796803,-0.0203498067001119,0.0488468167549765,-0.143992700283349,-0.0277839651844145,1.7066563812294993,5.675275235340532,1148.0367493121023,1117.195787095506,1117.9126898362615,1112.226620914438,-133.02016894184183,330.8668392130411,-27.742731561991366,195.2296235400765,153.2057043884139
45.69,-0.6806069177178837,1.2561795583004756,0.5515884507462615,0.0341701643256594,0.0066487155788335,0.0427097756939778,0.0080990787993882,-0.0041977284238607,0.0366578147097991,0.9992859145529412,-0.0037811839687818,-0.0135172834483957,9.592808390703166,-0.0204118075155784,0.0487384959073832,-0.1445239088402082,-0.0278377090915739,1.7067857908646245,5.674920365466432,1147.669642730163,1117.989867625714,1117.6708417345571,1113.008458826247,-172.24243305632,337.93854493006614,-193.99545680556992,455.76204694897893,153.20527190771432
45.6925,-0.5817374875586818,1.285369482720263,0.3387886107400267,0.0323433992871876,0.0115401760068575,0.0448825262733989,0.0081725409419534,-0.0042053524904603,0.0367239964148152,0.99928293506738,-0.0053960617596826,-0.0141679989066405,9.593164518417309,-0.020487995331444,0.0486156327603552,-0.1450567002656696,-0.0278894077599929,1.7069172118818279,5.674562713536838,1147.1755371468205,1118.8854798201571,1116.9427125522332,1114.505431149184,-190.72084174244327,324.53814666907186,-330.81670992707035,610.6858998270186,153.2047829475036
45.695,-0.5008012935757356,1.2200346793143628,0.1128178472405213,0.0309995981327858,0.0150366684905153,0.0467497244417561,0.0082436962194797,-0.0042128914943231,0.0367868763830971,0.9992800458371668,-0.0069965880493249,-0.0151112564838589,9.593382732920727,-0.0205805708605497,0.0484762234682446,-0.1455902348060541,-0.0279400989997435,1.7070488720420407,5.674201855466376,1146.7160385214504,1119.6125583590604,1116.0167581849212,1116.0618883253835,-198.5877616945332,293.0988536228534,-410.87351282154566,641.1601710821661,153.20440316510584
45.6975,-0.4315104264255543,1.0686847606811791,-0.1505585218157483,0.0300582219844837,0.0178351870356107,0.0477130347829231,0.0083090693910384,-0.0042192131812808,0.0368403082133962,0.999277471291022,-0.008549694316062,-0.0163744413840472,9.593458994498173,-0.0206908013591611,0.0483193613401697,-0.1461234385466186,-0.0279910180463228,1.7071793309720251,5.673837450264954,1146.1825983383487,1120.3509740882703,1114.8883449881275,1117.711232004592,-259.25216255905445,328.57792100900514,-502.0182241165618,696.8684985969576,153.2040552738061
45.7,-0.3720277142083125,0.801652021419527,-0.4697788230563786,0.0293215607225481,0.0206269060330887,0.0471962236936519,0.0083699792519001,-0.0042239427852282,0.0368824511177087,0.9992752351206708,-0.0100028703975077,-0.0178884993365234,9.593389862501729,-0.0208187057476853,0.0481440533361754,-0.1466557254605743,-0.0280432266312693,1.7073080030914887,5.673469993481734,1145.4197777086545,1121.2554479641062,1113.506667064337,1119.5462308183703,-304.2833305092052,329.4659532164266,-479.50998573781374,620.9038513698948,153.20367829707436
45.7025,-0.3459120784408679,0.5190467767434144,-0.6994383803900777,0.0289513890028667,0.0224176096651879,0.0452073547163329,0.0084285372147572,-0.0042279580800938,0.0369133538841385,0.9992732822594576,-0.0112795741758163,-0.0195668997859627,9.593173246869153,-0.0209634907499003,0.0479501212366738,-0.1471868747990601,-0.0280974810947185,1.7074346536792935,5.6731005153227825,1144.661181685802,1121.9983038543533,1112.4907950594372,1120.8157512614428,-330.8099625612893,282.7744954519246,-346.01412700089526,435.34364646710424,153.2034005144302
45.705,-0.3414017253071248,0.1892106463526126,-0.8474690850414041,0.0286172724728462,0.0233755162165331,0.0418217135267254,0.0084865092878469,-0.0042323403503423,0.0369339581179693,0.9992715327107512,-0.0123021566768464,-0.0213285872937179,9.59280884068178,-0.0211235542145079,0.0477382737315455,-0.1477171472490656,-0.0281536428621599,1.7075597135086749,5.672729878058877,1143.7657278958495,1122.6693204413643,1111.776596429334,1121.7229490507038,-379.93096811618335,245.5497170982761,-220.3667272223593,299.63177032062174,153.20316357809403
45.7075,-0.3464559939704427,-0.1666123637123865,-0.9079006241173884,0.0280065745218645,0.023605264340259,0.0379208672142528,0.0085444849104641,-0.0042372181159254,0.0369475186426936,0.9992698455440804,-0.013016439530414,-0.0231147911701111,9.592298534657308,-0.0212962574516479,0.0475102135231277,-0.1482473014260433,-0.0282113439526101,1.7076834328956298,5.672358834043606,1142.76152684522,1123.2260524398453,1111.3889614233249,1122.3139101130469,-424.0543289996472,183.4860139594155,-72.1438158666928,165.24196781288725,153.2029628064577
45.71,-0.3476931889315219,-0.5355641919656126,-0.864000291411104,0.0267907735440376,0.022865392912994,0.0344840849095495,0.0085994291483855,-0.0042427226417459,0.036957845081327,0.9992681079378076,-0.0133767742531236,-0.0249381101615913,9.591646924706343,-0.0214785786351123,0.047269165611463,-0.1487782400583989,-0.0282705477570435,1.7078051740309772,5.671987931834201,1141.6454562508502,1123.586750511162,1111.4158773500003,1122.5491588897687,-508.15324210685327,104.93632523057833,94.38807834635043,31.714919530788134,153.20280828101738
45.7125,-0.3273389054673582,-0.9670240230373676,-0.7226578093945986,0.0250900459139104,0.0207425156271301,0.0316045639823672,0.0086477228045955,-0.0042500511121741,0.0369694482069082,0.999266209720145,-0.0133248273659097,-0.0268261418781267,9.590860768927236,-0.0216676379629104,0.047018841404933,-0.1493110687511461,-0.0283306086348856,1.707924543052093,5.671617245988411,1140.220760634688,1123.7507340659977,1111.860901815056,1122.4724847107007,-527.510486774466,15.879390095634395,211.4978205372436,-81.58165209984335,153.202679278326
45.715,-0.2866489956928442,-1.2966249491920039,-0.5671271240069742,0.0239712303149693,0.0179513569022952,0.030251692825682,0.0086876387018158,-0.0042603176890187,0.0369879931894463,0.9992640228831416,-0.0128108918142698,-0.0287740366029505,9.589948601457175,-0.0218604743932506,0.0467624817035278,-0.1498471498484174,-0.0283906635938791,1.7080417706233688,5.671246381600686,1139.0079038169763,1123.6661474616403,1112.4733664526873,1122.1412506292693,-477.64081442808794,-71.30035382502673,265.35842861249034,-183.47343354252803,153.20262058159028
45.7175,-0.2232336659278673,-1.5712981897364957,-0.417636785491783,0.0232890907455187,0.0140800230456603,0.0297319657827806,0.0087192119665541,-0.0042725000030568,0.0370155455258999,0.9992616023966808,-0.0118340541279541,-0.030746111068087,9.58892070085272,-0.0220539114328384,0.0465024189982155,-0.1503879697266476,-0.0284505122294152,1.7081573532365364,5.670874926256555,1137.8325565625464,1123.3942322968724,1113.187693958119,1121.5551175429875,-454.31870219722833,-129.56470551119267,283.3577137052847,-274.48315527469686,153.20261421753827
45.72,-0.1455304087787916,-1.7856057665921397,-0.3017071491995471,0.0228505064788087,0.0095054439336981,0.0296636074296088,0.0087466541266604,-0.0042855963207488,0.037052914995854,0.9992590865599512,-0.0103995310013526,-0.0326312697933881,9.587788210108952,-0.0222449413485682,0.046239262676169,-0.1509351003592005,-0.0285107595007496,1.7082718886741106,5.67050261009997,1136.7363103059924,1123.0183239340847,1113.8901550212124,1120.768834852897,-409.10542954108666,-161.15048889538167,267.0761891115942,-358.7967059900604,153.20265216317205
45.7225,-0.0566529806859232,-1.9164535092801684,-0.249469834426247,0.0226651934124416,0.0047069427474802,0.0298754180044727,0.0087760189425492,-0.0042997550033028,0.0371028992677467,0.9992565888073344,-0.0084989088232386,-0.0342884560192859,9.586562927267154,-0.0224306992223907,0.0459726275678329,-0.1514898264711342,-0.0285721958843899,1.7083862153450786,5.670128838450369,1135.78702941484,1122.588479852395,1114.523074903678,1119.7611340130363,-372.3576565301215,-183.5081769062952,269.1335470196451,-485.01791705082474,153.2027442341897
45.725,0.055855851759613,-1.9717792885215424,-0.2736326138662976,0.0228539681345077,-0.0009189358133339,0.0301587993317738,0.0088111117822777,-0.0043161631302562,0.0371649531900504,0.9992542591057986,-0.0061150573874895,-0.0356247148688606,9.585257252916984,-0.0226089476488905,0.0457021457799925,-0.1520527401407921,-0.0286350278375574,1.708501158485408,5.6697531373112815,1134.874522023341,1122.100783049553,1115.235822756311,1118.3437452676417,-290.19181648212924,-162.93026728559465,271.71071986365104,-543.514880948163,153.20291766714013
45.7275,0.1508977352868771,-1.931604353885608,-0.3634244157686308,0.0232525220778692,-0.0056568574763434,0.0302170072571963,0.0088484429234584,-0.0043332301021857,0.0372313146030056,0.99925223317017,-0.0032983933330312,-0.0366886181588615,9.583884472019182,-0.0227773332951255,0.0454289223193515,-0.1526235160732797,-0.0286991166923018,1.708616241276008,5.669375671289218,1134.3360703324306,1121.7738285159678,1115.8816285029948,1117.043559608298,-164.77935111589187,-105.89698511352292,297.2102159728664,-527.9470257968596,153.20311454754915
45.73,0.2457457451024111,-1.8002852468730604,-0.5081020486838714,0.0236747330423786,-0.0105801042334687,0.0298334077712948,0.0088827367747388,-0.0043484331008359,0.0372954696424031,0.9992505374379518,-0.0001272323911223,-0.0375654612053988,9.58245708927578,-0.0229333215625126,0.0451544252584496,-0.1532014037107276,-0.0287641702454841,1.7087306372838946,5.668996354301757,1134.050625267761,1121.5712981239851,1116.7218738361764,1115.704010138656,-68.14709112405733,-59.521027114912165,438.5846459977104,-577.2662559002358,153.20336519889412
45.7325,0.3586142832122111,-1.54079418564747,-0.7090240831812055,0.0243792700761652,-0.0163653631650039,0.0285434163533871,0.0089147261561486,-0.0043608031881994,0.0373537956210326,0.9992491173852468,0.0033460349096991,-0.0382294293147681,9.580984870778108,-0.0230750076286059,0.0448782805095709,-0.153785857993821,-0.0288299463949512,1.7088442838665507,5.668615168763963,1133.99533487681,1121.476223380393,1118.0745517329847,1114.157228328795,22.459077213327383,-16.52110627361846,554.9441235471977,-543.3363990045958,153.20372691827887
45.735,0.4498354078383872,-1.2510925503415071,-0.8652361681062014,0.0254645404358909,-0.0204693396318579,0.026582345690776,0.0089468898616477,-0.004370782101064,0.0374028354767897,0.9992479621893346,0.0070901008207381,-0.0386249197934827,9.579474935830769,-0.0232013703168662,0.0445994462019246,-0.1543762124116026,-0.0288961190430804,1.7089574299458317,5.6682322257317646,1134.1629206538275,1121.488692592617,1119.49659445391,1112.9873281436355,101.8348970635022,7.967536408610176,607.8034899217147,-432.206657040985,153.20407786270354
45.7375,0.5355034810916373,-0.9117037319762084,-0.9668343601601994,0.0270279909263303,-0.0231790534162566,0.0236770627217636,0.0089818665122941,-0.004380575651689,0.0374375415857166,0.9992471668840922,0.0111014278405145,-0.038696956217834,9.577931487413682,-0.0233125642729183,0.0443166434990434,-0.1549715703117816,-0.0289618283178455,1.7090710874902255,5.667847408331623,1134.504509362128,1121.516061062436,1121.1135691825948,1111.9961950435893,158.1379840156033,-3.694812821002344,647.2013730647504,-363.91809183082415,153.204478238561
45.74,0.6176386611412314,-0.5568035573844395,-0.995602632613866,0.028534557890038,-0.0246597319969045,0.0202318140168457,0.0090203621522772,-0.0043906776289405,0.0374559891456365,0.9992467732792598,0.0153371383814136,-0.038428828023724,9.576356222871421,-0.0234083406791178,0.0440292837008953,-0.1555708532507259,-0.0290266373222912,1.7091857935341337,5.667460926293876,1134.953610573906,1121.470218528512,1122.7326013192353,1111.1677376844805,199.66655968319145,-58.09457148134978,601.3217935881142,-295.47862600210965,153.20491780816747
45.7425,0.7004742267507158,-0.2128626518688745,-0.9170864543865292,0.0297129885598104,-0.0248422399520157,0.0165205430230231,0.0090594626732637,-0.0043992115250896,0.0374633441601373,0.9992466242368684,0.0197022221274486,-0.0378743047877266,9.574748674940784,-0.0234873285442013,0.0437383701528187,-0.1561727407461782,-0.0290913019664861,1.7093002472993355,5.667073187324249,1135.5028421605427,1121.2255882050297,1124.1201781505326,1110.51880191358,262.9939482808031,-174.61473042305863,502.42903191488256,-254.43183625180103,153.20540205853655
45.745,0.8035781292929924,0.1596651261762589,-0.6991279066654685,0.031092750156928,-0.0240757044894777,0.0123412874662696,0.0090961333069382,-0.0044060401925056,0.0374652272756471,0.9992465541406146,0.0241320514677713,-0.0370937405391541,9.573105367208786,-0.0235488554534935,0.0434453149408352,-0.1567757703972778,-0.0291563694537514,1.7094134203125264,5.666683955519653,1136.2685803153088,1120.5971448763976,1125.2447464788074,1109.8955785032226,300.5188074242423,-290.5176422116133,295.43913430200865,-210.63934961646876,153.206030958105
45.7475,0.8869671018119514,0.4266664394043497,-0.4358371606272941,0.0325381255596161,-0.0229926171031774,0.0098844951059601,0.0091288959357692,-0.0044123062174462,0.0374666717935906,0.9992464079642887,0.0285859137967672,-0.0361219576385862,9.57141989965708,-0.0235929175017399,0.0431513572145086,-0.1573784957368315,-0.0292217157319043,1.7095250284963748,5.666292435549622,1137.0054361976647,1119.7729999939709,1125.5973738220434,1109.4656051654972,318.18076477668086,-380.6156236720525,9.504728504629977,-157.64506319843468,153.20659168832967
45.75,0.95040840437701,0.6462374577638591,-0.1353740218625069,0.034527464951205,-0.0215446145231618,0.0095058012790297,0.0091588381733855,-0.0044194321443926,0.0374698969521945,0.99924611403627,0.0330297129401226,-0.0349484485732044,9.569683422628648,-0.023620114785012,0.0428570208772753,-0.1579796772991986,-0.0292867977124229,1.7096352562838006,5.665897927543664,1137.859484139193,1118.6940667580363,1125.2922701213306,1109.10735318723,361.1138148835936,-454.11820046961486,-222.06771756561653,-128.3234252038513,153.20718643060394
45.7525,0.9789202124947236,0.8283884069727734,0.1544415171418416,0.0369353435317915,-0.0197607049578324,0.0108797007985622,0.0091903221235989,-0.0044271485365559,0.0374771707471483,0.9992455754558623,0.0373996777848272,-0.0335029583793697,9.567885563900141,-0.0236307804996687,0.0425618636040333,-0.1585785994421693,-0.0293512146059012,1.7097446128695175,5.6655004202490895,1138.8110052720813,1117.5024089916249,1124.4870352342164,1108.8239880394783,399.96010808602017,-472.3257146455893,-415.9735616974249,-85.86219077565302,153.20780667388647
45.755,0.9420084847977293,0.9690459916065592,0.3940906248932128,0.0397382334008857,-0.0175045784199833,0.0133517987224069,0.0092267586720209,-0.0044331971285605,0.0374909033951742,0.9992447051789328,0.0415946265122623,-0.0317365026143651,9.566016112704936,-0.0236247584108926,0.0422657345681159,-0.1591749442155257,-0.0294149115860894,1.709854047647539,5.665100232880761,1139.859284679624,1116.3324381848072,1123.2124023128424,1108.6780422333516,474.9980612907919,-470.51606268422375,-623.5358791518586,-20.81538050637236,153.20845514234696
45.7575,0.7983576751721044,1.0956442670459197,0.6076668860381255,0.043314640942786,-0.0142536931568104,0.016168297243146,0.0092679234295216,-0.0044353777715843,0.0375099648586538,0.9992435782771564,0.0455141517316857,-0.0296740887861583,9.564066259145536,-0.0236022304178332,0.0419695295182185,-0.1597686694954101,-0.0294777093813506,1.7099642344811983,5.664697959240072,1141.1859955785364,1115.1498286782023,1121.3693558384555,1108.7199111369466,492.35890999433866,-376.7187972601976,-691.9206280725956,53.95821864645218,153.20926365410014
45.76,0.5884277070850906,1.1723759377260896,0.7333214310874707,0.0460753148946386,-0.0113433779810148,0.0179488793367469,0.0093094428103887,-0.0044320071876558,0.0375284445241693,0.9992424795703752,0.0490677868687976,-0.0274247988518414,9.56202984414248,-0.023563839571467,0.0416754651553035,-0.1603600888886057,-0.0295402580794852,1.7100744214099834,5.664294429992721,1142.3210792295936,1114.448844198508,1119.7527991724824,1108.9478333265836,456.626246918625,-214.10308121519807,-622.7812442172759,122.84592386989144,153.20996174540275
45.7625,0.2926052627867415,1.2304640514471359,0.8270188976043834,0.0480172583769841,-0.008482962149592,0.0191852786319767,0.0093474696578359,-0.0044222780056811,0.0375424488869066,0.999241604260544,0.0521858198348836,-0.0250934365380415,9.559903743785318,-0.0235102023546712,0.041386053315558,-0.1609502826968974,-0.0296035075083483,1.7101836553827872,5.663890164122954,1143.4691268131307,1114.079313272126,1118.2554496173675,1109.3341407562964,505.9902342378931,-98.89919911447066,-592.8488388484006,183.41003942841493,153.21068477916998
45.765,-0.1315106178444402,1.293235887600733,0.923380482634222,0.0488558631331484,-0.005171552924466,0.0204760162304828,0.0093829668443557,-0.004406033780138,0.037552122036135,0.99924094343748,0.0548188432838498,-0.0226989407841594,9.557688177438832,-0.0234417830977418,0.0411028426254818,-0.1615413794462879,-0.0296680111909631,1.7102914924781119,5.663485894083924,1144.8510304007843,1113.9543482029353,1116.788554978239,1109.864883523726,504.3921001526127,-11.514386636792109,-463.5847950030562,184.109837076434,153.21158193905654
45.7675,-0.5104669136183003,1.3482366118278348,0.993302225858742,0.0481238711377458,-0.0024287411612018,0.0217991068324708,0.0094169060737039,-0.0043847857531125,0.0375596343986918,0.9992404018949333,0.0569545955115804,-0.0202666563293689,9.555388077692907,-0.023359521432403,0.0408278075617011,-0.1621359309520123,-0.0297337470891091,1.7103974514065015,5.663082175277968,1145.9910873138915,1114.021741338942,1115.9375256423543,1110.2546899416775,445.9353751258725,38.711820540018586,-253.61655868305877,120.99484653584288,153.2123553532325
45.77,-0.8736083092221915,1.410126728015714,1.0387508944802863,0.0458750883539193,0.0004853342090021,0.0238023614937185,0.0094503070824753,-0.0043609281687233,0.037568362046475,0.9992398334907334,0.058603848177717,-0.0178265454901931,9.553013742147966,-0.0232648793535456,0.0405631579961182,-0.162736687036158,-0.029799779618149,1.7105015495216682,5.662678990476547,1147.0807072764148,1114.1479073056355,1115.5204721848231,1110.4698577564056,418.09231334165344,48.06345783588127,-98.62377278013312,45.240612374640975,153.21315749189367
45.7725,-1.1952006251020009,1.4754753880272151,1.0440843752446438,0.0425603712000074,0.0037603748987944,0.0264954570346311,0.0094844025017622,-0.0043361341899811,0.037583939634768,0.9992390066292532,0.0597707780285187,-0.0154082890126882,9.55058129851502,-0.0231593979737612,0.0403111389855633,-0.1633463817176272,-0.0298651726889246,1.7106038858095716,5.662275852210732,1148.0815488806008,1114.2620586281216,1115.4444067784534,1110.480893003551,363.4787113132129,40.769177921393535,34.96169685475703,-48.04915371123393,153.2139848478755
45.775,-1.4432004093402315,1.5378689668400483,0.975073635960216,0.0385070637706119,0.0076581304587882,0.0297888975863795,0.0095157821427392,-0.0043092414577681,0.0376110071703218,0.9992377808290271,0.0604099849753166,-0.0131309004045429,9.54811390048,-0.0230442541951799,0.0400752521411107,-0.1639671767657153,-0.0299297179512864,1.710703685794993,5.661872150105964,1148.8981008329793,1114.3517531952423,1115.6952806690967,1110.2296119878497,292.96650672884897,47.13577514942106,154.1568094483985,-159.19664680769569,153.21484387105443
