t,ang_acc_x,ang_acc_y,ang_acc_z,a_vel_x,a_vel_y,a_vel_z,quat_x,quat_y,quat_z,quat_w,acc_x,acc_y,acc_z,l_vel_x,l_vel_y,l_vel_z,pos_x,pos_y,pos_z,mot_1,mot_2,mot_3,mot_4,dmot_1,dmot_2,dmot_3,dmot_4,vbat
0.0025,-3.2835676952886828,-4.1885717215606215,-1.6516313183025608,-0.2568578335513129,0.0465195417308464,0.0435663493882798,0.0088036032663812,-6.867020343159783e-05,-0.0590039263446978,0.9982192324720736,-0.2027833850944197,-0.2377174501821489,11.307193490467679,-0.0207389663438243,-0.0912935099169306,0.920537477689592,1.0190586148668404,-2.6084070285616168,0.1743428753254138,1241.7877886633275,1215.609900828064,1203.179228952839,1225.8265945718963,-431.79212298791754,-584.4851158678466,834.399242362906,-995.2826340499997,163.55760596281192
0.005,-3.631616294332483,-4.347080535326215,-1.526074896791051,-0.2597816184339872,0.0364357366076075,0.0375566423019629,0.0084523714973707,-0.0001120131420212,-0.0589456372790898,0.9982254173640752,-0.188714093964982,-0.2332762348248978,11.323894692779175,-0.0212553772837746,-0.0927912512764463,0.9240605394366136,1.0189890437556464,-2.6086722116015664,0.1766627143613615,1240.708308355858,1214.1486880383943,1205.265227058746,1223.3383879867713,-505.0616460836864,-614.2224062354672,783.3478683572594,-1000.0533513196845,163.56808881571115
0.0074999999999999,-4.055715721880548,-4.445852855440612,-1.2596286378557473,-0.2665820175907063,0.0259556893919848,0.0328457015098485,0.0081078069468511,-0.0001581132523186,-0.0588844609779818,0.9982316825670228,-0.1745712557531868,-0.2286267225183216,11.3405382014579,-0.0217605535794789,-0.0942827433806462,0.9275973773172982,1.0189125879199823,-2.608936356716864,0.1789833990614716,1239.2624804329091,1212.5387887968864,1207.0959682946252,1220.8263278152979,-746.7785016729523,-758.2593087865461,687.60453097766,-1049.5396239984984,163.5781560068585
0.01,-4.4826244732313665,-4.494576098776547,-0.8656183161778006,-0.2806926734727311,0.0128111458357958,0.0299374397733666,0.007767261651818,-0.0002065236240956,-0.0588221083639601,0.9982379276257152,-0.1603536155814266,-0.2237644258619482,11.357045871068108,-0.0222488623084753,-0.0957739062311948,0.931158101459724,1.0188296972801167,-2.609198092519253,0.1813055816645358,1236.9744158474932,1210.3573914944616,1208.7032497136345,1218.0906898667788,-947.6423532365512,-853.958567011341,467.6092155922105,-921.4980709908558,163.58976582367694
0.0125,-4.639521036493183,-4.477619632485086,-0.5488126051875843,-0.2959745670038035,0.001678821039287,0.0296689979757195,0.007425445440292,-0.0002595266729944,-0.05876349481192,0.998243885314492,-0.1459980722062981,-0.2187305307094117,11.373306010310507,-0.0227078475551812,-0.0972750962796367,0.9347534620516648,1.0187419804519375,-2.609458712434345,0.1836299052913405,1234.5242686667264,1208.26899596183,1209.4340143725863,1216.2188374603436,-1103.2007703664024,-900.1463616598813,165.2349953735666,-643.1400195703646,163.59905475819576
0.0149999999999999,-4.484818326697372,-4.406789594706698,-0.3176036176390447,-0.3117611758002956,-0.0089418231163628,0.0308848513924062,0.0070800729917212,-0.0003180371830078,-0.0587127856295707,0.9982493116369766,-0.1314849592383457,-0.2134926384641891,11.38917185885534,-0.0231278673312098,-0.0987904407733661,0.9383945695286152,1.0186507251351766,-2.6097206602715364,0.1859583699604861,1231.4584119956612,1205.856659686162,1209.5294246905023,1214.8749897689268,-1482.265597519972,-1134.3102993870611,-71.13462630400134,-475.6038107502717,163.60794995877455
0.0175,-3.9152447097959007,-4.269807164323943,-0.1848051727601187,-0.3284053917859007,-0.0206725739265456,0.0331084802778583,0.0067267528887365,-0.000381364224965,-0.0586718898883136,0.9982541119498856,-0.1168391531193522,-0.2080658086598336,11.40445983307698,-0.0235028056918337,-0.1003270253326737,0.9420909867999624,1.0185556296354312,-2.60998400086206,0.1882927901422137,1227.1129406791267,1202.5974444648944,1209.0783412410663,1213.8408184065922,-1679.0336209113773,-1248.1824251867235,-216.6841954101528,-306.4965351301907,163.61817581905086
0.02,-3.1649972883580553,-4.115093583442168,-0.1945238410176915,-0.3390345964808919,-0.0297725507846772,0.0347796907204671,0.0063684880137488,-0.0004584248116818,-0.0586397729361562,0.998258303631837,-0.1018881003770375,-0.2022865307942825,11.418959235280996,-0.0238105509699414,-0.1018756277878335,0.9458526066481417,1.018456314426723,-2.61024822062443,0.1906348762635753,1223.0632438911043,1199.6157475602283,1208.4460037134515,1213.342507093276,-1655.3189472944275,-1236.5562965541365,-245.72412226698367,-169.27529598624469,163.62632791953365
0.0224999999999999,-2.230623545241799,-3.907840612261313,-0.2902998955049715,-0.3455094279260828,-0.0386209377050833,0.0350722859382115,0.0060081010480831,-0.0005548135146522,-0.0586127338187627,0.9982620647843456,-0.0865446777588177,-0.1960074121697613,11.432427364771442,-0.0240366509007033,-0.1034261273460267,0.949687053406493,1.0183542102659804,-2.6105146432267565,0.192984426886917,1218.8363459426544,1196.414662982124,1207.849720629731,1212.994441926661,-1666.8661136678563,-1310.0262818064944,-192.77081500526944,-155.31094560710696,163.63410064528918
0.025,-1.234734154167718,-3.638062244021896,-0.4083451839853142,-0.3486509619371088,-0.0474988831488265,0.0336051093169684,0.0056459730356206,-0.0006704342183277,-0.0585867045213281,0.9982656184962676,-0.0708563028217598,-0.1891578401217231,11.44459375814864,-0.0241785086461968,-0.1049721340578868,0.9535987123725193,1.0182509278343188,-2.6107837156750735,0.1953406316730866,1214.728913322765,1193.065616151196,1207.4821496384252,1212.5659523652405,-1545.289562331163,-1371.6742075863292,-65.79645162273663,-239.72205464719983,163.64156148932875
0.0275,-0.2669458347420342,-3.262804379813147,-0.4922943427464907,-0.3485083060447398,-0.0565346935847445,0.0305169762483369,0.0052786086985924,-0.0007969089348495,-0.0585599618442942,0.9982690792463336,-0.0550599307223006,-0.1817855314743334,11.455166556847695,-0.0242498995501815,-0.1065143008022775,0.957587834778713,1.0181463740444807,-2.6110558618067508,0.1977054929287788,1211.1098981309988,1189.5562919441923,1207.5207383716177,1211.795831653425,-1404.174577957611,-1581.8792963301355,105.88118622549706,-467.299296318288,163.648649916537
0.0299999999999999,0.7604173718146053,-2.6589283649686184,-0.5029748845487018,-0.345721653493414,-0.0670555965962222,0.026691559849463,0.0049054741925365,-0.0009294687140897,-0.0585279477743278,0.9982727113254236,-0.0393201508896728,-0.1738864200029087,11.463846284015254,-0.0242603874935298,-0.1080458846175078,0.9616523414930104,1.0180415228276443,-2.611331947290131,0.2000809061399077,1207.7080404329768,1185.1562196695454,1208.0115555695527,1210.229455883649,-1056.6718166847747,-1645.6666420246163,223.60975685996883,-700.2419501186067,163.65673099930865
0.0325,1.4563744703935684,-2.022274442266372,-0.4284586264443325,-0.3418573552168861,-0.0744731776960043,0.0241903250156439,0.0045253202379489,-0.001064645868375,-0.0584896280984753,0.9982765805983768,-0.0237711076023479,-0.1654957188070247,11.470331558374967,-0.0242177280516773,-0.1095604875613871,0.9657868868209804,1.0179365930184738,-2.6116124999732553,0.2024697345493898,1205.826539047575,1181.3279587340692,1208.6387871559175,1208.294621902832,-547.1758449232761,-1557.9906364121127,238.7715203813057,-902.7852563406204,163.66311560509052
0.035,1.9537527673678223,-1.269472968129532,-0.2860672786480093,-0.3365349572547013,-0.0793241767094662,0.0226813077364322,0.0041367560272975,-0.0011947723578056,-0.0584441329243307,0.9982807551662723,-0.0086422750760274,-0.1566825226206426,11.474326451696031,-0.0241391220454989,-0.1110517346010271,0.9699829158009317,1.0178311186518572,-2.6118981303289304,0.2048741551515883,1204.9721612083606,1177.3662664874848,1209.2054131714592,1205.715529601946,-169.5935386008842,-1747.102843519634,162.7217186200597,-1255.5396667156863,163.66914334877168
0.0374999999999999,2.3099467881598787,-0.2866687879377459,-0.0803594660582114,-0.3287395248220474,-0.0819911789773526,0.022250437479238,0.0037459597945599,-0.001309691350603,-0.058392948554767,0.998285135764625,0.0057736554315597,-0.1473711877821135,11.475551480367155,-0.0240482934573363,-0.1124986251209316,0.974231077536074,1.0177253766233558,-2.612190646848876,0.2072939542362092,1204.9785713545705,1172.592444516471,1209.4523957490176,1202.0169235692535,132.95084797487112,-1721.0796475758807,-24.24012155638594,-1425.4014023068073,163.6759718102624
0.04,2.4161609543436438,0.5490079252892883,0.0841263733496817,-0.321952242558356,-0.0813753521728715,0.0230329055566459,0.0033549165959002,-0.0013997480875084,-0.0583439432617843,0.9982892660297816,0.0192086124747773,-0.1376057680835562,11.473748260509064,-0.0239673307710873,-0.1138886774533593,0.978519582034274,1.017619372139266,-2.612491684436945,0.2097269066073085,1205.6369154482347,1168.7608682496054,1209.0842125636773,1198.588522590412,340.54732871368253,-1455.6468733843287,-292.312121776649,-1400.483831968312,163.68133093537463
0.0425,2.3572054264881164,1.3434932527504246,0.2061920367500809,-0.315867814809761,-0.0778066952832421,0.0246594566726554,0.0029683161341402,-0.0014668402578422,-0.0583039247683951,0.9982927239361415,0.0316619649940361,-0.1273735547998968,11.468689048949022,-0.0238972918680908,-0.115203789503424,0.9828369010108732,1.017514998477369,-2.6128003097281445,0.2121707561731759,1206.681307998139,1165.3142101495491,1207.9908351401343,1195.014504409412,438.9125712126317,-1282.3203812770323,-555.0663195776452,-1422.0654001540884,163.68635399737394
0.0449999999999999,2.195441539104756,2.0698719898847764,0.2796122270233267,-0.3105775025260321,-0.0725198967139896,0.0264688383395531,0.0025888078896188,-0.0015125163331279,-0.0582740991147107,0.9982954248862526,0.0431341783056104,-0.1167261647996259,11.460179666989008,-0.0238414049445762,-0.1164315203226845,0.9871701778267598,1.0174130408406794,-2.613115251372037,0.2146250256895071,1207.831478304298,1162.3492663432203,1206.308880965789,1191.4781955896415,439.2250810408316,-1042.1265214712096,-789.7499176383011,-1372.1996147561192,163.69110443821424
0.0475,1.9520981467309733,2.6919095820977548,0.2972294925809046,-0.3062959661787084,-0.0661862517691681,0.0278867241836943,0.0022186326384171,-0.0015438919445679,-0.0582550737875469,0.998297318809104,0.0537622124593512,-0.1057305424715374,11.44806579336898,-0.0237919416532829,-0.1175623001467646,0.99150591710995,1.0173144071778395,-2.6134337404762653,0.2170904629259915,1208.877433403343,1160.1035775421933,1204.042085551943,1188.1535063356312,383.4758862920349,-806.5656788983681,-1085.850063896031,-1381.881981259038,163.6955335547399
0.05,1.611035164331558,3.3062747523963902,0.2762389759876887,-0.3021504241674176,-0.0575264119701001,0.0287930443861915,0.0018592510181292,-0.0015666531568316,-0.0582423190128872,0.9982986655293388,0.0636581633560703,-0.094481367342486,11.432237098527837,-0.0237443711542287,-0.1185912433395874,0.9958294180967056,1.0172200727445666,-2.613752571525141,0.2195669941208626,1209.7488577357583,1158.3164379487284,1200.879630646309,1184.5687856833463,221.89632140134572,-507.7147197172055,-1197.088823019704,-1232.2374027095982,163.70048661816193
0.0524999999999999,1.308044041565222,3.7037047098488896,0.2455562689292029,-0.2991310733663417,-0.0492578716623188,0.0288855780881296,0.0015089222269416,-0.0015739872157816,-0.0582321032547747,0.9982997072297805,0.0726608997161889,-0.0831656349762181,11.412631219439412,-0.0237172179320278,-0.119524685959167,1.000123514236842,1.0171277821102656,-2.614069411476867,0.2220555513362865,1209.9869150103495,1157.5650039436073,1198.0566414368443,1181.9923193220834,-38.80943246863355,-166.03307485283955,-1128.295505492497,-936.0786590529647,163.7043196087472
0.055,1.0003700111717588,3.9759697275522257,0.2231095421730445,-0.2962690940684697,-0.039974957803783,0.028475620584275,0.0011644055086087,-0.0015584128092825,-0.0582211028376182,0.9983006739745508,0.0806035879158458,-0.0720016428774223,11.38923794311491,-0.0237287012332432,-0.1203752451050623,1.0043697695668377,1.0170346826219387,-2.6143827221357454,0.2245582370588643,1209.5548105734151,1157.4862725744642,1195.2381531188464,1179.8883923880815,-299.5602786442757,58.919337281668,-1100.055413114068,-758.9460056246473,163.7078551774725
0.0575,0.6968774823056659,4.139153387273022,0.2145252960647402,-0.29365493524492,-0.0300236245895426,0.0279121007099548,0.0008133724215187,-0.0015183489140702,-0.0582047868762449,0.9983018764614228,0.0874713258504504,-0.0613966685876191,11.362099858252027,-0.0237829480737657,-0.1211757611416485,1.0085473817528388,1.0169393960131687,-2.614689819938506,0.2270761687792098,1208.4891136171284,1157.8596006300156,1192.556364371274,1178.19758929396,-581.9511202243579,228.11749397910728,-1011.1474765791176,-569.5876574356593,163.711150289389
0.0599999999999999,0.413289182300567,4.166458246348484,0.2152936735549846,-0.2917693642612181,-0.0194970846651424,0.0276648650985192,0.0004510203908378,-0.0014609200834586,-0.0581804069744975,0.9983035064836728,0.0934397868232103,-0.0515602048249572,11.331314320846348,-0.0238655199416097,-0.1219450762865175,1.0126378543493215,1.0168426206790224,-2.6149889305324816,0.2296088160715676,1206.645054972293,1158.6268600443595,1190.1824157359508,1177.0404541009032,-970.6891280430686,387.25467038611913,-943.9517530133347,-373.57544313354094,163.71416286720253
0.0625,0.1265139755325331,4.044670218151755,0.199599588011369,-0.2909277026715597,-0.0066536280783938,0.0283385372947293,7.876829849475805e-05,-0.0013900802347522,-0.0581463963866504,0.9983056818812016,0.0986042317217612,-0.0425478163078644,11.297031971810368,-0.0239675609396796,-0.1226906487452408,1.016624670745902,1.0167427566467075,-2.6152805803171706,0.2321558089590444,1203.635667976913,1159.7958739819462,1187.8366056062075,1176.3297120782925,-1205.4637143780371,439.3387941774104,-764.6940492947571,-141.30286002191485,163.7174608332061
0.065,-0.040824743050943,3.826258842719488,0.1476358566261128,-0.291578499747527,0.0036019971226282,0.0297226737255512,-0.0002982630878141,-0.0013077054960506,-0.0581069250743026,0.99830812334058,0.1030068508147001,-0.0343164799189799,11.259454042428095,-0.0240827864148167,-0.1234124159027424,1.0204934128345893,1.0166394336933575,-2.615566202389332,0.2347154419701024,1200.6177364004031,1160.8235540152468,1186.358945489477,1176.3339398007936,-1266.9714118389027,386.2997855026148,-495.14706680442896,122.11437170531087,163.7199517296465
0.0675,-0.1074503693310882,3.5144847919236244,0.0342732649165257,-0.2931236550635285,0.0127428964569939,0.0315658725276924,-0.0006821148298953,-0.0012128249951043,-0.0580720639239576,0.998310205190142,0.1066328385163188,-0.0269700943372788,11.21882855784419,-0.024208394184596,-0.1241240212123761,1.0242295635236767,1.0165334835950308,-2.615848061808052,0.2372851565061997,1197.3008109177183,1161.7273729094593,1185.3608702721851,1176.940283936819,-1478.80318370553,331.4394091670689,-354.4086319385766,382.1018221480241,163.72218353213628
0.07,-0.0628569780445321,3.077044726534088,-0.1692500130753075,-0.2947787022278631,0.0217980589198922,0.0335215436640084,-0.0010687948168835,-0.0011051490204794,-0.0580482568398428,0.9983115297033242,0.1094720926028311,-0.0204591869991671,11.175446582346078,-0.0243423778746775,-0.1248244385792025,1.0278221639331375,1.016425942241321,-2.6161285646287613,0.2398633434483424,1193.2237204818755,1162.480751061082,1184.586902329784,1178.2444489115337,-1486.2966093348432,199.22581910768747,-243.1017411091493,543.7706627596536,163.72457140099775
0.0724999999999999,0.0661117303874587,2.692297909199437,-0.3679556697654719,-0.2951466013879731,0.027723095608495,0.0341427580820055,-0.0014482568514883,-0.0009891741894744,-0.0580371871877848,0.9983119885595728,0.1116110731709285,-0.0145801486974944,11.129636177628813,-0.0244757285639307,-0.1254968409300337,1.0312641125593256,1.0163181814768936,-2.616409920376819,0.2424497186870689,1189.8693278710443,1162.7235020049975,1184.1453615666396,1179.6591372506173,-1322.1153347817133,0.4515803624144618,-174.36420009780738,587.5692515452113,163.72632602186164
0.0749999999999999,0.2634374746591868,2.3134339659021244,-0.538821168980172,-0.2939473525570219,0.0326600192649405,0.0326867108726748,-0.0018099727628614,-0.0008683059685315,-0.0580362561440582,0.998311737906954,0.1131089089391229,-0.0091120070267632,11.081756796075748,-0.0246038123294837,-0.1261206558200616,1.0345503467305508,1.0162116371239212,-2.6166936336316424,0.2450450098979588,1186.6131438079667,1162.4830089628942,1183.7150813292951,1181.1822951692595,-1290.168869097032,-181.90479719601157,-197.45953709011684,591.3712430610298,163.72784423296116
0.0774999999999999,0.4994252127150613,1.9463803041243155,-0.6363195601839899,-0.2915853206236521,0.0373700302179105,0.0295520978528941,-0.0021470176553822,-0.0007472022045321,-0.0580420127626682,0.99831098808728,0.1140556189041819,-0.0039064827703531,11.03219289924054,-0.0247201561150604,-0.1266802154143355,1.037676936585102,1.0161067632502299,-2.616979964735319,0.2476499951643443,1183.4184835255592,1161.8139780190177,1183.158063881189,1182.6159934659224,-1272.1532996464236,-371.9335362245598,-278.3213955195604,515.3525209842878,163.72917211507686
0.08,0.7777592741642279,1.590948875185959,-0.6004570747072469,-0.2886717935189251,0.0420040815058351,0.0257099731340429,-0.0024592014706068,-0.0006311702391718,-0.0580440433624885,0.9983103457085152,0.1145634388532661,0.0010411170659287,10.981347742803203,-0.0248185841253774,-0.1271715786325511,1.0406403407157203,1.016004314151612,-2.617269596060324,0.2502631410341856,1180.2523773097348,1160.6233412817714,1182.323474351697,1183.7590577741812,-1387.48160786913,-642.0726339134484,-452.276000656229,404.11506049081214,163.7302772689352
0.0825,1.183234834096322,1.1756022892426903,-0.3866512170571361,-0.2859057505939131,0.0468588571687324,0.0218720029212619,-0.0027520805940223,-0.0005226767059579,-0.0580376883180898,0.9983100757665576,0.114688920057693,0.0056116172934027,10.929637377498752,-0.0248971002189894,-0.127602275595745,1.0434374874177963,1.0159034358969643,-2.617564208944591,0.2528822358664712,1176.4810754862135,1158.6036148494504,1180.896683877908,1184.6365687683765,-1364.3751339438484,-834.9502251727235,-602.2821894868679,228.21303790205985,163.73135455051855
0.085,1.6067715370510687,0.8456336691353235,-0.085139226326438,-0.2844350179083712,0.0497771119575491,0.0199581255251836,-0.0030347736562125,-0.0004157666432112,-0.0580231514486075,0.9983101601440012,0.1143104521627086,0.0096043639558286,10.87748474537132,-0.0249697699729153,-0.1279882144462656,1.0460658436705683,1.0158044350048214,-2.6178639709490827,0.2555053175898685,1173.4305016400156,1156.4485901559078,1179.3120634042627,1184.9001229636915,-1169.5102972407756,-949.4736961789832,-719.189762481664,5.745437299310646,163.7320510052674
0.0875,2.134653010449268,0.5509079811105408,0.2937937519158108,-0.282584966890106,0.0512777799869906,0.0197978806002263,-0.0033152995125288,-0.0002984700112062,-0.058003491818092,0.9983104245879596,0.1131790501101532,0.0128426967617094,10.825312729460252,-0.0250626479484686,-0.1283444138228206,1.048524407660684,1.0157064874031911,-2.618168211122575,0.2581317993556793,1170.6335240000096,1153.8562463685555,1177.3007350654996,1184.665295954873,-1131.3984944544263,-1217.2728742416007,-978.8165547221997,-214.2553888058505,163.73254570344707
0.0899999999999999,2.858868296950484,0.2629984059333654,0.7605490285631348,-0.2778641780350707,0.051725449799802,0.0215956812491182,-0.0036020381932738,-0.0001646414377733,-0.0579823526185928,0.9983106565753722,0.1111783858177794,0.0151571145838505,10.773536448575767,-0.0251891966150868,-0.1286872551573551,1.050813662527986,1.0156081820670175,-2.618475636928337,0.2607625302565247,1167.7735091677434,1150.3622257846998,1174.417980630652,1183.8288460196623,-945.7006621037651,-1316.6775136954154,-1124.4597099466791,-394.2400351587374,163.7329142019079
0.0924999999999999,3.4824050558363013,0.0909272037307809,1.1016257488936616,-0.2710469971524,0.0514852168069743,0.0244128029149445,-0.0038935698199725,-2.677741426287002e-05,-0.0579563452074641,0.9983110568186828,0.1085845350194138,0.0166189738695371,10.72255547725144,-0.0253262328180269,-0.1290117973368183,1.052938644681385,1.0155093240623727,-2.6187829693104727,0.2633994679949979,1165.9050206894908,1147.2728588000784,1171.678436515766,1182.6940957790791,-636.6675442306126,-1227.1989673675296,-1142.662218567738,-537.8805828317577,163.73303944887098
0.095,4.03698397014636,-0.0059469550783082,1.331429504837064,-0.2614424124380101,0.0510893311342371,0.0283551633218227,-0.004187483550904,0.0001050486434114,-0.0579228147575879,0.9983117817462576,0.1056179234398823,0.0173232957854482,10.672751046625176,-0.0254549978909206,-0.1293133982727374,1.0549052587974974,1.0154097161438804,-2.6190869017599905,0.2660440654846146,1164.5901714465904,1144.226230947862,1168.7046695378133,1181.1394431055035,-447.0123309476999,-1172.3092300037922,-1203.0630056216055,-684.8788275709461,163.73298268962725
0.0975,4.46515554114699,-0.0443638443185893,1.4329864445433629,-0.2498928420833295,0.0507689652791816,0.0332143281061734,-0.0044840644063975,0.000225582382573,-0.0578799011434076,0.9983129370833944,0.1023982839515002,0.0173088866648339,10.624481392148132,-0.0255660092564116,-0.1295956751662591,1.0567193688115104,1.015309369969672,-2.6193860502159203,0.2686965165560864,1163.6699590347523,1141.4113126500595,1165.663121487658,1179.2697016412246,-301.5888325667217,-1023.8527922767834,-1194.2811227315804,-810.9819878977297,163.7327799049515
0.1,4.6721914438865415,-0.022635176000006,1.3562704771334395,-0.236425271243396,0.050646781936224,0.0388140981763005,-0.0047834790116247,0.0003292805425023,-0.0578271031204679,0.9983145555970688,0.0990512966901216,0.0166270506724742,10.57807635618466,-0.0256487933909603,-0.1298635829763151,1.0583882193002963,1.015209082715105,-2.619680512618967,0.2713557610170354,1163.0822272837568,1139.1069669864783,1162.7332639241552,1177.0845331660148,-223.02745044917157,-850.0591242373948,-1209.390172819302,-1005.4768347382824,163.73240681795488
0.1025,4.616208776828536,0.057089308021012,1.0660787341661864,-0.2192586290413827,0.0507392286869158,0.0450618942106408,-0.0050832798108551,0.0004207604205579,-0.0577673493943067,0.9983164806052705,0.0954853870262975,0.0153824825275863,10.533833659682845,-0.0257139879597075,-0.1301189629573554,1.059920754701783,1.0151094624850316,-2.619970834846279,0.2740196304453591,1162.5548217825065,1137.1610170288725,1159.6161706235616,1174.2423174675332,-189.05297024207397,-560.7632478994229,-1041.4591213499555,-1046.5667061855604,163.73176951599316
0.1049999999999999,4.320586894653752,0.1567816171748375,0.697431553886734,-0.2056483729415067,0.0509436581248321,0.0485969954466317,-0.0053848295408917,0.0005083728314077,-0.0577066884003696,0.9983183596066392,0.0915386166514469,0.0136059874840027,10.49201456163678,-0.0257792279786441,-0.1303727896963295,1.0613265804288803,1.015011857143588,-2.620257311410882,0.2766853052497391,1162.1369624325464,1136.3031507469811,1157.5259683174056,1171.851699635087,-180.69878741580433,-189.92057293348844,-703.9811451259097,-912.417248597332,163.73108561660297
0.1074999999999999,3.8229671241945264,0.2774355017957889,0.2736387801592808,-0.1947969814399532,0.0511287063158548,0.0491873681741359,-0.0056867986651495,0.0005959255796001,-0.0576531428791077,0.9983197450710858,0.0871447037353294,0.0114013281548436,10.452839642117793,-0.025852601454836,-0.1306298677740421,1.0626180611170126,1.014917007468373,-2.62053993854398,0.2793509564241851,1161.6513278454274,1136.211414164205,1156.096264897932,1169.6802312245463,-208.98256873488188,69.57155787131336,-458.04419211899545,-795.3782133425642,163.7302491277738
0.11,3.226565147257592,0.4031673664603784,-0.1320821220717811,-0.1868855104608709,0.0513775835215989,0.0475620019579044,-0.0059894319015166,0.0006784411039316,-0.0576072428552335,0.9983206171136771,0.0824256302843533,0.0088585726988403,10.416486555356727,-0.0259251544878826,-0.1308963712996721,1.0638091111688284,1.014824686895574,-2.6208185206864245,0.2820162670321432,1161.092049588872,1136.6510085363377,1155.2357473568106,1167.874808568374,-236.68313120397195,265.93285097351304,-221.9084086159453,-599.4730053671441,163.72929048845168
0.1125,2.598144930328647,0.5133123876352413,-0.4570075276981107,-0.1817031382863533,0.0521486581732033,0.0446180025740469,-0.006282646031638,0.0007483720928715,-0.0575654257969523,0.998321251474474,0.0775443946607852,0.0062921552696999,10.383088811473579,-0.0259843272551265,-0.1311549914996311,1.0649173302890382,1.01473451001657,-2.621093429241774,0.2846813073887645,1160.4679121894076,1137.5410784190726,1154.9867228548524,1166.6828661977108,-278.2864976424205,443.4481668202348,-9.010101857029431,-361.8480655126856,163.7281897215102
0.115,1.8945059926038983,0.5909113919471141,-0.717982783920438,-0.1773034380464074,0.0541111433004264,0.0410299748545979,-0.0065564324756333,0.0007979009807171,-0.0575212152487521,0.9983220935955012,0.0726688652126312,0.0040173446594712,10.352736154771211,-0.0260169928459164,-0.1313868338365275,1.0659606449404313,1.0146463276721172,-2.6213654069405754,0.287345860378854,1159.7006171006599,1138.868249370439,1155.1906968475255,1166.0655682408108,-275.60937741577595,497.6210153387451,118.87775637587757,-95.11123983929784,163.72671100124768
0.1175,1.3893483826039,0.583147250378934,-0.8290358420433269,-0.1748813632526359,0.056651218872222,0.0383453106803763,-0.0068058424148216,0.0008283442505027,-0.0574713914580065,0.9983233621613242,0.067782587421129,0.0022338454044308,10.32547554112214,-0.0260271328637381,-0.1315831117340838,1.0669548578137664,1.0145589335937153,-2.621634732975071,0.290009523290181,1159.0898653023287,1140.0291834957663,1155.5811116367315,1166.2073099985143,-228.732785458988,452.6429282928356,152.50850445272619,169.0869933549951,163.7253518696998
0.1199999999999999,0.9871774522902074,0.4802763185297965,-0.851198440845833,-0.173587019882514,0.0596146905831204,0.0360258074975209,-0.0070316719904065,0.0008431480999993,-0.0574145839774188,0.998325132530607,0.0628320040874909,0.0010180759367336,10.301312315955075,-0.0260211266725569,-0.1317454127913556,1.0679133951659228,1.014470221879746,-2.621902119820158,0.2926724649909009,1158.5569531733647,1141.131464011903,1155.9532393697891,1166.9110032075855,-205.7872263964786,469.19161559217264,112.76103531727152,400.9074485867138,163.72386645337969
0.1224999999999999,0.6123117127501785,0.2538813641856354,-0.8122069086528717,-0.1724656636778598,0.0623784115828125,0.0338458549935599,-0.0072347415765047,0.0008476993525502,-0.0573512895782534,0.998327374132507,0.0577236103148015,0.0004383513489275,10.280212670624172,-0.0260081736603032,-0.1318733198283794,1.0688482887875275,1.0143774716247815,-2.622169730947863,0.2953359117391052,1158.0609291703463,1142.3751415737272,1156.144916813318,1168.211847241448,-149.92153409575607,456.4213089171968,7.766943773049198,526.0960736715783,163.72194405799996
0.125,0.3637214674057777,0.0067672324368268,-0.7528921536690159,-0.1710737607443789,0.0632719935871578,0.0326200771706909,-0.0074163314118972,0.0008487401040254,-0.0572832225516317,0.998329983006714,0.0523368272475741,0.0005427774785547,10.262107180330451,-0.0259995905628205,-0.1319652938757573,1.0697697075775483,1.0142793024630214,-2.6224405248167084,0.2980011909889312,1157.807345502886,1143.413570556489,1155.9920740886544,1169.5414835759436,-59.51890569758684,441.99186080045325,-129.02371709301394,556.8490071080755,163.72022983365926
0.1275,0.1438849712766541,-0.251887517883209,-0.6915788476070074,-0.1692714271256947,0.0622520133506546,0.03175265283739,-0.0075814754184151,0.0008593603438022,-0.0572108208621372,0.99833289125676,0.0464266058338536,0.0012827587238258,10.246894928759035,-0.0260203722406046,-0.1320266677744031,1.0706845542332724,1.014177127400608,-2.622717483181348,0.300669244388231,1157.7633346418584,1144.5851008777295,1155.499798227853,1170.9960922769883,20.41218615254364,509.0937164516158,-240.08911702408088,586.7266190389721,163.71840419999683
0.13,-0.0716339496484875,-0.4834618164884602,-0.6382842818656634,-0.1679208666044219,0.0598422350053855,0.0307711567213152,-0.007742672119721,0.00088485958366,-0.0571366909343762,0.9983358506395448,0.0399174719340594,0.0024516645924588,10.234448492916826,-0.0260782628067084,-0.132076959893419,1.0715963873557195,1.0140733894157408,-2.6230015916949707,0.3033395778997946,1157.9094064336489,1145.9590391387471,1154.791628503534,1172.4751166711385,99.4039549721946,608.2687210249782,-305.34589263661445,579.2739217072716,163.71648989474943
0.1325,-0.286730421272428,-0.6553437860056341,-0.5950344734391819,-0.1676669584892897,0.0567871702899203,0.029419733538565,-0.0079112084893526,0.00092443416279,-0.0570636035856543,0.998338616418544,0.0328592015861032,0.0038588040698158,10.22461899533462,-0.0261691782271763,-0.1321326003704376,1.0725075640100794,1.0139701296792547,-2.6232910315176183,0.3060123831074256,1158.260354416719,1147.6264444828544,1153.97306876467,1173.8924618855247,180.8648002375774,790.9729660138956,-339.17601564976366,585.5655904991175,163.714473071564
0.135,-0.531744642440125,-0.7898388165951334,-0.5485413178829459,-0.1688000317519929,0.0536285726144125,0.0274393303711558,-0.008094309371857,0.0009750326889863,-0.0569968593579345,0.9983408321349168,0.02534544832232,0.0053817154539398,10.217240915880335,-0.0262851862785643,-0.1322024441953278,1.0734197371360985,1.013868154604044,-2.623582260563048,0.3086892038980613,1158.8137304348368,1149.9139039688166,1153.0957484252851,1175.402944623634,201.0401019442723,862.9907534370878,-272.2457064570788,506.68115273529065,163.71193995976577
0.1375,-0.7103362950058241,-0.8584167696315514,-0.510912697876752,-0.1708716147919934,0.0517102738956118,0.0256602874812635,-0.0082958814801504,0.001029229300293,-0.0569380258761324,0.9983423846212984,0.0175610100213974,0.006953561197294,10.212136828583596,-0.0264112214269829,-0.1322893905156425,1.074333952672592,1.0137661856798863,-2.6238713840002514,0.3113715806749242,1159.2655549264407,1151.9413982500398,1152.6118402323843,1176.425867649201,146.71683173869482,797.0336192796816,-114.56071919369596,348.9930385963359,163.70973894842038
0.14,-0.8496272271807506,-0.908348502960395,-0.4771274738957171,-0.173562465879584,0.0503389022303896,0.0241808991493855,-0.0085144289434221,0.0010807557530629,-0.0568870421922115,0.9983432976330052,0.0096681171796042,0.0086001495722198,10.209120871152647,-0.0265365708873641,-0.1323867740170261,1.0752512030923187,1.0136642756449559,-2.624155960659634,0.3140616952233909,1159.5473145935302,1153.899072065215,1152.5229448293167,1177.1479098166155,51.75601747487231,798.6504841549952,64.65286277893932,248.2079551538843,163.70744915862923
0.1425,-0.9713974794617226,-0.9688642521346859,-0.4526656315871885,-0.1766401570451347,0.0487793452045562,0.0230855756038558,-0.0087478883833515,0.0011271500423584,-0.0568432923093581,0.9983436304939064,0.0017597288484794,0.0103398982593796,10.208001559491564,-0.0266597510784262,-0.1324887562725806,1.0761716465836808,1.0135622715460668,-2.6244352837006995,0.3167608258344614,1159.524335013815,1155.9346506708148,1152.9351045462793,1177.6669074249703,-85.91938720842374,666.4368457849863,231.81131963588197,140.71068302005253,163.7046041865588
0.1449999999999999,-1.0435148772621652,-1.0236671059864884,-0.4548819091248006,-0.1787485826049127,0.0471225120739498,0.0225741220674557,-0.0089928357143296,0.0011628297449994,-0.0568079702521588,0.998343358096599,-0.0059994443192668,0.0122098089847707,10.208584574327196,-0.0267732025689893,-0.1325873369975621,1.0770961716986482,1.0134616561712466,-2.624709999266253,0.3194673550191198,1159.117717657488,1157.23125629414,1153.682001427496,1177.851463231716,-253.56826423822105,414.4556366002709,359.84675354771014,39.400724834558964,163.7021562660057
0.1474999999999999,-1.0959462485453495,-1.073270900362014,-0.484910695813855,-0.1807089636746941,0.0447496841555923,0.0220945564315591,-0.0092428959413966,0.0011855821232375,-0.0567772515852357,0.9983427616279348,-0.0135048831630171,0.0142931440788109,10.21067334605972,-0.026879062854356,-0.132668774454389,1.0780272256256056,1.0133645722757831,-2.6249811007305306,0.3221780981373563,1158.256493692624,1158.006928853816,1154.7343383140178,1177.863911049143,-418.99156750291655,217.5125996530367,447.2750569246724,-7.336564932938922,163.699632936317
0.1499999999999999,-1.1344850526053987,-1.1052436098294949,-0.5335522709992468,-0.182851647036288,0.0418081801385203,0.0215105664811291,-0.0094974120639191,0.0012046049360547,-0.0567536118402599,0.998341692417155,-0.0208689757488576,0.0165339063399548,10.214068751225604,-0.027002375181844,-0.1327333246822196,1.0789664950057338,1.0132712544810685,-2.6252499741721262,0.3248899240886015,1157.0227598199735,1158.3188192924051,1155.9183767121194,1177.814780407051,-569.8329156845825,16.629746518856322,475.15319819713073,-12.58170676114786,163.69705051123427
0.1524999999999999,-1.1503234412803576,-1.101229377021519,-0.5893843901744281,-0.1849765518510193,0.0385288701743985,0.0205804033369224,-0.0097528960187897,0.0012267745657556,-0.0567385307923582,0.9983400916858453,-0.0281507029259438,0.0189293732031191,10.21857068498361,-0.0271638725598361,-0.1327744880698823,1.0799181371759967,1.0131827200636419,-2.6255181264402374,0.3276013286502379,1155.407329114201,1158.0900775864104,1157.1101043050035,1177.8010025153376,-764.4585665455445,-207.2675199755848,494.67950437547137,30.661656026359168,163.6944009725828
0.1549999999999999,-1.123871420192759,-1.0457457629668183,-0.6349324176819325,-0.1875967655394376,0.0347801682427601,0.0186519606871239,-0.0100001508943917,0.001253543156463,-0.0567292492894498,0.9983382051557994,-0.0352967561577744,0.0215946519458858,10.223978928016392,-0.027373709595441,-0.1327721053063447,1.0808894459197382,1.013099892369569,-2.6257866956433737,0.3303114049976226,1153.2004669872458,1157.2824816925272,1158.3917742339968,1177.9680886871831,-818.1801003800949,-364.33197474070727,429.95927015895137,110.48119674915132,163.69114929473733
0.1575,-1.0413643839894002,-0.959110248432348,-0.6312526810481761,-0.1903618775783591,0.0319814699399864,0.0162944601752496,-0.0102331302898871,0.0012902613471975,-0.0567236536873979,0.9983362058072272,-0.0423254837457417,0.0245719975963806,10.230092818011919,-0.027648465504012,-0.1327129044354851,1.0818873560607571,1.0130201784252728,-2.6260558530907208,0.3330194311815601,1151.3164286123003,1156.2684177127069,1159.2599006557982,1178.3534084990831,-715.0227360657475,-448.1764970736545,295.6408048490172,220.861945639899,163.68838328826146
0.16,-0.8657643861722754,-0.8405740078109482,-0.5643236576593531,-0.1939908870028517,0.0296074298167262,0.0136673908772935,-0.0104497204501396,0.0013299242846238,-0.0567191561995653,0.9983342652865136,-0.0489973441221061,0.0278350918993412,10.236715770912772,-0.0279754502296301,-0.1325903678512029,1.0829187139556915,1.012941323216658,-2.6263255347078975,0.3357252798201877,1149.625353306917,1155.0415992071587,1159.8699782582419,1179.0723984153826,-611.7906231989303,-504.74237043572384,198.57525566080747,346.6662291399186,163.6855635669907
0.1625,-0.5990541549010477,-0.7071309385705148,-0.4426926723612852,-0.1977565038387891,0.0277236341553737,0.0115110110937428,-0.0106496101517294,0.0013644963245472,-0.0567130114994235,0.998332549373156,-0.0550523557855308,0.0313206668288789,10.24365514579502,-0.0283368888307915,-0.1324018067891289,1.0839893455655432,1.0128610447049096,-2.6265950943874743,0.3384303821154214,1148.257475496306,1153.7447058605283,1160.2527769341023,1180.0867396447827,-442.3485831445756,-510.9455948653699,101.15305808230904,468.9789945354729,163.68270283545945
0.165,-0.2310619900945986,-0.5714348132779707,-0.2685705800625521,-0.2004555574977588,0.0265417770998946,0.0104071114578569,-0.010837568022026,0.0013932505280925,-0.0567050097452028,0.9983310178495,-0.0603820105240591,0.0348525487286049,10.250723026796617,-0.0287268880344147,-0.1321569073020487,1.0851019821335424,1.0127760930055396,-2.6268640732545836,0.3411367906866634,1147.413610391194,1152.486871232832,1160.3757435486534,1181.41729338806,-237.57005076304247,-515.0701031843705,6.65850952645996,632.3293578631359,163.6797969683836
0.1675,0.2800265166413534,-0.4226106182320936,-0.027433515698916,-0.2014737349831008,0.0257632312510244,0.0100023294747785,-0.0110186421265011,0.0014210458292813,-0.0566928570090241,0.9983297396358684,-0.0650028660808436,0.0382442400934963,10.25773882117484,-0.0291498197040111,-0.1318671524185649,1.0862572280571392,1.0126859151732592,-2.6271318594555315,0.3438457812560066,1147.0696252424907,1151.1693553446064,1160.2860694817343,1183.2483864340986,-21.8479135927282,-433.36983536169055,-57.55980883909609,681.9921860844255,163.6762633954903
0.17,0.7103147149575063,-0.3160683859663082,0.1778443582900756,-0.2003182255116449,0.025343004397954,0.0101553542328265,-0.0111989868629892,0.0014538894113158,-0.0566777713053809,0.9983285717924076,-0.0689704823747958,0.041287599484964,10.264533615293795,-0.029609898483373,-0.1315475876539457,1.0874534819219708,1.0125903401463627,-2.6273970271280733,0.3465577942692655,1147.3043708232303,1150.3200220560236,1160.087944504458,1184.827254318482,176.41375777570812,-273.7631779111323,-85.39323565787518,601.763003455016,163.67328415649308
0.1725,1.073987047445054,-0.2259110882675257,0.3611303458667418,-0.1970881473420292,0.0248184193452698,0.0110331789206522,-0.0113853811331265,0.0014966404524982,-0.0566643866042181,0.998327171921626,-0.0723359681747424,0.0437670621651037,10.27095433151462,-0.0301069982282507,-0.1312155797719893,1.0886872025604952,1.012489978784132,-2.6276581749893726,0.3492741169667475,1147.9516940313692,1149.8005394550507,1159.8591033034452,1186.2572014513737,334.38463263610146,-145.27162229737755,-92.95476927218253,545.3316283778345,163.67027408434333
0.175,1.362405052160527,-0.1283254051619625,0.5273919698777589,-0.1914152727918341,0.024171603637199,0.0131017141990953,-0.0115773289614847,0.0015504623769287,-0.0566520786188313,0.9983255779526083,-0.075101725426992,0.0456286587277921,10.276867064267096,-0.0306347966899918,-0.1308726951902502,1.0899552287942222,1.0123873794422524,-2.627914836834368,0.3519939711149978,1148.976293986411,1149.5936639445367,1159.623170658097,1187.5539124603713,379.6791283273723,-7.269376799240525,-80.07471628475324,373.32643618260767,163.6666323651581
0.1774999999999999,1.4479766970901025,-0.049811161031866,0.6068368843319286,-0.1858856849344011,0.0237214775847856,0.0153137627108918,-0.0117736130158145,0.0016180115318769,-0.0566405819538758,0.9983238114330196,-0.0773226920972711,0.0468402241213094,10.28215984980354,-0.0311903500882455,-0.1305195717625813,1.0912527869692754,1.0122825355771587,-2.6281676610565086,0.3547171947615399,1149.850089673006,1149.7641925710543,1159.4587297220214,1188.1238336322867,315.833222671337,130.91895946108767,-73.38773616693322,96.21718657563224,163.66357738717517
0.1799999999999999,1.369030924865431,0.0299528597932704,0.620640478702035,-0.1806284540578154,0.0233293042687722,0.0173351061093679,-0.0119761373663223,0.0017037958222654,-0.0566322123890714,0.9983217086634472,-0.0791098169653672,0.0473128845523749,10.286746000268309,-0.0317742003866667,-0.1301642006343608,1.0925725269040107,1.0121742675796304,-2.628417474146575,0.3574449512358551,1150.5554600997675,1150.248258741842,1159.2562319772624,1188.0349983932495,238.61279795987664,232.2564023796074,-105.01302213729095,-147.86978248230284,163.6605069030285
0.1824999999999999,1.1767298203060435,0.1100505934278101,0.5859160203364215,-0.1765159845827165,0.023174230638304,0.0189672196698397,-0.0121895481741423,0.0018090271756686,-0.0566292648735939,0.9983190781239976,-0.0805225185777241,0.0469165065658168,10.290567784684043,-0.0323801496312814,-0.1298201857496858,1.09390517096435,1.0120619987660675,-2.6286641838926714,0.3601802582102024,1151.0431536628055,1150.9254745829523,1158.9336646113347,1187.3844847198752,145.1229688938382,291.7102986626102,-178.17752676887704,-373.35771754619566,163.65742775095183
0.1849999999999999,0.8977783972641781,0.1844228849612778,0.5053817049116986,-0.1742932405132465,0.0234791355882657,0.0201938984252368,-0.0124152167091766,0.0019216412526098,-0.0566327098094525,0.9983158524988978,-0.0813675913446628,0.045616189146797,10.293599871993852,-0.0329748585879533,-0.1294922194129843,1.095242309379038,1.0119458499757856,-2.628907910512686,0.3629253118862342,1151.2810749442367,1151.7068102351552,1158.365344343418,1186.1682098055185,76.11594654754292,326.5941101417863,-317.75508652763136,-605.4127725683423,163.65434325844484
0.1875,0.5334723711989945,0.2557230013535705,0.3728176230303965,-0.173449924688953,0.0242196959964567,0.0214417021173707,-0.012656565316722,0.0020342241514053,-0.0566401612423614,0.9983121179999312,-0.0815572651104689,0.0433432634987117,10.29584548556957,-0.033537244348027,-0.1291897128481741,1.0965744211774937,1.0118280686793655,-2.629148752436019,0.3656799293008232,1151.4237333955432,1152.5584451336615,1157.3448891786968,1184.3574208570335,61.587790434577926,268.4943442453002,-422.2366922321722,-664.111767064241,163.6506418594533
0.19,0.2475898713590723,0.292118101078676,0.2441226409428738,-0.1735884131373692,0.0250270596621457,0.0224450108890598,-0.012912437828085,0.0021422371664452,-0.0566471671722457,0.9983081416824579,-0.0810774266086211,0.0401337357454185,10.29733523347842,-0.0340554558060872,-0.1289120957851518,1.0978935811385142,1.011711504712348,-2.629387464577904,0.3684413274384458,1151.5890138964098,1153.0492819563815,1156.254160882257,1182.8476509701973,115.46085553118236,125.73241751470039,-458.1264070185621,-535.2320698717899,163.6475613101278
0.1925,0.0122652669507275,0.2970761160956646,0.1124137476185174,-0.1739310190493298,0.0260503101737996,0.0233985917194312,-0.0131847387784046,0.0022455864237953,-0.0566538116696861,0.9983038877535584,-0.0800095021645896,0.0359679356955032,10.298125836076716,-0.0345278739297419,-0.1286661271630202,1.09919206855479,1.0115955241929435,-2.629623860413276,0.3712072672687884,1152.001037673199,1153.187107221235,1155.054257143604,1181.6812605076743,266.82713107147697,-30.25044374926435,-508.43323406879745,-377.1295626382649,163.64448891629667
0.195,-0.1929529379629395,0.2629835094511435,-0.0222474826091421,-0.174456709400712,0.0273682252939043,0.0240555008482354,-0.0134746224599304,0.0023466360700141,-0.0566588270177782,0.9982994053860555,-0.0784877109022341,0.0308527786084688,10.298297546615307,-0.0349604574908397,-0.1284569509179409,1.1004638495620107,1.011480041836862,-2.6298592201475417,0.3739761821061704,1152.9231495517672,1152.8980297376352,1153.7119947119131,1180.962003157006,410.2113218011251,-174.83999724881855,-444.34675404313526,-133.51799004271913,163.64081535531457
0.1975,-0.2919064188326754,0.2038047258728223,-0.0882119133660825,-0.1752776983392781,0.0282771889481194,0.0236805311682888,-0.0137804152064675,0.0024466702058646,-0.0566584049245657,0.9982949321451882,-0.0766242505998522,0.0248688280302067,10.297951623410352,-0.0353593295777635,-0.1282830911559855,1.1017054755527909,1.0113653045705002,-2.6300945407518657,0.3767481258923934,1154.0520942822047,1152.3129072349907,1152.8325233733883,1181.0136705574607,501.5033140487044,-285.8500521859239,-274.60887418205834,146.22358581004832,163.63776744882747
0.2,-0.3105346831326693,0.1223118555952349,-0.0725567759101127,-0.176529142431336,0.028851573284044,0.0221236933872117,-0.0140962196809196,0.0025490515095402,-0.0566535695001824,0.9982904871060632,-0.0745748178814077,0.0181933096116241,10.297205678437525,-0.0357360578018975,-0.1281344614017506,1.1029161361887856,1.0112511080137283,-2.6303292475872952,0.3795242067188922,1155.4306661220107,1151.4687794767055,1152.3389503410028,1181.693121086056,558.6582531118888,-362.3517668141627,-123.2516472701717,352.0927441009004,163.63473557494478
0.2025,-0.2630636474635163,0.0329892987082353,0.0264720633086072,-0.1777368440615317,0.0291743561367904,0.0199231488470368,-0.0144130177141095,0.0026499821439615,-0.0566447160955634,0.998286190933834,-0.0723421799444358,0.0110892004068492,10.29619249105936,-0.0360882163471541,-0.1279935119095843,1.104098205270478,1.0111379327849443,-2.63056250354474,0.3823037486489972,1156.845385547764,1150.50114840092,1152.2162651370375,1182.7741342779655,524.6428666872812,-396.1238580857295,40.859080328891615,490.9976462487516,163.63171813711452
0.205,-0.1441013531785587,-0.0504237946254536,0.2180959267460283,-0.1782409840721101,0.0291077092778593,0.0178450034543634,-0.0147174034737881,0.0027398603834406,-0.0566284166380213,0.9982824628630828,-0.0698021270778527,0.0039298026347755,10.29505565613417,-0.0364029639601196,-0.1278325118285182,1.1052575008642491,1.0110280188448972,-2.6307929707256648,0.3850838370959682,1158.0538804554471,1149.4881601862771,1152.5432457426473,1184.1481093173,424.6320556201677,-435.3877831419591,239.29258090038252,624.5753542018969,163.62871906474663
0.2075,0.0662617622179818,-0.1232473179025542,0.4999396207562736,-0.1777219643223662,0.0284387641101274,0.0173190142063008,-0.0149982697329461,0.0028085780285566,-0.0566048860766602,0.9982794898578392,-0.0668057050368826,-0.0029474999837968,10.29394468905207,-0.0366658109116488,-0.127629420260387,1.1064009570538527,1.010922672890186,-2.631019743648785,0.3878627328310855,1158.968545825865,1148.3242094852103,1153.4127280415391,1185.8970110489747,216.2364607659593,-407.70118694158737,390.4853928915163,632.0284975126044,163.62514264574787
0.2099999999999999,0.2908951639427214,-0.1490453990861515,0.711306487642575,-0.1768637408599433,0.0273972357090067,0.0195839906177787,-0.0152471988066786,0.002842694487199,-0.0565731592186534,0.9982775010502924,-0.0631184483052179,-0.0092460289493305,10.293011942929708,-0.0368548167592567,-0.127367880346906,1.1075362840359608,1.01082121385312,-2.6312424126672904,0.3906400255733582,1159.1350627592767,1147.4496542515692,1154.4956727071049,1187.3082518048627,-68.74422306268603,-321.025033263733,500.62949983048617,540.3596507774662,163.62218215223592
0.2124999999999999,0.5671497255319845,-0.1332216368229472,0.8147454437841455,-0.1759411970158049,0.0260811546118602,0.0240687301430072,-0.0154603325763429,0.0028384489134912,-0.0565292268744689,0.9982768040180588,-0.0586855100319202,-0.0147646705278595,10.29240601031147,-0.0369689447725938,-0.1270425271678356,1.1086696953592827,1.0107235496215936,-2.631460621960674,0.3934154363368451,1158.6248247105516,1146.7190843188916,1155.9158755406916,1188.5988093028623,-362.4280221757996,-278.5289790498607,697.0975099652145,543.3470046479209,163.61924393705448
0.2149999999999999,0.9625199974393688,-0.0779704232744772,0.7542609517448668,-0.1742132731959748,0.0248489032162474,0.0297922905756866,-0.0156334086065285,0.0028042007689231,-0.0564695865861768,0.9982776473224952,-0.0536901087427474,-0.0193016436355516,10.29226871457161,-0.0370328410640446,-0.126648170196873,1.1098062086200424,1.0106290851772703,-2.631674557849061,0.3961890851543315,1157.322922648398,1146.05700935632,1157.9811602569307,1190.0249868281023,-560.9023436086768,-199.2440312940742,810.8221459506234,513.138876512266,163.61574618862704
0.2174999999999999,1.3446716237471543,-0.022943556842031,0.5457751490880803,-0.1718579163408345,0.0246341032297194,0.0336265908658518,-0.015769787689468,0.0027454159164982,-0.0563960648662742,0.9982798667258604,-0.0482393889184846,-0.0228057140879065,10.292737055564336,-0.0370610403900168,-0.1261956455336012,1.1109482814388922,1.0105366248675967,-2.631884816280379,0.3989629493186602,1155.8203129925082,1145.7228641624213,1159.969986270445,1191.1645036854236,-637.0960564160208,-79.38176309016846,835.4138775658149,457.4491839628532,163.6128568281905
0.22,1.7745573540216535,0.0087977188490523,0.2116943829997866,-0.1684884313858565,0.025377855208199,0.0357036036585722,-0.0158767294453181,0.0026655003762147,-0.0563156754763332,0.9982829507334428,-0.0423887838539288,-0.0253037404772933,10.293941391084196,-0.0370599336835147,-0.1257033560732577,1.1120961863911212,1.0104451592262216,-2.6320913241474164,0.4017404621387585,1154.1374423663178,1145.660100540869,1162.15822964476,1192.3122327479168,-661.7555352805533,25.051664748252712,890.1244012702582,461.76264372083966,163.6099966103062
0.2225,2.2339874814511287,0.0004998228692357,-0.1749948321768544,-0.1641982459282243,0.0265309417221845,0.0358543219846323,-0.0159631445569386,0.0025762102477897,-0.0562365525679774,0.9982862741879615,-0.0363608213015836,-0.0268695275345196,10.296002294897413,-0.0370518956044125,-0.1251930116442258,1.1132475617521749,1.0103529606720685,-2.632293712155577,0.4045251235198548,1152.5115353161054,1145.8481224861623,1164.4206082767962,1193.4733169040276,-590.1433634543531,138.859617023263,896.1960993591211,455.901450515466,163.60716288250168
0.225,2.710213311080589,-0.0667008280720409,-0.5533082053868567,-0.1587086971776944,0.0274471750476072,0.0336792405246108,-0.0160384933891691,0.0024857846768333,-0.0561665766796895,0.9982892271696852,-0.0303058330217383,-0.027591436716931,10.299032366604983,-0.0370493641955098,-0.1246853526676138,1.114399106523894,1.0102579738436364,-2.6324945469026115,0.4073170046043954,1151.186725549046,1146.3543986259851,1166.6392101415556,1194.591740000494,-465.3998445846351,297.54904271962886,932.1663515878746,452.7517933619943,163.6043640629576
0.2275,3.267493725761047,-0.2081399441729334,-0.9186768904892412,-0.1505072901234159,0.0276532628675845,0.029331447912867,-0.0161109315204087,0.0023955978293369,-0.0561063122578693,0.998291649363436,-0.0242364901384382,-0.027533813457719,10.303135544914587,-0.0370493119235717,-0.1241950310498807,1.1155479638573005,1.0101584659974159,-2.632695523882673,0.4101158085518989,1150.1845360931823,1147.3358676997607,1169.0814400347356,1195.7370758708375,-247.3313317913833,422.2691922483132,837.8553338104203,361.0310104399556,163.6010490829131
0.23,3.68970632300036,-0.3606878773052937,-1.1141334646324124,-0.1421298124450626,0.0269304237279112,0.0251920787175013,-0.0161830573237008,0.0023105988385787,-0.0560507835656802,0.9982937725620727,-0.0182505594333716,-0.0266663088616441,10.308403544799082,-0.0370571051088243,-0.1237227399103016,1.1166924787550927,1.0100527794651366,-2.6328965874738897,0.4129218095452127,1149.9500688900891,1148.4657445872267,1170.8284868106075,1196.396895052694,39.27628953338168,516.4750697054383,621.3653779265763,175.58631779002084,163.59832458734857
0.2325,4.029856923727966,-0.5265821278124745,-1.1850063453734752,-0.1322138233012934,0.0254406077386057,0.0213429101901421,-0.016256380250587,0.0022397918664738,-0.0559953755301996,0.9982958189410648,-0.0125393407234431,-0.0249609536378295,10.314913748750847,-0.0370865084044918,-0.1232659691689798,1.1178316756903195,1.0099416277365452,-2.6330976154832584,0.4157337994292155,1150.3809175408492,1149.9182430482879,1172.1882669243685,1196.6150074597879,275.5228858117332,632.9224635190252,473.07104293399755,2.2881454355683646,163.59564061938983
0.235,4.277490508807827,-0.6893974343974661,-1.1623601065549585,-0.1214023411745938,0.0236644309039036,0.0179696683173582,-0.0163321992396474,0.0021899354859038,-0.0559404312363076,0.9982977439459736,-0.0072593427589995,-0.0224065148924823,10.322727613845016,-0.0371453556907283,-0.1228208855282108,1.1189661473186194,1.0098259322352119,-2.6332988878422023,0.4185508436958356,1151.3276833191478,1151.630356904822,1173.1938420252775,1196.4083357798715,481.33863012012574,740.7344784354784,317.2565399182073,-184.9029195229376,163.59299043500675
0.2375,4.395438640285856,-0.8370363969385752,-1.0513768565595285,-0.1101439330192664,0.021826638503435,0.0152748109755085,-0.0164118816950001,0.0021628716157405,-0.0558912011537154,0.9982992383243234,-0.0024766443566214,-0.0190132394728074,10.331887847165351,-0.0372302561655625,-0.1223830002925602,1.12009862067747,1.0097056887307219,-2.633500611557531,0.4213711781587106,1152.7876106914496,1153.6219154404653,1173.7745496239595,1195.6904928621732,722.3601213699145,922.563640205776,168.21023471930027,-414.8181992570263,163.59038043218837
0.2399999999999999,4.3805846997288,-0.9847457409885244,-0.8526409695334156,-0.0968279590092332,0.0194163640770101,0.0129772024246142,-0.0164973720238952,0.0021646501851616,-0.0558536461508585,0.998299929782476,0.0016481542737083,-0.0148347566975365,10.342413913824341,-0.0373484849172881,-0.1219495233001599,1.1212332431563563,1.0095807742803855,-2.633701853457468,0.424194425331815,1154.9394839259971,1156.2431751058507,1174.0348931988742,1194.3342447835867,824.2665988208539,978.6977529384378,37.116392469352085,-554.0225836414745,163.58729319657107
0.2424999999999999,4.24313256319966,-1.0732304322413744,-0.6565756561730969,-0.0862021319817175,0.0169437517644747,0.0116755878839111,-0.0165834164037062,0.0021875697404303,-0.055830515148006,0.9982997620522012,0.0052252217413295,-0.0097868512706066,10.354301130708617,-0.0374801184246276,-0.1214997505723415,1.1223790643728528,1.0094550461641287,-2.6339023970469952,0.4270191308098103,1156.908943685554,1158.5154042051574,1173.9601315863063,1192.9203799439658,788.2599973491317,895.121672209506,-68.057298555459,-585.5093774253413,163.58475589548152
0.2449999999999999,3.9889647556765895,-1.1124085884452068,-0.4498813323574197,-0.0763511660348448,0.0137122482559628,0.0105252025420563,-0.0166651031377804,0.002220698753134,-0.0558191073942724,0.9982989852099708,0.0084319291224939,-0.0038143424824713,10.367516191224018,-0.0376013712070147,-0.1210132549665905,1.1235471721339865,1.0093313428005113,-2.6341020028506312,0.4298437184199317,1158.880783912743,1160.7187834668985,1173.6946067060967,1191.40669789646,833.8441849269194,914.8125286123552,-133.51832683620148,-643.6541510014644,163.58225247053562
0.2474999999999999,3.566990622049558,-1.0937090285329376,-0.2065489714061713,-0.0656826602894625,0.0091962262958897,0.009311290141455,-0.0167414416287371,0.0022576671991782,-0.055815742255563,0.9982978328610944,0.0113581300344398,0.0030266351244278,10.381994502233503,-0.0377006191961459,-0.1204793430157441,1.124748804062575,1.0092106895320827,-2.6343010276916687,0.4326667099335631,1161.0781646101887,1163.0894668482192,1173.2925399521253,1189.7021091889585,760.5626469436622,801.7654973549262,-144.51566222755886,-579.4671994286085,163.57928431570218
0.25,3.129537041930049,-1.0293959959163947,-0.0206561770610798,-0.0576671734800908,0.0056264415022429,0.008705850986476,-0.016813260862638,0.0022922822751039,-0.0558164240926217,0.9982965291251767,0.0140974774953737,0.0106189759227874,10.397639993390976,-0.0377683224035672,-0.1198919875869351,1.1259956519601504,1.0090939232486136,-2.634499977065111,0.4354868165899911,1162.6835971474611,1164.727610953673,1172.9720283949591,1188.509361899317,585.7150846132294,575.9849934009703,-112.00492464581647,-409.91116708605625,163.57683888445865
0.2525,2.6147155652935146,-0.9398845169679964,0.1276442849039563,-0.0504496763691972,0.0030357828214571,0.0088510515332133,-0.0168739749084359,0.0023167663509492,-0.0558191043578667,0.9982953171524076,0.0167755649884698,0.0189813083996537,10.414325134570948,-0.0377932290340883,-0.1192291646357534,1.127301379155189,1.008980941145534,-2.63469956355325,0.4383041790107761,1164.0067400332548,1165.969391815224,1172.732515328896,1187.6525533535282,482.3638837382528,440.1013517895077,-77.87841464923977,-282.3021906893698,163.57442077115115
0.255,2.046119919419624,-0.8569933471227187,0.2274828323737868,-0.0441416769620094,0.0013433919851169,0.0100138290996608,-0.016919261260274,0.0023251700508632,-0.0558233975002473,0.9982943065254076,0.0194927762381109,0.028067501191528,10.431892410832415,-0.037768317282501,-0.1184752332698339,1.1286781149189868,1.0088711093694869,-2.6349001465318174,0.4411205253365411,1165.0954165661526,1166.9281177126206,1172.5826363217127,1187.09785094587,385.5483920568983,342.6461743749766,-38.830121018099774,-154.2749519612697,163.57202438600072
0.2575,1.4330929646728154,-0.8135901205918179,0.2539572589217203,-0.0394799402487186,0.0004352561376458,0.0122242219332572,-0.0169469159403892,0.0023141054045524,-0.0558256602524933,0.9982937488438876,0.0223123226416167,0.0377731683734242,10.450157389935766,-0.0376929229745689,-0.1176207285100634,1.1301356402409468,1.0087641656376447,-2.6351017803428345,0.4439376625180285,1165.9344819935393,1167.6826226870987,1172.5383647238057,1186.8811785937219,326.6877355783433,328.99282372150054,-2.990267439372471,-32.3646313152494,163.5696535793548
0.26,0.6842756627910699,-0.8315527248526886,0.2061408916467374,-0.0362941338948895,-0.0003583170585729,0.0147234851113017,-0.0169611441225529,0.0022907957251956,-0.0558226714365719,0.998293734771425,0.0250959794816898,0.0478407885063545,10.46891308946024,-0.0375892149454772,-0.1166737828867242,1.1316791268580737,1.0086598427438602,-2.635303482626301,0.446756179953394,1166.7288552440443,1168.573081831228,1172.567684984516,1186.9360277892938,270.4194190298947,353.09039756839377,14.062881221798294,60.640092826861235,163.56683802299128
0.2625,0.0819192381098771,-0.905557454463793,0.1263824041300394,-0.0356467598204366,-0.001267223810815,0.0157345532927355,-0.016971802064043,0.0022621951304223,-0.055814048651955,0.998294100719272,0.027727781089989,0.0578920940686463,10.48793659496286,-0.0374768944651083,-0.1156577009367431,1.133309930546795,1.0085586254520849,-2.6355031243430855,0.449577165119791,1167.2865790886888,1169.4480746749407,1172.6086791299147,1187.184379057856,219.39274382893908,398.1237710994261,4.361341706726304,131.4902025201262,163.5645165923744
0.265,-0.4609548658646822,-1.020661327437356,0.0547214322908844,-0.0368492947715757,-0.0029718306575331,0.0151991141738413,-0.0169874800329398,0.0022316510376412,-0.0557996315143288,0.9982947022743258,0.030176204236858,0.0675814702184946,10.506994429350188,-0.0373666281666205,-0.1145949346546289,1.1350272466511115,1.0084599911820256,-2.635697829252333,0.4524035556513325,1167.825818963189,1170.5637006867253,1172.5894916930497,1187.5934788018944,247.51621331138244,544.8478389374482,-38.71132944650522,212.0496862525668,163.56222196984615
0.2675,-1.0116283128861698,-1.1640153455728564,0.0337601509540571,-0.039970809679113,-0.0063067781433385,0.0130762190327088,-0.0170181741303727,0.0022037925052125,-0.0557838407281483,0.9982951130509938,0.0323914223358412,0.0765393016537276,10.525848569625975,-0.0372696390061668,-0.1135139083537842,1.1368271030199288,1.0083607993941,-2.635885565730683,0.4552385360302135,1168.5241601552457,1172.172313869628,1172.415122482682,1188.244627489119,267.0680458015793,615.8483506105307,-95.79503567156272,262.9308599093745,163.55950130823538
0.27,-1.3739527541973555,-1.25378506447917,0.0922883540423761,-0.0434481204737031,-0.0100464257021797,0.0108895852855396,-0.0170706299489872,0.0021862707744777,-0.0557686793376583,0.9982950906673268,0.0342645599095341,0.0844727129755304,10.54426154438022,-0.0372036286776471,-0.1124377440060025,1.138703691620506,1.0082591972254673,-2.636066247851625,0.4580832183065499,1169.1611591921967,1173.642942439778,1172.1105165146919,1188.9081331014413,258.569708948198,575.0437384491756,-152.1228872267328,283.78295628276624,163.55726337082302
0.2725,-1.633486172472346,-1.2807751201279465,0.2199733090410343,-0.0472057286925838,-0.0140021723379854,0.0099171980165261,-0.0171433925550416,0.0021787061436371,-0.0557561299396409,0.9982945496471042,0.0358511632100374,0.091287556199746,10.56200118288556,-0.0371681164618302,-0.1113711832589985,1.1406520700870564,1.0081555647503764,-2.636240798395898,0.4609364046564636,1169.8170086999867,1175.047532561874,1171.6545080465485,1189.6635422705328,254.65908617002216,512.3005307644685,-195.8519583195992,307.0423864543952,163.55505866196552
0.275,-1.8110579759511736,-1.2430240607619352,0.3734901811390672,-0.0509016807700254,-0.0175474246162804,0.0107560370615331,-0.0172253513759896,0.0021723670073729,-0.0557480694517977,0.9982935907000992,0.0373755335996583,0.0971242450818723,10.578844708356176,-0.0371442002816677,-0.1102965837116304,1.14266909830659,1.0080508067209573,-2.636409427941976,0.4637975170556088,1170.434454623047,1176.2044450936003,1171.1312567230939,1190.4433450337133,226.64352862743704,355.16646806199753,-201.4005214904044,298.0236997685094,163.55288408053457
0.2775,-1.8912903782781048,-1.1227401001280954,0.5108241529639586,-0.0547273002106284,-0.0204782696864283,0.0132355663029562,-0.0173078581794825,0.0021589988223009,-0.0557470034628643,0.998292237621244,0.0390569362931404,0.1020946400637575,10.594585223427428,-0.0371132630170326,-0.1092021887205257,1.1447505096360255,1.0079464653789345,-2.636572495660481,0.4666647680395606,1170.9502263431239,1176.823364902184,1170.6475054390964,1191.1536607693752,203.7275020597461,99.38214388785119,-166.98241323715578,265.6162666028647,163.55074950047268
0.28,-1.866191139781006,-0.8827524485723468,0.6128525815733479,-0.0601709417662639,-0.0235073131256329,0.0166647958131685,-0.017386982356713,0.0021355704868952,-0.0557526064597534,0.9982905813185668,0.0410114464019598,0.1062292039162006,10.609036334615286,-0.0370683320537292,-0.1080873282023924,1.146890366302115,1.0078442645188634,-2.636730335484568,0.4695360142591875,1171.4530921333455,1176.7013558130395,1170.296344656908,1191.7714263667276,180.36073383332203,-205.6176369965668,-66.20533469631476,166.52978482925377,163.54823971672963
0.2825,-1.7331468367324538,-0.6043134571112073,0.6342509004930748,-0.0654558857609295,-0.0257180899596932,0.019229502872713,-0.0174599480519703,0.0020975746745148,-0.0557607412235774,0.998288912017684,0.0433875960895623,0.1095596444129323,10.622035086188724,-0.0369992927475033,-0.1069530864168284,1.1490824532072432,1.0077441101955844,-2.636883024021736,0.4724105576806234,1171.8520300122905,1175.7952767172012,1170.3164787656149,1191.9863096935217,188.57119518365815,-520.3985609604838,91.0237270525612,9.114949254171725,163.54619584079964
0.285,-1.4786800216730431,-0.2500356717858511,0.5981237910210028,-0.0707700368939499,-0.0273707720058123,0.0211841183051441,-0.0175261066781355,0.002044965942097,-0.0557654799168834,0.9982875763486508,0.0462383890393383,0.1120899296618802,10.633444775972611,-0.036905796033322,-0.1058051435954799,1.1513193698182302,1.0076452117230708,-2.6370306579422236,0.4752889922346109,1172.395948109264,1174.099363008237,1170.751463292171,1191.8170011129985,269.59517652585396,-780.9029650040877,244.22634561228713,-129.8875879535443,163.5442073711377
0.2875,-1.1347373172176616,0.1565303382516107,0.5310413361439029,-0.0754603114211681,-0.0282491268930028,0.0226113880087084,-0.0175852460596223,0.0019875561877197,-0.055762533466917,0.9982867994563764,0.049399982007297,0.113823575831673,10.643156722826577,-0.0368092572614763,-0.1046505715515802,1.1535921926798247,1.0075461977341105,-2.637173135736505,0.4781720460526766,1173.2000058949195,1171.8907618921808,1171.5376104936763,1191.336871753754,409.34419567020507,-952.8336505297472,385.0914622166823,-248.058690713199,163.54226963880475
0.2899999999999999,-0.7193447264853838,0.6028406108696338,0.4511348162466536,-0.0785683286228376,-0.0278155544812084,0.02351139191133,-0.0176428030018914,0.0019316515994509,-0.0557477407035416,0.9982867073842628,0.0527802550016925,0.1146659684027361,10.651093434572596,-0.0367217737341414,-0.1035078176114846,1.1558904116534896,1.007446653378821,-2.637311741166658,0.4810617578623661,1174.442669087615,1169.3351947555884,1172.6769206032543,1190.5767076594325,657.9565817344768,-1124.1174914856967,549.10720696908,-358.67498673751834,163.540399110665
0.2924999999999999,-0.2086188578379379,1.1423088997204607,0.3694108169146675,-0.0797250689269121,-0.0255060955798294,0.0239373886755403,-0.0177034072302067,0.0018821112438843,-0.0557194168128924,0.9982873058100152,0.0563048532948766,0.1145558712511111,10.65720769231808,-0.0366513602987669,-0.1023921590521875,1.1582031262798602,1.0073469081859707,-2.6374462342830824,0.483959269274688,1176.489788803592,1166.2701744347523,1174.2831465285217,1189.5434968200664,831.9231223377748,-1068.344717634226,598.4139162618698,-365.9698138657856,163.53824021540484
0.2949999999999999,0.1704085608433184,1.5595257509755056,0.3278122113225724,-0.0789067671467101,-0.0221299586140109,0.0238645957207792,-0.0177773009917391,0.0018488850131674,-0.0556836995243144,0.9982880457924762,0.0597812982369429,0.1133178360864604,10.661484151565087,-0.0366155440373181,-0.1013316826907842,1.1605174403694924,1.0072463453738911,-2.637576242069805,0.486865681684031,1178.602284699304,1163.9934711674173,1175.6689901845637,1188.7468585901036,896.1821030025469,-803.7209205030641,529.0825217912238,-273.4026548488598,163.53651865118945
0.2974999999999999,0.4425097113892834,1.9009826826430256,0.3181321544321269,-0.076982638929258,-0.0173459522073619,0.0239148501590215,-0.0178676096782472,0.0018374639368442,-0.0556416565090962,0.9982887891738456,0.0630945481997075,0.1109409914754982,10.663935267326742,-0.0366232145016257,-0.1003355964088474,1.162822256287998,1.007144607953338,-2.637702454998532,0.4897821827411023,1180.9706993186048,1162.251569832237,1176.9285591374778,1188.176483545822,1044.8574058951626,-615.1515634300262,493.5221117282249,-181.2951261455508,163.53488502638731
0.2999999999999999,0.5995749916100108,2.1827467041686246,0.3311263482580093,-0.073596354027163,-0.0099765586827932,0.0245649018575897,-0.017976793046698,0.0018522886520984,-0.0555946647316595,0.9982893966228692,0.0661386977035875,0.1074343738621961,10.66460117458966,-0.0366809298048702,-0.0994098217384148,1.1651072179845863,1.0070410971590391,-2.6378263519077003,0.4927083065331388,1183.8265717287795,1160.9177133502671,1178.1366007432048,1187.8403829593758,1003.043115152922,-362.49078918044654,378.477039877998,-66.85234172932718,163.53303533785095
0.3024999999999999,0.5751321675019966,2.294496924323241,0.3466873249552721,-0.0701700930824514,-0.0028328580661389,0.0256519865610998,-0.0181015557317416,0.0018912004408101,-0.0555453340223277,0.9982897766292116,0.0689287052643624,0.1029386680934383,10.66354588064947,-0.0367807182326243,-0.0985445519396514,1.1673647571667911,1.006935870426943,-2.637949961095441,0.4956422968137745,1185.9859148943694,1160.4391158863348,1178.8209443368676,1187.8422218371754,765.9717421902761,-76.38742074072972,202.11439993499863,45.066477837372034,163.53159292535236
0.3049999999999999,0.40278669221784,2.2845784540165726,0.3487806249374794,-0.0671209083740585,0.0042374270279247,0.0271088219881917,-0.0182382339515118,0.001950802317926,-0.0554924009519792,0.9982900664185071,0.0714962532374137,0.0976019934709415,10.660855586298112,-0.036912816173526,-0.0977273627861171,1.1695890347093487,1.0068302066668984,-2.638075004413555,0.4985830608682393,1187.6564304397311,1160.5357762465635,1179.1471727428795,1188.0657153485627,557.3780274088217,115.14390960160188,76.14625083501771,111.55321259334404,163.53026148303647
0.3074999999999999,0.1425842212568398,2.1998328601283466,0.3314752223065848,-0.0654242727060033,0.0103345899407008,0.0286268831845298,-0.0183869969123166,0.0020304860648439,-0.0554370967131872,0.9982901955475036,0.0738057216192813,0.0914835447515792,10.656636109643117,-0.0370736567059261,-0.096954581240169,1.1717750541814607,1.00672613113095,-2.638201162929203,0.5015291213703771,1188.7728050314136,1161.0148354343428,1179.2016755910429,1188.399987900142,294.20013084099963,259.0842109412731,-28.92344121396488,143.99981662800187,163.52902788068968
0.3099999999999999,-0.159772197333253,2.0736679769027115,0.2910219789125746,-0.0663058830603565,0.0148004857907568,0.0299517430920436,-0.0185515339537562,0.0021303457931723,-0.0553831289345646,0.9982898955245803,0.0757993848102082,0.0845615091328656,10.651008648288334,-0.0372610060786724,-0.0962309998927076,1.173918982965492,1.0066238737809476,-2.638326990393462,0.5044791300306475,1189.127431093936,1161.8311973012699,1179.00255553681,1188.7857144317027,-17.83421930999792,406.58736836776336,-120.1306633981402,167.2739492478739,163.52791843178977
0.3125,-0.4897671067620116,1.936231802766488,0.2286491800536535,-0.0697305503471929,0.0189112446556506,0.0310926721582105,-0.0187275289894009,0.0022452287014886,-0.0553315576984346,0.9982892042883588,0.0775146748417609,0.076984571877064,10.64410325210852,-0.0374620378307064,-0.0955422360105349,1.1760207003958605,1.0065229781128804,-2.63845133903657,0.5074319118709392,1188.6836339348636,1163.0477722761816,1178.601022274052,1189.2363576463815,-285.66624341628966,464.0463838213687,-153.34011325999185,159.51912983946372,163.52673742337515
0.315,-0.6990302771889836,1.8638625510304236,0.1811374947342497,-0.0729992857747082,0.0219799433859303,0.0315071951909144,-0.0189056263875484,0.0023712720072052,-0.0552791996156169,0.9982884879282948,0.0789507996499193,0.0690006708718604,10.636056318366489,-0.0376682670712618,-0.0948625642778188,1.178082341337596,1.0064208183564245,-2.6385730185545766,0.5103876282557348,1187.6990998768547,1164.1514292203767,1178.23585497051,1189.5833100809,-472.72142010237945,432.4947504469488,-128.21255443927828,135.7245727857388,163.52588264239725
0.3175,-0.8280966161782539,1.8470469304888808,0.1593003406580197,-0.0752741840906165,0.025241604451102,0.0311194206405969,-0.019069955654539,0.0024926229544563,-0.0552260183604983,0.998288082011084,0.0803461531928004,0.0610047118190983,10.62700684137393,-0.0378433975753901,-0.0941502981113788,1.1801092986806463,1.0063165190066599,-2.6386912838640924,0.513346058690019,1186.3200268343517,1165.2102460284163,1177.9599595018556,1189.9149805103102,-622.6178988886198,417.79755921966125,-77.5252733452816,149.50088408372707,163.52516608767343
0.32,-0.9007882370313884,1.8761143767026824,0.1776302172753634,-0.0769718734189193,0.0299024022276876,0.0300434864849473,-0.0192082834089745,0.0025962119600903,-0.0551737964394179,0.9982881478831094,0.0818787243533149,0.0533065110048124,10.617095971158903,-0.0379572017658196,-0.0933734810508525,1.1821066960972983,1.0062105786092927,-2.6388072536669527,0.516307505563037,1184.5860103824116,1166.240417016475,1177.8482286037836,1190.3308145013186,-592.7213336642575,307.89114224521626,5.887961979760798,158.48902999582592,163.52446932393417
0.3225,-0.8986353739856479,1.9179104590934148,0.2257350643764016,-0.0784111285531817,0.0344966061549428,0.0295154804677427,-0.0193147711314345,0.002676147654109,-0.0551226936533285,0.9982888019284908,0.083580307912745,0.0460691061960656,10.606464956556472,-0.0379964746507945,-0.0925168683880092,1.184078163548014,1.0061045336423546,-2.6389217556660305,0.5192714610056259,1183.3564201660304,1166.7497017396424,1177.9893993117544,1190.7074256602891,-394.57943155589373,100.2258722935948,105.48776607679417,154.44724414464855,163.52402619012844
0.325,-0.8261194477551718,1.9456887831145164,0.2831045413594734,-0.0806072305461975,0.0396081005571511,0.030089912067139,-0.0193866206855283,0.0027309346318446,-0.0550719812723961,0.998290144680894,0.0853937770430344,0.039385876549525,10.595252561006877,-0.0379591103292716,-0.0915739495946552,1.1860263516961689,1.005999765486636,-2.639033623050368,0.5222381991691628,1182.613113224632,1166.7415463779428,1178.3756674341676,1191.1030507220419,-197.76337649604997,-102.55938682221304,185.38591140654697,155.6982379444888,163.5237267988564
0.3275,-0.6868453893918401,1.9408345564609095,0.3222545580897916,-0.0831884406582523,0.0449130791024458,0.0314110368423496,-0.0194305100696749,0.0027641698575897,-0.0550240365799321,0.998291908432024,0.0871664816762734,0.0331466723774733,10.58359443857163,-0.0378544527377275,-0.0905627584326176,1.1879514032436924,1.0058977687304118,-2.6391417351167097,0.5252077821973004,1182.36760328355,1166.2369048055311,1178.916328868787,1191.4859168500116,14.73613524385654,-319.63918992332736,230.5521498059532,142.89407404003202,163.52354701089607
0.33,-0.4633199202951525,1.8798813303988788,0.3122615638703812,-0.0853311754475499,0.0500871470504402,0.0331273177802147,-0.0194590098037094,0.0027833808396996,-0.0549819582369505,0.998293662012994,0.0886746116016256,0.0271180366837698,10.571621795200286,-0.0377012469871801,-0.0895171395799977,1.18985148425088,1.0058002115592304,-2.6392453623106213,0.5281807690301612,1182.6867939008512,1165.1433504283264,1179.528428183197,1191.817521092242,229.55872204670396,-588.3746168862666,246.29016898697927,129.8265729448302,163.52351180808955
0.3325,-0.1079664784725188,1.732644372956316,0.2243845370939918,-0.086753289678155,0.0559150423149337,0.0353344816172655,-0.0194860289905004,0.0028053942703109,-0.0549470997572164,0.998295016614245,0.0895083137467702,0.021035410476701,10.559461062589005,-0.0375410345584565,-0.088476314015707,1.1917229644015657,1.00570672218613,-2.6393451945771864,0.5311572933131828,1183.5153968937836,1163.2950317211,1180.1477797137222,1192.135049714736,334.4260742120693,-728.4575241849773,176.8205918478996,104.23700933861244,163.52363706155955
0.335,0.2442955745562931,1.5494623816623243,0.0893399647423067,-0.0870401068330312,0.0602608704882208,0.0370254479869056,-0.0195180125804676,0.0028460567159134,-0.0549217807492391,0.9982956754717828,0.0892793425437674,0.0148023190181243,10.547232860057488,-0.0374141136899631,-0.0874625230097369,1.1935626520105227,1.005615382147528,-2.639440616183801,0.5341378961018228,1184.3589242719115,1161.5010628074015,1180.4125311424368,1192.338706138935,315.5379357095623,-709.2774691503557,22.95061809991237,72.48106848392118,163.5238811838124
0.3375,0.627608749217797,1.3126682188559886,-0.0871286890564564,-0.0866101901896338,0.063762396480712,0.0376711542724558,-0.019557435786511,0.0029099140353869,-0.0549056571622357,0.9982955933375012,0.0878451237343392,0.0084281525723748,10.535051886562107,-0.0373345501032556,-0.08648737185184,1.1953679004708744,1.005524307209316,-2.6395300965805863,0.5371241093644102,1185.0930865723315,1159.7486443753482,1180.2625328042216,1192.4974550571555,241.6719968604864,-643.1970638795514,-140.70752442348737,57.94056568988703,163.52427044984913
0.34,1.0097286539578858,1.041513415796322,-0.267999560609139,-0.0852419803660101,0.0665409949505133,0.0368694696236055,-0.0196041761216,0.0029953954443659,-0.0548957271011833,0.998294938967047,0.0852008843338025,0.0019926075074514,10.5230274094234,-0.0373021534355156,-0.085555335742737,1.197135965206461,1.0054319256699489,-2.6396126080816025,0.540117967777753,1185.567284256214,1158.2850774880037,1179.7089935203192,1192.6284089673843,96.8676939620308,-457.10972379847544,-314.6277415705296,46.05252784976978,163.5247800708304
0.3425,1.3488033587429455,0.7413179620997378,-0.4160758522458249,-0.0821895135000099,0.0685799535949598,0.0347855551089301,-0.0196599873850799,0.0030992946476785,-0.0548851446851624,0.998294060698836,0.081391147530891,-0.0044547386219918,10.511263407153653,-0.0373128917790221,-0.0846744093147131,1.198863236348422,1.0053385006816729,-2.63968797605014,0.5431222222684055,1185.5774250421416,1157.4630957563559,1178.6893940963691,1192.7277176964044,-130.0082407909939,-154.40562457151813,-527.5002751065581,36.648548291077496,163.52543472098992
0.345,1.6495664440709517,0.3620131818110651,-0.5240373495465221,-0.0766458765563104,0.0701744004742628,0.0320922074168958,-0.0197264889969003,0.0032227861381726,-0.0548667452705858,0.998293313842826,0.0763799986764761,-0.0108602505386317,10.499857818799066,-0.0373734663107531,-0.0838517660256765,1.2005458098226265,1.0052455791764348,-2.6397576461261343,0.546137596737506,1184.9172430522592,1157.513049365146,1177.0714921447864,1192.81165170884,-366.55684994661857,213.46221727349052,-624.8841536587855,26.40022601635789,163.5263877683452
0.3475,1.7792785941999119,0.0401298148593694,-0.5495231002751209,-0.0710522778814239,0.0707921265849846,0.0302029831608893,-0.0198068853545838,0.0033625524830636,-0.0548350043062282,0.9982929465325024,0.0702390384095646,-0.0171941597060942,10.488900588746652,-0.0374798334446004,-0.0830963688765342,1.2021809137429806,1.0051544756735835,-2.6398242631818865,0.549161501801347,1183.7446407924083,1158.530406842723,1175.5649733280752,1192.859718826486,-601.3152792445902,603.2679189548156,-588.1942881197114,18.51650324360888,163.5273214965264
0.35,1.7662301262635844,-0.2748625014928489,-0.515091930586774,-0.0650326959546069,0.0706682754322704,0.028699315159637,-0.0199044148159094,0.0035154841738434,-0.0547905258274378,0.9982928697067018,0.0630453914293309,-0.0234260664804905,10.478471771455583,-0.0376281450566824,-0.0824159321667299,1.2037676014773748,1.0050661476496088,-2.639889183832774,0.5521897496742745,1181.9106666560363,1160.52938895992,1174.130520704188,1192.904234225058,-940.0189797086665,1053.1808466501495,-564.4921467312146,24.97399133008028,163.52840030086435
0.3524999999999999,1.600563274540358,-0.6267844243842852,-0.4216668562996678,-0.0579124812539723,0.0695468165775834,0.0272118156542041,-0.0200170973903579,0.0036773627906737,-0.0547345979270841,0.9982930667183424,0.0549057223132839,-0.0294174333723806,10.46863921443522,-0.0378127277724169,-0.0818037010088608,1.2053080643940033,1.0049827865864602,-2.639953008523901,0.5552185821963603,1179.0445458938652,1163.796311075974,1172.7425125944192,1192.9845887831364,-1127.0871901046237,1276.370331115608,-427.7315897506968,37.67675125095632,163.5298632802489
0.3549999999999999,1.374634222009024,-0.8826197671504288,-0.3153041102052771,-0.0530725097988593,0.0676577875338116,0.0262967476275812,-0.0201395751426211,0.00383831042918,-0.0546745221545299,0.9982932798491452,0.0460510658328155,-0.0349586171557926,10.459456346930176,-0.0380137656784769,-0.0812426785789676,1.206807513892632,1.0049046347617892,-2.6400165062064125,0.5582478317839201,1176.2752307055132,1166.911240615498,1171.9918627554343,1193.0926179813127,-1122.1011131683088,1229.082086162906,-203.78614920032288,50.72288176334037,163.53122353724928
0.3574999999999999,1.1281053738617843,-1.0805002585562906,-0.1980707244087557,-0.0509083191356643,0.0646779520748548,0.0259567065794291,-0.0202644192743331,0.0039885813392156,-0.0546197036313348,0.9982931815091666,0.0367180918062122,-0.039806802487957,10.45095996887575,-0.0382108694330576,-0.0807093985662744,1.2082730158964203,1.0048299362724846,-2.6400809588324714,0.561277771357507,1173.4340403280237,1169.9417215067883,1171.7235818484176,1193.2382031919533,-1089.171056195345,1123.720735242704,-33.43797759634978,56.855630681138734,163.5327314694707
0.3599999999999999,0.9214208202483875,-1.2201738079583564,-0.0843812707364878,-0.0508814179731466,0.060965786637939,0.0260183827993565,-0.0203849531401345,0.0041178123008361,-0.0545739513887688,0.9982927420172564,0.027169959364925,-0.0437470799879759,10.443168026168935,-0.0383812032848429,-0.0801804269834876,1.2097126258470408,1.0047549523458197,-2.6401477099922825,0.564309178604321,1170.8293754245365,1172.5298442917117,1171.8246728674528,1193.3768961347184,-915.660106845734,856.606473913552,105.2061986929856,36.50523998430796,163.53436298672014
0.3624999999999999,0.8066455779147452,-1.2893408480678887,0.0150042605466097,-0.0516348668325539,0.0571155608243733,0.0261818444216918,-0.0204970797186819,0.0042195912160634,-0.0545372602214884,0.9982920762135156,0.0176013084870149,-0.0466373565637891,10.436077410208762,-0.038509878798233,-0.0796380725606533,1.2111343017966372,1.0046760379875888,-2.6402168215745943,0.5673427558215718,1168.855739793795,1174.2247538763563,1172.2496128418825,1193.4207293918748,-660.5389430827921,489.16180184060016,216.30129831601127,-28.446597627953423,163.536145151121
0.3649999999999999,0.7791467071957113,-1.3079361803295215,0.1110322358825002,-0.051378456559525,0.0532318717492106,0.0263962044737709,-0.0205939878715613,0.0042913142302772,-0.0545093331711677,0.998291356357128,0.0081332388004751,-0.0482988578921536,10.429662854066098,-0.0385902878417462,-0.0790585278262325,1.2125464198068012,1.0045909219397828,-2.6402870434258374,0.5703788346857374,1167.5266807091225,1174.9756533009147,1172.9061793590329,1193.2346631465787,-301.9034007918887,62.36050829520531,229.42242779445203,-122.19297443916717,163.53846029938393
0.3674999999999999,0.8189972293812448,-1.288886536702772,0.1686126098461877,-0.0498564598903889,0.0506585291717271,0.0267875911357069,-0.0206752169393958,0.0043408357505628,-0.0544917063028852,0.99829047492262,-0.0013159911681698,-0.0487132841095829,10.423874834088451,-0.0386396184576469,-0.0784354974523597,1.2139555495606873,1.0044997585314335,-2.640356673589805,0.5734162049059137,1167.3462227898356,1174.5365564178323,1173.3967249808547,1192.8097645196788,89.36282522190585,-354.90737163904635,149.87414036786487,-229.28381894221252,163.5405385430182
0.3699999999999999,0.8719848370157849,-1.2530218658593473,0.199887623742372,-0.0471317868198463,0.0483442008606424,0.0274852405929736,-0.0207405905068367,0.0043745464730111,-0.0544844146796964,0.9982894078618259,-0.0107884412071013,-0.047882531726323,10.4186413692665,-0.0386721257385257,-0.0777642315207334,1.2153681504686236,1.0044045293292447,-2.640423839113048,0.5764548528940237,1167.973494835232,1173.2011164427195,1173.6555500608722,1192.0882440518676,379.8331526621493,-714.073103895634,41.355770667587386,-370.2280100987988,163.54277345817485
0.3724999999999999,0.8938262524423363,-1.1991050597773243,0.2068634216847955,-0.0427939461832479,0.0452444250968245,0.0284583618911052,-0.0207878254627474,0.0043934267263639,-0.0544823965136002,0.9982884781201072,-0.0202059526366026,-0.0457735653751523,10.41387055911196,-0.0386909661906049,-0.0770351287182632,1.2167909458973016,1.0043097707666764,-2.6404873495307584,0.5794957007818335,1169.2453885531463,1170.966190898354,1173.6035038341927,1190.9586244691848,477.3866392612941,-860.3972914728722,-76.29215496972385,-438.6148132159629,163.54563864797788
0.375,0.8515145094318224,-1.1435221219690868,0.1911802740954573,-0.0388496534974679,0.0421562227511397,0.0291705246635119,-0.0208148493902142,0.0043938388731759,-0.054476609380941,0.9982882430847204,-0.0293843136422474,-0.0423665100845607,10.409453170863769,-0.0386899138971834,-0.0762394276128412,1.2182302153313431,1.0042190042254002,-2.64054649175598,0.5825381969127789,1170.3604280315385,1168.899129985355,1173.2740892860236,1189.8951699857876,374.1023306010898,-800.279368353494,-170.2567542938594,-428.4930041528692,163.54818046740047
0.3775,0.7443209843948168,-1.0742249327814615,0.1626056102688757,-0.0355587500476246,0.0388631727572443,0.0296405211228861,-0.0208229201391239,0.0043745393193171,-0.0544591046001459,0.9982891209465714,-0.0381771074052863,-0.0377268478828448,10.405264644982129,-0.038669194798448,-0.0753777839791885,1.2196904650280824,1.0041339702641172,-2.640601553645547,0.5855807759005369,1171.1159002061515,1166.9647940565867,1172.7522200627232,1188.8161594484206,200.75794620074683,-710.9733320755361,-218.49691446777777,-424.1460026030832,163.55088379305369
0.38,0.6028134669375566,-0.9971478840989928,0.1322880990318773,-0.0333971370829792,0.0359304401986204,0.0298980872256055,-0.0208189679836414,0.0043429313317594,-0.0544289697677339,0.9982909848784184,-0.0466051823137789,-0.0320611698631643,10.401167445205184,-0.0386492793726883,-0.0744668989083356,1.2211731900832832,1.0040525659051724,-2.640653241599345,0.5886234322941978,1171.3642177625422,1165.3442633249774,1172.1816047136847,1187.7744399727724,-36.99092038818886,-537.3917604189041,-215.81707190366595,-405.3615107858146,163.55372200542735
0.3825,0.4581679687881047,-0.9232491816758888,0.1102760104489904,-0.0327487868712285,0.0336283495982506,0.0299354750935103,-0.0208099047502144,0.0043080882159515,-0.0543881737524473,0.9982935442152372,-0.0547171386022648,-0.0255900633689633,10.397016936567256,-0.0386545607825253,-0.0735241892384291,1.2226778496743267,1.0039720336740103,-2.640701759001704,0.5916667835493044,1170.9309456042108,1164.277835254492,1171.673134703205,1186.7893518944916,-322.13110701054546,-312.4017085236116,-192.57008714957905,-424.6345335970996,163.5567238264944
0.385,0.3279862036819751,-0.8583679598922525,0.1031880433965036,-0.0333364277959025,0.0315910667944758,0.029793656435613,-0.0208033856977522,0.0042788285456686,-0.0543407546333653,0.998296382826047,-0.0625494931712946,-0.0185612680777188,10.392666633186776,-0.0387083532837418,-0.0725691426241577,1.2242014662421998,1.0038910502845075,-2.6407473225065234,0.594713079040565,1169.7535622274895,1163.7822547823591,1171.2187542779368,1185.6512673047869,-501.5742497821061,-41.94311350252061,-141.95265467842535,-412.812054632968,163.5605160845382
0.3875,0.2753292299664365,-0.8358197312110874,0.1160094734519942,-0.0343428609680118,0.0303488420054524,0.0295800340896395,-0.0208100065881165,0.0042602477231839,-0.0542929606678639,0.9982989189190852,-0.0700542829978112,-0.0112910600502565,10.387974118548321,-0.0388240492481034,-0.0716281417217315,1.2257383726871138,1.0038107062288624,-2.640789273721998,0.5977655152834128,1168.4230743553003,1164.0681196869796,1170.9633714298127,1184.7252916213267,-552.3750155262856,254.5317237580091,-92.001807041106,-363.7856172549615,163.5638350088425
0.39,0.2771414164409915,-0.849492153449163,0.144151980065749,-0.0347335879808202,0.0291740390966879,0.0293678729040036,-0.0208356510818517,0.0042573418020172,-0.054247411028539,0.9983008662795948,-0.0771829098653225,-0.0040080008828832,10.382804905806028,-0.0390154864377055,-0.0707156782662215,1.2272811401178008,1.0037328313138274,-2.6408261515198266,0.6008280306057605,1166.991687149858,1165.0549134011494,1170.7587452427313,1183.832339218512,-558.3519602160773,493.945816052928,-90.04332318772859,-346.15137196969926,163.56731839983388
0.3925,0.3032293528021418,-0.8854604897323742,0.1755528119745261,-0.0338593935680789,0.0277059496510171,0.0292738829212534,-0.0208765734576881,0.0042712571810858,-0.0542032171566227,0.9983023440612312,-0.0838166845529838,0.0032535821326485,10.377036816530891,-0.0392881359848517,-0.0698214392950373,1.2288221839567515,1.0036576974675844,-2.6408568464532216,0.6039018745581596,1165.63131455422,1166.5378487672442,1170.5131548138743,1182.9945347614782,-507.9358271569158,675.3984965025205,-124.89659902321353,-313.7598182848703,163.5709374495534
0.395,0.3268250948895033,-0.9279078353163868,0.1917626400005297,-0.0317941694087337,0.0255738935842231,0.0295408629545648,-0.0209272082178205,0.0042960202971113,-0.0541594326338878,0.9983035426778548,-0.089695455310753,0.0104946190451324,10.37056383318256,-0.0396292763575775,-0.0689287264172531,1.2303539631191405,1.0035846756149944,-2.640882491531871,0.6069863438130269,1164.4520080140735,1168.431905883662,1170.1342622476152,1182.2635401270877,-475.4588509084893,861.5721224858581,-205.06348204148688,-290.20975475555105,163.57471855174435
0.3975,0.327568000893463,-0.9543262205442482,0.1629729192572099,-0.0291950149413761,0.0222339720426341,0.0305904038411958,-0.0209838656258825,0.0043218112608769,-0.0541177655150204,0.9983044862429896,-0.0944871658099966,0.0176706785943472,10.363297392466874,-0.040014856459092,-0.0680237473055962,1.231869304593084,1.0035135968629143,-2.640906193694069,0.6100783752975839,1163.2540202996774,1170.8457093796735,1169.4878374036668,1181.5434859877005,-413.75281884806975,850.6132611054901,-261.9021939970023,-237.5135636590128,163.5794403855111
0.4,0.306493532728995,-0.9360585185058466,0.0782863652037194,-0.0275047726412569,0.0190523135040724,0.032107017240102,-0.0210442048767341,0.0043451588457395,-0.0540792922930011,0.9983051777205622,-0.0980027218326319,0.0246930921405627,10.355164073761404,-0.0404345862621014,-0.0670953611929193,1.2333614331455132,1.003443326624313,-2.640930651943821,0.613175091871018,1162.3832439198331,1172.6849721891895,1168.82475127763,1181.0759723087926,-340.70239109796574,627.8643259052836,-270.4428130147787,-164.1899235153231,163.58352630868308
0.4025,0.284197502728205,-0.8647165786635432,-0.0796429184164302,-0.0265738977499102,0.0157474397720528,0.033895720084377,-0.0211072259083582,0.0043668211439179,-0.0540434261034145,0.9983056656978156,-0.1001560446707303,0.0314334146759201,10.34610585444042,-0.0408865725709306,-0.0661350500059485,1.2348245350846083,1.0033723733642197,-2.6409581614550826,0.6162742486376998,1161.5505083441876,1173.9850310092,1168.1356233385927,1180.7225363701239,-377.91926951444987,373.4445721025164,-278.3467840549745,-137.58180367231023,163.58776504954352
0.405,0.2931847370690215,-0.7269332239213071,-0.3334503298413491,-0.0263244824260084,0.0121610832938123,0.0350466399966761,-0.021174367281454,0.0043883048830679,-0.0540100819464194,0.9983059173762427,-0.1008965462097625,0.0377066191861596,10.336080441428436,-0.0413682629378429,-0.0651400702809909,1.2362538979971047,1.0032999702524323,-2.6409900953463454,0.6193739347007979,1160.493647572261,1174.552195049702,1167.4330173573553,1180.388063290431,-406.0552513461968,4.923277406305711,-216.45195176738503,-113.90217827984078,163.59302263508903
0.4075,0.3557614472983347,-0.5914293670480772,-0.5602304388624114,-0.0263849492391427,0.010122424700241,0.0340643629284467,-0.0212373880490168,0.0044078351124704,-0.053977198860951,0.9983062227912338,-0.1001426747084659,0.0435298333081919,10.32505988166124,-0.0418682502258504,-0.0640838257436779,1.2376474646115418,1.0032247142622839,-2.6410266673062335,0.6224746171784159,1159.5202320874566,1174.0096473962315,1167.053363579756,1180.1530254787247,-410.1800525334053,-443.600342322588,-94.14569298160123,-93.0579507883066,163.5975420760106
0.41,0.4945059844064112,-0.4746356807529934,-0.7442306603972473,-0.0261300843577372,0.0093812113504921,0.0310973946190374,-0.021287475052436,0.0044243503503065,-0.0539420485764708,0.9983069187270278,-0.0978589392345825,0.048933266734391,10.313028448099557,-0.0423748895999832,-0.0629400535822968,1.2390038365678366,1.0031449780939612,-2.64106576065162,0.6255777433162342,1158.4427473095939,1172.334193338089,1166.9622888924473,1179.9227735364896,-444.02518533856846,-844.7573413441197,13.12514451597052,-99.62813210795494,163.60219975414995
0.4125,0.7004174625213538,-0.4035944185626503,-0.8563059203874839,-0.0254894477825452,0.0094837254286121,0.0275215429483735,-0.0213231101924377,0.0044391154083519,-0.053901246436466,0.9983082131834996,-0.0940833816540548,0.0538017001332813,10.29998173908116,-0.0428795656699611,-0.0617035952570553,1.24032087069107,1.0030602452883144,-2.6411047548007978,0.6286845638845656,1157.3001061607636,1169.7858606895109,1167.1189893023359,1179.6548848181849,-464.82546767338096,-1183.7314631773083,113.40094250958816,-129.0190180536682,163.60696856929079
0.415,0.9801518992152102,-0.4112694661369948,-0.8606665878560033,-0.0244447460887292,0.0102385518489461,0.0242563547456123,-0.0213397560662069,0.0044577785715956,-0.0538537205234154,0.9983102369622416,-0.0889846595323532,0.0580903561174154,10.28592339399927,-0.0433835281600686,-0.0603661904635948,1.2415966612433773,1.0029693937423048,-2.641141040501335,0.631795058751823,1156.1186199712267,1166.4155360222023,1167.5292936049952,1179.2776784462212,-518.9752063493469,-1583.7395248000282,217.03680165824372,-204.84906590350172,163.6118675678096
0.4174999999999999,1.3742992694371075,-0.5125257966942526,-0.7421735842250659,-0.0223441260585813,0.0110268540246159,0.0210558058742913,-0.0213339669107939,0.0044877988749093,-0.0537969372908341,0.9983131737206719,-0.0828024658670808,0.0617502003417539,10.270865271637192,-0.0438919799942533,-0.0589264204241937,1.2428293006574695,1.0028722413451243,-2.641170687188733,0.6349092693142331,1154.705230129017,1161.8671630655108,1168.204173310627,1178.6306394886672,-511.9438012974622,-1674.9723730867743,256.998717167883,-271.60250509487287,163.61789239717487
0.4199999999999999,1.7170676519985804,-0.6492579310227357,-0.5546760348185015,-0.0193426359377075,0.010515040229469,0.0189367581256435,-0.0213059880049741,0.0045264468135919,-0.0537311022862288,0.9983170276769868,-0.0756000699522739,0.0646930320256225,10.254830043897517,-0.0443844907741794,-0.0573948485612379,1.244017825932378,1.002768640327329,-2.6411891268453447,0.6380269561721391,1153.5589009647397,1158.0406741567688,1168.8142871908346,1177.9196659207469,-447.1484123282603,-1446.5154711435828,226.63634055325,-309.4060147327579,163.6230318456971
0.4224999999999999,2.0190071263413865,-0.7889950861142037,-0.3028402010300439,-0.0145872685738034,0.0082194829978696,0.0173997109967206,-0.0212549156197829,0.0045580431870196,-0.0536695697242261,0.9983211717160964,-0.0672184815161596,0.0668973101646356,10.237849249160774,-0.0448090514142839,-0.0557818297382508,1.2451631786197328,1.002659795215887,-2.6411930147052662,0.6411457026900725,1152.4694880673756,1154.6345857097929,1169.337355013393,1177.0836094150036,-460.5269686736388,-1310.012826957062,178.89901473126866,-372.642599925484,163.62829142571627
0.4249999999999999,2.265329579598608,-0.8974137858175231,0.0300477767743526,-0.0068117011127351,0.0041824682554357,0.0164660493254488,-0.0211831118094951,0.0045650373108892,-0.0536248312193554,0.998324970318822,-0.0574874888051818,0.068312911674089,10.219959411353235,-0.0451108519257132,-0.0541075747996957,1.246266656565896,1.0025489414133124,-2.641181381125768,0.6442627462254469,1151.2562661213715,1151.4906100219835,1169.7087822644908,1176.0564529211194,-422.84851164263233,-946.8030543473552,73.28476784759907,-362.32653610400087,163.63473858800643
0.4274999999999999,2.3350317857147647,-0.9062601617291252,0.2941146660917024,0.0008027829879907,0.0006143570816988,0.0168375418795606,-0.0210930819501018,0.0045357704154058,-0.05359845984695,0.9983283502889096,-0.0463760806529675,0.0689204591975035,10.201198865647203,-0.045253217848341,-0.0523929495415782,1.2473291563043287,1.0024388789588612,-2.641156495321717,0.6473784205513712,1150.3552455091626,1149.900570438056,1169.703778852631,1175.2719767344836,-325.6712570836041,-393.97832058939423,-86.08738305620129,-285.64890467446247,163.64022209534303
0.4299999999999999,2.2469205627119875,-0.8157121422588162,0.4942621857211934,0.0082725354962591,-0.0025285813827073,0.0186214541521247,-0.0209916993566277,0.0044771187606653,-0.0535846723338903,0.9983314503930004,-0.0342395233450985,0.0686302199617828,10.181606257179771,-0.0452485524905218,-0.0506703464742351,1.2483489999581387,1.0023309232046809,-2.6411218600038824,0.6504948685948023,1149.6279098359535,1149.5207184190365,1169.27834534921,1174.6282083977471,-250.7039841518688,43.31045652115787,-248.15734260450856,-234.64699191890736,163.6458180253455
0.4324999999999999,2.0412356542071834,-0.6478019119041554,0.6086962173717594,0.0146579787688955,-0.0049623314793415,0.0213061452685413,-0.0208904667702757,0.0044012227604673,-0.0535822606376109,0.9983340483412146,-0.0215463873464817,0.0672882646985948,10.161224856776952,-0.0451245949424229,-0.0489824062834902,1.2493228865564467,1.0022262475897568,-2.641081928028784,0.6536141434916005,1149.1017255884033,1150.1171227206619,1168.4629921396088,1174.098741774889,-149.4143516619259,435.1960798060186,-420.389985262636,-197.45058108433096,163.65150507875316
0.4349999999999999,1.7342527810912922,-0.4061124775034368,0.5971048024609577,0.0192401670548964,-0.0063608304505855,0.0246173606235008,-0.0208019716939585,0.0043311108654723,-0.053596547270956,0.9983354976264612,-0.0089887990642956,0.0647399384621722,10.140102202329832,-0.0449386342781477,-0.0473734871353247,1.250245699638155,1.002125885024178,-2.6410403386600607,0.6567364625852162,1148.8808380776438,1151.6966988180664,1167.1763954228968,1173.6409554923255,-19.37258047209978,839.2939215404105,-660.1249047268078,-211.55894265320947,163.65729929756264
0.4375,1.3123037207380472,-0.0633341105312124,0.4408724089780495,0.022896828884136,-0.0071170102443392,0.0284489671428379,-0.0207329337911612,0.0042792056692831,-0.0536281998465923,0.9983355643511316,0.0029606219007122,0.0609905116338185,10.118292985954424,-0.0447247861885946,-0.0458684519123251,1.251113301827028,1.0020302041565148,-2.6409979388234586,0.6598619143827499,1149.0048626860428,1154.313592328364,1165.1623676159747,1173.040947061623,105.79179477917921,1003.9203690148942,-795.0169968109542,-248.87609863299053,163.6643724919035
0.44,0.9585025573933555,0.2409895699630034,0.2217639847835173,0.0249101104645295,-0.0068342026756037,0.0304780783223294,-0.0206851999097424,0.004261273018816,-0.0536682122558995,0.998334616021111,0.0137760784627993,0.0561624754847256,10.095857028677909,-0.0445281447057838,-0.0444767977901791,1.2519211662060434,1.0019365723673752,-2.6409551729061325,0.6629902416183794,1149.4097970515395,1156.716300663141,1163.201310438842,1172.3965749991603,206.1010528920177,910.2840949199153,-807.90388043797,-306.6848791588197,163.67036398536072
0.4425,0.6412791310867664,0.5350869330699223,-0.0276116187872739,0.0262805953528998,-0.0052955938219337,0.0303436823522053,-0.0206488704933866,0.0042784141360998,-0.0537068260795495,0.9983333562087712,0.0232349266657083,0.0506448905140665,10.072860071291334,-0.0443597749839378,-0.0431741594433115,1.2526666525812231,1.0018429775991995,-2.640913035028749,0.6661200988826959,1150.0353679505029,1158.8650128029635,1161.122848213785,1171.507522665829,288.5939852229964,780.1913403808604,-898.782379649355,-459.1882209748288,163.67645255511235
0.445,0.3344021258367204,0.849257206584599,-0.2809318456085692,0.0272704396499143,-0.0025994637315281,0.0281598015664599,-0.0206148390988818,0.0043249986700118,-0.0537368101432586,0.9983323706390452,0.0312723670748256,0.0448239624766568,10.049373900802111,-0.0442145514290916,-0.0419354516401611,1.2533471270366985,1.00174904699,-2.640872141631378,0.6692519597444813,1150.8527669776547,1160.6172573650451,1158.7073985405952,1170.1006338942864,273.78669442255136,439.24651484394377,-847.6786203926614,-574.669323214584,163.6838663014669
0.4475,0.1571382846437114,1.0675615058365495,-0.4076474152674662,0.0274714930162251,-0.000174076870495,0.0254618724888325,-0.0205758441552976,0.0043865415584437,-0.0537507055771037,0.998332263314456,0.0380296293362853,0.039058433295745,10.0254756619965,-0.0440658175752479,-0.0407376113357055,1.2539600956384889,1.0016568289105614,-2.6408312773500606,0.6723865822360846,1151.4043014226156,1161.0612453771832,1156.8844551118216,1168.634176049756,142.59395490785198,-88.59837849959139,-675.3196224385641,-646.1649765170017,163.6901301185582
0.45,0.0753870443483641,1.2336256439691695,-0.420376556519235,0.0270189708961465,0.0024778479682774,0.0226165419080939,-0.0205293692869135,0.0044495915840852,-0.0537434128067066,0.9983334147274792,0.0436598599579687,0.0336056333869088,10.001246494506937,-0.0438896420951183,-0.0395689383251442,1.2545022096548024,1.0015674335961569,-2.64078869876753,0.6755260112573925,1151.565736752194,1160.1742654725474,1155.3308004284024,1166.8698090117011,-37.1565832609576,-594.1611498710694,-579.4647565020563,-753.1301781327321,163.69647758256568
0.4525,0.076516027175162,1.3514318935092235,-0.3427220668906783,0.0262642802112125,0.0054666758943633,0.0202155273085639,-0.0204783303712271,0.0045090979534581,-0.0537133824890163,0.9983358684489752,0.0481845916459331,0.0285958926471615,9.976770082853875,-0.0436830145541342,-0.0384322294776563,1.2549689731727636,1.001481984980957,-2.640743966335029,0.6786723790082965,1151.2185185063108,1158.090439627828,1153.9871313293113,1164.8685251590923,-293.54491967524126,-1111.4680384815065,-503.6828743659039,-854.7674911216737,163.70288985492323
0.455,0.169521126814265,1.403477564672737,-0.1865685609969354,0.025766598919648,0.0091127740708428,0.0190242279605047,-0.0204301187094061,0.0045666830320346,-0.0536610082098042,0.9983394449962086,0.0515316717710724,0.0240500621468635,9.952130881157684,-0.043459411556223,-0.0373421399900643,1.2553557259875547,1.0014018390283783,-2.640695786798392,0.6818244061381032,1150.0980121538175,1154.6169252801399,1152.812386056573,1162.5959715560928,-684.2383007770417,-1791.678499299904,-508.6790745009234,-1056.1587863327522,163.70937401037293
0.4575,0.3602120907710644,1.3829780978423216,0.033385613006551,0.0261900929928112,0.0142350545114992,0.0195336874846256,-0.0203921548072933,0.004627855137635,-0.0535886417344284,0.9983438448195762,0.0535879791146826,0.0199674903691905,9.92741139269831,-0.0432419613697272,-0.0363135807081546,1.2556590239654375,1.0013258423996527,-2.6406435653634146,0.6849795502666735,1147.7973270024256,1149.1320471313284,1151.4437359568067,1159.5877312274283,-987.9566429119667,-2160.647177998815,-518.2845253138562,-1140.4873523116285,163.717229008085
0.46,0.5577532211782653,1.300765716176282,0.201826335055776,0.0274436111669992,0.0184580052656812,0.0211894305841983,-0.0203654896511903,0.0046916747485266,-0.0535018317812345,0.9983487563449184,0.0543968061824656,0.0164597405932477,9.902689025001704,-0.0430378964658959,-0.0353441479217338,1.2558785415870715,1.0012521675664143,-2.6405889395690365,0.6881356062962666,1145.158228939258,1143.8136893901456,1150.2209634300036,1156.8935347945348,-1163.2824434707331,-2179.0199890320746,-529.5308414004007,-1096.624100539747,163.72382914244153
0.4625,0.7623023839388222,1.1720296685132847,0.3220838136559404,0.0294686839634891,0.0218235496303948,0.0231241254046955,-0.0203486299753897,0.0047490063597973,-0.0534044350870073,0.99835404732899,0.0541954861052651,0.0136714050810106,9.87803334357408,-0.0428334312943045,-0.0344229357607712,1.256017126181585,1.0011802636498233,-2.640533231360906,0.6912899024444572,1141.980914785072,1138.236947186168,1148.7960817498047,1154.1046107247298,-1317.7641522536292,-2193.9799307872345,-615.3143596870444,-1109.3265723535287,163.7304759385848
0.465,0.9516505564895538,1.029809963115471,0.3951140109228873,0.0321540046256334,0.0243200149233476,0.0247888298738867,-0.020337451124606,0.0047970120493154,-0.0532982921761689,0.998359717613676,0.0531254595297664,0.0117626931257477,9.853503033957423,-0.042629970265574,-0.0335322503592191,1.2560793481618306,1.0011090821548883,-2.6404766300952147,0.6944409315766609,1138.5694081779895,1132.8437897362096,1147.1443916315684,1151.3469019327672,-1368.0850842265943,-2032.206731539416,-721.2413790507973,-1063.6230408323163,163.73715352688885
0.4675,1.10573500870939,0.9035997268148496,0.4185545652365759,0.0355082698989559,0.0258852158538372,0.0258164231765629,-0.0203267205948155,0.0048368545542553,-0.0531864703884496,0.9983657077069364,0.0512753364773372,0.0108793234026428,9.829143415325582,-0.0424380347240578,-0.0326515197705724,1.256071192356158,1.001038551246958,-2.6404195831089607,0.6975881254025801,1135.1404893639387,1128.075913528471,1145.1898748545507,1148.7864955205682,-1455.2059480551163,-1886.0796414233373,-926.5491728587667,-1041.489510251994,163.7438587476645
0.47,1.243348514979144,0.8025821715273824,0.4063602731694456,0.039571050565204,0.0269544789196482,0.0264928238027103,-0.0203092663896151,0.0048684284193929,-0.0530754915725612,0.9983718202225432,0.0487787197954289,0.0111727553265445,9.804984427137128,-0.0422641172623774,-0.0317548780376435,1.256000001511372,1.0009708861949151,-2.6403626020580075,0.7007304367852702,1131.293378437714,1123.413391529093,1142.5116457672743,1146.1394543815072,-1338.1766488537312,-1515.2627182842466,-1028.28075082325,-878.6133232363219,163.75192686106243
0.4725,1.3242313915850743,0.7701494913599055,0.3721490272902305,0.0425470797969331,0.0277013427767964,0.0270618637367613,-0.0202826355576552,0.0048993342872066,-0.052973138170556,0.9983776546258704,0.0456413699551401,0.0126594994840947,9.781039531183325,-0.0421321843457744,-0.030829134460234,1.2558726142013588,1.000907165426849,-2.640305624497183,0.7038667594411662,1128.4496061196703,1120.4995999370497,1140.0484711004344,1144.3934289043866,-1049.4496619506651,-975.0688429870469,-1017.9680943048417,-593.6772637839107,163.75866314328843
0.475,1.3807933356773665,0.7835180550483897,0.3174139314884045,0.0453086251273324,0.0289784006487133,0.0280196315030973,-0.0202501681974788,0.0049352296496183,-0.0528828150842496,0.9983829347376784,0.0419288074868255,0.0152115183217974,9.757305797107401,-0.042058982292147,-0.0298750267912747,1.2556953952135754,1.0008465691019912,-2.6402493029618244,0.7069964138555423,1126.0461301279609,1118.5380473141577,1137.4218052957503,1143.1710680625877,-963.2556703391392,-682.0468440976123,-1175.3841448653918,-429.8496712809079,163.7654087634754
0.4775,1.426793415881132,0.8249905837593772,0.2306360561132578,0.0485541709825281,0.0313058562191282,0.0293479508217751,-0.0202153904337469,0.0049753413390843,-0.0528053267130955,0.9983875520527834,0.0378403902977959,0.0186726703061787,9.733764963552566,-0.0420430419940507,-0.0288929883101122,1.2554740736758776,1.0007873140993884,-2.6401928465131883,0.7101214154367972,1123.6333277679746,1117.0893657165616,1134.1715503761075,1142.244180547982,-820.0043652289053,-415.33639568906864,-1196.1522502486455,-273.29965235799415,163.77351262756963
0.4799999999999999,1.443155744454599,0.8566330689845845,0.1468493217936974,0.0513692083136874,0.033858311899401,0.0301116534252012,-0.0201785008558566,0.0050135563694503,-0.0527408627550671,0.9983915238260136,0.0336761401550817,0.0229280725819676,9.710385401496657,-0.0420675969669183,-0.0278749306772985,1.2552130646626132,1.0007266446338983,-2.6401354441798244,0.7132452954273759,1121.9461083018164,1116.4613653357123,1131.4410440445072,1141.8045698007977,-624.2285164346476,-171.67749873201677,-1082.517940815762,-142.5937193353562,163.78027416402713
0.4824999999999999,1.4212247642782623,0.8613707209642191,0.0648375224432566,0.0546910758446525,0.0367991726083383,0.0301475163389413,-0.0201401425323707,0.0050504258913989,-0.0526960236569873,0.998394482067153,0.0295980692251904,0.0278213248215646,9.687124434806492,-0.0421302337029714,-0.0268160818281052,1.2549138228393173,1.0006621783400211,-2.640078263959417,0.7163690418186144,1120.5121851858012,1116.2309782229015,1128.7589606720287,1141.5312119513053,-538.4713067544449,-52.88044777794306,-1052.6429639511653,-106.70086185168645,163.7870474557103
0.4849999999999999,1.350836900124194,0.8348236332597208,-0.0045485331028829,0.0585967322772597,0.0395331190157708,0.0297471960772951,-0.0200999100901104,0.0050885647779121,-0.0526738991772574,0.9983962553577946,0.0257180849125969,0.0331920424933058,9.663931274254436,-0.0422320369656119,-0.0257102455023748,1.2545753323551208,1.0005924367769197,-2.640020669299133,0.719495884597516,1119.253751768044,1116.1969630968226,1126.1778292247511,1141.2710654915393,-460.744129621116,8.02733157461261,-991.8723259605932,-121.93231372084472,163.79383449749747
0.4874999999999999,1.2054232875127566,0.7716009594463928,-0.0504135208571898,0.0628310611450038,0.0413522966549943,0.0292033761273346,-0.0200557194655167,0.005128562080146,-0.0526728119658937,0.9983969704258367,0.0221726254388166,0.038896932312348,9.640750133501786,-0.0423680692613064,-0.0245480063289071,1.2541948486969474,1.0005182313180183,-2.6399611819707367,0.7226288283812419,1118.2084645376958,1116.2711148807743,1123.7995990422255,1140.921550382701,-402.9387502440837,34.378865595635915,-981.617175322116,-189.93247420503377,163.80064465433975
0.4899999999999999,0.9408546115337764,0.6596566815739356,-0.0769386863917673,0.0672401468243545,0.0427931617820787,0.0287835556917075,-0.020002589381661,0.0051695769397191,-0.0526888563012035,0.9983969401641968,0.0191046929654377,0.044837769517763,9.617522726456938,-0.0425297267595488,-0.0233142503721516,1.2537686831410086,1.000441730737334,-2.639897946103801,0.7257680061247685,1117.2390580168235,1116.3688574248008,1121.2697433481408,1140.321403120514,-301.30419259262425,27.661231662978,-867.0585784323514,-257.19549004725167,163.80885280579227
0.4924999999999999,0.6591284182391651,0.5363062994522733,-0.0790557077870093,0.0698706521353561,0.0441474468353259,0.0286301825877037,-0.0199338403214019,0.0052055701239849,-0.0527170834473843,0.9983965961706092,0.0167336007699914,0.0509473891509858,9.59419080030196,-0.0426956856358339,-0.0219908521330098,1.2532934849625124,1.0003648137407652,-2.639830544192248,0.7289101120874101,1116.7019435747327,1116.4094210390895,1119.464306150064,1139.6355729324648,-154.5434299728639,3.3984690649049267,-662.9819184402089,-322.31709071602353,163.81572967128935
0.4949999999999999,0.3453335244490061,0.3762589775777823,-0.0662546193132917,0.0712531268362462,0.0457460082255655,0.0284473652923176,-0.0198422285090487,0.0052249557780235,-0.0527511257825918,0.9983964839501,0.015359849707221,0.0571738502848774,9.570697916776668,-0.0428311550505805,-0.0205593450613337,1.2527670475588693,1.000289136734243,-2.6397594154236583,0.7320507303128001,1116.4663408669592,1116.385849770125,1117.9548337559395,1138.709817666934,-38.75693779737045,-24.143991011896997,-614.885714363208,-477.7194143076936,163.82265268678088
0.4974999999999999,-0.0222453939008059,0.1398354856335397,-0.0402414558172599,0.0713489594963906,0.0472129697244296,0.0280680378255464,-0.0197244627149544,0.0052293704701152,-0.0527881478976783,0.9983968083881268,0.015006867170159,0.063380948669484,9.546989551444678,-0.0429343023802266,-0.0190148954518649,1.252186815257255,1.0002145033993537,-2.6396840048734806,0.7351873890331515,1116.5081588857458,1116.28870108403,1116.389877578248,1137.2469758609263,57.7568766811964,-43.55005364459426,-553.843751382919,-606.1043851702829,163.83102284012335
0.5,-0.2881592490687112,-0.0876565203274872,-0.0159141912610244,0.0699170172864424,0.0478038562644191,0.027712451446235,-0.0195849762381595,0.0052312890299294,-0.0528256831321109,0.9983975403881832,0.0154743351730303,0.069285482673718,9.523014840620995,-0.0430296130136826,-0.0173749763956595,1.251549892116108,1.0001394317247427,-2.6396035276351744,0.7383199609497842,1116.7551252503652,1116.1680995019024,1115.1856149990251,1135.6792957410823,118.85382914438054,-49.133276609517765,-488.8379127560652,-707.6722925746623,163.83805667341016
0.5025,-0.4849450701793446,-0.3296207250231315,-0.0002332251751248,0.0669038806232867,0.0477231091816479,0.0276724364309465,-0.0194304628691237,0.0052360038221674,-0.0528597081529141,0.9983987265600944,0.0166783333644249,0.0745861720314533,9.498728271625865,-0.0431234866833023,-0.0156628975699947,1.2508545762302392,1.000062571727048,-2.639517490637144,0.7414491994612115,1117.1024280314675,1116.0430347009824,1113.9456880144676,1133.7086143980528,131.09315673273147,-43.18732026072208,-520.454895911234,-854.6574015432262,163.84515915137553
0.505,-0.6235695490135373,-0.564652401795215,-0.0023958264358196,0.0634356618914296,0.0469087914345084,0.0281598778253135,-0.0192680867871427,0.0052428105637666,-0.0528875520716832,0.9984003684363172,0.0186247083656009,0.0790014305354841,9.474089793499036,-0.0432077154189827,-0.0139033658707653,1.2501000576091978,0.999984253536169,-2.639425622479726,0.744575741919629,1117.410591034029,1115.9521629005988,1112.5833405194687,1131.4060087333664,79.29923966139533,-18.73476606933762,-589.5106056952039,-990.6118737001624,163.8523241742645
0.5075,-0.7230268515154907,-0.7633419939901384,-0.0352389336139683,0.0611911221150124,0.0449387096238482,0.0290902196413266,-0.0191079245653581,0.0052521335991001,-0.0529100199816101,0.9984022256096196,0.0212758089722205,0.0822202145577616,9.449065010084686,-0.0432773377636724,-0.012129324321985,1.2492855724024492,0.9999056982735882,-2.6393290997959795,0.7476986696155129,1117.4989242297747,1115.9493608706357,1110.9981349859916,1128.755555029552,-57.09745125691365,25.459777792775615,-754.8750617651868,-1220.4962424474147,163.85957123108935
0.51,-0.8623226636777404,-0.9256277622068334,-0.1069006744596521,0.0610943234241992,0.0413781912229406,0.0297382383212808,-0.0189597296307708,0.0052623369674434,-0.0529271012712454,0.9984041229703348,0.0246117499094027,0.0839702357512991,9.423625132036813,-0.0433232245744177,-0.0103728414713277,1.2484106083382456,0.999828357386116,-2.6392297460870884,0.7508168549120513,1117.1251037777445,1116.0794617895626,1108.808965210643,1125.3035275211291,-246.04128373890103,66.00593577291106,-843.3353580710169,-1284.5839629216516,163.86837079898126
0.5124999999999998,-1.0336830575966887,-0.9817790187333448,-0.1789918503502994,0.0617821462489733,0.0378935558246791,0.0291993377094166,-0.0188322466597848,0.0052737347160665,-0.0529339060188213,0.9984061542371548,0.0285584891502462,0.0840292415329593,9.397746763892041,-0.043342019066583,-0.0086635389611838,1.2474742679362403,0.999753325143278,-2.6391291682848643,0.7539307135057116,1116.2687178110803,1116.2793905495002,1106.7814581956363,1122.332635214944,-479.6362942839092,80.64624334288048,-830.5465861360965,-1172.032546451236,163.87579547933237
0.515,-1.2676989526846845,-0.9553327206257342,-0.2422632106024024,0.0608678690693367,0.0346964595885916,0.0278293076451333,-0.0187236706604948,0.0052909957841311,-0.0529281424963631,0.99840844834445,0.032932217251497,0.0824027720225027,9.371410263843988,-0.0433433286005914,-0.0070058520163918,1.2464748066851847,0.9996797887083104,-2.6390262860639826,0.7570424653644309,1114.7269223063247,1116.482693006277,1104.6562322799623,1119.4433647888732,-736.0033479815677,58.9810189143463,-840.1532976803984,-1116.2540118985353,163.88332194382463
0.5174999999999998,-1.5262692235064519,-0.873449778917534,-0.2883349872392235,0.0581367114472579,0.0322191225218493,0.0264053459520604,-0.0186335971046166,0.005322975546607,-0.0529055724438357,0.9984111882839728,0.0374606882701028,0.0790994491504249,9.344602733029603,-0.0433473256652469,-0.0054086623537577,1.2454093012772025,0.9996070610758316,-2.6389183028760326,0.7601538267620348,1112.5887010711724,1116.574295644072,1102.5806917072343,1116.7513651554511,-985.9698224572176,-22.813163251748826,-779.4362478261057,-1004.5763997443364,163.8909374808142
0.52,-1.7622956528462,-0.7491991694338354,-0.3141974234475494,0.0534514841280082,0.0306760402364628,0.0254386322744323,-0.0185609643539733,0.0053727150870521,-0.0528651394164228,0.998414431917206,0.0419683323597796,0.0741797734300226,9.317318523603292,-0.0433601828380211,-0.0038791839977262,1.2442747408739403,0.9995352205619698,-2.638803604468153,0.7632653815856497,1109.7970731940388,1116.3686271900183,1100.759051040832,1114.4204827901515,-1334.6270707351766,-195.82178380528583,-691.5924920202991,-923.5177801597266,163.89866572802225
0.5224999999999999,-1.955022630843488,-0.5805482827507559,-0.3321091345281089,0.046564532765096,0.029626241369312,0.0248921710927445,-0.0185042400274059,0.0054373018806148,-0.0528067735855413,0.9984182274051788,0.0463816287053369,0.0677516992936122,9.289559258539706,-0.0433736983420798,-0.002422872787081,1.2430684302197472,0.9994649658836936,-2.638680859143172,0.7663764837937596,1105.9155657174963,1115.5951867250456,1099.122729247133,1112.1337762546527,-1462.2410780751563,-387.43428383795583,-476.71369525341976,-750.0004362762403,163.90807629382087
0.525,-2.007533447169704,-0.4371144622689484,-0.3429471190891252,0.0405678563114207,0.0291349484751439,0.0246064294559167,-0.0184584497095871,0.0055100905057753,-0.0527352552770178,0.998422451073337,0.05068464722984,0.0600215926455473,9.261333110752432,-0.0433714271357736,-0.0010360332075833,1.2417882096830015,0.9993961857944008,-2.638550391122955,0.7694856704536623,1102.485867803663,1114.4314557708285,1098.375482564565,1110.6704806087703,-1343.3751361374095,-574.7137578614905,-148.15733956975222,-499.50816471450656,163.91603659274497
0.5274999999999999,-1.9304832009285469,-0.2940210161251885,-0.3504232135749156,0.0347093033460586,0.0287414315370743,0.024083384107876,-0.0184211352757086,0.0055855414380834,-0.0526560004590823,0.9984268953849434,0.054840103086625,0.0511755857771283,9.232655415548576,-0.0433397696291536,0.0002797564090472,1.240432344602646,0.9993279707530942,-2.638413962785355,0.7725914951317949,1099.1986900368095,1112.721617935738,1098.3819425492843,1109.63623543108,-1337.799663440818,-856.5936607246377,176.81749499629387,-371.089329948381,163.92412415435484
0.53,-1.6937563680048715,-0.1135354876163203,-0.3476432747917727,0.028430150587664,0.0281836753518859,0.0231184715341169,-0.0183945836007478,0.0056584759754315,-0.0525746726241066,0.9984312513583862,0.0588088437869863,0.0413362013808387,9.203548290353098,-0.0432658441190638,0.0015128518683348,1.238999773404029,0.9992598461210876,-2.638274065739311,0.7756929575506863,1095.7968694864587,1110.148487467205,1099.2595700395464,1108.8150339590284,-1114.6702459720009,-1000.9641835700212,446.3269475100329,-244.34635563370625,163.933981057998
0.5324999999999999,-1.3946701405849051,0.0544429599538497,-0.3273026666927179,0.0242455589679291,0.0276546625807391,0.0220955099627613,-0.0183763641340492,0.0057259656015127,-0.0524945047477727,0.9984354125528568,0.062510509309183,0.0307304971513638,9.174038780174465,-0.0431433360498045,0.0026652474086179,1.2374898664723066,0.9991925602630444,-2.63813275470024,0.7787889870777182,1093.6253388069495,1107.716797017888,1100.6135772868345,1108.4145036529117,-703.3017359600302,-988.2879489049619,623.3045628468057,-116.21041141329432,163.94232463673293
0.535,-1.0229368023410943,0.2493596901451631,-0.2799545451138646,0.0212570668629251,0.0273009467455362,0.0209572903615481,-0.0183642716289098,0.0057798535899527,-0.0524169711373373,0.9984393919992278,0.0659682418637222,0.0196004770007521,9.144158997349207,-0.042953431587022,0.0037411902532972,1.2359028932961706,0.9991255496226854,-2.6379908963771834,0.7818798645498976,1092.2803608066588,1105.2070477226805,1102.3760928537804,1108.233981901962,-399.10761490109473,-983.5327365775347,723.144707178789,-45.221412884166014,163.95080557972855
0.5374999999999999,-0.6194396298963551,0.465835858990373,-0.2078308826744359,0.0191947869832137,0.0273547486025985,0.0199083374582523,-0.018353952862662,0.0058110507987507,-0.0523453465875018,0.9984431540619172,0.0692283358998111,0.0082370511539257,9.113945383237295,-0.0426760377052912,0.0047519999982889,1.234239399544884,0.9990578697981122,-2.637847963140341,0.7849664287270629,1091.629800732444,1102.7991333350003,1104.2293008227284,1108.1883965884908,-112.07837264137189,-905.0472998091656,694.3153278836684,3.9739061908676336,163.9594021761646
0.54,-0.2134459652165346,0.695658197960857,-0.109583501888187,0.0181778763773665,0.0280741221777361,0.0192530691619816,-0.0183434717389187,0.0058208823756544,-0.0522855889893661,0.9984464149868748,0.0721615851539827,-0.0031195555568502,9.083438807374945,-0.0423173795707924,0.0057030407128821,1.2324991661670928,0.9989884290012588,-2.6377033757671824,0.7880480678075412,1091.719968943452,1100.6818112236347,1105.8476694931987,1108.2538514329162,163.88505541062827,-835.2418013115303,573.2304235115403,39.9061874295057,163.9681397443497
0.5424999999999999,0.2293724136256898,0.9560193808331384,0.0266435605905313,0.0182051445145338,0.030004650565326,0.0192014469902417,-0.0183307708027172,0.0058168733929258,-0.0522419347407181,0.9984489476989996,0.0745450857556492,-0.014234705321359,9.052684048385123,-0.0418998886962365,0.0066007165677584,1.2306814985572727,0.9989168497069644,-2.6375569897888984,0.7911241469390212,1092.4492260094971,1098.6229243284427,1107.095452940286,1108.3879275256384,325.24920425635145,-665.8167377848252,294.37921456665174,45.44517571689535,163.97878894109937
0.545,0.5264077985353282,1.1298493146581696,0.145208915940485,0.019486790550132,0.0328203861626079,0.0196327819527218,-0.018321541351122,0.0058142382216079,-0.0522144250014933,0.9984505548067129,0.0760482534242847,-0.0250278796590897,9.021729346301392,-0.0414649914678984,0.0074330348828449,1.2287851674807668,0.9988450324875215,-2.6374090829686367,0.7941944662751491,1093.3462149647337,1097.3527275347103,1107.319565566032,1108.4810773115007,357.28955625791025,-422.85313655179334,-108.76736803115809,15.293485335496356,163.9878002506539
0.5474999999999999,0.7104391074689432,1.222438582650537,0.2594117950364951,0.0222857632679223,0.036834867486554,0.020222548789721,-0.0183199980472359,0.0058280532228963,-0.0522001261211893,0.9984512238780122,0.0763688247135349,-0.035401587907015,8.99062547092121,-0.0410553276069735,0.0081931810478295,1.2268088112373032,0.998775092159788,-2.637261145867404,0.7972601593771768,1094.2356737907867,1096.5086586456837,1106.5516161001303,1108.4643949523158,317.9184440533388,-306.11394395114047,-561.2497643908223,-53.4704348391187,163.99695323027012
