t,ang_acc_x,ang_acc_y,ang_acc_z,a_vel_x,a_vel_y,a_vel_z,quat_x,quat_y,quat_z,quat_w,acc_x,acc_y,acc_z,l_vel_x,l_vel_y,l_vel_z,pos_x,pos_y,pos_z,mot_1,mot_2,mot_3,mot_4,dmot_1,dmot_2,dmot_3,dmot_4,vbat
7.69,0.8336657825254019,-0.6976587894521856,-0.1593296010492434,0.0735859279485911,-0.0041182304582696,-0.0064080174981672,0.0022831214163857,7.547803414386662e-05,0.0258924191234105,0.9996616890725576,0.0281929640693747,-0.054366184265574,9.762460412565234,-0.0031149267987001,0.0144222352985898,-0.0044943394266951,10.987355029843137,0.0201489001285161,2.0608824640943046,1102.1032005731092,1112.8149287700355,1094.9007509219575,1097.3831635148604,-527.597138535168,-179.32720617132344,-580.3502192734537,-1021.8683547775744,153.81414457223894
7.6925,0.5523537829217725,-0.7190809634700897,0.1330494061938732,0.0751576575191218,-0.007022553668479,-0.0054830565597138,0.0023680966014721,5.591475548580084e-05,0.0258772255272776,0.9996618873179888,0.0276584692685977,-0.0498332466545076,9.76371778580135,-0.0030428516029714,0.0143275367630748,-0.0046021204105161,10.987342514764643,0.0201902927508965,2.0608653937104764,1100.791036463411,1112.1528209615656,1093.5452446003897,1094.6080861815367,-386.05822671671285,-291.85461634375025,-407.6010983494685,-984.3328040630449,153.81386499165677
7.695,0.3273595942373443,-0.6968113532472662,0.3701217011248568,0.0765892978445714,-0.009414929910769,-0.0050880947381155,0.0024635247046381,5.348558555354694e-05,0.0258788920941732,0.999661621188422,0.0267893215923731,-0.0448466390536882,9.765212969036662,-0.0029686868175909,0.0142385232941482,-0.0047091183653987,10.987330343226988,0.0202281521822651,2.060855123467704,1100.1729094395257,1111.3556556883168,1092.8627454302105,1092.4614994945455,-103.66157840567432,-344.6434138576552,-190.67360457325276,-798.797719430894,153.81360652928478
7.697499999999998,0.0934904067613764,-0.6433418852516904,0.6127194155096904,0.0778807035024569,-0.011178136867384,-0.0051147397427231,0.0025618426592262,6.248657988346897e-05,0.0258957252797404,0.9996609500212066,0.0256936162466168,-0.0395961603772774,9.766956731205806,-0.0028921856359358,0.0141594818858467,-0.0048193082780099,10.987319244132948,0.0202618793278573,2.060850567699726,1100.2727285713827,1110.4296038922776,1092.5918765775234,1090.6140975843823,232.7937786928537,-404.531467834849,-54.75985480434363,-725.5034046251394,153.81332767237927
7.7,-0.2067788027110112,-0.5642534993761266,0.9098013067314664,0.0785040516588173,-0.0124117218955443,-0.0047897755456113,0.0026591740333005,8.144906425785808e-05,0.0259270612065269,0.9996598976438696,0.0243968961396328,-0.0342053057968605,9.768960919995779,-0.0028133974814967,0.0140947790122357,-0.0049361859960009,10.987308657917175,0.0202917841091478,2.060850335925906,1101.33687833299,1109.3329983491424,1092.5889461561887,1088.8339824714199,539.3848882755785,-377.9921887346837,23.563449311674,-572.8661751383711,153.81297681540957
7.7025,-0.4699001175166242,-0.4995249232203486,1.1424508379482512,0.0780968656750819,-0.0129152330251607,-0.0031470423196437,0.0027489948064139,0.0001056544031206,0.0259710888920496,0.999658527984614,0.0229856652897114,-0.0288580234401384,9.771237048150484,-0.0027327443173708,0.0140483382950164,-0.0050617278247618,10.987298555429769,0.0203187684884694,2.0608518552450086,1102.969653012761,1108.5396429486038,1092.7096938240816,1087.74976670869,767.8002183423068,-273.15692930865805,40.797569967708974,-349.2368514731954,153.81267631013375
7.705,-0.7338474437662283,-0.4422505772954764,1.316415535010336,0.0765869799343604,-0.0131336095158412,0.0006525738286312,0.0028265277299337,0.0001256559616866,0.026020744052308,0.999657038346807,0.0216388918122078,-0.0237123156938039,9.773793954971012,-0.0026511257178125,0.0140231000256817,-0.0051960115089051,10.987289052178204,0.0203449033802432,2.0608515865631465,1105.1758794247014,1107.967213702599,1092.7929340060273,1087.087798214054,929.1033811640517,-185.3116955008812,9.949685797801278,-199.20105304232007,153.8123737461226
7.7075,-0.9867378731445888,-0.3854039794999764,1.4087058239691295,0.0742013040325531,-0.0137041360992205,0.0056249308632541,0.0028948389799549,0.000135160775088,0.0260699809757736,0.999655576223302,0.0204779429711486,-0.0187758602166336,9.776635190042589,-0.0025696325580187,0.0140207204755461,-0.0053373717992529,10.987279948916296,0.0203718516775343,2.0608480374809126,1107.6151699185812,1107.6130844710995,1092.7594422530708,1086.7537614434784,962.8572347158956,-91.08312861653953,-48.253872647002154,-66.93457613541938,153.81207418029103
7.71,-1.2151488956290657,-0.3124161164547317,1.3817341368264913,0.0711658859717968,-0.0150945206569244,0.0106747748738712,0.0029521866278461,0.0001300145497036,0.0261151880333033,0.9996542388669454,0.0195805707140284,-0.0141517530952626,9.779757941307338,-0.0024894696653959,0.0140416860573672,-0.0054823475656498,10.987271362707967,0.0203999902972256,2.0608402446252114,1109.9901655982808,1107.5117980595167,1092.5516646427923,1086.7531253333768,947.7555261073325,-0.1273264267638323,-123.31072329184543,54.2820535022213,153.81178385673897
7.7125,-1.453924075077598,-0.1872176660146711,1.218210771381794,0.0671231240958922,-0.016951498578389,0.0156491437228237,0.0030008295885087,0.0001088347096695,0.0261523745144308,0.9996531234563698,0.0189731690231876,-0.0098636666215009,9.783150019642257,-0.0024119679694744,0.0140853365214158,-0.0056264397818545,10.987264165384344,0.0204295712171326,2.060828482273473,1112.3539475491175,1107.6124478389656,1092.1428886366116,1087.0251717109895,742.6208396214108,59.45010385580771,-161.71481352958267,127.32576630965283,153.811453340808
7.715,-1.6223807682719948,-0.0483773734776281,0.9968503051305572,0.0635038710506219,-0.017999477574098,0.0185103446568236,0.0030437958452753,7.314458726551252e-05,0.0261792966913345,0.999652282823464,0.018626765867538,-0.0059167768161065,9.786788662338447,-0.0023383856917293,0.0141500880637305,-0.005764587407416,10.987258836119372,0.0204607145029737,2.060813301285814,1113.7032697963875,1107.8090485787957,1091.7430905751444,1087.389754164925,389.23752181632074,85.0447578665371,-150.9117245354478,155.60371518495563,153.81119799012555
7.7175,-1.759218724662312,0.11581771949791,0.7261467374795147,0.0595429944127744,-0.0181370785388179,0.0200951193813125,0.0030815527109312,2.571203787790644e-05,0.0261954116074611,0.9996517348713267,0.0184877719074805,-0.002361627577819,9.790640108905071,-0.0022697053975944,0.0142336630102012,-0.0058915854374888,10.987254813790235,0.0204930452580807,2.0607950409187774,1114.3001351581993,1108.0376716282983,1091.3883300139344,1087.8031902869143,103.03586117211344,92.883539385368,-124.39584973417632,178.19164395637398,153.81096960006334
7.719999999999998,-1.8857950670999468,0.3197321636200021,0.386842770645245,0.0544937021298748,-0.0171709291337781,0.0208838349762707,0.003120513428128,-2.5991055795062088e-05,0.0262017340173612,0.999651434917748,0.0184143890791874,0.0008760443390522,9.794658362837795,-0.0022063895897741,0.0143331621721283,-0.0060027914684818,10.9872507183621,0.0205267189119751,2.060774826789969,1114.2184491022483,1108.2734662757225,1091.1211113264735,1088.2807123847067,-130.6971113379887,73.35801599788438,-62.087733945146695,166.6856938763466,153.81073362406423
7.7225,-1.9575955381147452,0.479426673264981,0.1152158376220555,0.0501541692238579,-0.0155953783954435,0.0208751603569494,0.0031591667121491,-7.838971279871737e-05,0.0261996234749789,0.9996513509373508,0.0183374005334211,0.0037210749650053,9.798787522682694,-0.0021484319086236,0.0144453898912873,-0.0060940414577167,10.987245769569611,0.0205619904383584,2.0607523875745706,1113.6466496015091,1108.4044617082875,1091.0778913442086,1088.636618756296,-280.43619996497165,36.55342043666107,22.715837143456245,133.12605060675844,153.8105733550493
7.725,-1.9886265561339251,0.6172537620754704,-0.1282662377412137,0.0455109039649689,-0.01371996007137,0.0203836778959025,0.003196035034451,-0.0001281550966223,0.0261924592008515,0.9996514003832068,0.0181926761558586,0.0061075775954702,9.802962032056003,-0.0020953438519694,0.0145669598843741,-0.0061621880774258,10.987239488579675,0.0205989173073517,2.060728109113763,1112.8162681024232,1108.4562333779058,1091.2346905121908,1088.9463426377408,-363.720596649599,9.264791354690002,109.1460804274016,129.11458654039328,153.8104555287993
7.7275,-1.9690560238407548,0.7568440972348262,-0.3801494875806871,0.0394019971305726,-0.0114667046649164,0.0193453519531151,0.0032362670252946,-0.0001685639973033,0.0261828546761127,0.999651499766306,0.0178525709438375,0.0081111146920822,9.807107386293746,-0.0020463511042321,0.0146944050128843,-0.0062055537130989,10.987232835321247,0.0206369898456906,2.060704943308351,1111.8280466182612,1108.4507856650612,1091.6236217463456,1089.282191688998,-326.7578724539432,-5.0936137270128885,167.46508346819058,120.0651371972097,153.81036750200408
7.73,-1.900559912495852,0.8568094126929118,-0.5557556221427369,0.0341630299605513,-0.0096399418706472,0.0181542840203704,0.0032782924597617,-0.0001974474690719,0.0261725420213453,0.9996516091190522,0.0172745655593175,0.0096836511639478,9.811144122872765,-0.0020006190345904,0.014824511124976,-0.0062235273441398,10.987226633712442,0.0206755257598861,2.0606840828331854,1111.1824787401536,1108.4307653092708,1092.0720159295315,1089.5466683237269,-200.1007420048197,3.225782566823978,192.6743929057052,104.41932268600108,153.81034099953283
7.7325,-1.780444030413994,0.9472444400375424,-0.6977269943874147,0.0293140155188082,-0.0077840238744665,0.0167659267580086,0.0033203872021627,-0.0002117720487834,0.0261653536912645,0.9996516376887696,0.0163986881801984,0.010784952570749,9.814989284427929,-0.0019571292630656,0.0149543265498495,-0.0062165343669366,10.98722033498822,0.0207140899707373,2.060665567205863,1110.827542908237,1108.4669145778953,1092.586993710874,1089.804288302428,-92.68088184230888,37.02009891094428,207.91794783508965,101.51025091918416,153.8103650806516
7.735,-1.6263499791516147,1.033055259919043,-0.8132231312526333,0.0249434355459423,-0.0056713738617639,0.015382792745497,0.0033673692670928,-0.0002052473920359,0.0261653927273717,0.999651467747718,0.0151037583690426,0.0115152585137354,9.818557603030866,-0.0019147118832809,0.015081063177726,-0.0061858814016232,10.987213445534234,0.0207523332701078,2.060650373491616,1110.719074330942,1108.6158658038255,1093.1116056687072,1090.0542195783228,4.525923943447292,102.99813827837389,203.8795969109331,95.5785656546161,153.81043189986235
7.7375,-1.447845433082146,1.1132006496158289,-0.8944889765294902,0.021178006147685,-0.003348303177877,0.0137034783828807,0.0034160034033448,-0.0001776328136464,0.0261745672929054,0.9996510635709768,0.0133824063771361,0.0118238573420129,9.821766044583642,-0.0018722986233798,0.0152022058814866,-0.0061328518951998,10.987205802763484,0.0207899973265402,2.0606375330733684,1110.8501725279543,1108.9819052692872,1093.6063916954288,1090.282181130701,91.15752135708328,227.05491959305192,206.2639234008246,89.9612421780167,153.81055043166123
7.74,-1.2306695293383276,1.1980142030155254,-0.9420388173153368,0.0173420285882898,-0.0004587295242708,0.0107052129596782,0.0034588482074114,-0.0001375158061309,0.0261887438861523,0.9996505575750282,0.0113977045412692,0.0115824669022247,9.824535342536143,-0.0018291959039045,0.0153153538964527,-0.0060584275564272,10.987197281574204,0.0208279865481659,2.060623746017969,1111.1748619377274,1109.7511404017907,1094.1429252857113,1090.5040257892128,131.4700792404232,341.14133113070363,188.72104131989323,68.48590919952424,153.81075172605276
7.7425,-1.0665880092115327,1.251508710227342,-0.9320422123858476,0.0147184623102315,0.0021968606906836,0.0075419090488619,0.0034941976797179,-9.229539292626909e-05,0.026205395044544,0.9996500186584404,0.0092930785431163,0.0107844794398247,9.82679079063308,-0.001784878857829,0.0154180810617844,-0.0059635607306634,10.987187458271688,0.0208673872677287,2.0606071143778406,1111.5075229241568,1110.6876119249407,1094.5499969020284,1090.6246106766987,132.40402860779167,428.64706847795793,160.3295203863615,31.708420052428426,153.81096742833236
7.745,-0.9421561872890396,1.2729556340100663,-0.8712503240325497,0.0127020856614653,0.005381080760126,0.0045835588649074,0.0035135556129137,-5.0519671326489504e-05,0.0262209231443951,0.9996495649013262,0.0072320108303337,0.0092968754900475,9.828466599842857,-0.0017392626570674,0.0155081614601474,-0.0058490728217981,10.98717704266776,0.0209080997836899,2.060587225848691,1111.8368820807664,1111.8943757441805,1094.944572887643,1090.6625678894748,135.50329167478884,569.6635060244383,178.85380259531684,-0.8056221421611724,153.81123052992154
7.7475,-0.8591128562589395,1.2444307245740687,-0.7584205641330783,0.0109991899601887,0.0097436413792192,0.0019940299128561,0.0035153759879469,-1.830222913173128e-05,0.0262306155123185,0.9996493197607136,0.0053353265759908,0.0071308159583664,9.829505629551386,-0.0016927923796267,0.015583562341948,-0.005716565807207,10.987167574927806,0.0209500246628413,2.0605654451109134,1112.1850393825307,1113.535929455063,1095.4442659150047,1090.620582565988,116.71750957039217,609.4640341542473,192.31195180573604,-24.15983474093133,153.8115971785537
7.75,-0.8525835012220747,1.1686034951169688,-0.6520592955452649,0.0099629035127577,0.0133729229931284,0.0006889799865836,0.0035019230354451,2.4236708178884983e-06,0.0262328411465918,0.9996493172727648,0.0036463076901171,0.0043794703613424,9.82986217371688,-0.0016462703535213,0.0156426564388632,-0.0055687605946982,10.98715978800037,0.0209929084805678,2.060543367711741,1112.4204696286183,1114.9416959149517,1095.9061326466715,1090.5417687157703,80.84827635507453,538.0111358264572,196.95396007828515,-27.595781066975768,153.81194159711697
7.7525,-0.905805891611768,1.0421269390575194,-0.5562640612952398,0.0085201549034323,0.016436431799287,3.0960125500361244e-05,0.0034772924452424,1.384666366946982e-05,0.026229504407324,0.9996494960908207,0.0021313338810068,0.0011776015261541,9.829504408527997,-0.0016006720186184,0.0156843759359423,-0.0054096632598206,10.987153368563792,0.0210363865634811,2.0605220763654475,1112.589280764306,1116.2259851341953,1096.4290357153964,1090.482603660653,57.68660809708431,505.46084760736613,243.00185194475097,0.1601592519818984,153.81232124721433
7.755,-1.015523285732326,0.8480570216877608,-0.4684625930946472,0.0059231010027474,0.0191183235506174,-0.0004271454776485,0.0034539857773318,2.3185532245471745e-05,0.0262228679857431,0.99964975296195,0.0006655120840058,-0.002170384895376,9.828415262929994,-0.0015570383906172,0.0157082284423287,-0.0052447891380522,10.98714741683558,0.021080558654371,2.060503419359648,1112.7089026691035,1117.4690001529884,1097.1211419063955,1090.5425695120302,30.17114867216215,392.7793395140808,260.296781987705,60.75275135444956,153.81281050941553
7.7575,-1.1230051312206129,0.665845599806119,-0.417501315848965,0.0033915941952724,0.0205660679131013,-0.0008407235330203,0.0034363061386074,3.41226623411813e-05,0.0262153265931021,0.9996500075481732,-0.0008072122074923,-0.0055229676240896,9.826596494735906,-0.0015164363506039,0.0157145580992632,-0.0050804086056969,10.987142194666484,0.021124813944056,2.060487921859451,1112.7401365076669,1118.1898818317657,1097.7305196253349,1090.7863674174253,-0.2207260174600425,223.2995860697476,240.53672162136135,153.48533516048846,153.81324042083435
7.759999999999998,-1.2199298673878642,0.4765456770052741,-0.3767079281019717,0.0006894383113059,0.0213964047249994,-0.0015983770337526,0.0034249494896552,4.970227251363178e-05,0.0262118259245938,0.999650128450334,-0.0023283140843513,-0.0088114470492272,9.82406868220394,-0.0014797697109953,0.0157045320949966,-0.004923336878498,10.987136991899904,0.0211684208601414,2.0604754610619334,1112.7077990390164,1118.5854980833371,1098.3238255145022,1091.3099961878327,-28.029619434938155,120.04792557854925,238.73344445387883,302.1053946883122,153.8136855527193
7.7625,-1.29152323383525,0.2482606304115633,-0.3159702003972936,-0.0030328794977861,0.0218605558502268,-0.003109096778072,0.0034216868669574,7.794333509284787e-05,0.0262165684955675,0.9996500020515712,-0.0040328315470482,-0.0119464483446534,9.820870613343699,-0.0014478017780497,0.015680023322336,-0.0047806692335523,10.98713122822413,0.0212100921685181,2.0604674165059023,1112.599988410492,1118.7901214596584,1098.9241868476042,1092.2968943908668,-54.129919808647806,55.481598167707915,184.23134832975697,418.3311645549821,153.81422768897704
7.765,-1.2902573480988015,0.0552612466809711,-0.2401402251924615,-0.0067901771791794,0.021941220243614,-0.0048207650965817,0.0034208043774433,0.0001201795941003,0.0262302374695831,0.9996496323253748,-0.0059250750899365,-0.0149931656345343,9.817059655097879,-0.0014214082552902,0.015643487006572,-0.0046589461275393,10.987125140200076,0.0212485501933711,2.0604637248737325,1112.4371494399732,1118.8629060741755,1099.2449822561512,1093.401652010608,-91.34543446116561,43.72280346301616,69.56812331659569,489.27593504087,153.81467902831164
7.7675,-1.204139665746704,-0.1493178059431954,-0.1321726128676899,-0.0111406041931435,0.0218785266174314,-0.0065312869258984,0.0034153919343793,0.0001685764790397,0.0262468573680882,0.9996492001892154,-0.0078273653050307,-0.0180498489571053,9.812709392629532,-0.0014017710199573,0.0155975239832812,-0.0045637560409623,10.98711949222957,0.021284190651475,2.0604624862350414,1112.1432612381864,1119.0087354769735,1099.2720274641872,1094.743274066071,-152.50774196083836,94.80453813762524,-51.10836307262725,565.3014035779172,153.8151214188399
7.77,-1.0439270236598703,-0.3717624889782887,-0.0074665267484963,-0.0153303228699224,0.0216751708696416,-0.0074945432804906,0.0034043133568328,0.0002173007538588,0.0262621153343289,0.9996488220336428,-0.0095958987841028,-0.0211058362849949,9.807906685920125,-0.0013900372981781,0.0155444210809228,-0.0044995278484815,10.987114243938432,0.0213182779726308,2.0604621061260326,1111.6746107301688,1119.3369287648638,1098.989440440788,1096.2281590284974,-246.95560242858463,196.67221374634633,-195.29070659610127,616.2766073690041,153.81555002101427
7.7725,-0.8112734128925452,-0.622281498171889,0.1102078832068123,-0.0182138370599421,0.0210733583623722,-0.0068776445088423,0.003384382660775,0.0002561431635793,0.0262708349811982,0.9996486454991644,-0.0110007206786632,-0.0241985478463089,9.802749960120499,-0.0013874220954964,0.0154859082348195,-0.0044690365819273,10.98710976586585,0.0213521087887205,2.0604608342401796,1110.9084832260435,1119.9920965457052,1098.2955739312067,1097.824657102916,-421.08289722851606,374.16465059291914,-393.8293305251675,714.0155729162113,153.81595425987683
7.775,-0.4903475476645549,-0.953786455653292,0.2067297767620242,-0.0196479581788297,0.0196180183541884,-0.0049053141625097,0.0033597674806648,0.0002761046416061,0.0262672422679588,0.999648810220994,-0.0118315481543601,-0.0272261727750268,9.797344928434889,-0.0013950674952606,0.0154229511128198,-0.0044737312140555,10.987106733441168,0.0213871649712572,2.0604576937735968,1109.5691962440264,1121.2077520178284,1097.0202937881622,1099.7982368930784,-561.3882738520833,508.25915491997137,-522.5508374942931,722.5443384786257,153.81640114135524
7.7775,-0.2209741080262277,-1.245742925120695,0.2355994807057298,-0.0196285668456911,0.0176853245782889,-0.0031581416324549,0.0033347095547766,0.0002739466534429,0.026249793564599,0.99964934650913,-0.0119916053972349,-0.0300879080443044,9.79180200515474,-0.0014136863962354,0.0153559119841904,-0.0045137366944897,10.98710523105872,0.0214244598530521,2.060451891724228,1108.1015418567831,1122.5333923203048,1095.6828197437353,1101.437378795309,-643.3238762350494,562.2025042758315,-553.420509440105,638.0600824430212,153.81673434784835
7.78,0.0219789159698212,-1.5310792473181492,0.2147309576977514,-0.0189590170923359,0.0148053378344447,-0.0019740553006641,0.0033093526254485,0.0002527906116607,0.0262214630542544,0.9996501787340611,-0.0115126756449023,-0.0327649456918965,9.786233198092338,-0.0014433165299285,0.0152848418006461,-0.0045880655732149,10.987104971801685,0.0214635796824389,2.0604436596455535,1106.3525768628513,1124.0187645392075,1094.2531912409615,1102.9885373052934,-794.0274068220047,628.2482414959438,-590.9500967627663,634.426134260243,153.81701811890548
7.782499999999998,0.2687221731700466,-1.8277251836555848,0.1561664902475185,-0.0176294617431851,0.0097690264842374,-0.0014274711097489,0.0032921329142619,0.0002201382324551,0.0261860520581104,0.9996511765973806,-0.0105113774748223,-0.0350787298103938,9.780747649147987,-0.0014832194042428,0.0152096655093403,-0.0046953352561584,10.98710556492196,0.0215039636687049,2.0604352244434314,1104.1314048226732,1125.6746335277846,1092.7280692599215,1104.6095094666102,-795.7399203861484,532.8010677875341,-481.077906027541,527.891338472375,153.8172918377748
7.785,0.4381920300830648,-2.0071172078142494,0.1015265497816064,-0.0164278602610705,0.0042848964543043,-0.001633253494709,0.0032835892429885,0.0001810397107739,0.0261494654235442,0.9996521800392763,-0.0090652805332618,-0.0370111467554693,9.775450251883823,-0.0015317140902268,0.0151305892048352,-0.004833425554451,10.98710627863527,0.0215449212177982,2.0604269661657564,1102.3738772609206,1126.682769878145,1091.847801710824,1105.6279939976553,-634.9526657796022,268.00212677626763,-222.38128754876175,305.2674276897484,153.81745784446812
7.7875,0.5810458092007551,-2.0900944516835374,0.0628065728290446,-0.0153758702238,-0.0016978738336929,-0.0022389373153784,0.0032818350647578,0.0001424934603967,0.0261193646347114,0.999652994248662,-0.0072977315236563,-0.0385948352678548,9.770438236173586,-0.0015860607886643,0.0150482209381724,-0.0049996632676712,10.987105737892112,0.0215857452121456,2.060418384107657,1100.9566414937747,1127.014644161666,1091.6161628221776,1106.1358466050592,-498.5548594194021,-51.30286705621184,82.52651929619964,78.69353032615604,153.81755253209343
7.79,0.736399725888575,-2.069091895737896,0.0464431979200223,-0.0140005202245783,-0.008579027010757,-0.0028146940788699,0.0032908678396204,0.0001136432341942,0.0260994926628704,0.9996535066494924,-0.0053788428908861,-0.0397506170164988,9.765798053539918,-0.001642703031097,0.0149635415468918,-0.0051910312912781,10.987102545468456,0.0216256654064011,2.0604099949785875,1099.8811029638237,1126.426255542864,1092.260434307305,1106.021461649286,-270.0272497017125,-382.985696524619,394.04897489035574,-166.74376417341037,153.8175767340375
7.7925,0.8589466313291187,-1.9574065208434852,0.0564926694784652,-0.0126384653258815,-0.0138716183046174,-0.0027066770175072,0.0033062232624368,9.550795438186253e-05,0.0260908390361334,0.9996537026244096,-0.0033333017178353,-0.0405727519615198,9.761604423771693,-0.0016975984801151,0.0148780135055988,-0.0054036396989794,10.98709673507026,0.0216635300167946,2.0604014815599045,1099.606505245266,1125.0997156790431,1093.5864076966293,1105.302127784192,22.618444553609635,-673.135265662964,672.0711287642787,-403.6587586259061,153.8175179563698
7.795,0.974030446414026,-1.765821864808271,0.0842032013379508,-0.0109276241683306,-0.0186722675438304,-0.0021311087203403,0.0033216204106743,8.431332448090928e-05,0.0260918674261999,0.9996536421294708,-0.0011029453725967,-0.0411968888364634,9.757917886633864,-0.0017465634598563,0.0147933490340302,-0.005632870127669,10.987089008059742,0.0216988972340161,2.060392395734472,1099.9941951865917,1123.0605792145493,1095.6207899511264,1104.0031678561563,252.44351301217276,-891.0519583338289,897.1177470628127,-595.810803749886,153.81737273546855
7.7975,1.0763057629388268,-1.5267825207361083,0.1235653887930395,-0.0086549609385141,-0.0227735565179756,-0.001514081257976,0.0033360708022287,8.000827461100842e-05,0.0261018276452091,0.9996533465306744,0.0012905134844321,-0.0416566237520936,9.754783015284573,-0.0017854408063608,0.0147111534977816,-0.0058735901406099,10.98707920043638,0.021731897692481,2.0603823940690655,1100.8687228103267,1120.644455887374,1098.0719964319433,1102.3230737654428,438.73555379119375,-997.0798215549379,1026.2572573640443,-734.8193971448084,153.81715305455486
7.8,1.1503224878308695,-1.257082467095468,0.179157729221724,-0.0056997432800761,-0.0257176933825249,-0.0010480270932767,0.0033426489043208,7.733123713346476e-05,0.0261181107029939,0.9996529047585042,0.0039144473898316,-0.0421065481342379,9.752228457074375,-0.0018106002478217,0.0146327302515456,-0.0061198267561679,10.987067017941488,0.0217633649683477,2.0603695847541625,1102.1878729555476,1118.0751801067747,1100.7520762379463,1100.3290708704324,638.9019464660713,-1096.9378100443698,1157.7936751595892,-913.1771287556796,153.81684093592213
7.8025,1.1917242678342383,-0.9297396230835177,0.2717917261480852,-0.0020066098100368,-0.0281390667319119,-0.000686809171426,0.0033368711669554,6.566887854045663e-05,0.0261333894150678,0.9996525219237,0.0069331024252963,-0.0426579866363834,9.750266017301255,-0.0018193642090643,0.0145587370109188,-0.0063652208261965,10.987053947918326,0.0217946718704978,2.060352626617949,1104.0632325426573,1115.1597668371523,1103.860964807741,1097.7571881216645,705.1611180853149,-1006.220395166044,1073.9549061294524,-950.1862493940158,153.81635701039295
7.805,1.1799286057844502,-0.6704186424088568,0.3749335604760439,0.0009653143222177,-0.0294753405549433,-0.0004493195289796,0.003320980606005,3.770494792132805e-05,0.026142394910771,0.999652327527852,0.0104425892391851,-0.0432904482845243,9.748891025505548,-0.0018099343192869,0.014489058200256,-0.0066036109287411,10.987041714920421,0.0218271136610631,2.0603315031195586,1105.7136785459747,1113.0440781309435,1106.1218507685946,1095.5781396234615,648.7427655872264,-762.4119167554162,793.8759474489585,-859.6126631882909,153.81586140286416
7.8075,1.1155474487198287,-0.4348489861697862,0.5038991642228537,0.0038449502303715,-0.0302502548870881,-6.139319639939955e-05,0.0032960965317783,-9.633875625864067e-06,0.0261431774170804,0.999652369895246,0.0144502282101937,-0.0440035112476225,9.748084343858393,-0.00178134311076,0.0144229931931325,-0.0068293483120865,10.987030721968752,0.0218613354972901,2.0603061177273503,1107.306946370593,1111.3477072533751,1107.8303445449856,1093.4591248057231,665.9440810458506,-653.2736764679751,599.2926790248603,-906.4560544309837,153.8152693155031
7.81,0.9753519673159532,-0.1792231623096667,0.6747294970739148,0.00706367121885,-0.0307289061109414,0.0008991990781049,0.0032683134539176,-7.16518379177736e-05,0.0261359684838208,0.999652623223882,0.0188108074124255,-0.0446954580485671,9.747814242112558,-0.0017332850692163,0.014359396832717,-0.0070380378883241,10.987020802429203,0.0218975664176408,2.060277758622517,1109.043398951204,1109.777709748604,1109.1183141637189,1091.0458593513067,598.6896257741264,-511.82718627411487,342.96748409033904,-859.8935655654443,153.81444751283126
7.8125,0.8068589706224008,0.0174714155380866,0.8114639725622032,0.0092453219615215,-0.0308697278889179,0.002341748860754,0.003240824042696,-0.0001429130976354,0.0261233560227168,0.9996530130727912,0.0233614178632267,-0.0453199086853845,9.748039484123423,-0.0016660140985821,0.0142970790977092,-0.0072267356193516,10.987012096068268,0.0219352495893827,2.060247958543011,1110.300394499464,1108.7885713220048,1109.5451819654375,1089.159656977896,458.0405863243057,-349.5563828416909,49.37749007490416,-726.9040940428267,153.813670757221
7.815,0.5875378125656293,0.2079384919753009,0.9120644844606152,0.0108943727200884,-0.0307925156690012,0.0045994087516528,0.003217794614235,-0.000216715681077,0.0261110559443958,0.9996533836565062,0.0279149411095518,-0.0458097909315953,9.748712097096623,-0.0015801520913435,0.014235028428557,-0.0073943284340015,10.987003841936154,0.0219737844474647,2.060217707864596,1111.3336018828254,1108.0299278343955,1109.3652016140932,1087.411338881093,399.16790306284327,-298.26858071924744,-191.53483954069495,-733.5866049073658,153.81280035426306
7.8175,0.269456954602687,0.4401951546477722,0.9546886659222156,0.0127066661200262,-0.0303652879063422,0.0081510227100542,0.0032119393511221,-0.0002855183406437,0.0261013592615652,0.9996536375332452,0.0322738513290174,-0.0459293662150337,9.749779966889827,-0.001476778957206,0.0141724740075205,-0.0075418071383359,10.986995881143377,0.0220128265203114,2.0601893057215346,1112.296234014778,1107.2972284184086,1108.587507767734,1085.4917239533593,304.2149509095972,-244.8754131357016,-354.1738005931241,-668.0441756897977,153.8116506340041
7.82,-0.0350961324952002,0.6403207641706173,0.9050488779671184,0.0139031005074012,-0.0295870701932797,0.0116339033084544,0.0032258114544779,-0.0003461840474799,0.0260953664786295,0.9996537364174528,0.0363244668772102,-0.0456415204636246,9.751190652643054,-0.0013573903681022,0.0141092958711883,-0.0076715362743291,10.986989222449424,0.0220513882889153,2.0601639205595697,1112.8546766373731,1106.805550768717,1107.5943326111278,1084.071118002644,170.38478200679856,-171.44679578491744,-438.5261052056287,-519.1726685828254,153.81060768738033
7.822499999999998,-0.3618259737577215,0.8438781012827621,0.759564759763204,0.013983185441842,-0.0281551709832312,0.0149316053604686,0.0032564653481805,-0.0003918598455384,0.0260977491323175,0.9996535697386496,0.0398824702872668,-0.0450132240903303,9.752894184718416,-0.0012235569738603,0.0140459895636027,-0.0077870003456127,10.986984228713885,0.0220883854947977,2.0601424571471982,1113.148157924812,1106.439994439484,1106.394877241706,1082.8958606104452,73.78438318051097,-121.64822834156696,-491.94063084520303,-418.096974014188,153.80948069113163
7.825,-0.6835685979888368,1.0423546529028385,0.5451338667347346,0.0128975562531222,-0.0260665881841751,0.0174040828495868,0.0033045229414041,-0.0004122439735111,0.026113636968031,0.99965300608972,0.0427038613164494,-0.0440387724388386,9.754844498821663,-0.0010768672968794,0.0139833767064113,-0.007892460893872,10.98697995861465,0.0221230557097513,2.060125968507523,1113.223598553276,1106.1973096270092,1105.1346294569018,1081.980633132573,-17.148199187565343,-62.20405087477894,-493.4044383433185,-290.13258550785406,153.80828731364815
7.8275,-0.9656057092065152,1.2213837819992654,0.276871143998066,0.0106629133687151,-0.0232559979107044,0.0185433438430298,0.003363463587009,-0.0004069128094591,0.0261435642389878,0.9996520511637224,0.04474035992743,-0.042854847667849,9.757000135164768,-0.0009191696823312,0.0139224911019536,-0.0079918932473988,10.986975557946995,0.0221550414045266,2.0601138989282126,1113.062416928874,1106.12897418511,1103.9278550499887,1081.4451976829057,-111.85080088130472,14.772543219305904,-487.9160428450281,-136.265443938558,153.80701823730868
7.83,-1.2162569993579149,1.396433060845584,-0.0599871027758951,0.0068913931888088,-0.019255148283233,0.0183587883687482,0.0034217914373246,-0.0003838294858046,0.0261819837298808,0.999650880376576,0.0461123641364381,-0.0416971782453016,9.75932460312818,-0.0007526169225983,0.0138642096387278,-0.0080883389755264,10.98697075512522,0.0221851944549644,2.060103697209694,1112.6643445488692,1106.2711723431055,1102.6950492426768,1081.2993059128803,-166.04459915998075,89.25860883992036,-396.26182005295897,31.725306631597725,153.80541387986935
7.8325,-1.3267485774360348,1.4986428082899088,-0.3203079261696756,0.0030777214441632,-0.0153991076544712,0.0170881445929131,0.0034731122330683,-0.0003484556044114,0.0262251440488552,0.9996496063960154,0.046902459806463,-0.0406988736216127,9.76178665136664,-0.0005793932706377,0.0138088022834129,-0.0081837084531025,10.986965062011715,0.0222146259937283,2.060093414168,1112.2321939330743,1106.5752672293097,1101.946545949724,1081.6038242160637,-175.41253282416085,153.6698881457174,-223.56715407745943,206.0589401096921,153.8040137551428
7.835,-1.3161020484237445,1.54828120668891,-0.5309350341036119,-0.0010157629163937,-0.0110865690779306,0.0150940813541867,0.0035099567714555,-0.00030857035084,0.0262685472510511,0.9996483678469352,0.0472467378838056,-0.0400127722148679,9.764359717776147,-0.0004020301328889,0.0137558611710643,-0.0082784153507613,10.986958577375216,0.0222445057759361,2.0600808189130575,1111.7872818847486,1107.0395217838343,1101.5772134722895,1082.3296006134287,-181.0625545616442,225.54978370522372,-66.04522840452914,404.4360602793945,153.80255409152247
7.8375,-1.1594585698223367,1.5501184044219696,-0.7120587062913938,-0.0059555839452424,-0.0060605946998917,0.0125401087433619,0.0035287036727408,-0.0002751854113655,0.0263044609208748,0.9996473761962448,0.0473554756445722,-0.0397152234217244,9.767020612376658,-0.0002236642988099,0.0137042289233654,-0.0083716559733998,10.986953054308808,0.0222762137080283,2.0600647097454767,1111.326881160266,1107.7030161478356,1101.6163198077015,1083.6260045174606,-149.49673558703898,246.1119706915322,90.44810974660516,533.6029811799676,153.80074113192117
7.84,-0.9208609695127028,1.5140228231619888,-0.8041552779135993,-0.0097297001912053,-0.0024928303522333,0.0106241269363312,0.003530567981834,-0.0002552909704033,0.026328131976686,0.9996467501932764,0.047372142378784,-0.0397833626721156,9.7697493496905,-4.7774948327763567e-05,0.0136521699434677,-0.0084618395154789,10.986950104308306,0.0223105140326511,2.06004493103095,1111.0397982068134,1108.270081637292,1102.0294540210225,1084.9976155193283,-95.31928381620877,212.9736886792716,225.97508464128197,591.0151104689376,153.79918494695002
7.8425,-0.604133003071958,1.454755056324876,-0.842487127699669,-0.0121788188975366,0.000465745929797,0.0088790710848295,0.0035136691395793,-0.0002525659252772,0.0263384767952532,0.9996465254344766,0.0473827877184348,-0.0402503527475871,9.772529003910893,0.0001220464869437,0.0135978216577852,-0.0085468751951269,10.986950995429995,0.0223471862047921,2.0600214154667102,1110.850284741185,1108.767884591232,1102.746195230908,1086.5810800698052,-72.04358970448237,190.9150781778903,352.8402164288839,722.8525314338793,153.79758858254797
7.844999999999998,-0.1929618910478154,1.3683976866864507,-0.8338153866165356,-0.0126564188313671,0.0037930817448396,0.0064414925633248,0.0034812237105361,-0.0002644962296092,0.0263342812558344,0.9996467257394644,0.0473630741444345,-0.0410436721840756,9.775344849788636,0.0002824689440378,0.0135394095510094,-0.0086249223834476,10.986955525383715,0.0223856313701268,2.0599950545473953,1110.679580258291,1109.2246570281811,1103.7936551031669,1088.6118781764978,-65.99046096889792,141.6222617686829,389.97170655307775,750.072539208593,153.79563411808505
7.8475,0.1318126570088904,1.2839600959707018,-0.7850680651666838,-0.011097213997975,0.0066745950231508,0.0040116410369293,0.0034404214606223,-0.0002835311858023,0.0263191394024642,0.9996472379658636,0.0471990440813351,-0.0420085196346659,9.778184147808583,0.000431032339289,0.0134755644331427,-0.0086948121801708,10.986961632175376,0.0224251739905403,2.059967188186099,1110.5203324363404,1109.4759959000755,1104.6960537636733,1090.331442765848,-83.23272707301446,76.75372308007064,341.90390751322525,676.375313811908,153.7939782442277
7.85,0.4045854812354787,1.1795181012092053,-0.7022549857145781,-0.0084794389754412,0.0098609424573398,0.0017270205423084,0.0033985478439998,-0.0002996248302674,0.0263014299586122,0.9996478264094716,0.0467331610601314,-0.0429855161701798,9.781036225908839,0.0005664337829664,0.0134055993615055,-0.0087562350981862,10.986967095951636,0.0224646620786008,2.0599395031426684,1110.263416622926,1109.6084256435815,1105.5031746407333,1091.993754745558,-127.13189893570689,38.31349882316399,293.99794760934753,645.4560161666133,153.79229997161372
7.8525,0.6317005121379037,1.052627757085686,-0.6042019520609054,-0.0060942790132398,0.0132174958027384,6.386260329070872e-05,0.0033668519566753,-0.0003029852203537,0.0262874299425918,0.9996482957307344,0.0458182208607076,-0.0437365514663769,9.783892009998336,0.0006883237895208,0.013329543626513,-0.0088099061389422,10.986971060914472,0.0225029349529201,2.0599144041266793,1109.884672941662,1109.6675633941911,1106.16604350172,1093.5587228466811,-180.9904123219478,14.092862424195419,220.68134090427992,594.4024989784465,153.79060713549703
7.855,0.8237924842616883,0.8986395053825582,-0.5079599200164155,-0.0050339128222305,0.016139754110946,-0.0007562581243812,0.0033449719010746,-0.0002956540976742,0.0262783476566969,0.9996486109527482,0.0445341341716031,-0.0442559293616492,9.786744084365578,0.0007968364063666,0.0132483701543631,-0.0088569357920579,10.986973770281091,0.0225388594782027,2.059892319199928,1109.358464561316,1109.6788899557027,1106.6065813452547,1094.96576724045,-250.5721878617859,6.140487421089476,135.08327915747319,576.6718438457824,153.7889012209097
7.8575,1.0420585923906585,0.6950625429660057,-0.4160348860454231,-0.0045175913528988,0.0186240836918122,-0.0012843170396214,0.0033255020838964,-0.0002862351158728,0.0262702370754387,0.99964889236439,0.043085705837515,-0.044679404626652,9.78958695875448,0.0008924190675592,0.0131637012647771,-0.0088985516291843,10.986975871759048,0.0225721624574584,2.059872186916499,1108.6318120023532,1109.6982658312968,1106.841459897507,1096.44208206591,-262.2413924943031,17.957954638587054,35.41499982811804,503.87366170008306,153.78684433554935
7.86,1.2165638724387327,0.5243898154506453,-0.3666529684950272,-0.0032057917319395,0.0198618727276183,-0.0017404265191102,0.0033053994898642,-0.0002785626640671,0.026261060755459,0.9996491982440068,0.0415852551017482,-0.0450565752601337,9.79241729937598,0.0009760113763204,0.013077264044799,-0.0089359962299317,10.986977766392515,0.0226030271363888,2.0598535510683385,1108.0472575988447,1109.7686797288957,1106.7836563443952,1097.4851355489504,-201.32607259070457,51.81141388711804,-70.21303976121239,376.6665171292596,153.78512567500024
7.8625,1.3601733919057697,0.3695626829389487,-0.3450771132132585,1.2329894436994247e-05,0.0204751729992794,-0.0025145179497344,0.0032855019166078,-0.0002752112384574,0.0262498466413363,0.9996495505014064,0.0401194932647937,-0.0453622970678578,9.795233253699193,0.0010488373223304,0.0129905567269702,-0.0089702260133855,10.986979827906119,0.0226323539176656,2.0598350461395825,1107.6251816393997,1109.9573229007324,1106.4903946987013,1098.3254146515562,-120.91684136380792,123.01611223392946,-161.7935724267716,320.7051054302224,153.783406215214
7.865,1.457130823215014,0.2147813087506339,-0.3451344311038582,0.0059138065488816,0.0208126278670914,-0.0038512829176093,0.0032716320511066,-0.0002733271682553,0.0262356507500299,0.9996499573840146,0.0386671538870488,-0.0454728715074893,9.798034231755214,0.0011123954993689,0.0129045669768058,-0.0090017865591299,10.986982038118644,0.0226615158655858,2.0598160609677225,1107.4426733920257,1110.3837602900653,1105.9746884822612,1099.0886610761015,-3.331842466558944,195.1013613527416,-189.6781965706099,237.81737813106625,153.7813464556053
7.8675,1.4581201921822426,0.1149875498145418,-0.3639520569238685,0.0114800736231223,0.0209461987719859,-0.0050376543057898,0.0032663189009918,-0.0002715186994888,0.0262197494336724,0.9996503827402748,0.0372285997431055,-0.0453318570387176,9.800820192548136,0.0011683806344653,0.0128198177960411,-0.0090306088266825,10.986984340960898,0.0226914142528106,2.059795829207298,1107.6085224270669,1110.9328297074962,1105.542003715848,1099.5145015422115,126.30228118037208,258.8240318944882,-134.91047072707548,126.93887787904984,153.779636320745
7.87,1.3865400170685729,0.0438413755668501,-0.4041996966027074,0.0161255366000231,0.0210410707265402,-0.0056881129623572,0.0032711166217009,-0.0002655349217268,0.0262072843647129,0.999650695139426,0.0357416236193468,-0.0449024940816681,9.803591223297818,0.0012187871054928,0.012736381085288,-0.0090561808803625,10.986986094813828,0.0227222474816993,2.059774250027633,1108.0741847979275,1111.6778804495375,1105.300136128626,1099.7233554654968,245.00958050762688,362.5615072224796,-23.77094077942325,45.4243399385187,153.77793680571983
7.8725,1.2635664651252148,-0.014018536218266,-0.4801269130747457,0.0197910180761046,0.0210885382700398,-0.0057611371993416,0.0032947796525187,-0.0002504966169887,0.0261991119427157,0.9996508471649656,0.0341287896257823,-0.0440077900657875,9.806346123441305,0.0012655990606823,0.0126539042422358,-0.0090779247216077,10.986986880530427,0.022754138316504,2.0597525912159527,1108.8335703296048,1112.7456372436084,1105.4231490119507,1099.7416232419043,280.7374813698576,409.2213682595316,126.8210409472458,-26.464515671523824,153.77591445317003
7.875,1.1724249537901497,-0.0438772184775729,-0.5595834712496993,0.0215478958483807,0.021030759204974,-0.0059232276672309,0.0033332356088278,-0.0002263668046767,0.026193641763103,0.9996508883065676,0.0323942033816599,-0.0427260110049687,9.809082920019021,0.0013106348842946,0.0125721519024197,-0.0090947959620296,10.986987220487055,0.0227861984425621,2.0597309700109614,1109.4778722047768,1113.723987290835,1105.9342413333623,1099.5910328871391,221.60467228246048,396.54534237607487,278.37457729475,-84.16816967606061,153.77424694094293
7.8775,1.1327574281425539,-0.0598907244095805,-0.6304752395866803,0.0228025859512378,0.0209601766005136,-0.0071321212503771,0.0033788112715245,-0.0001985883031429,0.0261863443233135,0.9996509547640356,0.0306409247970861,-0.0412103634179611,9.811797971654743,0.0013554178288588,0.0124909680888142,-0.0091055471414573,10.986988404554525,0.0228179817418748,2.059708897448752,1109.9415936910173,1114.7283639554887,1106.8150218984247,1099.320782393524,133.3031969230916,398.6301356391408,386.1617896706858,-117.20300597435448,153.7726022205897
7.88,1.1492338837566225,-0.0678971838876963,-0.6667071805688825,0.0241848805531647,0.0209306446464012,-0.0093974947625283,0.0034303545109737,-0.0001680917574244,0.0261750636062502,0.9996510990921382,0.0288805996648334,-0.039485815105786,9.814485867876696,0.0014014960446724,0.0124101072078556,-0.0091089888807368,10.986990644459762,0.0228495252457392,2.059686533198656,1110.1443881893922,1115.717137969031,1107.8650502817156,1099.0050178572671,6.452626098189422,387.0664158165792,411.5683013001304,-122.37834214234032,153.77097970869508
7.8825,1.2284363880843678,-0.0690542564759752,-0.6316318412297619,0.0260585127820834,0.0208975468173165,-0.0123346244600026,0.0034850459708617,-0.0001359617039666,0.0261591713056945,0.9996513413461036,0.0271212832345714,-0.0376120935349659,9.817139663090643,0.0014504399783056,0.0123293842386374,-0.0091038519738913,10.986993006871007,0.0228814356100746,2.059662822154373,1109.9738568215082,1116.6636960345716,1108.8728634049253,1098.7088906828124,-154.16478971924664,406.66716529854926,364.0664543127137,-109.30259206343412,153.76938807133948
7.884999999999998,1.3677570633612492,-0.0636599879934252,-0.4903529667498804,0.0290084285986325,0.020721670140824,-0.0154598763976568,0.0035460087884805,-0.0001014622615433,0.0261388555717653,0.9996516615840562,0.0253333965671132,-0.0355334720139319,9.819750559316063,0.0015039146161144,0.0122485826043228,-0.0090891093618341,10.986994463550712,0.0229144862476132,2.0596370817076584,1109.373564240796,1117.7504737955237,1109.6853825532792,1098.4585048969502,-266.7630725611218,394.161847193672,186.4836090331249,-68.25275165401908,153.76751921482887
7.8875,1.4889849689798889,-0.0533272168214079,-0.2962687249983038,0.0321513790617568,0.0204908463555479,-0.0173476811934638,0.0036149244524834,-6.495289753749377e-05,0.0261172079340121,0.9996519725910952,0.0235042450042567,-0.0332255262217167,9.8223086675439,0.0015636057206911,0.0121677264015519,-0.0090640561033983,10.986994067785824,0.0229487286056807,2.0596089013226018,1108.6400414587026,1118.63450527054,1109.805281450091,1098.3676269245423,-308.5366946077529,356.57595062997524,-104.86357428902193,-14.369997244646155,153.76600013738457
7.89,1.5705105955058711,-0.0373660162888193,-0.0486287515770388,0.0361798111079535,0.0202776180934383,-0.018337604941113,0.0036939632929438,-2.4452626094980062e-05,0.0261002284517953,0.9996521129373104,0.0215728885033717,-0.030655769224021,9.824803596870785,0.0016310612119494,0.0120872403271034,-0.0090286807612815,10.986991592579995,0.0229831558872012,2.0595795188366264,1107.8308807677568,1119.5333535486739,1109.161064681834,1098.3866549107267,-331.96708208052564,407.53048341080967,-473.4355513990168,19.92650500815259,153.76452576545455
7.8925,1.5717716153805077,-0.0142394953142517,0.2645918042390071,0.0418500501389493,0.0200965614754989,-0.0181351947132989,0.0037911946591527,2.6700882269592137e-05,0.0260924137831892,0.9996519384789568,0.019388316781399,-0.0276761621682149,9.827224553838985,0.001707317000024,0.0120079975153165,-0.0089840323712998,10.98698773607842,0.0230164325245197,2.059552430127015,1106.9802060483,1120.672157687594,1107.4381036930959,1098.467259449583,-265.9657267386194,430.9525939408196,-778.0872951348723,24.368110027854136,153.76281410408353
7.895,1.4649036829941815,0.0051205234728093,0.5007062804826676,0.0466618768074255,0.0200165742224171,-0.0166567641640233,0.0039053200931138,8.887113818793062e-05,0.0260956130881883,0.99965140582492,0.016918947800324,-0.0243288047911133,9.829561794907693,0.0017923971268129,0.0119315685923515,-0.0089318012379762,10.986983575407274,0.0230471821830949,2.0595294031526694,1106.501052134064,1121.688116518378,1105.2706282061597,1098.5084954608662,-124.19510189706934,417.5634497173267,-981.533956127826,-8.67315622494989,153.7614401241739
7.8975,1.2313364983340604,0.0194175461950208,0.6696942585194656,0.0509167449825385,0.0200048687851012,-0.0139096580540335,0.0040281685427828,0.0001542918893764,0.0261061689697389,0.9996506388632465,0.0142916615860258,-0.0207979844183073,9.831807086347984,0.0018850493075639,0.0118599544149256,-0.0088739686692895,10.986980311587672,0.0230753136129714,2.0595099780663326,1106.3592305388147,1122.7599749361807,1102.5304339124568,1098.4238936684583,20.964366890121248,470.9575497187516,-1274.109041658248,-87.07432976848581,153.76012594798686
7.9,0.8111024676225589,0.0235654171147302,0.7673716977944093,0.0550620494955576,0.0200583025567339,-0.0098552044242284,0.0041530192900069,0.0002187413461921,0.0261209474956391,0.9996497428887572,0.01156854814921,-0.0172408401124988,9.833953719279757,0.0019830892386646,0.0117950622150497,-0.0088124288579017,10.98697883262012,0.0231011645812589,2.059493582193887,1106.6058739685143,1124.0429042669716,1098.9000829978684,1098.0731238120238,152.93066739268724,454.2654971644976,-1334.7515410279186,-180.31665219182673,153.75862449195537
7.9025,0.3635031904194245,0.010578849479522,0.7621970195552663,0.0573820961613241,0.0201490594781662,-0.0068127978478816,0.0042691214165847,0.0002756486780646,0.0261375354607426,0.9996488237308252,0.0088614261581563,-0.0138976397631819,9.8359968184378,0.0020834421048731,0.0117384567822378,-0.0087483981612592,10.986979169055772,0.0231257364262765,2.0594782888141854,1107.123883875778,1125.0313024220031,1095.8566762073172,1097.5223104074992,254.97943126602513,358.3320977652496,-1157.4509277142415,-277.4543861297448,153.75744067192284
7.905,-0.146860428350063,-0.0258478550458495,0.6923745659626606,0.0578994423179865,0.0202677356198792,-0.0049642692934651,0.0043689252447571,0.0003165313851137,0.0261499057260679,0.9996480719047875,0.0063279566229463,-0.0109485054951038,9.837932176753991,0.0021822760751393,0.0116909981498399,-0.0086822965678838,10.986982287902235,0.0231503238245545,2.0594627411250404,1107.8807711248446,1125.8345647557978,1093.1128283592975,1096.6858518813751,327.2338192111944,278.8493931845156,-1005.3631897906358,-378.14939675123134,153.75633091883748
7.907499999999998,-0.6729674957796029,-0.0853969438280673,0.5968739476331278,0.0566922149972331,0.0203798479327375,-0.0041070624681934,0.0044472789846133,0.0003357265897879,0.0261526195257783,0.9996476559317184,0.004079087259306,-0.0085259958466197,9.839755885344692,0.0022755080795188,0.0116527426076472,-0.0086136520428722,10.9869889252223,0.0231757701099583,2.059446093814021,1108.760052971834,1126.4255493879257,1090.8298602583643,1095.631563423743,365.7994176956058,179.24462648784737,-763.0768420617349,-463.74335439332833,153.755284541235
7.91,-1.1741397182362867,-0.1744394243331469,0.4999464881836273,0.0536192871195521,0.0204155320464655,-0.0038738400281811,0.0044963033218626,0.0003305629590175,0.0261429002859752,0.9996476881130046,0.0021733508253153,-0.0068148513392129,9.841464428352593,0.0023592928172133,0.0116230673343501,-0.0085411079189529,10.986998669317432,0.0232022888349611,2.05942679539672,1109.7097682133226,1126.730787888237,1089.2974441489887,1094.3671351094083,422.43245081806646,70.78610082284088,-473.3954811829504,-585.1625442008293,153.75431557979624
7.9125,-1.7016686474020437,-0.311617543965151,0.4024907867384494,0.0481464415637561,0.0202237314531883,-0.0035309675932424,0.0045162265117438,0.000304491024743,0.0261209913859189,0.9996481634821016,0.0005605551933537,-0.0058361696184709,9.843052699274049,0.0024305385324774,0.0116006113897626,-0.0084629769515571,10.987010238700543,0.0232304600100363,2.059404114491563,1110.8722152259247,1126.77947989204,1088.4628828524492,1092.7057507027384,427.2392970668625,-29.038647039806783,-138.1636825519338,-613.5365741942809,153.75324186904635
7.915,-2.0605682573935846,-0.4430709349038925,0.338922330247897,0.0425652940410803,0.0197185938004021,-0.0029120228328451,0.0045130902115719,0.0002647311413573,0.0260909511375496,0.9996489528195792,-0.0008739184710329,-0.0054927498668307,9.844514050429629,0.0024872320531436,0.0115835162549817,-0.0083776686487273,10.987022123620632,0.0232606675846718,2.0593783414802647,1111.8459646986569,1126.585594653038,1088.6066257362293,1091.2994522384372,390.29324450603696,-119.35993145639512,209.64620864215692,-537.0030422663718,153.75241972965293
7.9175,-2.331758150356249,-0.5760248609339171,0.2870869537000794,0.0368026073354319,0.0186514949854897,-0.0020268933167892,0.0044948085253237,0.0002203786267542,0.0260584486958745,0.9996498790769542,-0.0022752105297507,-0.005646816585376,9.845841120945218,0.0025285059877238,0.0115697753932839,-0.0082841210618209,10.9870328722811,0.0232924112693316,2.0593505124420775,1112.8236814484549,1126.182680234758,1089.51111389566,1090.0207354914066,427.57390369202767,-222.04279549574056,526.7227034780375,-494.81888489541376,153.75166960183168
7.92,-2.568185398173077,-0.7128588572247149,0.2293736075445148,0.0301636729341497,0.0165544560755568,-0.0010356323549858,0.0044766569277465,0.0001814175706643,0.0260279017353915,0.999650760888273,-0.0037983860695638,-0.0060119447920151,9.847025631951352,0.002554489562207,0.0115574383016227,-0.0081823463335443,10.987041790876644,0.02332534131862,2.0593230225406396,1113.9838342171167,1125.475380675559,1091.2402392536192,1088.82535781396,414.3944385135089,-296.93295816137555,700.2686165503895,-357.65000140573494,153.75084697779627
7.9225,-2.70123030952756,-0.7904819455555002,0.1809028369483565,0.0246144474940737,0.0141795350102671,-0.0004184927196409,0.0044624777206671,0.0001522441840172,0.0260044947657224,0.9996514439499185,-0.0054919451585719,-0.0065261418094776,9.8480619414078,0.0025660428247297,0.0115451392108646,-0.0080731941754786,10.987049203772514,0.0233584761584174,2.05929728111009,1114.8956536410224,1124.6980154439511,1093.0124569784118,1088.232485484378,334.51857720729805,-350.9085573136492,730.254248766748,-135.76617465310227,153.7502210437492
7.925,-2.7712312691547254,-0.8161429366209663,0.1299795716535008,0.0186508606403696,0.011605402196751,-4.651433822596816e-05,0.0044523531564152,0.0001351323044418,0.0259905442205107,0.9996518675762144,-0.0073637154361558,-0.0071989539388551,9.848946710114582,0.0025644754047425,0.0115321006100751,-0.0079584157640174,10.987055408914271,0.0233907010022932,2.059274176766583,1115.6564271031534,1123.7208378889911,1094.891510497453,1088.1465269406947,273.2027310979505,-472.1155134458614,806.2234253692793,81.96218729372222,153.7496508456387
7.9275,-2.772799706266733,-0.7834650055650609,0.0650645368867551,0.0108590257793522,0.0087281171090449,0.0001639732866546,0.0044516708540261,0.0001355055012641,0.0259869231769726,0.9996519830432278,-0.0094812395293725,-0.0079302674464322,9.849678178557767,0.0025514361443686,0.0115179461012807,-0.0078405487594965,10.987060383656807,0.0234212764393068,2.059255256715376,1116.261667296512,1122.3374378767219,1097.043574105258,1088.6422964208466,154.58142457944035,-532.3002054485264,748.0687404065261,272.0534395078205,153.74902421747652
7.93,-2.6935324102843183,-0.7087476736461403,0.0067420871262973,0.0037720636257262,0.0064815438779485,0.0001841379150587,0.0044570411050925,0.0001512080343028,0.025992561065821,0.9996518282595708,-0.0117688471731542,-0.0087930766691829,9.850258606893185,0.0025285407258822,0.0115027585588342,-0.0077221662362749,10.987064521842171,0.0234497003757146,2.059240127487991,1116.4293342260507,1121.059336861748,1098.6318541994863,1089.506794138234,-10.64045485700285,-515.5054409973328,576.9940659485777,417.9039337405446,153.7485452482416
7.9325,-2.5200902996083405,-0.59890267928481,-0.0583236879685504,-0.0035518859469607,0.0047336568582454,7.425480565591274e-05,0.0044631467518728,0.0001752510511668,0.0260036773080541,0.9996515225440916,-0.014059128903935,-0.0098971357662059,9.85069338248409,0.0024972436857033,0.011486703166703,-0.0076054798111377,10.987068743482922,0.0234763144908425,2.0592274906159,1116.208465022227,1119.7599106717353,1099.9285444350007,1090.7318160895493,-178.2679128954025,-543.9118835841898,502.34901679819967,589.4937022385545,153.74810566142637
7.935,-2.208525222421635,-0.4497197718907782,-0.1481386850906615,-0.011538842927912,0.0034149769604467,-0.0001985955040415,0.004469026420936,0.000203183033449,0.0260174773494193,0.99965114118563,-0.0162353695099881,-0.0112611935041967,9.850989793145677,0.0024589656378627,0.0114696261560782,-0.0074920081875567,10.987072957864227,0.0235016295542854,2.059216557003752,1115.5379946615735,1118.3397774438272,1101.1435992834772,1092.4542626494267,-297.6161940476295,-474.7777843036248,399.20304022917605,646.9514048072734,153.74761762540447
7.9375,-1.881678824553514,-0.3281393168127464,-0.2358362279477274,-0.0168997547026858,0.002943973036514,-0.0005417556868082,0.0044685551048813,0.0002264534687983,0.0260296537008453,0.9996508240527876,-0.0181063769365436,-0.0130035604513946,9.851157911876719,0.0024149273425838,0.0114509891720489,-0.0073821167743895,10.98707672352508,0.0235265528410925,2.0592048138627006,1114.7203840519887,1117.3860217502172,1101.9245596361468,1093.9665731135856,-356.97289535879315,-315.2152892788376,286.6757390507307,588.0398207302403,153.74723959349475
7.94,-1.5199217735254467,-0.2246270111622093,-0.3395263745881968,-0.0206745711357949,0.0031131825933039,-0.0009765044003561,0.0044547459601599,0.0002355760336351,0.0260349460639131,0.999650742660629,-0.0194668867051531,-0.015255400818462,9.85120925364428,0.0023661919837114,0.0114296799008574,-0.0072750943312805,10.987080585579369,0.0235521305528788,2.0591900203390496,1113.7531301847798,1116.763700997433,1102.5769779787308,1095.3944617530778,-394.0198023857731,-188.7769971597704,259.35179027524646,534.0118070354151,153.74688650919785
7.9425,-1.1570691557845487,-0.1396360490625951,-0.4563070031897786,-0.0232635436805895,0.0035680837795333,-0.0014284324646615,0.0044268304394684,0.0002285519412782,0.0260300424041089,0.9996509880299228,-0.0202599251381156,-0.0180165486438738,9.851154952425603,0.0023138496537847,0.0114039172797554,-0.0071695990253375,10.987084798818996,0.0235791383620161,2.059171697898173,1112.75028504006,1116.4421367644184,1103.221318587523,1096.6366321487626,-391.0208625645821,-59.39235636083266,275.77176608461417,430.9840191567311,153.7465507014256
7.945,-0.8200034465481493,-0.0684343092943418,-0.5829944689824417,-0.0247724629637741,0.0037534623485489,-0.0020474200387391,0.0043852856135689,0.0002092183470353,0.0260144522602428,0.9996515721701374,-0.020546952806526,-0.0212540463285168,9.851006016766307,0.0022590614595535,0.0113714804191984,-0.007064076568963,10.98708922926698,0.0236077875446055,2.0591502607352243,1111.7980258719567,1116.4667392156289,1103.9558368091539,1097.5493818488615,-387.89801608132535,79.40944148827097,356.1489154672093,315.90195173653893,153.74623181619643
7.947499999999998,-0.4660865742450615,0.0243291452751514,-0.7279361000814814,-0.0259215993081231,0.0032279371351608,-0.003547673237242,0.0043382756787958,0.0001869428769824,0.025990885356498,0.9996523858437768,-0.0204986474868849,-0.0247754637284319,9.850772535622461,0.0022031231020159,0.011329860451639,-0.0069574452397722,10.987093396165903,0.0236385821595169,2.059127432019219,1110.8107949596535,1116.8391839718597,1105.002063164859,1098.2161419074453,-326.3299931233702,184.28949094818955,406.4999918395729,182.5581326163995,153.7458639428098
7.95,-0.2188181917395487,0.1248919350162235,-0.8226600502859318,-0.0264219491623595,0.0023521126518093,-0.0056870360732219,0.0042897436838518,0.0001681440369288,0.0259644044323311,0.9996532782902742,-0.0202340971375862,-0.028468159597062,9.850465597480255,0.0021473597820129,0.0112767393083144,-0.0068492449922456,10.987097118688752,0.0236712025540882,2.059104223379409,1110.16637590634,1117.3881866703698,1105.9883367683517,1098.4621725119434,-216.19838887455705,261.03006134522286,397.0169639296107,62.16248170147929,153.74556642262792
7.9525,-0.0200834879235987,0.2580515685774051,-0.8662216430440876,-0.0263254554354548,0.0015267354805592,-0.0085884558007874,0.0042432367688776,0.0001584011938784,0.0259414521029931,0.9996540685963464,-0.0198604135453619,-0.0322235243946826,9.850097056290352,0.002093114262269,0.0112102432218812,-0.0067399006795937,10.98709999766895,0.02370432944963,2.0590821381922706,1109.7298030152804,1118.144334278586,1106.9871479845071,1098.5269543159527,-150.0473418600482,377.0709119539868,405.30466796791137,28.27165693120211,153.74527460907927
7.955,0.1707053314725215,0.4407625778660897,-0.8438272447864729,-0.0257628860019407,0.0012614962390878,-0.0122945815553047,0.0042082034954533,0.0001612847160282,0.0259255438486457,0.9996546270577799,-0.0194464085502104,-0.0358145530501343,9.849679332139907,0.0020415668160533,0.0111290766093427,-0.0066308325196101,10.987102281358492,0.0237368746232213,2.0590635830120765,1109.41613919704,1119.2735412301397,1108.0148601081912,1098.6035307965994,-92.37474588735692,450.5792127380669,321.23895502350706,55.80417866517682,153.74492706781183
7.9575,0.3005748112322618,0.5848076517883299,-0.7651176902508589,-0.0252128660742517,0.0019788224693045,-0.0151056167004639,0.0041850316505475,0.0001732837951474,0.0259171632850425,0.9996549395972704,-0.018930060909666,-0.039194147398579,9.849227151264701,0.0019936028475129,0.011032754895955,-0.006523818972316,10.987105029079896,0.0237677159152285,2.059049525337429,1109.2679292858438,1120.3972303422763,1108.5933427596249,1098.8059752092784,-57.07953409401065,484.5659000006538,151.11529543010286,132.3861839536249,153.74463695729088
7.96,0.4152493289940701,0.6748937997000761,-0.6427042794318538,-0.0245395190086509,0.0038798590389402,-0.0170299358047629,0.0041679462070802,0.0001855976900838,0.025910438173702,0.9996551820359632,-0.0181519522071972,-0.0424382931426334,9.848756924737788,0.001949776451102,0.0109214431138877,-0.0064205297994327,10.987108757119543,0.0237970366784282,2.059037916770468,1109.1307415265699,1121.6963707301427,1108.7704365853417,1099.2654617163676,-81.58434065358225,599.3461442925891,-21.2306257944424,267.7550968223897,153.74434336652527
7.9625,0.5506594502061514,0.666966341151831,-0.4787156851961842,-0.0234905115329424,0.0073924180042711,-0.0181038729076501,0.0041550657632369,0.0001948718004971,0.0259004564079216,0.9996554876805428,-0.0170611807098081,-0.0455435249569331,9.84828534048832,0.001910716431775,0.0107955966285503,-0.0063222448347704,10.987113279805072,0.0238254819023594,2.059027181195965,1108.860007582576,1123.3939610637392,1108.4871896306527,1100.1447506933905,-126.64956373173752,627.1012739628666,-177.2149758114248,366.34293423490686,153.7439838029343
7.965,0.6695888164698944,0.5364688343190571,-0.3508495242253963,-0.0224662878645852,0.0108452868150746,-0.0181557333430059,0.0041443579086523,0.000198528110072,0.0258845412779351,0.9996559346198522,-0.0156252243865556,-0.0485100824848933,9.847829388610032,0.0018772218330393,0.0106558746133747,-0.0062295511200267,10.987117876458187,0.0238539284513039,2.0590159583256384,1108.4974937079112,1124.8318770999572,1107.8843617062846,1101.097176387542,-170.55743062760848,548.2268687491004,-293.2573204545014,398.33222620041784,153.74367572738694
7.9675,0.798447641738872,0.2726444270933293,-0.2478257536126133,-0.0212636002517929,0.0138498055866886,-0.0178289040069382,0.004139370101064,0.0001995821575598,0.0258625216824022,0.9996565114095608,-0.0139215983241679,-0.0512277296406412,9.847405351504099,0.0018503907952882,0.0105030504555154,-0.0061424428602902,10.987121584618098,0.0238833049366289,2.059003797847777,1108.007220429438,1126.1350954074846,1107.02090302838,1102.1364118243923,-204.12589533698767,471.91520296411096,-365.29456094077295,402.494018559409,153.74335586978333
7.969999999999998,0.932214263606971,-0.0799609581088255,-0.1647880617202948,-0.0197305335772582,0.0155953985683535,-0.0176756713972317,0.0041383533375694,0.0002017433527673,0.0258372495772811,0.999657152396104,-0.0120466078262232,-0.0536934671683482,9.847028997635762,0.0018315190893017,0.0103382627958447,-0.006060238311989,10.987123638604784,0.0239132634120404,2.058990347102831,1107.4768642312263,1127.1914531147777,1106.0578889015808,1103.109646480339,-196.4840920620232,333.9771594901393,-381.2145460847286,340.90854270640006,153.74302385420202
7.9725,1.0598786298933782,-0.4868448103306204,-0.0925284842498842,-0.0174625542155616,0.0151523191796935,-0.0180330283767402,0.0041377626433758,0.0002103328381449,0.0258148490760665,0.9996577181405372,-0.0101312200825119,-0.055943118792827,9.84671467540339,0.0018219369402183,0.0101631263871314,-0.0059818575500643,10.987123938031065,0.0239425724695667,2.0589757649676206,1107.0247999691276,1127.8049812049353,1105.1148302979564,1103.8409545379243,-145.25387040396257,144.137354597183,-382.52517931381067,234.663894622108,153.74267413255978
7.975,1.1848831351645126,-0.9544931857353,0.0038009435023836,-0.0138232940034709,0.0119647816644861,-0.018813168869915,0.0041399724576343,0.000233405102885,0.0258012325948295,0.9996580490531806,-0.0083585568100155,-0.0578997147309601,9.846474458868938,0.0018226989000004,0.0099797098424646,-0.0059061689138313,10.987122969293019,0.0239699215075584,2.058961932310916,1106.7505948792063,1127.9121398877635,1104.1452630050114,1104.2829659534495,-34.872074121722854,-68.40742475883563,-318.22146289787946,77.60881579270227,153.74222986524268
7.9775,1.2518734836418757,-1.270965644537922,0.1039215072915091,-0.0103906693055867,0.0075845487926672,-0.0193965270761505,0.004139583442451,0.0002702599858368,0.0257989122290405,0.9996581025882436,-0.0067438713362373,-0.0596494491095375,9.84631845744272,0.001834164051199,0.0097905888603385,-0.0058317986213151,10.987121936381076,0.0239940346407445,2.058949329243613,1106.8504395985192,1127.4629440811411,1103.5237229834672,1104.228998616888,119.44278284418289,-277.27950778708555,-211.60361122988883,-111.14152725117728,153.74183598623515
7.98,1.2715162696924287,-1.467293051449072,0.2282706367940451,-0.0069475192090822,0.002492066419555,-0.019600011908674,0.0041329862031381,0.0003082644425941,0.0258026093861263,0.9996580264547176,-0.005066161842959,-0.0612551842656645,9.846253928769762,0.0018557669243776,0.0095984413208385,-0.0057572577967885,10.98712180727588,0.0240153299999835,2.0589363927716,1107.3478087934272,1126.5257423488283,1103.087244948862,1103.727258317194,301.9027735788832,-490.9801153056028,-166.0006251301219,-315.0532293951595,153.7414136270023
7.9825,1.2402903286735651,-1.5502801515484084,0.3959023880604694,-0.0031758443871666,-0.0035690402871778,-0.0191626422011234,0.004122404640169,0.0003372929611826,0.0258075689192129,0.9996579303363,-0.0031500070211014,-0.0626694873523752,9.846285056918074,0.0018863903633619,0.0094055985266586,-0.0056809408993629,10.98712316269312,0.0240348872000716,2.0589226262737723,1108.3599534664136,1125.0080435046132,1102.6937198578166,1102.6537324699123,420.6921251292077,-589.9773484152901,-139.15366205419855,-460.359903259642,153.74086929761555
7.985,1.172636982348915,-1.5050154029526903,0.5369684531392994,-0.0004339002903742,-0.0081574960880023,-0.0181093106180906,0.004107234116476,0.0003485297175188,0.0258091249658822,0.9996579374144946,-0.0008458382461326,-0.0639054834259962,9.846413487387329,0.0019245000475849,0.0092138684193738,-0.0056010654918339,10.987126607049625,0.0240538583780457,2.0589073051983897,1109.4512694190732,1123.575855606752,1102.391476638591,1101.4254588008955,455.56473967240953,-568.2054505352093,-131.85058374724855,-541.6325704008275,153.74038145196172
7.9875,1.0666004887355136,-1.3758068737883389,0.6593493966813847,0.0021753885557518,-0.0115825513328471,-0.0163180586711029,0.0040890410184099,0.0003367379199568,0.0258010623778453,0.9996582059440516,0.0019283404750251,-0.0649367377352874,9.846638561206802,0.001968389477161,0.0090243660729428,-0.0055159757952286,10.987132226987498,0.0240735654705005,2.0588899112776216,1110.6377771647756,1122.1670162519372,1102.0344669390804,1099.945569617908,505.3997774205635,-577.2260243815376,-176.24863660271703,-681.0970314492041,153.73985516334355
7.99,0.8988215509223713,-1.1736700720357989,0.7645658597057605,0.0055476088173266,-0.0140759664261697,-0.0136241046325886,0.0040721438210182,0.0003030242808118,0.025781179715292,0.9996587808716066,0.0051326268642384,-0.0656839024942752,9.846958067750487,0.0020166104986152,0.0088375527705381,-0.0054244438798779,10.987139302085165,0.0240949647975117,2.0588703364705814,1111.978268306176,1120.6897254848443,1101.5102334555775,1098.0199736436496,454.1834334323738,-489.938761812178,-203.17030787997743,-706.1013208083556,153.73917666270893
7.9925,0.7309569483781609,-0.9954564541598556,0.8092820094271037,0.0084026665679988,-0.0154227014043278,-0.011321765642805,0.0040589656821447,0.000256163460769,0.0257536069130918,0.999659549518945,0.0085764637343787,-0.0661050966604965,9.847369435983031,0.0020682841633513,0.0086534998607348,-0.0053259177548143,10.98714740722282,0.0241175520288003,2.058849912324732,1112.9086943319376,1119.717322442876,1101.0186153996804,1096.4150630138658,315.1853220039424,-331.724943851448,-192.91159749650845,-608.5279640721767,153.738570855814
7.995,0.5520865683949457,-0.8235183892263979,0.8077753917796378,0.0104121358233808,-0.0169895130417105,-0.0091251021054785,0.0040592827700792,0.0002097536095095,0.0257245038648338,0.9996603114052633,0.0119791815519861,-0.0660147206111675,9.84787055001018,0.0021231593532272,0.0084720762086992,-0.005220926075184,10.98715565663673,0.024140997025488,2.0588313436046186,1113.5541949161957,1119.031100765587,1100.5456754680947,1094.9773338232887,206.28490951440185,-235.402730413221,-171.44641054801835,-522.4359056013893,153.7379223002571
7.9975,0.3865879753335693,-0.6570388427781959,0.7712152394042702,0.0113296512240091,-0.0187728849325946,-0.006998498618632,0.0040722888349658,0.0001715954710845,0.0256992528738603,0.9996609258035636,0.0151697309042773,-0.0654414091756159,9.848460819564993,0.0021815240296683,0.0082933771411258,-0.00511077663047,10.987163025251304,0.0241644619200176,2.0588150889463055,1113.9401188795096,1118.5403087908098,1100.1613833469403,1093.8028834858587,97.42981049039581,-168.78957791164245,-115.77947920732431,-382.5347132668039,153.73723818817083
8.0,0.2664408515875814,-0.4928908204993404,0.7002241969868331,0.0110256486767646,-0.0204208707493379,-0.0050231168597428,0.0040938430995975,0.0001434769011284,0.0256826387437538,0.9996612844169898,0.0180942135668422,-0.0644850307424579,9.849141478261258,0.0022441350333975,0.0081177782395693,-0.0049974532384487,10.987168686127776,0.0241871307466833,2.058800817425828,1114.0413439686477,1118.187152876029,1099.9667780720583,1093.0646602569548,-2.1731067755358486,-153.50979968041756,-27.360479218446912,-209.529822045666,153.73651168670642
8.002499999999998,0.1989013124141567,-0.2963997320584744,0.5898400062083317,0.0099845532186495,-0.0218337311657934,-0.0030396618023817,0.0041273964199067,0.0001286889607898,0.0256783459736328,0.9996612767660163,0.0206731094910916,-0.063097308610116,9.8499159131309,0.0023120690445543,0.0079458493218152,-0.0048834685972924,10.987172323654,0.0242083785770438,2.0587895125825386,1113.929253345632,1117.772759792408,1100.024580950848,1092.7552343756308,-60.43962474349392,-170.30503007283252,72.96392182614677,-21.39905395337912,153.735592112559
8.005,0.2067001489632956,-0.1352341823747321,0.4898857198750083,0.0094574049101153,-0.0222405634341668,-0.0018763147773226,0.0041706117283868,0.0001247960032491,0.0256859102997761,0.9996609236304728,0.022936812138389,-0.0613483500565736,9.850789704048708,0.0023863055364974,0.0077784220203435,-0.0047713219943848,10.987174590137313,0.0242276040117358,2.0587813327830324,1113.73914584493,1117.3356277256646,1100.3315976811891,1092.957664987188,-69.5925140464515,-209.9834541867166,170.50354779432445,155.71827742084974,153.73478698124575
8.0075,0.2610370032666673,0.0196804036470253,0.3969890814631888,0.0099737064299579,-0.0218124021369152,-0.001309852977744,0.0042157770103756,0.0001218399003751,0.0256983470650183,0.9996604339305372,0.0250612727238035,-0.0594188351043913,9.851770082425215,0.0024674066985782,0.0076164229863843,-0.0046631258424109,10.987176972027532,0.0242453330682973,2.058774864531711,1113.5812907753996,1116.722842521474,1100.8770986898198,1093.5338257627352,-31.314108379917208,-315.5290630535719,276.19712612891857,302.5525488370169,153.73394260278695
8.009999999999998,0.3458944941117775,0.2011526943259073,0.3049009018141194,0.0113424887127323,-0.0210738530928442,-0.001112306204233,0.0042588164553361,0.0001165967630323,0.025711066278724,0.999659937125026,0.0270914745915408,-0.0574154197866129,9.85286572073087,0.0025556559138562,0.0074605585608952,-0.0045603689297941,10.98718013217177,0.0242622614132089,2.058769039107318,1113.5825753030304,1115.757982410397,1101.7125833118334,1094.4704277313729,51.3973585974429,-387.0658398754901,316.5176196591067,354.5302167827936,153.73288500017878
8.012499999999998,0.4108219002580421,0.3570906581112205,0.2444018212942894,0.012696587137688,-0.0206235934354552,-0.0010454698705969,0.0042958683639554,0.0001079194647064,0.0257208244509684,0.999659530801804,0.0290317416850687,-0.0554399796090932,9.854085558912985,0.0026510038404341,0.007311239219089,-0.0044637286880172,10.987184383987104,0.0242790121697474,2.0587628648349128,1113.8382775683867,1114.787513322097,1102.459686788115,1095.3064768466488,168.7285025635183,-409.3183720599696,282.0821967055067,315.1354937362574,153.73196733359393
8.015,0.4508505180502017,0.5292528145201242,0.1903456098638648,0.014220416308297,-0.020152916870218,-0.0006270619894057,0.0043276743694474,9.653216755311353e-05,0.0257240409964126,0.999659305539156,0.0308524348233295,-0.0535026130030558,9.855437265597631,0.0027531358121296,0.0071685267134456,-0.0043731370123443,10.987189749895576,0.024296143882296,2.058756249415416,1114.4262178158483,1113.711390550097,1103.1229942953612,1096.0461052000544,332.1498686235763,-478.0978254192794,242.85740279152216,281.23125843626593,153.7310125625351
8.0175,0.4583493560990722,0.7594336398420706,0.1137731089681358,0.0160169538773332,-0.019128046253296,0.0003998359651682,0.0043541123071682,8.394171138124929e-05,0.0257209897021437,0.9996592612782312,0.0325088965103912,-0.0516297013517235,9.856925991019475,0.0028616504689874,0.0070322199440394,-0.0042877870227387,10.987196066718157,0.0243136798168253,2.0587491417649955,1115.499026911505,1112.3970241950003,1103.6739738020729,1096.7126331388304,437.22570128342846,-470.9990786994267,145.7602617507581,203.7185103154066,153.7298244719084
8.019999999999998,0.4285885217172002,0.9654300660307024,0.0291118519039677,0.0173113844073434,-0.0175666835402699,0.0014691439990607,0.0043760269781497,7.393106352816014e-05,0.0257167359444363,0.9996592728594468,0.0339133936248914,-0.0498267391495204,9.85855299345691,0.0029761934962413,0.00690192472563,-0.0042062552422247,10.987202657104588,0.0243311933556263,2.0587417555296414,1116.612346322265,1111.3563951566002,1103.8517956041148,1097.0646977516312,456.56959883096664,-387.4368712648752,6.312539488407233,107.57477166128548,153.7287993691625
8.0225,0.3641272299349705,1.1700535841978608,-0.0787772728859749,0.0182455405350934,-0.0150079407756284,0.0023965892422919,0.0044025847566219,7.27247365037636e-05,0.025714509751096,0.9996592198134568,0.03493620176773,-0.0479323058799837,9.860313876089613,0.0030964075800919,0.0067771053317007,-0.0041266747097278,10.987208832071728,0.024348568686205,2.058735325753324,1117.7818749056603,1110.4598398386756,1103.705536499515,1097.2505069971369,448.2362733776635,-320.8533590377964,-106.60817709852532,59.91715486974472,153.72773815240998
8.025,0.27445744283993,1.358210242409213,-0.1953543049403495,0.0189847940423325,-0.0116738023983894,0.0027990866031122,0.004431445559738,7.903087198452148e-05,0.025716459228158,0.9996590513420736,0.0355922388972339,-0.0460135975401997,9.862197878220872,0.0032218238856315,0.0066572885994254,-0.0040465071878802,10.98721489357857,0.0243653611074802,2.0587290872921717,1118.8535276891537,1109.7521283614108,1103.318754718622,1097.36428352598,376.6485813479743,-218.69916478803847,-194.389037844569,45.18844421987513,153.7266472408776
8.0275,0.1585157720560617,1.5104313808392968,-0.2968620158592551,0.0196579444874749,-0.0078574084830656,0.0020304431772991,0.0044566043663607,9.036379309731341e-05,0.0257243874725428,0.9996587435259264,0.0359208981433817,-0.0442085309004244,9.864187211796535,0.0033518512125195,0.0065419796997969,-0.0039626061856666,10.98722134466276,0.0243812926775358,2.058721592808604,1119.6651178123996,1109.3663440147357,1102.7335913102922,1097.4764492182362,277.7586410175088,-70.27635943851726,-270.48097585730756,65.26494160326753,153.72552108070255
8.029999999999998,-0.004222644922837,1.6379044441848731,-0.3640547072253149,0.0201210354581028,-0.0031787026936382,-0.000106504853608,0.0044781771929388,0.000106837708413,0.0257406731236067,0.9996582316765972,0.0359166295548481,-0.0425307104785184,9.866256309491364,0.0034857809734285,0.0064305159303041,-0.003871431678925,10.987228299799144,0.0243964648162092,2.058712619487196,1120.2423208942407,1109.4007465642185,1101.9663498393359,1097.6906082339963,145.7000648580333,110.49046226565316,-266.57382849184995,97.39222067967903,153.72413001732423
8.0325,-0.1520081027476567,1.691834875618895,-0.3555898608251685,0.0200191804111829,0.0007415691801308,-0.002416148733448,0.004491927300581,0.0001250165127469,0.0257631344440424,0.999657589430141,0.0356454107481508,-0.0410784840922978,9.868372111129847,0.003622679020501,0.0063221076308992,-0.0037691816513421,10.987235589356311,0.0244110343537505,2.05870166038236,1120.39361813669,1109.918796326064,1101.4007221678328,1097.9634103216347,6.410435636597775,316.5836111756521,-185.03818049509223,128.6418794159798,153.72293878680102
8.035,-0.3012837012512578,1.6848371197179512,-0.2780708615457764,0.0194031888877863,0.004918657001147,-0.004639123124231,0.0044941844374002,0.0001398868446883,0.0257843797473704,0.9996570250879357,0.0352087194929516,-0.0399368600874668,9.870494508948607,0.0037614065354236,0.0062157482742616,-0.0036521614118737,10.987243244144542,0.0244257998500691,2.0586880257282205,1120.274373072424,1110.9836646200968,1101.0411589368603,1098.3338176310763,-88.2936478104687,584.8564929593321,-93.56871687688952,179.41534606697064,153.72171589436468
8.037499999999998,-0.4691599691941181,1.5996630687298876,-0.1332983057163747,0.0181299843670781,0.0103600412584414,-0.0061388324449768,0.0044875647645066,0.0001505586121645,0.0257993162720506,0.9996566608957564,0.0346342055112062,-0.0390624402167671,9.872577507470831,0.0039007586035565,0.0061101363141456,-0.0035172106364263,10.987251036802304,0.0244417303720408,2.058671748676587,1119.9521498976378,1112.84307879086,1100.9328785834484,1098.8604870519691,-128.31682538069612,756.7917090595255,14.945755673122612,199.20352306459404,153.72021403787755
8.040000000000001,-0.5916450947468938,1.4654940666856795,-0.0057496347244383,0.0167314974753428,0.014850858101891,-0.005755312481143,0.0044761315783223,0.0001587750739811,0.0258067293872035,0.9996565148462294,0.0339028572847724,-0.0383799450941077,9.874571132648237,0.0040394552904061,0.0060038385435375,-0.0033620910764034,10.98725878634444,0.024459343291072,2.0586532822824823,1119.6327889455204,1114.7676231653952,1101.1158877152259,1099.3298352463992,-121.13670930105324,806.0227877246793,117.83037580878931,181.13742693796564,153.7189357260801
8.0425,-0.6889692124697071,1.2786667855776364,0.0841294875207354,0.0150061644916814,0.0185838263265431,-0.0041786910177561,0.0044708247440341,0.0001696304377235,0.0258062042124549,0.9996565499488704,0.0329377495188703,-0.0376747311613471,9.87642312867046,0.0041760674432326,0.0058955306044328,-0.0031859484323993,10.98726643428804,0.0244789782251357,2.058634556681167,1119.3464663511324,1116.873192729484,1101.5220304624925,1099.766174186659,-109.95746546002378,908.429118550656,206.25066271408753,165.80569809055876,153.71763217588736
8.045,-0.7720731326504124,1.0221287041437963,0.1176146492420534,0.0125053073666218,0.0218658142008658,-0.0023609365187352,0.0044732885176789,0.0001827416690427,0.0257998555983171,0.9996567019176574,0.0317701128677106,-0.0369172832175431,9.8780820256367,0.0043089410985635,0.0057844057026369,-0.0029894238995245,10.987274786401,0.0244998335269115,2.0586170585517296,1119.0830016182204,1119.3097687581476,1102.147141028796,1100.158863736852,-84.44772477043304,835.0093661495362,233.489906294336,110.23631918726468,153.716041813595
8.047499999999998,-0.8136772570146537,0.8055114843467117,0.0801969109419858,0.0104212695401266,0.0235284522781759,-0.0013739057429591,0.0044817419837142,0.0001994404002082,0.0257931908855853,0.9996568360347068,0.0304002175587231,-0.0361444852073818,9.879499755774937,0.0044362693703262,0.0056703834584686,-0.0027746771563421,10.987284629751851,0.0245204279581383,2.058602370980642,1118.9242277272804,1121.0482395602307,1102.689479993964,1100.3173557825955,-58.868139553842305,593.5721325214199,202.00129149090145,24.05399953203948,153.71469695368683
8.05,-0.831621884054942,0.6100049407994521,-0.0122396173129205,0.008648660225597,0.0240838953501292,-0.0010038650338726,0.0044974534560947,0.0002261420692359,0.0257906909935233,0.9996568295878606,0.0287337454497303,-0.0353303632779869,9.880633645656223,0.004556165110996,0.0055542061392716,-0.0025451806796651,10.987296065780527,0.0245390349551472,2.05859297164422,1118.788660920451,1122.2776294207551,1103.1571474862508,1100.2791337345122,-58.97275032683853,390.8890991910383,163.05187194309107,-39.102676759005845,153.7133343345072
8.0525,-0.8339745222434283,0.4400512449512037,-0.1338872944264307,0.0068441645134416,0.0241292850739594,-0.0010384762647364,0.0045129997836948,0.0002620858664479,0.0257945602290948,0.9996566560333704,0.0268173619377559,-0.0346247701910043,9.88144855448446,0.0046667538000522,0.0054373791941473,-0.0023051635105063,10.98730912069478,0.0245543678922717,2.058588705814163,1118.629363975646,1123.0026850561865,1103.5047393536795,1100.1218423988005,-78.96409396118294,171.83156994782402,99.28817792935816,-66.34729955732338,153.71195883356305
8.054999999999998,-0.8196916918716103,0.2933042463577797,-0.2676045448824553,0.0049718663901659,0.0245670153397643,-0.0013628036961738,0.0045194269870243,0.0003002019438372,0.0258026096974684,0.9996564106922704,0.0248244130958202,-0.0342117902737143,9.881917952765406,0.0047663554206945,0.0053217968882906,-0.0020590327215535,10.987323774269692,0.024566647477915,2.058587374397204,1118.3938404506453,1123.136787270494,1103.6535883758975,1099.9473972367257,-126.89333030450888,-43.91013151816192,10.853946848190512,-38.686971012060305,153.71056997308148
8.057500000000001,-0.7835207328392843,0.1192685552559122,-0.4093703016826919,0.0027769215252829,0.0259219944098075,-0.0022251174441292,0.0045134357705694,0.0003371301672752,0.0258131063132073,0.9996561513352153,0.0228595226902356,-0.0341631029559206,9.882024928042108,0.0048537720796692,0.005209239990421,-0.0018108397626959,10.987339779812883,0.0245766916683638,2.0585874096820134,1117.9948973241235,1122.7831343985956,1103.5590090879205,1099.92840754374,-162.5827928423151,-176.41867334193165,-81.08573540874755,53.34600389764167,153.70889063781084
8.06,-0.7362958694540505,-0.0403464581220671,-0.4862451272438489,0.0008520459394709,0.0270326645899698,-0.0036391353296285,0.0044930153715109,0.0003668647360848,0.0258214459690533,0.9996560075980468,0.0210805759660465,-0.0345270038431189,9.881762575085185,0.0049283922418821,0.0051010689346788,-0.001564034175673,10.987356804520465,0.0245854076615039,2.058587088962251,1117.5809264864336,1122.2546939037843,1103.2481596988537,1100.214127256214,-170.77844238223165,-209.54046458718568,-165.74653709643485,198.55734515880923,153.7074825637822
8.0625,-0.6700751696319411,-0.220683177928307,-0.4919100603929823,-0.0011606223905455,0.0273829651960281,-0.0058750723875,0.0044627145748918,0.000384647638697,0.0258222959717076,0.9996561010528546,0.0196230227521975,-0.0352219331800621,9.881133750033236,0.004990363847881,0.0049979594985123,-0.0013214888895837,10.987374285316168,0.0245942831024959,2.058585196882772,1117.1410051122125,1121.73543207566,1102.7302764024384,1100.921194269534,-181.4498014260968,-178.5936374591429,-259.620781028895,410.3768066109658,153.7060678647437
8.064999999999998,-0.5720153649399566,-0.4499826416256439,-0.3985603155016669,-0.0035471134243794,0.0265795913561829,-0.0090240722259709,0.0044306121614099,0.000390646947258,0.0258147880970873,0.9996564228148908,0.0185241703831947,-0.0360940842461847,9.880151198015497,0.0050407262639133,0.00489981928002,-0.0010856467651478,10.987391496003118,0.0246044142218418,2.0585818050843456,1116.6736774793033,1121.3617257164888,1101.9500557937095,1102.2660112892684,-150.4017375705863,-74.43151001442601,-297.6598159561025,559.6726590156811,153.70436551731504
8.0675,-0.4832786047736463,-0.6380556863534504,-0.2427436540474767,-0.0052690033066182,0.0249444446094677,-0.0112432537953852,0.0044006192336643,0.0003914071753705,0.0258024460057037,0.9996568666897736,0.017689191602365,-0.0370679209670097,9.878837682835613,0.0050813863355496,0.0048059331404965,-0.0008587269885706,10.98740756854109,0.0246155856454248,2.0585781975756725,1116.3889964243594,1121.3632745255877,1101.2419773226577,1103.7195575646128,-87.36538856131571,71.52109838433508,-276.73720397010806,611.4928232027477,153.7029454301816
8.07,-0.4053523199760277,-0.8086319364214344,-0.0372820888024806,-0.0061657001567226,0.0225728112135017,-0.0119611537970903,0.0043818338994229,0.0003970068124927,0.0257890690112687,0.9996572918008412,0.0169508533113592,-0.0379618340672777,9.877224170626532,0.0051149355960898,0.0047151894901486,-0.0006430443986111,10.987421734812427,0.0246277547190759,2.058576747639266,1116.2368505364966,1121.7193312084105,1100.5663697738587,1105.3234754052824,-43.37896840466737,224.7791259300349,-270.50263477136394,677.154479379804,153.7015271495308
8.072499999999998,-0.3482679403812029,-0.986826198835198,0.2113118964649239,-0.006095491124313,0.0192713513795816,-0.0108326361358593,0.0043729973284346,0.0004111164437342,0.0257775365218208,0.9996576241211808,0.0162570097259224,-0.0387994666795829,9.875349666031122,0.0051443918754858,0.0046263213934247,-0.0004409093489527,10.987434048319612,0.0246404117585277,2.058577678416196,1116.172101582336,1122.4871701552377,1099.8894641488012,1107.1053299615112,-15.697304095423016,319.9073194502671,-215.14249366100287,579.5416714449191,153.69983166219714
8.074999999999998,-0.3406547684130985,-1.1174643240462323,0.3822309606357237,-0.0057403409040713,0.0165902704649005,-0.0088800243438735,0.0043709892200038,0.0004348140199882,0.025771622540313,0.9996577786208888,0.0155989051774649,-0.0396393964940178,9.873259354373225,0.0051729404312717,0.0045380250209093,-0.0002544477407745,10.987444414357832,0.0246530904187441,2.05858052381955,1116.1583640160195,1123.3188678056615,1099.490657305554,1108.2211837625064,-13.429380529439815,347.6392599984049,-118.23015989787532,318.2789315691892,153.69842764988144
8.0775,-0.3681301271644186,-1.2412291748459932,0.4871714678042882,-0.0059943567573957,0.0144286030908334,-0.0067706497358845,0.00437954824529,0.0004701942976387,0.0257742353349321,0.9996576632179912,0.0149440923376945,-0.0404005859109841,9.871002520542845,0.0052036102164262,0.0044490667499901,-8.538364362656636e-05,10.987452339263571,0.0246653251941229,2.0585859893494347,1116.1049546796887,1124.22536645523,1099.2983133493117,1108.6967246193572,-38.15694716835737,357.3530388990899,-42.838950405387216,60.67272512731467,153.6970374745675
8.08,-0.4085228889327262,-1.365668809274996,0.5308569892435945,-0.006952953377548,0.0123874134380034,-0.0047418211501162,0.0043958448122556,0.0005123046197554,0.0257856610063073,0.999657284792242,0.0143889013244119,-0.0411311583883764,9.868631549768864,0.0052389114323698,0.0043583303535467,6.528665959181632e-05,10.987458304404372,0.0246764818863379,2.058593555043765,1115.9675792801777,1125.1056330001572,1099.2764625535267,1108.5245473881432,-81.87938853486038,327.1135827064623,25.312461119988743,-226.3284868574824,153.69566252164995
8.082499999999998,-0.4407819830453135,-1.485957060111844,0.5070836412497343,-0.0086063427668731,0.0095938695805322,-0.00294559903533,0.0044120230963298,0.0005480334244568,0.025800150538841,0.9996568287788632,0.0141815172763518,-0.041978022425323,9.866199841634986,0.0052804883680199,0.0042647884063671,0.0001975294845543,10.98746419414852,0.0246868369058489,2.0586012286881994,1115.6955577370147,1125.860934368762,1099.4248756549116,1107.56508218507,-151.92561789660783,283.34763231923836,87.96065855420682,-569.6406932599094,153.69431080184503
8.085,-0.4468802772053713,-1.60336671467108,0.4217901538145147,-0.0109134011201527,0.0051192917945213,-0.0013693743957416,0.0044225937027284,0.000570546737576,0.0258138392364669,0.9996564173703568,0.0144414989562463,-0.0430339395158886,9.863759870413267,0.0053290296622593,0.0041673247642268,0.0003124714333255,10.987472102736257,0.0246962189243968,2.0586088837041814,1115.2079511906943,1126.5223711617537,1099.716265846298,1105.6763439218432,-203.0406396206809,190.9641236266609,110.19483496868912,-769.7362220073662,153.692721825899
8.0875,-0.4184624662470396,-1.658685620579232,0.3241815110730285,-0.0126781082554645,0.0008343252604807,-0.0006497358224416,0.0044203582462778,0.0005749018246844,0.025822811053859,0.9996561840284248,0.0152451857042582,-0.0444201046274594,9.861361425022483,0.0053843616141921,0.0040646490526943,0.0004123562873921,10.987483102246435,0.0247049855907942,2.058615221093905,1114.6803545389112,1126.8157549868952,1099.9758498297551,1103.7164010750328,-231.95256383082847,57.884023785811834,89.13259222169425,-797.5044563337401,153.6914292496382
8.09,-0.3609900931504029,-1.6498397117147094,0.2238398508858515,-0.0137350624455672,-0.0037771379321301,-0.0004798390740554,0.0044048045105835,0.0005574306499886,0.02582114747418,0.9996562867089392,0.0166430320992122,-0.046121031613658,9.85904937132732,0.0054457776798765,0.0039552387215172,0.0005003005702634,10.987497171349451,0.0247143431832037,2.0586186794650616,1114.0481883715406,1126.8117912806827,1100.1619288074064,1101.688821640175,-296.86731081084406,-67.68391673250773,50.174080026509706,-831.3983854394173,153.69017339052922
8.092499999999998,-0.274035159019426,-1.5532028202134458,0.1220790400134953,-0.0141065604955654,-0.0094970086222728,-0.0007035798770238,0.0043806525283555,0.0005186447493362,0.0258059264855159,0.9996567840303324,0.0186022630591549,-0.0480125673041658,9.85686282912948,0.0055125104540999,0.0038373138136989,0.0005799813923967,10.987513472299083,0.0247255335252252,2.0586182846466214,1113.1960179848572,1126.4773354032327,1100.2267202298876,1099.5594091478365,-322.09457863036243,-170.7294768421622,-6.222303849789506,-684.2902427730063,153.68871235489408
8.095,-0.1956409364552842,-1.4037213895289569,0.0611728247287138,-0.0141987067516575,-0.0139167095003417,-0.001034238330229,0.0043529715575547,0.0004652513217285,0.0257802400224193,0.99965757637199,0.0209651325830469,-0.0499580900860522,9.854835126191286,0.0055841274319823,0.0037089934562169,0.0006551680886596,10.987530563374134,0.0247388296968605,2.0586143403413555,1112.4377154783883,1125.9581438964717,1100.1308172881575,1098.2673704263095,-301.3132261877656,-247.02965237357375,-63.81208907468047,-382.24451260506095,153.68753506336898
8.0975,-0.1139734441186803,-1.2011307632235733,0.0254189694835043,-0.0144379004391562,-0.0172863082716397,-0.0011820240160489,0.0043343089735552,0.0004067034140794,0.0257501113242208,0.9996584518501156,0.0235209445323821,-0.0516706995786904,9.852993259683672,0.0056607168608013,0.0035686585488528,0.0007290621652827,10.987546653697576,0.02475435996712,2.058608735934309,1111.689451853918,1125.2421871413649,1099.907659784514,1097.648186584811,-307.649995709214,-348.3284542529201,-109.82712979505234,-109.73922063210377,153.6864010160087
8.099999999999998,-0.0091613760635925,-0.9301287044677,0.003661575088003,-0.0145106400182936,-0.020002439577038,-0.0009683731185693,0.0043275982040052,0.0003474545674755,0.025721327840137,0.9996592458524776,0.0261502629184015,-0.0530549847520647,9.851358892354359,0.0057428548976634,0.0034153357787714,0.0008039189288172,10.98756110440004,0.0247714024394424,2.0586026807079687,1110.8994654998428,1124.2165016252075,1099.5816816391823,1097.7186743231491,-257.721650912759,-396.24531043676313,-111.76102675784097,143.6265283193964,153.68509086597908
8.102500000000001,0.0876227589007336,-0.7055079401751055,-0.003241820811604,-0.0144035089724867,-0.0213793724623104,-0.0006693948685787,0.0043297334932186,0.0002929941476262,0.0257006949269873,0.9996597954032947,0.0287080415820364,-0.0541348928900991,9.849948999658444,0.0058314086707615,0.0032490099868186,0.0008808795915083,10.987574116884431,0.0247879437376621,2.058598042157691,1110.400843599354,1123.2609605891807,1099.348854650725,1098.366319226408,-154.8286112460786,-396.4004129465428,-64.30124856509697,336.5769646702048,153.68404123872804
8.105,0.1995919952069573,-0.5039041403279377,-0.0023066190931443,-0.0144313915030939,-0.0221312695127159,-0.0004920668850942,0.0043444223169595,0.0002505595167559,0.0256933007466427,0.999659951177784,0.0310165838642997,-0.0548015189322035,9.848776070042183,0.0059272582106205,0.0030708151702839,0.0009599481886512,10.987586096158964,0.0248023813831317,2.058597162519993,1110.1253224436123,1122.2344995604744,1099.2601753963568,1099.4015591465006,-65.81806939222078,-463.6124344787744,11.74782738376286,475.4020522334067,153.6830350239999
8.1075,0.3539379905874358,-0.3005253175736024,0.0085696957104024,-0.014327882329682,-0.0225324983827638,-0.000400504865056,0.0043676958026465,0.0002207920044465,0.0256995752831868,0.9996597171595676,0.0330231143774873,-0.0551038637063654,9.847849078407727,0.0060310702927707,0.0028829302448552,0.0010403468857608,10.987598156310629,0.0248135290886212,2.0586001248303583,1110.0717532523931,1120.942898416787,1099.4075937876437,1100.7433294875743,23.999986151880197,-482.8267693257709,102.16091857439308,457.32438508398445,153.68187778161604
8.109999999999998,0.4942052875508469,-0.1628277523673675,0.0280710394816916,-0.0136340309123118,-0.0226022320714178,-0.000349770591451,0.0043907003350568,0.0001949816984798,0.0257138161062593,0.9996592750934516,0.0348560559778608,-0.05519624207372,9.847173621817625,0.0061431893463834,0.0026882806456297,0.0011209572465545,10.987611570156032,0.024821566740824,2.0586050929130666,1110.2453223743717,1119.820365713846,1099.7709799892286,1101.68818107192,108.96429965112588,-460.5758750191588,193.69586813501584,295.22384403708134,153.6809556893987
8.1125,0.6332839425567741,-0.0483680317522703,0.0618471355236518,-0.0121205154920243,-0.022440257537439,-0.0003439635750609,0.0044093698923863,0.0001684938178507,0.0257323723869936,0.9996587317652555,0.0365659541848575,-0.0551426770758126,9.846752937240977,0.0062636922981046,0.0024900615345444,0.0012008269402164,10.987625819215339,0.0248272356069754,2.0586109002756214,1110.6165747506489,1118.6400190416912,1100.3760731283187,1102.21944870776,177.5088021842471,-484.3875221308433,275.4965955437025,127.45619653790352,153.68007848626496
8.115,0.7602218910265645,0.0597830038172416,0.109544003055727,-0.0099878192787908,-0.0221389518710112,-0.0003682492689959,0.0044200782531256,0.0001370745180605,0.0257518702784653,0.9996581890152711,0.0381968762512486,-0.0550048837804276,9.846588125248214,0.0063924650782728,0.0022914040172562,0.0012793537428085,10.987640338739109,0.0248314825962313,2.058615888425707,1111.132866385293,1117.3984281031915,1101.1484629669471,1102.3254620546095,239.34231458793175,-512.856414140617,337.1792785539799,-54.98625384794834,153.67923963235742
8.117499999999998,0.863854650171842,0.1812370591113997,0.1740631162000211,-0.0074763808029318,-0.0219112495818876,-0.0003774211873389,0.0044240472355498,0.0001000580813587,0.0257682206863893,0.9996577487958404,0.039726389262478,-0.0547539883363665,9.846678256259462,0.0065292203111376,0.0020951818017203,0.0013562858948356,10.987655119954312,0.0248353439542994,2.058619277604956,1111.8132863235883,1116.0757369709886,1102.0619695210885,1101.9445174385205,336.39738667128967,-594.6881693834691,417.6838394387034,-248.41722317433533,153.67844883758943
8.120000000000001,0.960451705074014,0.37105340675759,0.2652179401174007,-0.0044715791002957,-0.021823668141085,-0.0002473766748072,0.0044232207613691,6.326015962671074e-05,0.025781048611066,0.9996574167623288,0.041007218771773,-0.05435054649056,9.84702076992434,0.0066734941551085,0.0019038660454968,0.001431605833526,10.987670113920652,0.0248387993533583,2.0586218574814863,1112.8148533186495,1114.4249872562737,1103.2368821641412,1101.0833759387378,396.5280036383609,-603.4771255806356,432.4896164542913,-349.6762832412877,153.6775583716376
8.1225,1.0235116854172477,0.5823186950650715,0.3430551948681335,-0.0021671951402713,-0.0217624630602343,0.0001089160872135,0.0044209673751501,3.549607297908466e-05,0.0257936068264997,0.999657101624794,0.041837027007552,-0.0537320137847214,9.847610875213459,0.0068246159666561,0.0017195143296294,0.0015053003895098,10.987684707210956,0.0248412526307645,2.0586248458363223,1113.7959263417804,1113.0583513430847,1104.2244176033603,1100.1961360223136,418.0143719201091,-521.7563587248734,384.5403314178694,-348.38928299480006,153.67686758139843
8.125,1.0776121211545004,0.8545757086793352,0.404976930974884,1.3380522303157656e-05,-0.0212988118070592,0.0009073815128639,0.0044281496054719,2.539251050730684e-05,0.0258070323950828,0.9996567300304222,0.0420253459226649,-0.0526935364403087,9.848440437614723,0.0069816129841085,0.0015438302228338,0.0015772591727443,10.98769861298642,0.0248426711559483,2.058630243849646,1114.9049251782499,1111.8162054626498,1105.15958382123,1099.341429523764,508.27439125174453,-486.37375854428353,386.3656935725744,-328.7065196096336,153.67623316211805
8.127499999999998,1.1388970140026384,1.2342666374421496,0.4354329408729932,0.0028635207804592,-0.0196055956698757,0.0025556443535862,0.0044454414668909,3.189293785138117e-05,0.0258214471849157,0.9996562933128024,0.0415723671472803,-0.0512400466302248,9.849497371350498,0.0071431105923782,0.0013780204651032,0.0016473880514353,10.987712330372796,0.0248429135013979,2.0586383792213567,1116.3372982980386,1110.626482550364,1106.1562460712228,1098.552603424266,533.4054186747002,-365.0681557712117,335.78768955730294,-232.01660437986004,153.6755403933385
8.13,1.1876888226899018,1.5655740189515148,0.4075590256148848,0.0053547357329908,-0.0168638032498428,0.0045139977930155,0.0044700118323907,4.667733732815948e-05,0.0258323166583461,0.999655917600838,0.04062566192,-0.0494520668924575,9.850764914721605,0.0073072045887411,0.0012227710971276,0.0017159279623217,10.987727003604046,0.0248422367135314,2.05864825981019,1117.5719522716236,1109.9908646837935,1106.8385222690167,1098.1813465018647,489.3740984532232,-163.53084761937853,233.14504254100024,-84.82323482584017,153.67502237672576
8.1325,1.2304499161880191,1.863984107676074,0.3155121095219803,0.0075951864889558,-0.0125004594115395,0.0067500548975911,0.0045044752657014,6.358092529072007e-05,0.0258350342787658,0.9996557067959484,0.0392998084240062,-0.0473040027037511,9.852221404910708,0.0074714427505889,0.0010781325299569,0.0017838585420716,10.987743440360813,0.0248415766020006,2.058658662516648,1118.784168790305,1109.8088283122668,1107.321971283928,1098.1284872501367,509.2719166165001,28.443626762469847,158.74248564358342,35.24094589107127,153.674568176435
8.134999999999998,1.2607760956433895,2.1248653714618846,0.1449376636543806,0.0104612441698098,-0.0055315954691179,0.0086776430494521,0.0045470982055668,7.465025863663313e-05,0.0258248794515882,0.9996557880979164,0.037749557261877,-0.0448579410001861,9.853839905514372,0.0076329783618019,0.0009434813688798,0.001853010816728,10.987762570952718,0.0248421937491847,2.058667707304417,1120.1183118547056,1110.1330828176056,1107.6322346972347,1098.35755123132,453.099395577464,201.1346369805724,64.49478652763365,112.41224815278164,153.67409914394403
8.137499999999998,1.2495964011205916,2.2271699954492026,-0.0198610627474156,0.0136726201444637,0.0012700822377683,0.0087680731604234,0.0045922762920321,7.767771781725614e-05,0.025803506224434,0.9996561412850844,0.0360217380147167,-0.0422500726802795,9.855588503436755,0.0077888329638602,0.0008175565651565,0.0019260789151925,10.987784574991975,0.0248448556433326,2.058673860598761,1121.049665768192,1110.8145014971697,1107.644445216566,1098.6905484909005,315.0623099323601,340.1456015267664,-50.20052208491632,134.0792544302776,153.67377298196706
8.14,1.1748235976502812,2.1916965792455785,-0.1673039247036622,0.0176823369545877,0.008134744661875,0.0072755967325265,0.0046339687683425,7.482149329860916e-05,0.0257759960874011,0.9996566631716368,0.0340841692806709,-0.0396226479358592,9.857429745469583,0.0079362487671083,0.000698771403667,0.0020062602663954,10.987808750003696,0.0248490493970498,2.0586770388873648,1121.6936234043678,1111.8338108252399,1107.38123208681,1099.0279475034715,196.42896276588203,449.52589049050647,-152.7560989608207,115.63799223470608,153.6735152803523
8.1425,1.035839548797041,2.0484525445719206,-0.2773349310155688,0.0216173523768472,0.0143330361131832,0.005292498687651,0.0046682720644846,7.311936330452542e-05,0.025749689370341,0.9996571847099908,0.0318164191005215,-0.0370722911311581,9.859320580631564,0.0080730038547534,0.0005855199469507,0.0020968052078032,10.987833649316924,0.0248537834607163,2.0586778127886767,1122.0318105820215,1113.0621309496223,1106.8806647217618,1099.268738452074,50.7680417233688,527.644717456465,-255.12231139237505,55.950524641513994,153.67331509012152
8.144999999999998,0.8234600843024211,1.8035996693202772,-0.3346560095624739,0.0246185775638141,0.0193458018781751,0.0036207642497309,0.0047002652683033,8.184306439717113e-05,0.0257302047376349,0.9996575366651248,0.0290647077149217,-0.034515688562318,9.861211977690322,0.0081975843528575,0.0004764644157212,0.0022005458298409,10.9878580752337,0.024858552186882,2.0586781189547887,1121.9474636129846,1114.4720344125217,1106.1056205298485,1099.307700126679,-137.59809719879408,647.8013813570111,-390.98802240431064,-37.27106878886261,153.67318486207148
8.1475,0.5086481987892076,1.4431043925449702,-0.3553802924600851,0.026695050321934,0.0236625353019726,0.0023848169970767,0.0047295784821514,0.0001039089324337,0.0257190562737008,0.9996576797028468,0.0258030106832683,-0.0319781608056094,9.863050493680785,0.0083091971920147,0.0003706065667758,0.0023195249271579,10.987881322802492,0.0248624722194675,2.058678917562531,1121.3438200960275,1116.301137856408,1104.92572460974,1099.0823831081295,-298.1395875742225,683.3317824280425,-456.58705040602536,-122.63844500182942,153.67310989920486
8.15,0.2210533113463997,1.1253321686778237,-0.3499669058077572,0.027211414233747,0.0257996894538391,0.0018845405328309,0.0047532992044471,0.0001371442030876,0.0257144096508596,0.999657674296615,0.0221086789049045,-0.0295360769580976,9.864779774868952,0.008407610988162,0.0002672759372373,0.0024549386260007,10.987903519755003,0.0248652106652379,2.058680390452296,1120.4567656751133,1117.8886933246624,1103.822685277818,1098.6945079016696,-416.6942144150117,634.3873107992647,-439.55031233085367,-180.90156472207087,153.67311524190143
8.1525,-0.0654854197299602,0.824663889166092,-0.3404830025892511,0.0267685762902934,0.0269787433998483,0.0015300710021848,0.0047727609019647,0.0001809831167465,0.025716514116232,0.999657508134943,0.0180329612573509,-0.0271802704344028,9.866342119555425,0.0084929163805794,0.0001659792810481,0.0026072751877729,10.987924560045707,0.0248669297796464,2.0586828663293355,1119.2603490239528,1119.4730744104036,1102.727973048086,1098.1778752845196,-568.8957809833249,678.2585408442159,-449.6515199440622,-234.3385433783635,153.67319072738482
8.154999999999998,-0.3867901593359593,0.5027042325265907,-0.3385020541358974,0.0256175065363655,0.0280535780552657,0.0010659227891954,0.0047864267360511,0.0002296686865852,0.0257234770301649,0.999657239700407,0.0137306281501158,-0.0249599452552382,9.867680731516424,0.0085653432374504,6.632714157549523e-05,0.0027762674145619,10.987944863837601,0.0248682668993678,2.0586849375744225,1117.6122867701972,1121.2799860288828,1101.574427678098,1097.5228151847782,-616.7422298984493,632.7623265271916,-379.5382052670309,-230.34391337288108,153.6733617309531
8.1575,-0.6273379952981915,0.2681447411461132,-0.3487426421085522,0.0242283918749874,0.0287474886023321,0.0006824938099702,0.0047938708462912,0.0002729339501075,0.0257274885995173,0.9996570755596949,0.0094477312639197,-0.0229042143788779,9.868741565512128,0.0086250983874724,-3.1932320340120226e-05,0.0029608660282108,10.987965473325476,0.0248702692860401,2.058685471282362,1116.17663787446,1122.6368860430402,1100.8302820217507,1097.026155717655,-562.8173465460834,495.631470391222,-242.769926592526,-172.96837692062607,153.67357050518237
8.16,-0.8348284003491306,0.062554657724463,-0.3690005255270338,0.0223388040969044,0.0291202789786661,0.0002407468593446,0.0047965477579392,0.0003073386295559,0.025723959753061,0.9996571293674936,0.0052977103750892,-0.0210021552625162,9.869475664665437,0.00867225156917,-0.0001290051537957,0.0031592520947499,10.987987138248583,0.0248731074780418,2.058685552252241,1114.7982000374664,1123.758143380839,1100.3605780451353,1096.6579733001747,-572.9994582394513,424.74497624866024,-146.8952682633081,-119.74239502644758,153.6738468719395
8.162499999999998,-1.0435884845986738,-0.1602716669180045,-0.3932383497159422,0.0194667911803428,0.0291939081094406,-0.0005423163834105,0.0047950419806203,0.0003348692633843,0.0257129659518082,0.9996573994436608,0.0012869936499257,-0.0192582208899018,9.869841016430335,0.0087068062593761,-0.0002249632386872,0.0033686291163595,10.988010069274928,0.0248764234570074,2.058686932040622,1113.3116405832632,1124.7606109242831,1100.0958056804343,1096.4274437425229,-508.26433495864205,306.4206685256498,-59.13001922339375,-43.692383806221635,153.67425489572508
8.165000000000001,-1.1845086407852607,-0.3317246495004955,-0.4001389399174711,0.0167318392191214,0.0288674197787126,-0.0015604620518988,0.0047963547885812,0.0003609473564765,0.0256961388243384,0.9996578105181964,-0.0026426558072787,-0.0175497814227066,9.869803058495869,0.0087288516113801,-0.0003195116967251,0.0035851912712608,10.988033651431593,0.0248801654875051,2.0586916444619647,1112.2568783626728,1125.2902467234678,1100.0649279490183,1096.4395113811438,-379.4314928801076,153.1717072945627,6.067296329364542,51.55839628209027,153.6746571328196
8.1675,-1.2936616412747208,-0.4915732797411579,-0.3759833477793099,0.0139801981075823,0.0279264848126583,-0.0030686844671984,0.00479898234688,0.0003866128823474,0.0256761951932471,0.9996582996528947,-0.0064680503152121,-0.0159260036823756,9.86933762912819,0.0087387383759256,-0.000411981636278,0.0038042420226514,10.98805724430914,0.0248836566968056,2.0586995312434713,1111.4144831188623,1125.526469460756,1100.1261421620811,1096.6852357239331,-302.9102650256084,56.02275006236801,22.813746881688523,139.95194439660793,153.6751222732718
8.17,-1.3778092417623335,-0.6421420743377667,-0.316935400272756,0.0112346043230161,0.026407790691127,-0.0049084556448542,0.0048014124918394,0.0004113062315157,0.0256580328316877,0.9996587505949176,-0.0101356806522286,-0.0144391173891767,9.868430899575388,0.0087371134827564,-0.0005012625760261,0.0040206390510813,10.988080697832443,0.0248855699116376,2.0587108129582474,1110.742327037545,1125.5703604737796,1100.1789966834267,1097.1392711031267,-233.8418615008788,-10.838723271128737,1.2765380414751046,234.08387978788707,153.67563840609617
8.172499999999998,-1.4285646796808065,-0.7828891691181915,-0.2168285080011822,0.0082329624517661,0.0243674316054437,-0.0066763341766966,0.0048119380590261,0.0004367704063877,0.0256450682484222,0.9996590336559222,-0.0136344111355868,-0.0129489684467904,9.867078229243551,0.0087248783612914,-0.0005857529506977,0.004229310357965,10.988103732348687,0.0248853710079624,2.0587262240459916,1110.2452738113584,1125.4722758444004,1100.1325248522885,1097.8556551228723,-188.98966250596237,-49.90042909729839,-60.120682403466766,371.2484296095101,153.67621471234355
8.175,-1.439208354588431,-0.9472929382438672,-0.0714349997529739,0.0041410018818472,0.0218111203871252,-0.0075960627475092,0.0048291258411514,0.00046269004791,0.0256376687755218,0.999659142696829,-0.0169198966255638,-0.0115106302378887,9.86528626122971,0.008703165964615,-0.0006637176873674,0.0044256571030191,10.988126258055049,0.0248828152473532,2.0587446265863583,1109.797378725015,1125.320858328293,1099.878393271409,1098.9955132511743,-146.08189722823673,-44.01444023400694,-132.8363747514933,451.3249596048103,153.67697426844046
8.1775,-1.3950701467976891,-1.0883543538995013,0.0435679193767596,0.0002582109112869,0.0198076636804444,-0.0069325498475791,0.0048443191786887,0.0004866601068477,0.0256342849458957,0.9996591571807268,-0.0199131038911038,-0.010324611525444,9.86307175915556,0.0086732660166864,-0.0007336044561406,0.0046059933113948,10.988148408350808,0.0248779943228586,2.0587642240412247,1109.514864325217,1125.2522036432304,1099.4683429785307,1100.1122799208968,-96.30650955452535,-3.4589345395040767,-205.52518684730327,451.11660205216015,153.67766282532065
8.179999999999998,-1.2867421613121355,-1.2400919995758584,0.1220804082422571,-0.0039005091264144,0.0178843522812083,-0.0055083908107747,0.0048533508617969,0.0005097631473489,0.0256371053894701,0.9996590377976006,-0.0226044588458859,-0.0095021275199394,9.860458414514992,0.0086364856606353,-0.0007943544878429,0.004767912967553,10.988169704029351,0.0248713585179507,2.058784352551471,1109.3158461772423,1125.3035636555956,1098.850767337173,1101.251096261435,-61.49409947560292,48.25368337296068,-309.9284773838433,457.3227594849608,153.67840791846209
8.182500000000001,-1.0874483857329162,-1.4287145555231304,0.1591709781338078,-0.0087255623290386,0.0150504562381819,-0.0040590860097566,0.0048508407187749,0.0005299069772182,0.0256455644168709,0.9996588256363143,-0.0249258089475031,-0.0091799971368862,9.85747593786894,0.0085941113231646,-0.0008456150635054,0.004910247497737,10.98818991218354,0.0248635594054281,2.0588039430802025,1109.207393827839,1125.4934720600952,1097.9187005916115,1102.398893718322,-8.537324513734832,79.21556347072182,-359.9765112093229,347.02318359908566,153.679366159601
8.185,-0.8824405888162467,-1.5752261430267396,0.1461433497686975,-0.0118932717344378,0.0117082442538188,-0.003387640646599,0.0048359223919718,0.0005400320402367,0.0256526482140384,0.9996587080433202,-0.0267126002830967,-0.0094076103589903,9.854157445854208,0.0085473129142175,-0.0008878132644826,0.0050329765785451,10.988210179797804,0.0248557437663305,2.058821878349072,1109.2731595546738,1125.6996414729492,1097.050884781126,1102.9862121794304,70.95762796085684,71.8883346790478,-344.3922419841559,123.51954054259024,153.6802173149584
8.1875,-0.676012631054753,-1.6827489050450424,0.1016789204625935,-0.0133693197221,0.0073058410851661,-0.0031040179107173,0.0048133063518689,0.0005359011936929,0.0256537922612882,0.9996587826951058,-0.0278565711175742,-0.0101206767588385,9.8505371392144,0.0084969953341465,-0.0009223502351917,0.0051371482333648,10.988231009283725,0.0248493503741842,2.058837573358226,1109.5621819676433,1125.8529137334904,1096.196739381691,1103.0164914210347,187.35623849405872,32.50482339795518,-346.20730226686254,-129.61505628707377,153.6811222010919
8.189999999999998,-0.4762260969058043,-1.7373004030318353,0.0316995183850798,-0.0133249692248791,0.0015338786336661,-0.0028280775415436,0.0047880129783146,0.0005155033857268,0.0256480575116986,0.9996590549403424,-0.0282965462375623,-0.0112440450374974,9.84664936676793,0.0084438502920564,-0.0009515472480632,0.0052245152615243,10.98825225857746,0.024845647055188,2.058850469524225,1110.209940747144,1125.8621655899387,1095.319848269792,1102.3381368979951,286.14275884001546,-37.08811758532977,-280.6805131299386,-355.5268403226718,153.6822692602707
8.1925,-0.3733995763372009,-1.7079134248172625,-0.0256274732476889,-0.0126222302018053,-0.0032702069897077,-0.002692040133007,0.0047679138008816,0.0004824225087112,0.0256363547878312,0.9996594651981168,-0.0280835088583256,-0.0126389466085637,9.842526830568179,0.0083884196031527,-0.0009782715501972,0.0052971726012952,10.988273355889717,0.0248451934402217,2.058861242424353,1110.9928957618436,1125.6674731455637,1094.7933368160411,1101.238857219421,349.9900027426428,-125.1384947684787,-156.00776969642828,-510.9183773778224,153.68327553508755
8.195,-0.3387916646297549,-1.597504360660396,-0.0627245952552043,-0.0124950116556583,-0.0078483254958413,-0.0030190628482433,0.0047493164161167,0.0004417506541607,0.0256231481444517,0.9996599129373752,-0.0273073123110104,-0.0143878782841488,9.838201830776729,0.0083311976353571,-0.0010056828554167,0.005357061038932,10.988294587341212,0.0248466627574386,2.058870915374188,1111.9598907608574,1125.2364731160965,1094.5398094213099,1099.7835450111058,398.7468726047948,-209.04347842783477,-52.90473905653159,-599.469227311448,153.68433347157355
8.197499999999998,-0.3450277064106986,-1.4258630785123996,-0.0690840996370992,-0.0131141345391087,-0.0121339907762436,-0.0038812833497514,0.004728559078424,0.0003988308573058,0.0256150693036197,0.9996602433038488,-0.0260662965073806,-0.0165663573557039,9.83370421515047,0.0082727006063683,-0.0010367070452485,0.005405681390631,10.98831615972714,0.0248485012082401,2.0588805208061505,1112.9866301248671,1124.6222557534247,1094.5288131207583,1098.2415110828647,396.2294039195846,-280.17512528305025,52.54727055004104,-584.5300342107092,153.68543382276863
8.199999999999998,-0.3726129169845565,-1.197476231302346,-0.0286087926835716,-0.0142247421592557,-0.015675806293345,-0.0051938720551608,0.0047104193054711,0.0003619569612127,0.0256144806867563,0.9996603665870348,-0.0245165926269396,-0.0190763422554919,9.82906011125863,0.0082135158704766,-0.0010736421085652,0.0054440436891268,10.988337820454571,0.0248498503958291,2.0588916849009817,1113.9410377804547,1123.8355974896815,1094.80254577406,1096.8608948400529,365.38273059030615,-369.8170060190354,181.2084750717248,-512.095959109467,153.6865848665106
8.2025,-0.3956983875645243,-0.8902213446103433,0.0676661677243414,-0.0158073660041923,-0.0186109985587331,-0.0064220627230005,0.0046939831199501,0.0003331875280199,0.0256214655475832,0.9996602799092412,-0.0226988473487501,-0.021928774373024,9.824294223572515,0.008154451861998,-0.0011183360434881,0.0054725813242342,10.988359816014256,0.0248498855675458,2.0589047584968903,1114.8135437778187,1122.7731707233293,1095.4348554961173,1095.6810312873167,252.14026756785336,-398.7517166421016,278.85499172689566,-325.24619436653126,153.68802420703872
8.205,-0.3858466012969672,-0.6328530841641363,0.1669580000996432,-0.0173615111916029,-0.0200104544061953,-0.0062553677982686,0.0046763084592956,0.0003093742868106,0.0256342955980656,0.9996600401939576,-0.0205571422023183,-0.0251710325868415,9.819429391698646,0.0080965818029829,-0.0011722701539875,0.0054913995832556,10.988382073934394,0.0248487446324184,2.0589187893451486,1115.2017391182944,1121.8418389064707,1096.1968207326947,1095.23466386822,71.35879965823334,-373.65474965921,350.66155454722013,-55.34650207874812,153.68927168450705
8.207499999999998,-0.329577619846511,-0.4013720536557636,0.2515772832006928,-0.0187757136878513,-0.0206070640780613,-0.0046659157493223,0.0046605500654795,0.0002886559379164,0.0256530774408433,0.9996596281886192,-0.0180628579067884,-0.028724347889777,9.814485732450263,0.0080412153004441,-0.0012366849081048,0.0055006003549053,10.98840388000919,0.0248470605716114,2.058933131869268,1115.17033777611,1120.9048969750336,1097.188163268853,1095.4042987769233,-104.17351586245977,-408.2436496469471,486.616853505226,204.20473811951967,153.69056834103353
8.21,-0.2020350991427406,-0.1741193755127597,0.3064020336321982,-0.0199808094659188,-0.0207501522034724,-0.002424058620359,0.0046449464991523,0.0002654575201031,0.025675755110091,0.9996591053296122,-0.0151225046763618,-0.0326030979274362,9.809482371518678,0.0079899549758237,-0.0013127480999793,0.0055002747903929,10.988424771585656,0.0248450109892148,2.058946940005624,1114.680871538982,1119.8006206582356,1098.6299050002212,1096.2556875588175,-234.25728702660285,-399.0890943466924,567.0783592887824,396.93111922791263,153.6921799528949
8.2125,-0.0475634452980499,-0.0336842768970555,0.3074988076013408,-0.0205471418136565,-0.0205880007038891,-0.0010187060782922,0.0046258052372033,0.000234805294117,0.0256966749975254,0.999658637728728,-0.0116611927943167,-0.0368542720739697,9.804437254904968,0.0079445796872719,-0.0014015439713314,0.0054905569110157,10.988445064525092,0.024842945909938,2.0589595977989408,1113.9990513409768,1118.9094515032998,1100.0235550652972,1097.3889543730631,-290.796320539324,-347.6826977066831,587.4105302681332,503.8708355940437,153.69356810043095
8.215,0.1496964036859793,0.0559571738898858,0.2712667718268539,-0.0206468862367183,-0.020271222738398,-0.0002015136397641,0.0046036324960613,0.0001966071361686,0.0257112682799256,0.9996583453387832,-0.0077034685394769,-0.0414354862886759,9.79936703624464,0.0079068972888124,-0.0015040724786061,0.0054715862511155,10.988464938236786,0.0248412317025715,2.0589712797155966,1113.2268899362855,1118.0622071697023,1101.566957651561,1098.7750417367874,-309.47593595921506,-358.4406844790724,691.1282351127294,621.4377550945172,153.69500126738762
8.217499999999998,0.4223671883594738,0.1121481210125408,0.2035732355986248,-0.020137147819064,-0.0197767526235049,0.0002650163967201,0.0045781992545469,0.0001530762464143,0.0257169180977927,0.9996583030905452,-0.003325206824895,-0.0463136781506775,9.794288277665048,0.0078787047583037,-0.0016212583410638,0.0054433004924966,10.988484414392268,0.0248398295656223,2.0589820275032475,1112.451671661181,1117.1172480809048,1103.4791962408603,1100.496143148535,-227.82031198199624,-330.5423644962895,686.8601741635139,609.2901316050259,153.69677049882043
8.22,0.6662910416120881,0.1248467152090671,0.1404375651691839,-0.0190593401421914,-0.0192900156640188,0.0003721175016502,0.0045566028679877,0.0001110553244961,0.0257137757001701,0.9996584759523826,0.0013050515074962,-0.0513068048571891,9.789217654307398,0.0078617105159367,-0.0017537851173243,0.0054053684111658,10.988503285858084,0.0248387412578232,2.0589931774399024,1112.0877883763756,1116.4094953472209,1105.0012585223794,1101.821492394813,-67.79117324557623,-262.1801165197712,559.2649362894953,478.14707575736776,153.69828381299743
8.2225,0.908116316988887,0.1158253721671586,0.0821835365337864,-0.0171397435941505,-0.0187777998489298,0.0003333927444497,0.0045372057466022,7.297122667541947e-05,0.0257045135724799,0.9996588011860436,0.0060952902441305,-0.0564037397977199,9.78417359776856,0.0078575657426193,-0.0019021799807622,0.0053569768589599,10.988521872361822,0.024837225894238,2.059005124666131,1112.1127157949531,1115.8063474983055,1106.2755209223083,1102.8868785273223,71.31037721821085,-222.75309971910127,443.5136317574206,369.14978652746936,153.69983449670784
8.224999999999998,1.1324998153723431,0.1016622602951443,0.0329954771659086,-0.0144997229019083,-0.0183515163299842,0.0002484333337361,0.0045190947579384,4.1538558481080576e-05,0.0256949889540554,0.9996591339588552,0.0109428170766274,-0.0615773421553095,9.779175883701834,0.0078677485355889,-0.0020666809165821,0.005297023179164,10.988540203429972,0.0248345696170918,2.059018052326464,1112.4443402624663,1115.2957298486256,1107.218826681166,1103.66724132745,182.3934239210472,-184.09516294574888,276.31605912543137,236.28260954311315,153.70141362995395
8.227500000000001,1.3187697652417287,0.099698483154732,-0.0031844608749228,-0.0112566970355787,-0.0182350883507493,0.0001578682392483,0.0045105968165783,2.2317239279468472e-05,0.0256895364049467,0.9996593258152676,0.0156892368299334,-0.0666174122537685,9.774245796241097,0.0078935011376014,-0.0022471282236604,0.0052243604859378,10.988558019330924,0.024830525261405,2.059033098817965,1113.0246829145583,1114.8858716835769,1107.6571012179356,1104.068291575038,264.2998227989252,-162.20260089760097,68.7797674000996,88.2514020995903,153.70302388791532
8.23,1.4814513507818463,0.1352660770358957,-0.0321332296237646,-0.007055172422569,-0.0183863314769328,6.957102811991578e-05,0.0045128710056394,1.4914578830096885e-05,0.0256900614252085,0.9996593227348884,0.0202850080269155,-0.0714565659387261,9.769406535774786,0.007935858442743,-0.0024432562964397,0.0051378674387583,10.98857596187732,0.0248245769801155,2.059050187574148,1113.7658393764611,1114.4847168441374,1107.5627255181666,1104.108498337948,240.6494055383088,-134.94971197958833,-126.8422400443594,-55.590880337387865,153.70498806610436
8.2325,1.5572458907930071,0.2101840110068683,-0.0456707449575353,-0.003205983569176,-0.0185512106795544,1.4997728615881803e-05,0.0045203572666718,1.091735579438188e-05,0.025692382837696,0.999659253753394,0.0248309993465113,-0.0761623763045444,9.764682241884856,0.0079956505809581,-0.0026547959364642,0.0050367165277654,10.988594943160912,0.0248175258288556,2.0590672594019894,1114.2279299422498,1114.211123123679,1107.022890017714,1103.7903371733512,116.18272214575464,-97.34292155992195,-282.47246235847507,-193.47227505121944,153.70664843498773
8.234999999999998,1.563389017093338,0.3402801802819452,-0.0498717942646249,0.0010455391131623,-0.0186756566575034,-2.773606887137519e-05,0.0045315849855602,8.16012321716737e-06,0.0256941683945059,0.999659180231252,0.02930562511465,-0.0807198038502235,9.76009802576168,0.0080733740737828,-0.0028816177058729,0.0049208171294957,10.988614598795488,0.024810630470456,2.0590826855865623,1114.34675298719,1113.998002236338,1106.1503632063743,1103.141136962692,-44.29288277460036,-77.63925062421245,-417.93652110939377,-349.10615275865894,153.7083296593844
8.2375,1.489494846822481,0.5553367654293325,-0.0448522214496626,0.0061316941211652,-0.0185405372136665,-7.744035369864586e-05,0.0045456379172258,5.903512458985262e-06,0.0256934419911528,0.999659155084575,0.0336584913270744,-0.0851032465407562,9.75567956830218,0.008169338440385,-0.003123749067357,0.0047906553373887,10.988634554092602,0.0248044024625931,2.059095805253196,1114.0064655283768,1113.822926870558,1104.9332074121667,1102.0448064095576,-198.42899099554953,-50.14307230448265,-445.3077042473737,-440.99360721668216,153.7103670508332
8.24,1.367520582413892,0.7678638444844655,-0.0317733580657087,0.0100616347791684,-0.0177127803607206,-0.0001229490850361,0.0045680158931382,6.323068633927254e-06,0.0256893998058059,0.999659172457897,0.0377853635060512,-0.0891621689200795,9.751452970373377,0.008283694823237,-0.0033811963877453,0.0046471215370077,10.988654212786937,0.0247993265648963,2.0591071031048567,1113.354608032212,1113.7472868748155,1103.923824685137,1100.9361689266084,-310.51266910096086,-19.740924783222287,-376.2408759344292,-462.9111564736388,153.71207840263602
