t,ang_acc_x,ang_acc_y,ang_acc_z,a_vel_x,a_vel_y,a_vel_z,quat_x,quat_y,quat_z,quat_w,acc_x,acc_y,acc_z,l_vel_x,l_vel_y,l_vel_z,pos_x,pos_y,pos_z,mot_1,mot_2,mot_3,mot_4,dmot_1,dmot_2,dmot_3,dmot_4,vbat
13.4425,-0.8196561221962824,-1.0131616305986668,-0.5034522610853066,0.0037940171633421,0.0202042345680397,0.0002473238413911,-0.0013633213407719,0.0036979387971422,-0.9125110692051924,-0.4090327646191765,-0.0017187508676836,-0.0319611884791402,9.786848759316786,-0.0098971967793751,-0.0019139409551886,0.0009567811286035,3.510043748519492,4.98835560638099,2.050732752645957,1126.2829926569607,1135.946634036031,1126.1543270929856,1132.2800313585778,-192.02496580170828,256.0465662560145,163.49052518773706,72.99423241482822,151.0601386594907
13.445,-0.924417082805116,-1.357459000063092,-0.3808317351536273,0.0022133508088772,0.0179485468422352,-0.0003172940270834,-0.001369956629786,0.0036810633517334,-0.9125069350678368,-0.4090421285103926,-0.0022130742441896,-0.0334766464629736,9.786924062380205,-0.0100117547393591,-0.0018455201068985,0.0008440269343042,3.5100651266720355,4.9883402723317065,2.050734505111724,1126.0457523577325,1136.5289915693768,1126.832753529175,1132.5498451182193,10.610570012797616,206.79061888317412,385.70635560352855,142.6026351923439,151.05916088207803
13.4475,-0.9818178587554938,-1.6416154859797216,-0.2596179296884613,5.045079411712466e-06,0.0145333445250333,-0.0004816625946176,-0.0013842005097578,0.0036660211187378,-0.912503011127375,-0.409050985402552,-0.0026487071686962,-0.0350053444264078,9.787366664178265,-0.0101288558243126,-0.0017834035787166,0.0007314188266274,3.510087348882131,4.988324998866946,2.050736870710405,1126.3360455070247,1136.9805871304463,1128.0828588710028,1132.9930445345394,219.6227181964898,159.15267144839405,637.8317899191101,214.82742945341948,151.05821668043595
13.45,-0.9695630746657596,-1.878575342511578,-0.1345897357901453,-0.0034077639350153,0.0091066132813515,-0.0004470707214442,-0.0013999938854234,0.0036558408985709,-0.9124998416496364,-0.4090581096755063,-0.0030958587005286,-0.036614781714235,9.788176789590988,-0.0102489515977463,-0.0017274650021462,0.0006203139053469,3.510110006576956,4.9883095111424725,2.050739082151296,1127.143865948715,1137.3247549266189,1130.0219124787711,1133.6239822654863,347.50411984990956,81.68590936969481,741.5663675429846,229.0512326926188,151.05712561372334
13.4525,-0.8754964384215151,-1.9650123932801296,-0.0534917208157449,-0.0067561466543343,0.0039463068561118,-0.0003417104304142,-0.0014112772956386,0.003652192090069,-0.9124972699258592,-0.4090638525959946,-0.0036331112240386,-0.0383472357574613,9.789345893855332,-0.0103726485071843,-0.0016779164120183,0.0005121405526528,3.5101325663751166,4.988293604576564,2.0507412644526046,1128.0735661062745,1137.389016677295,1131.7906907087183,1134.1383006980027,399.67923144598666,-34.388913217715086,688.4508730732256,180.97187709326096,151.05625346267675
13.455,-0.6887364042467912,-1.914707841005996,0.0033701518121843,-0.0100685815996152,-0.0013633481113671,-0.0002363048465844,-0.0014158241187108,0.0036558710928838,-0.9124947690177708,-0.4090693869237479,-0.0042753265976335,-0.0401979765926027,9.790856802008296,-0.0105007063150277,-0.0016353075540198,0.0004085252183015,3.5101544548428425,4.988277764582791,2.050744012077863,1129.1422621059446,1137.1528103605303,1133.4641668441363,1134.5288416509527,483.5266711138099,-184.46895276587412,668.6956244668147,122.7074565820902,151.05542203855887
13.4575,-0.3780704207225842,-1.6846630508224087,0.0484893624110249,-0.0128809272891435,-0.0077672793682801,-0.0001433510563364,-0.0014157534367488,0.0036657382074793,-0.9124920202429962,-0.4090754240626395,-0.0049733438312341,-0.0420923780302175,9.792684009326749,-0.0106339722354726,-0.0016004612886699,0.0003113788907594,3.5101751597639703,4.988262381526044,2.050747077744467,1130.491199461843,1136.466671913466,1135.1341688310515,1134.751837980913,497.78842853817366,-321.18533487968745,536.4033638469734,32.08024219893058,151.05447371370175
13.46,-0.0798360895047783,-1.3550427032505503,0.0715751472321574,-0.0136328146963241,-0.0128430540001514,-9.175641013354408e-05,-0.0014157608364424,0.0036796749738792,-0.912489464644039,-0.4090809824043794,-0.0056383820969263,-0.0439174974697978,9.794793925497185,-0.0107732213185211,-0.0015743789615276,0.0002229586704618,3.510194333093005,4.988247105703247,2.0507496292372114,1131.6312042486359,1135.5468836861317,1136.1461836633719,1134.6892428619472,452.1832048315193,-434.19978629829114,319.02713078656706,-79.04633828637672,151.05372607358055
13.4625,0.2098823595301461,-0.906611681996808,0.0845523342966461,-0.0127350031166535,-0.0167729562756938,-4.4196222155778e-05,-0.0014210811216274,0.0036953944029029,-0.9124884339298116,-0.4090830955709094,-0.00617252740228,-0.0455534233937906,9.797145262635638,-0.0109189470540325,-0.0015581098754077,0.0001458518280684,3.510211777832021,4.988231182873502,2.0507512332579934,1132.752115486001,1134.295672981974,1136.7293044849848,1134.356606289481,477.87808409616866,-606.7069676011968,165.20318825417792,-203.67914671964587,151.05302421102047
13.465,0.4961952103420417,-0.2873758149767615,0.091714672538691,-0.0102563428871439,-0.0193269371360374,5.036269747854918e-05,-0.001434591882043,0.0037093537435785,-0.9124902464407656,-0.4090788481348701,-0.0065298282718704,-0.0468779970514169,9.799689725533264,-0.0110711756752224,-0.0015525901982433,8.283701352782892e-05,3.510227918527544,4.988213675037951,2.050751660005993,1134.0205946691162,1132.5133488481263,1136.9721996046424,1133.6708471283491,440.7534729295769,-676.5910703808311,25.01126488486598,-291.06585446734243,151.0522363802935
13.4675,0.6596262167904259,0.2414494321089512,0.0911106113629284,-0.0073989726781846,-0.0193675549722694,0.0001951178103083,-0.0014564424688752,0.0037173953152125,-0.9124955393212296,-0.4090668594271382,-0.0067184758915986,-0.0477824188140746,9.802372952088737,-0.0112293908146259,-0.0015584034870235,3.6739880992014544e-05,3.5102440080321826,4.988193659570585,2.0507502599815246,1134.9558828506492,1130.9127176300694,1136.8543608094092,1132.901277017144,331.8269366429767,-628.9146862055003,-95.18135816232063,-332.72140437933814,151.0516260818082
13.47,0.7390155667217159,0.7132122130624309,0.0824620901269475,-0.0045527629439619,-0.0171086633840026,0.0004423819527475,-0.0014876673013763,0.0037178653822467,-0.9125045902769864,-0.4090465255248024,-0.0067118819794121,-0.0481993211799397,9.805135780295798,-0.0113926436591625,-0.0015754851959341,1.0313692135759404e-05,3.51026110981119,4.988170974719483,2.050746202261736,1135.6797293523312,1129.3687754170983,1136.496292813831,1132.0072401064524,241.96475984877264,-580.7358059731787,-167.56132007011425,-360.6739664561509,151.0510646052439
13.4725,0.7611273129926243,1.091553107581426,0.0659226195348197,-0.0022289839852144,-0.0131455407791305,0.0007798462632852,-0.0015280873716252,0.0037115751630952,-0.9125172526739576,-0.40901816999265,-0.0064870877632255,-0.0481204002253053,9.8079158999497,-0.0115598153014094,-0.0016029152354873,5.870097273511382e-06,3.510279350442425,4.988146693984507,2.050739176835384,1136.1657066498929,1128.009038600204,1136.0165542090588,1131.0979071848635,125.84781830007844,-470.5367789905749,-201.53974868030133,-342.2119063803847,151.05054407740803
13.475,0.7419699781360616,1.3236637154016295,0.0399144008804374,-0.0006447885063005,-0.0079125388917436,0.0011762922821344,-0.0015717983259061,0.0037000336213307,-0.9125326253018876,-0.4089838093649298,-0.0061201910372825,-0.0476025668060423,9.810649925195502,-0.0117298837503564,-0.0016388350266269,2.4755817252951568e-05,3.51029846274165,4.988122343167499,2.0507297575483032,1136.3089684438316,1127.0160915221459,1135.4885940704296,1130.2961805745508,-23.0961193954918,-324.8470799533554,-220.2055453210616,-297.96891857295014,151.0500732908937
13.4775,0.709310172515843,1.4308016479241388,0.0021414413649271,0.0006082349988686,-0.0018827494134071,0.0015280408247758,-0.001610860422622,0.0036845223663577,-0.912548854721836,-0.4089475934953752,-0.0057281871412958,-0.0467231952729173,9.813276094717782,-0.0119020606517449,-0.0016804819785362,6.70296511280827e-05,3.5103185724226287,4.988099019850237,2.050719432454668,1136.0502260529151,1126.384803200437,1134.9155264824533,1129.6080625919988,-166.5497239066293,-126.81372411828141,-189.2161924814149,-192.03474161210303,151.0495660721911
13.48,0.695462716897523,1.4039827067287378,-0.0279603830100773,0.0013360162157533,0.001746503851108,0.0014951369103974,-0.0016390263797019,0.0036660402659462,-0.9125636049495506,-0.4089147485390931,-0.0054030223442313,-0.0455502152822971,9.815737037806008,-0.0120757873402355,-0.001724311325618,0.000131295049161,3.5103401367338543,4.988077411011323,2.050709900562332,1135.4762198242984,1126.3820229015544,1134.5425131080224,1129.33600686649,-299.81186972601387,110.20213658809926,-128.89837343448397,-41.475104504442314,151.0491914771134
13.4825,0.7072366196867996,1.30480302659873,-0.0464398214487238,0.0019400278001838,0.0036264174595682,0.0011255517855999,-0.0016538989847417,0.0036454576161531,-0.912575009983899,-0.408889440686807,-0.0051719723081199,-0.0441280760426657,9.817982372016536,-0.012250653694768,-0.0017662040879917,0.0002147308641028,3.510363364987642,4.988057670684725,2.0507027999962912,1134.5511667042856,1126.9358138833775,1134.2710346152808,1129.4006870694764,-480.0308290662133,361.067312941922,-120.2240632943597,95.6947970662631,151.04886656690076
13.485,0.7432793718493775,1.1463834529701344,-0.0463124271823989,0.0028315726731359,0.0051672539636194,0.000591972411714,-0.0016594349301519,0.0036237220207637,-0.9125818566060424,-0.4088743545148233,-0.0049512372889467,-0.0424614872454422,9.81997102747563,-0.0124262849605934,-0.0018017935625277,0.0003133818290189,3.5103882308854395,4.988039691469384,2.050699560370805,1133.0760656789676,1128.1873594662636,1133.9413927915507,1129.8144808518211,-592.9804488220253,538.6314536064286,-151.39010806753865,191.5187822511753,151.048533589645
13.4875,0.7714287974198544,0.9926871721597664,-0.0254060060368226,0.0041878819955245,0.0068331138915528,0.0002082274699125,-0.0016626530913865,0.0036009480474836,-0.9125838116052888,-0.408870204094131,-0.0046123535338839,-0.040525136355558,9.821672969621773,-0.0126022287806473,-0.0018268107768906,0.0004225231160991,3.5104146717055134,4.988023562091732,2.0507005387961974,1131.586264460175,1129.62897115141,1133.5140840749432,1130.3582809807326,-633.8304124338638,626.9675830856088,-241.23200723630228,233.6922036730901,151.04830298314363
13.49,0.7616847397640125,0.8083693474093098,0.0144902509728359,0.0065635793001464,0.009382416543588,-3.531932238333995e-05,-0.0016668428120634,0.0035760495987188,-0.9125815971471612,-0.4088753708654334,-0.0041070810318901,-0.0383107219818159,9.823070183537636,-0.0127778440216019,-0.0018374321379735,0.0005370532279585,3.510442488821257,4.988009152294491,2.0507048366175953,1129.906913616798,1131.322197381692,1132.7352327553688,1130.982941870187,-754.5138185697987,756.0148116180383,-453.21981600154606,263.69114878694535,151.04812014052936
13.4925,0.6657789911902195,0.5372751972089255,0.0757206461565618,0.010301024998851,0.0128759984480239,-0.000117088715388,-0.0016721323364296,0.0035491636897281,-0.9125764217905484,-0.4088871525453806,-0.0034379163941293,-0.035864566852065,9.824157125341667,-0.0129521787214103,-0.0018306520671935,0.0006520389681052,3.510471310575949,4.987995566837218,2.0507110624174807,1127.8136953673268,1133.4090452094995,1131.247984994936,1131.676736724667,-754.0701860542598,738.3047682507123,-638.0313409780596,226.97219817929272,151.0479544053775
13.495,0.4999994890122002,0.2713800454685842,0.1287343897958191,0.0133778522683257,0.0151408182544639,2.7550778712336088e-05,-0.0016782437018578,0.0035220607662194,-0.91256934010187,-0.4089031793423373,-0.0026054769970642,-0.0332711628249662,9.824940756937762,-0.0131238788270861,-0.0018045799646342,0.0007631433087055,3.510500816135904,4.987981408919811,2.0507179712393926,1126.136562686526,1135.0137212229463,1129.5450760504782,1132.1178028610836,-621.4918253791376,575.2311682947958,-749.2406538651005,133.90637030195376,151.04785940468184
13.4975,0.252214525207083,-0.0124601152294832,0.170709532940955,0.015591061650258,0.0158602293505699,0.0004490637253314,-0.0016838083545926,0.0034961967869812,-0.9125611002279196,-0.4089217738768988,-0.0016364065160621,-0.0306216610503542,9.825440006399564,-0.0132911991241467,-0.0017585650024747,0.0008667622710807,3.5105309473567856,4.987965361121983,2.0507248352884844,1124.7062362404304,1136.285201050974,1127.5017817256098,1132.3462685761767,-505.47040439160867,430.91467818216574,-834.2734971884806,52.23009925681383,151.04780660787387
13.5,-0.0392471081474836,-0.2822703653618013,0.1934223797878565,0.0167564312123762,0.0151409737603867,0.0011359181450663,-0.0016885346050486,0.0034729108110422,-0.9125524635042648,-0.4089412273577978,-0.0005427453977996,-0.0279976989657888,9.82568464119911,-0.0134521414509407,-0.0016931432633593,0.0009601028182893,3.5105616557161103,4.987946804764503,2.050731361735484,1123.6092106645683,1137.1682946138567,1125.3737085645366,1132.3789533573677,-333.82471373617864,243.19638480951943,-811.213450729681,-31.13144947843176,151.0477864494172
13.5025,-0.3372158311539765,-0.499861629779791,0.1831354027753649,0.0163450295187996,0.0130337451911096,0.0021254175407163,-0.001693830245329,0.003453990205234,-0.9125443196274164,-0.4089595341946621,0.0006942078782483,-0.025474292599437,9.825713662832968,-0.0136046879584775,-0.0016098988512485,0.0010411455269539,3.510592545467526,4.9879259165033965,2.0507373706318415,1123.03711267175,1137.5011829750213,1123.4457144719622,1132.1906113287848,-112.97554326977712,13.270958905648255,-722.9617775229377,-122.7776678106501,151.0478022374207
13.505,-0.6346045072987283,-0.6709171111988415,0.1281321800669931,0.0140720589566462,0.0099888787984823,0.0034434850517397,-0.0016991559335022,0.0034396756512632,-0.9125374681531596,-0.4089749108844472,0.0020431541282732,-0.0231113578475964,9.825573481216548,-0.0137470541699152,-0.0015112966691067,0.0011084366054223,3.5106230730344725,4.987902772125272,2.0507427564954908,1123.0443329482196,1137.2346494083847,1121.7588996769211,1131.7650650183143,118.20041586491215,-202.20685833125137,-465.42675461921135,-178.56464646708383,151.04785762510778
13.5075,-0.7875533207535163,-0.7328190293963964,0.0523570701015131,0.011022385199691,0.0076987125456836,0.0042503054123415,-0.0017019608820113,0.0034283508604529,-0.9125323896308788,-0.4089863101457769,0.0034200693163457,-0.0209469639279466,9.825315898561268,-0.0138778931493487,-0.0014004752810247,0.0011609635729636,3.510652783600439,4.987877012800444,2.050747488167682,1123.6281147510747,1136.4901486833649,1121.1185806988656,1131.2977880964493,337.99809845433987,-386.1447684991931,-61.12918514546743,-198.56833193607,151.0479299080762
13.51,-0.806300886503028,-0.7189884000281144,-0.0369405737229087,0.007351903746429,0.005814395277488,0.0042532710008395,-0.0017001613173865,0.003419170221228,-0.912529300671876,-0.4089932667857255,0.0047549032038753,-0.0190231989298477,9.824995861922543,-0.0139964604794724,-0.0012809612569637,0.0011981240827993,3.5106812109285706,4.987848440436702,2.050751919792132,1124.7343234404907,1135.3039255658891,1121.453253751194,1130.772223358634,573.8945901842739,-586.7636919015687,376.7792138394136,-236.90794389045485,151.04802367357107
13.5125,-0.6651475808006345,-0.6321319727647118,-0.1334502470327189,0.0031439121404357,0.004228338536789,0.0034432267500875,-0.0016936013597431,0.0034127171824961,-0.9125282970443936,-0.4089955675899575,0.0060243442096094,-0.017385353915245,9.824669196267008,-0.0141027631534308,-0.0011563060494213,0.0012196943216273,3.5107080859767272,4.987817297569817,2.0507570082239326,1126.4975877019965,1133.5563302238563,1123.0024767680632,1130.1132483769968,688.5742373339614,-660.8075900019561,734.4195860415072,-245.5233233274683,151.04815434211258
13.515,-0.429426929038999,-0.5126928882306441,-0.1891987696693884,0.0002434509444813,0.0033545542324008,0.0023952120011045,-0.0016861842368292,0.0034106434748468,-0.9125294733855046,-0.4089929776277473,0.0072884558391777,-0.0160579357820124,9.824390303968,-0.0141976681122328,-0.0010296954941695,0.0012259074418905,3.5107336099504782,4.987784730700671,2.0507635239770066,1128.1771946271613,1131.999887615879,1125.1253516814022,1129.5446067419966,678.1389026151813,-600.1734557197608,962.3389426182353,-234.2517928843347,151.0482741102127
13.5175,-0.1203162298968871,-0.3513107632243483,-0.2100589101363476,-0.0013893790390088,0.0024094178089546,0.0013976676428735,-0.0016842920067685,0.0034139172015142,-0.9125330405462886,-0.4089849970052096,0.0086495212230821,-0.0150260188920014,9.824209901106592,-0.0142829326284224,-0.0009036331095295,0.001217540303467,3.5107579150924506,4.987752912326233,2.0507715435515754,1129.8882822150715,1130.5554629452583,1127.8141714811532,1128.9419894125751,723.904223238704,-564.1931207595675,1220.483553395267,-275.2024497728691,151.04840116509496
13.52,0.251645301221145,-0.111165037994672,-0.1964283123773404,-0.0010471460170753,0.0011845109449789,0.0005039169382435,-0.0016893511954599,0.0034200206314531,-0.9125389348491278,-0.4089717832391946,0.0100972852504406,-0.0142452062998756,9.824172935888692,-0.0143610828811289,-0.0007798345823669,0.0011958962410362,3.5107807985801807,4.987723435993237,2.050780809842391,1131.796715743354,1129.1789220120816,1131.227769448377,1128.1685944931323,658.0846544385956,-419.5159600998776,1211.534078737524,-288.86587436140906,151.04855876420845
13.5225,0.4951715698597382,0.123440494228269,-0.1594904782549026,0.0013197248303557,0.0004909294053336,3.463686684452024e-05,-0.0016960785221337,0.0034249380357782,-0.9125466494569748,-0.4089545176735031,0.0114942335292308,-0.0136920156363922,9.824316515397676,-0.0144350868635187,-0.0006592833594739,0.0011629812017791,3.5108024490722305,4.987696235911533,2.050790816949416,1133.1787054872652,1128.4578831447586,1133.871841874842,1127.497660040768,500.96912814862105,-181.23921420062183,943.9670814035139,-262.3524916525229,151.04869286861663
13.525,0.6032725181576581,0.3791992832150516,-0.1063340984279226,0.0052147051664361,0.0005290522569735,-0.0002003368503408,-0.0016996549899659,0.0034269125988387,-0.9125555227778754,-0.408934704755833,0.0127347816779404,-0.0133743103252765,9.824667852762877,-0.014507927158191,-0.0005423346688857,0.0011218886724616,3.510823618917147,4.987670688211462,2.0508007434768314,1134.3015613840976,1128.2727259410783,1135.9476048553956,1126.8568320348695,437.3486036886295,46.87938887092083,730.3908532108924,-254.60447923588225,151.04882911422575
13.5275,0.5422210794745304,0.6803664419403281,-0.0353845028587125,0.0102785392830828,0.001763938588257,-0.0002856317944754,-0.0016995081047815,0.0034254179365166,-0.9125648052398536,-0.4089140184185957,0.0138047614642722,-0.0132832283280155,9.82524266302706,-0.0145822524112966,-0.0004288634911944,0.0010769398491304,3.510845185288902,4.987646767802948,2.05080889027217,1135.365448505708,1128.6922800891132,1137.5237961408957,1126.2246376445887,349.82186403052754,251.8778597202588,413.5994431509325,-194.04501088508064,151.0489955699745
13.53,0.345433940025061,0.8987340760605527,0.0225133827322068,0.0134082711462903,0.0039531241946643,-0.0002259519084471,-0.0016972460676091,0.0034181776140873,-0.9125736374640312,-0.4088943849138878,0.0147199764033509,-0.0133570188449599,9.826044228745424,-0.0146601526684519,-0.0003184792651643,0.0010334417666872,3.5108677508200734,4.9876246842105,2.0508126917186686,1136.0506707042505,1129.53211523968,1138.0156020711506,1125.886606980444,239.36793539620237,412.9624499758656,40.880065035201355,-83.72506473782377,151.0491379511659
13.5325,0.0534424317563653,1.0509644682586414,0.0720968897051545,0.0141399539249947,0.0073006025666144,-3.4304077295450967e-05,-0.0016939559633722,0.0034029153986785,-0.912581076116672,-0.4088779219971805,0.0154910320007374,-0.0135346622134376,9.827063019602303,-0.0147430058268404,-0.0002108208244077,0.0009971757790522,3.510891385407392,4.987603939298687,2.050810849229249,1136.5622881826891,1130.7570923389928,1137.7281964660715,1125.8060123208995,175.98384102237878,526.6141319565716,-216.0558833389107,13.454213075240608,151.04928603159135
13.535,-0.2597365078567773,1.1320843951195452,0.1105132172260675,0.0130866160598681,0.0111842860967356,0.0002851696930501,-0.0016881803454529,0.0033806730464782,-0.912586338869105,-0.408866372013066,0.0161126814856055,-0.0138320104350353,9.828277013410835,-0.0148313819713834,-0.0001058450662872,0.0009736641499838,3.510915641651107,4.98758313841676,2.05080428696956,1136.930589909362,1132.1651858994624,1136.9353226544563,1125.9538780458204,104.42095601804144,568.624633661488,-393.1593351307001,110.90078128288428,151.04943998847588
13.5375,-0.5326195504497888,1.1249178262128154,0.1316973747870919,0.0108714561698973,0.0147707118672905,0.0007825695616885,-0.0016765416890848,0.0033547595988667,-0.9125891710087872,-0.4088602897559319,0.0165654224988972,-0.0143182088382448,9.82965288370644,-0.0149250341802379,-3.983103244722784e-06,0.0009674238825835,3.5109399359390308,4.987560574865511,2.050794892301665,1137.0843929627792,1133.6002155072997,1135.7623997904186,1126.360516227314,-0.2902478576288105,589.1975871708371,-542.9082860099759,228.79921139807328,151.04960185327667
13.54,-0.7496389396217688,1.0316249284526855,0.1355027522577294,0.0072351104911359,0.0180146597951764,0.0015609066363578,-0.0016559857118753,0.0033283735569634,-0.9125896448956408,-0.4088595014548952,0.0168354344375187,-0.0150552549654751,9.831147884913245,-0.0150230053452437,9.386196352022942e-05,0.0009814341075176,3.510964202980751,4.987535125691961,2.0507846577189226,1136.929138670074,1135.111173835317,1134.220781224406,1127.0978741028107,-127.36622769596408,491.1570233703201,-550.2006500717974,302.91063667022894,151.0498055612144
13.5425,-0.8110045008136474,0.903009599744246,0.1231821245209634,0.0034444498872537,0.0198497613149263,0.0022476447213883,-0.001623872359903,0.0033033525743514,-0.9125876912874265,-0.4088641612299008,0.0169050700599496,-0.0160750672324568,9.832712270616753,-0.0151238567221407,0.000186459353836,0.0010168409660621,3.5109887821195294,4.9875067897163134,2.050775578510767,1136.447561824299,1136.0560006241517,1133.0113965400592,1127.8750694106654,-275.0149353100461,295.3931732617226,-440.01750888660007,333.76351117328613,151.04998292024788
13.545,-0.7441059309314033,0.7418896841966522,0.1036245496008432,-0.0001731975326389,0.0211058452809345,0.0026424385980613,-0.0015807280673795,0.0032790891483646,-0.912583564916346,-0.4088737076318268,0.0167926789767596,-0.0173381438832564,9.834291942693875,-0.0152259620398763,0.0002725168206957,0.0010730335311497,3.5110138308181544,4.987476070897042,2.050769237223125,1135.554063993524,1136.588139701625,1132.0206936799734,1128.766691658677,-483.2180689751618,143.19186420023587,-377.6351102060586,407.10197980264553,151.05016719768534
13.5475,-0.5493659950736,0.5221584249189682,0.0871151331903573,-0.0032623080134805,0.0223629807811581,0.0023678528607813,-0.0015334198311364,0.0032540289170286,-0.9125782664980336,-0.4088858942125749,0.0166210276824695,-0.0187352754322563,9.83583104659278,-0.0153277904613847,0.0003509075657814,0.0011480255551883,3.5110389677772207,4.987443619858029,2.0507663610223763,1134.031471479424,1136.7719599451527,1131.1232209890293,1129.9105793096783,-618.294993936928,10.932488991100508,-288.7940204038845,424.67206447534136,151.05039440723192
13.55,-0.3358324895537323,0.3170544137927257,0.0879604776840913,-0.0044156964388313,0.0233776973967742,0.001702629772721,-0.0014893560511881,0.0032275936959422,-0.91257290548684,-0.4088982202844394,0.0165282716793858,-0.0201692458516768,9.837274544463792,-0.0154281301567579,0.0004207689634987,0.0012387662921549,3.511063626547892,4.98741013903206,2.050766985382559,1132.4625890238387,1136.6428021465808,1130.5767235779535,1130.890051981054,-661.644203480306,-74.07897539245575,-193.9648731332151,391.48471162450977,151.05058688799184
13.5525,-0.1306465942516898,0.0851062257858302,0.1032977106288007,-0.0039365823321523,0.0242627531209532,0.0012118150454142,-0.0014494229701391,0.0031989746761171,-0.9125682384985963,-0.4089089983363346,0.0165311799209345,-0.0215907041677241,9.838570497188316,-0.0155262064074349,0.0004815955454372,0.0013414327333042,3.511087610318277,4.987376151309079,2.050770982858425,1130.723250462022,1136.4015650681904,1130.153396623363,1131.8680028678011,-764.4603079050441,-87.19502160985854,-173.52077846993595,425.88910797311945,151.05077985714
13.555,0.0446068168358179,-0.224617563508197,0.1211230340001971,-0.0021076536946841,0.0247342861463207,0.0014074943830062,-0.0014099526492738,0.0031679065085452,-0.912564635544644,-0.4089174170994915,0.0165665585126616,-0.0229970349348588,9.839671529221295,-0.0156216743487386,0.0005333471415249,0.0014519875121165,3.5111108078459554,4.987342291187621,2.050777979787425,1128.6402874843145,1136.2068270385316,1129.7091196856043,1133.0194975209192,-732.0880452140718,-31.051994838521445,-155.30399192327724,415.0732852397402,151.0510087159204
13.5575,0.1053748035217983,-0.5022414141399665,0.1170315868804967,-0.0003555747964354,0.0244660992024358,0.0024480065648938,-0.0013696190325686,0.0031351517779886,-0.9125620509025864,-0.4089235779637085,0.0166189840199959,-0.0243863702989152,9.840535699632456,-0.0157145117353015,0.0005765254669295,0.0015668273695564,3.5111333288527247,4.9873091687582,2.050787271985736,1127.062810235951,1136.2463050939975,1129.3768766637463,1133.943369294,-563.9053931163772,68.59194108195716,-117.3977504626508,354.45848909852344,151.05119495987856
13.56,0.0732499390790415,-0.7828208437729125,0.076690744284289,0.0008803463088843,0.0234685970857482,0.0039928801423333,-0.001332402411057,0.0031007920221231,-0.9125603601548404,-0.4089277443041495,0.0167603544156306,-0.0257037493240639,9.84112710552576,-0.0158048536718255,0.0006122203149156,0.0016832027764776,3.5111558914985146,4.987277161870671,2.05079755503506,1125.820760518732,1136.5497867439415,1129.1221309332907,1134.791789966412,-421.34234501076406,157.4428038900209,-76.60541847441596,317.98506636243434,151.05137412974673
13.5625,-0.0225296422746531,-1.045816749545519,0.0064727030309823,0.0015863601109722,0.0216585347693409,0.0051329664557747,-0.0013038940406255,0.0030672376474468,-0.9125597892713512,-0.4089293737015271,0.0171077465130692,-0.0269255092130734,9.841415920730334,-0.0158928254096043,0.0006420503927731,0.0017993594208495,3.5111793340227235,4.987246528328788,2.050807367913337,1124.9560985108976,1137.0335191134477,1128.9938495713743,1135.533294625812,-242.05509446033187,211.10133507772497,-1.37945102196709,258.7947254406177,151.05154577594848
13.565,-0.1662535329768121,-1.2566489888725898,-0.0821372273608103,0.0017411649375345,0.0186778996506942,0.0050702403383638,-0.0012864400673646,0.0030393115441632,-0.9125605527904448,-0.4089279425777274,0.0177367933344118,-0.0281003070631812,9.841378300663,-0.0159784267624684,0.0006679354097803,0.0019144040036439,3.5112041298799266,4.987217244306649,2.0508159230028697,1124.6104850464308,1137.6052934193299,1129.115233678181,1136.0857635936147,-32.66091550103227,227.45359738743076,135.79567126432872,188.2577132508392,151.0517065370192
13.5675,-0.3474318861193205,-1.408728422996258,-0.1777919247267226,0.001183530899815,0.0141812969300713,0.0038373176885705,-0.0012801023108005,0.003021756871728,-0.9125619352294204,-0.4089250141820658,0.0186788020377951,-0.02929678189137,9.840996245330771,-0.0160614606492738,0.0006917596316833,0.0020281239441076,3.5112303580978783,4.98718903775631,2.0508225744122046,1124.7927939333924,1138.170787100385,1129.6728279276963,1136.4745831920663,154.1844889808303,155.72207081524834,286.5623611259259,95.15990804387333,151.05188476864868
13.57,-0.4678074355811495,-1.4271203923768059,-0.2301747427914725,-0.0001531749169689,0.0101597828416087,0.0025012768092513,-0.001283590608141,0.0030182604279557,-0.9125626653488814,-0.4089234071583881,0.0199295659783066,-0.0305783387582065,9.840257424504129,-0.0161415021857547,0.0007151160424896,0.0021407088506146,3.5112578584989063,4.9871615008755565,2.050826784864987,1125.381407491335,1138.3839037734062,1130.5480454838107,1136.5615631338344,301.78464042284395,6.172953465876481,441.09813665135925,-8.79439150108003,151.05201970527807
13.5725,-0.5133066215511911,-1.3143139654780016,-0.2454871512569798,-0.0025454334895243,0.0058664397024751,0.0013712570073957,-0.0012923001489532,0.0030289731602379,-0.9125628944391336,-0.408922801784766,0.0213940672149552,-0.0319740045492439,9.839155314528176,-0.0162179121259668,0.0007392213432767,0.0022522857743317,3.5112861078575848,4.987134025549357,2.050828948911754,1126.3017171355064,1138.2016518677144,1131.8783186109526,1136.4306112345607,448.26248215251593,-177.4578688982906,679.5335456350433,-96.59264382974777,151.05213912645735
13.575,-0.4483222197539658,-1.0233289949905626,-0.2257684755698691,-0.0060681580063252,0.000526056576085,0.0004372468484225,-0.001299432948191,0.003048531472051,-0.912564244530328,-0.4089196391520449,0.0228907469822716,-0.0334333638776499,9.837689483848672,-0.0162898725646694,0.0007647788213425,0.0023625439942686,3.5113145031848734,4.9871058017033745,2.050830027068111,1127.622719902098,1137.4966144289147,1133.9457132119867,1136.0785999146856,496.7770317809615,-327.97839394942787,815.1509881683613,-153.6796770663146,151.05226311983427
13.5775,-0.2914753378656075,-0.667222068190178,-0.1864925962350875,-0.0087597393346234,-0.0030575352138447,-9.744305251391021e-06,-0.00130258757035,0.0030695008908457,-0.9125679834929415,-0.4089111472082532,0.0242978220427881,-0.0348347970055753,9.835865499073234,-0.0163564211737034,0.0007918069570699,0.0024706900928436,3.5113429504386224,4.987076352284082,2.0508307061420608,1128.7856022944115,1136.561759897967,1135.954073551795,1135.6622128492293,453.4942333160408,-419.60782953910154,822.4206102040441,-185.3365862213564,151.0523495234727
13.58,-0.0542188837823063,-0.2387276470473923,-0.1354118489886804,-0.0102908645269216,-0.0044800198637317,-0.0002079258346943,-0.0013024122396984,0.0030874784118245,-0.9125746600584727,-0.4088961257389721,0.02557047669877,-0.0360873126510662,9.833694804938201,-0.0164165398892834,0.0008196576711027,0.0025753261954474,3.5113713478547735,4.987045566033793,2.050831825112189,1129.8901910686775,1135.3985752812196,1138.057816263006,1135.1519169835788,450.37906461129614,-529.2698620537665,889.194580984435,-240.8705540822236,151.05241757244684
13.5825,0.2624849186065351,0.2866106677441588,-0.0718494175049752,-0.0102000530670651,-0.0036108652593242,-0.0002755183136629,-0.0012986913313705,0.0030995366739053,-0.91258429751422,-0.4088745416949915,0.0266585463529314,-0.0371335347411792,9.831195142875066,-0.0164692875395745,0.0008471503976976,0.0026742856410774,3.5113991247037606,4.987013421656403,2.050834760460526,1131.0374976174676,1133.9154105876987,1140.4000464567164,1134.4578600788184,378.9559503522331,-536.1169034860793,785.1052913903139,-264.82257542902926,151.052477353739
13.585,0.499379729590033,0.6828612334524745,-0.0226584630359036,-0.0084144234092144,-0.0011526116838592,-0.0002535752555324,-0.0012908880421102,0.0031028901087553,-0.9125963285554306,-0.4088476836857596,0.0275061993984596,-0.0379210205791531,9.828390761220495,-0.0165138978367447,0.0008727405464364,0.0027647617029102,3.5114260235616395,4.98697979505803,2.050840081286108,1131.7849708204392,1132.7179907637887,1141.9833427199583,1133.8278041064336,245.3764611326804,-453.19958953152496,514.139319213438,-259.8496703462891,151.052508629822
13.5875,0.6504877559927038,0.9924158607788522,0.0186446790589164,-0.0053443407254836,0.0024322986829674,-0.0001906103021188,-0.0012807057721753,0.0030960238151997,-0.912609880482769,-0.4088175074121511,0.0281077407932532,-0.0384018343652069,9.825312112189481,-0.0165498335901681,0.0008947603517456,0.0028436765762223,3.5114519905409045,4.986944558655576,2.0508480510598255,1132.2643799231312,1131.6494126400407,1142.970743052784,1133.1586117270867,142.27918986683207,-400.10860934097536,276.414216992553,-273.4483417346017,151.0525204903554
13.59,0.7029336496834157,1.215537277361662,0.0517811863320825,-0.0018885049543317,0.0063644992564742,-9.847264069217038e-05,-0.0012727718946968,0.0030776828647964,-0.9126243580100946,-0.4087853374837909,0.0285125652741037,-0.0385091630622674,9.821995454904604,-0.0165768457461581,0.0009117216511967,0.0029080363525894,3.511476971613352,4.986907936186403,2.050858437807456,1132.4963667697732,1130.7174477170843,1143.3654138049208,1132.460562397761,31.16753780895546,-339.5674192190123,9.071606354608269,-286.96691331165374,151.05251627325228
13.5925,0.6297457985723147,1.3383908325246394,0.0736769044872993,0.0014046063594862,0.0098818587126268,4.576718762781923e-05,-0.0012676004426242,0.0030473649480961,-0.9126391928516656,-0.4087524440503666,0.0287039379037672,-0.0382231654750965,9.818482176832257,-0.0165950666985076,0.0009225285653808,0.0029550864896352,3.5115011012879656,4.986870174988195,2.050870646905536,1132.420217612176,1129.9515755439454,1143.016101084557,1131.7237771605282,-100.20229961395015,-302.00668073211824,-312.13503374819663,-334.56747068197956,151.052492877933
13.595,0.4224394356286559,1.3910684350119993,0.0851501400873328,0.0046025505861657,0.0131875835653124,0.0003133191484817,-0.0012610188422304,0.0030077016061335,-0.9126529451067614,-0.4087220338060527,0.0286090895181656,-0.0376188403230195,9.814817432814015,-0.0166050571183267,0.0009266097908293,0.0029826348955207,3.5115251040119952,4.986831773790764,2.050884191165772,1131.9953552717031,1129.2074143134234,1141.8047386361795,1130.7877250443507,-202.9317039192341,-245.2552110931753,-555.0266939062307,-351.63440943618014,151.05244313351383
13.5975,0.1907497663498654,1.3708666922208395,0.0812063283980143,0.006067754181674,0.0157663347691225,0.0006320479204377,-0.0012486579433552,0.0029634658811678,-0.9126632739438792,-0.4086993100752404,0.0281728638800574,-0.0368129637181142,9.811048677433165,-0.0166078262747775,0.0009240669329741,0.002989394237504,3.511549595084847,4.986793614050908,2.0508981454403514,1131.40555909258,1128.7252994884795,1140.2409676150264,1129.9656051133477,-270.62939105317963,-162.6261769216722,-707.4717596808157,-333.74924502242993,151.0523841540723
13.6,-0.0363295501777415,1.29135536044662,0.063104214031469,0.0055233178292028,0.0188876224638782,0.0010287256862873,-0.0012247357812485,0.002918125775776,-0.9126688525237016,-0.4086872273332378,0.0273092071966942,-0.0359131280944112,9.807224372325718,-0.0166048707958395,0.0009158513172687,0.0029750110859582,3.51157486192738,4.986756158496669,2.050911397445659,1130.6422083164375,1128.3942834288152,1138.267379837776,1129.1189788192387,-357.31151441517665,-107.11959177672868,-919.4731032660839,-367.3015694701797,151.05230781632307
13.6025,-0.2275329089020719,1.1277614761485883,0.0284787988014922,0.0028842250743401,0.0229238726590303,0.0014595363258145,-0.0011830709554766,0.0028740196881295,-0.9126697677089016,-0.4086855952320914,0.0259217155658326,-0.0350137442159094,9.803392188111385,-0.0165981755728313,0.0009036947874408,0.0029400758516249,3.511600702332097,4.986719529784033,2.0509232693706685,1129.6190015205038,1128.189701529596,1135.6436020986953,1128.1290972659965,-379.5934595670449,-42.177708431056764,-971.0824726564471,-345.978507230248,151.05219735924484
13.605,-0.2820105647400057,0.9378330180599432,-0.0052583499754527,-5.648975204874777e-05,0.0260018037070693,0.0015741045743667,-0.0011225832859989,0.0028357493892455,-0.9126669698237873,-0.4086922641077621,0.0240300629899882,-0.0342134667083051,9.799596877541694,-0.0165901612834089,0.0008899173815385,0.0028861988447413,3.5116268937553694,4.986683723920448,2.050934200318536,1128.7442410186022,1128.18339488666,1133.4119674744932,1127.3890862830874,-340.0823831815836,28.735080834854926,-861.9952324518531,-259.41551294272966,151.0520906546047
13.6075,-0.2187843435170772,0.7049973622303528,-0.034292722338238,-0.002802584227905,0.0282675210805179,0.0013022829873939,-0.0010505083375191,0.0028080425306678,-0.91266149542865,-0.4087048643841538,0.0218107238832254,-0.0335517306810706,9.795878973318446,-0.0165836326145802,0.0008772454762897,0.0028159102665436,3.511653264686286,4.986649196320527,2.0509441412159384,1127.9185896045963,1128.3333769337703,1131.3336259364369,1126.8320197012831,-338.20197573161204,96.58083797255232,-837.303405996484,-181.77537615837517,151.05197018892036
13.61,-0.0436822932063043,0.4003681644609679,-0.0538336634703389,-0.0047551966194253,0.0299076598822697,0.0007980415825417,-0.0009766926453423,0.0027939319284945,-0.912653680908402,-0.4087225961655156,0.0194803789691084,-0.0330221783783923,9.792273974689692,-0.0165817246883133,0.0008685966975631,0.0027323168638492,3.511679834577412,4.986616899818566,2.050952392267172,1127.0532311399445,1128.6662990765224,1129.2254504445116,1126.4802094022957,-288.14553303450384,144.27407801629232,-686.1451754600986,-66.52420019967263,151.05181165252534
13.6125,0.1337004926964082,0.1459111607656047,-0.0539194059892483,-0.0043622076067809,0.0304685461860868,0.0004015130663355,-0.0009074281091232,0.0027933008205425,-0.9126442956611291,-0.408743726364414,0.0171737965961235,-0.0325959611259336,9.788811729600608,-0.0165877500379775,0.0008669585029902,0.0026387085799441,3.51170646576454,4.986587858569281,2.050958408608716,1126.4778619394235,1129.0547473238519,1127.9029000591358,1126.4993987002847,-191.30200647334013,176.35661762057651,-426.8651005872713,73.21777637570214,151.05166939423648
13.615,0.2744891881535067,-0.0854454448734474,-0.0379489054635346,-0.0017341196719958,0.0303409636132274,0.0001229704102291,-0.0008446352136773,0.0028018889485457,-0.9126350369705108,-0.408764490859298,0.0149208247084049,-0.0322099963172755,9.78551595946073,-0.0166049036568458,0.0008751397148377,0.0025382592295964,3.5117331527506255,4.986562289915008,2.050962653326335,1126.0967211075777,1129.5480821646256,1127.091124941575,1126.8462982841743,-114.44328412287634,213.98213190791176,-243.84183028905983,185.33000308665623,151.0515181181392
13.6175,0.3471916822316181,-0.2816881055063106,-0.0120420765136053,0.0016030627608653,0.0297204574464632,-3.347804607099869e-05,-0.0007887598692422,0.0028146193611476,-0.9126272505771038,-0.4087819225563458,0.0127239180358659,-0.0318023031401765,9.782403858931588,-0.0166358772086947,0.0008953203716585,0.0024338945064084,3.511759731488212,4.986539006856193,2.050965536586643,1125.9056455188093,1130.1246579833912,1126.6836909076908,1127.4260487157176,-24.49965173777472,248.6871903916901,-83.60606362638066,272.16193691038205,151.05136005100792
13.62,0.3274574752932892,-0.4191355483244705,0.0197621382595357,0.0041374659123947,0.0285678313969994,-3.0996972272389375e-05,-0.0007442700573354,0.0028270830112877,-0.9126220755731372,-0.4087935045212418,0.0106666988773285,-0.0312932853050633,9.779486342863503,-0.0166824980520634,0.0009287811140374,0.0023282609980778,3.5117861735199067,4.986516782659617,2.0509670122457986,1125.9742228488888,1130.7915181165843,1126.6730946234427,1128.2071079687264,95.98103048377517,306.2526496590157,53.80613739015712,367.8986247896198,151.05119404357458
13.6225,0.2247173083834492,-0.4997995567090121,0.0560243154132961,0.0056021268677859,0.0267198621292545,0.0001721518546074,-0.0007141749436567,0.0028345124547424,-0.9126207499615144,-0.4087965040595752,0.0088060470162216,-0.0306097376342206,9.776768906937987,-0.0167455378140027,0.0009757536263524,0.0022233680964335,3.511812521648148,4.986494278544743,2.050967338237633,1126.3855506712282,1131.6559212316863,1126.9527215946416,1129.265541839666,207.20049803853297,315.6527053808705,125.74049273687478,393.81133944947226,151.05098523590937
13.625,0.109509072105243,-0.4899958148698891,0.0787874595174546,0.0056582063536275,0.0250467456611031,0.0005202020942563,-0.0006929253399894,0.0028316682936933,-0.9126234213588778,-0.4087906341800476,0.0070426672583932,-0.0297379815556025,9.774252576001054,-0.0168246690455246,0.001035275046606,0.002120220119052,3.511838732412014,4.986470023018615,2.050967027611851,1127.0102253390812,1132.3697816434883,1127.3017970871272,1130.1761646659731,304.72185054988284,262.64139528685286,137.95553864136326,357.02492508860644,151.0508023924356
13.6275,0.0082608975086509,-0.3997912538487416,0.0890930547079934,0.0047404920032264,0.02350644578626,0.0010434275316895,-0.0006748478727011,0.0028166590444344,-0.9126293297891264,-0.4087776093120295,0.0053002219178127,-0.0287230148394725,9.771934827870382,-0.0169184959300694,0.0011053124704899,0.0020190344330567,3.5118642081578697,4.986442571616182,2.050967081020264,1127.9091599239773,1132.9691282081203,1127.6424992878483,1131.0506664651089,444.4026720853559,207.41943645717976,128.5230235666203,367.4080508231208,151.05060874586303
13.63,-0.0600638053829418,-0.2082520528730081,0.0870229842942032,0.0031964133626371,0.0219309559891951,0.0017668020305151,-0.0006574215234743,0.0027914900147519,-0.9126374311129462,-0.4087597466642378,0.0035861918438759,-0.0276507107744726,9.769810911563678,-0.0170247405038183,0.0011830959198418,0.0019193704674234,3.511888626014075,4.986411485806071,2.050968012598178,1129.2322386995083,1133.4068788257744,1127.9444122049604,1132.0132049200893,507.2504870712808,92.94208825143326,87.3220639326382,336.0577463437878,151.0503611980099
13.6325,-0.0617166914491295,0.0062989796477136,0.0782825204313136,0.0021720791082444,0.0210116424819415,0.0022479730835823,-0.0006374666590816,0.0027590886909793,-0.9126462408425352,-0.4087403422635973,0.0018984567456698,-0.0266241698564534,9.767875243212686,-0.0171405227705859,0.0012655169646957,0.0018200929879384,3.511912161107276,4.986377194119704,2.050969431458616,1130.445412359334,1133.4338386493775,1128.0791096075116,1132.730955196828,478.1138073937241,-77.39842841908006,33.94236571876483,270.45770499658755,151.05013989048567
13.635,-0.0104496937685935,0.2504258421778301,0.073836567159573,0.0018044939224139,0.02078790656132,0.0022747851766052,-0.0006144560375977,0.0027208955673322,-0.9126544928836924,-0.4087222110156908,0.0002638269561515,-0.0256936520998615,9.7661225724801,-0.0172626072784965,0.0013496176345901,0.0017195842401297,3.5119354215204734,4.986340007675743,2.0509719545661858,1131.6228077364765,1133.019886683679,1128.114124033554,1133.365493445072,471.1257396244664,-290.36336332978874,8.82143572584799,261.96428061125965,151.04990026025774
13.6375,0.0949052135276755,0.5331936654896682,0.0881429761573806,0.0021733315388657,0.0217225758293499,0.0018529241154065,-0.000589147685485,0.0026776460138896,-0.912661608372388,-0.4087066380603953,-0.0012809231180119,-0.024881170088097,9.764548646304391,-0.0173876537040951,0.0014329707509889,0.0016158917963478,3.511958935866132,4.986300685441785,2.0509760134345245,1132.8010410574568,1131.9820218327286,1128.1232167861408,1134.0407765998843,368.0579395258853,-462.40529884532447,13.34453965723488,232.13880174335836,151.0495890666638
13.64,0.2061400218686638,0.7229865637530549,0.1221961739065541,0.0029768268123716,0.0237044207214001,0.0016043705694875,-0.0005616727598192,0.0026304113593526,-0.9126672585033976,-0.4086943508335949,-0.0027151829921153,-0.0242143991183886,9.76315049912698,-0.0175124627981151,0.0015138647332238,0.0015069302352435,3.511983325357997,4.986260009295266,2.0509819025004834,1133.4630974341062,1130.707860189452,1128.1808467318403,1134.526187453789,179.4322220986844,-568.9221864157612,49.69505099412424,170.6631277812788,151.04930878535444
13.6425,0.3317853877129059,0.8236524179387658,0.1773597417605825,0.0038304385362145,0.0269284763739461,0.0018496217011015,-0.000527939757487,0.0025821536621611,-0.912671443158344,-0.4086853362857258,-0.0040860905585984,-0.0237833562718094,9.761926295947251,-0.0176341940989826,0.0015913829407672,0.0013906911270947,3.512009405273048,4.9862190493024166,2.0509893059387663,1133.69820216795,1129.1374109006504,1128.3716920411111,1134.8940922387908,20.003953282234193,-648.6621619082068,105.07811805134496,116.93482816942884,151.0490058929333
13.645,0.4663463927043061,0.8304479640302014,0.2445880879747331,0.0044436866186696,0.0308057510003242,0.0022371857020824,-0.0004829308809785,0.00253586966071,-0.9126740582213864,-0.4086798165427829,-0.0054641032462723,-0.0236814560373812,9.76087504778996,-0.0177505353454802,0.0016652854126725,0.0012656096645147,3.512037516629502,4.986178729855402,2.050998090244865,1133.5631172005171,1127.4645493799117,1128.7062373220967,1135.110861594636,-133.5897588827966,-653.469438463651,166.40813560913685,33.21126361360647,151.04868408210223
13.6475,0.6070471738091054,0.7245363713503993,0.317819731486847,0.0050342137523511,0.034447818059869,0.0024550760987771,-0.0004253191736666,0.0024927212824277,-0.9126745047441172,-0.4086791268044481,-0.0068748536460891,-0.0239358665419388,9.759996044904701,-0.0178598212898099,0.0017357346954813,0.0011309433307289,3.5120675091816334,4.986139337964747,2.051007795403745,1133.030253373536,1125.8700637083316,1129.2037327191572,1135.0601485568588,-301.6338350763346,-634.0085423751052,238.8426321755641,-104.77584850753554,151.0483398334638
13.65,0.7667198250229171,0.5035077086429489,0.3957434559237778,0.0065638222075731,0.0373680268094663,0.0028863338249608,-0.0003605612978781,0.0024535981014346,-0.9126726837476332,-0.4086834771217398,-0.0082305859101694,-0.0245110073011868,9.759287955635479,-0.0179610858833879,0.0018030552294192,0.0009871104811128,3.5120986801419027,4.986101228746727,2.0510171595527464,1132.0549480251354,1124.2945066680356,1129.9004504829747,1134.586982352098,-392.1284741540928,-494.1958822802081,248.69224035920013,-251.2755398049239,151.04790201522977
13.6525,0.8727979369990391,0.2868463902693192,0.4332864809690257,0.0088411005551829,0.0383526884316486,0.0038863581090095,-0.0002933822637355,0.0024188775514271,-0.9126696628106256,-0.4086904766921801,-0.0094648156326336,-0.025364435850281,9.75874763972952,-0.0180540592852114,0.0018674709523297,0.000835537428269,3.512130147645998,4.986064685485545,2.0510246825679745,1131.069611002766,1123.399084296931,1130.4471939209527,1133.8037708578345,-406.1430668845152,-255.90953331498528,174.95861476301792,-393.1725822961948,151.04751791680067
13.655,0.9274933807532876,0.098987526641974,0.4156533334622531,0.0117158992524095,0.0377407222952305,0.0058156358888674,-0.0002247693420517,0.0023864888958247,-0.9126670389801534,-0.4086965708658489,-0.0106001009639669,-0.0264365432138907,9.758369107420851,-0.0181390619771521,0.0019288010898091,0.0006784224193206,3.5121612203671955,4.986028822701625,2.051029948466806,1130.0242326907123,1123.0149590014605,1130.7752435567902,1132.621119440617,-451.16680247062726,-55.35294906580064,49.44217771625654,-595.3486128157671,151.04711559907236
13.6575,0.9174410673084717,-0.0317102115757949,0.309679784712866,0.0148562132537727,0.0355327685373754,0.0088151902580258,-0.0001582882812464,0.0023554800675338,-0.912665669213814,-0.4086998497794497,-0.0116058935076412,-0.0276639370638275,9.758142767107984,-0.0182168433960305,0.0019862206013135,0.0005187431314295,3.512190950236473,4.985992644643102,2.051032094259449,1128.8137769904124,1123.122319551602,1130.6944048095343,1130.8270277937552,-422.8299543893559,119.47317530773591,-132.96115025616845,-698.4029075826609,151.04661359726617
13.66,0.8419507670308538,-0.0378367529541703,0.1532847897368614,0.0169863972587363,0.0334519947488067,0.010987668198357,-9.669938625314145e-05,0.0023277695824499,-0.9126659611608718,-0.4086993909000752,-0.0124437975914681,-0.0290377536146863,9.75805477050456,-0.0182884409413354,0.0020383359840383,0.0003598271003363,3.512218806994312,4.985955597159185,2.0510308399472064,1127.910082918766,1123.612324877999,1130.1104378055095,1129.1291049027043,-325.62318098691435,256.0147442560319,-347.51229647306536,-688.6199499271703,151.04618041939423
13.6625,0.6954910810393496,0.0584330819030409,-0.0437471674191356,0.018742011577439,0.0321626826704265,0.0115828405590068,-4.271843916257583e-05,0.0023015699454942,-0.9126691381422224,-0.4086924716746431,-0.0131056353858525,-0.0304805885213145,9.758087225120397,-0.0183550357503459,0.0020835200509665,0.0002048308395899,3.5122441478835014,4.985917594867725,2.051027178349568,1127.185661085478,1124.402393272882,1128.9568433271693,1127.38392804412,-263.79917170070684,391.6700555190643,-607.9391990882373,-739.7492419243671,151.04573303536688
13.665,0.4357411772080438,0.2527036419741851,-0.2707848490112323,0.0204203854696668,0.0321677763241328,0.0101387955566196,1.699903152676123e-06,0.002274035305743,-0.9126754288078704,-0.4086785986096214,-0.0136043458123763,-0.0318999981828987,9.758218425589192,-0.018417821193856,0.0021200646031225,5.63809874590124e-05,3.512267237589403,4.9858785712650135,2.0510215425160765,1126.5910870602625,1125.5706751555947,1127.0707418100678,1125.4303586930819,-165.62239996139536,450.946173506984,-726.4417028475466,-668.1956410361955,151.04518089351487
13.6675,0.1475632945662386,0.4395824807330083,-0.4135343736649808,0.021487311620948,0.0336325014596896,0.0078011912835067,3.635220853307994e-05,0.0022463650890808,-0.9126833178490574,-0.4086611501943021,-0.0139504534585796,-0.0332880977611401,9.758423421740284,-0.0184778585134673,0.0021464242209316,-8.361842427422607e-05,3.5122895106628023,4.985839031685504,2.0510150714316544,1126.357549085671,1126.6571241404172,1125.3246348129308,1124.0429498389385,-37.84786411852863,447.47200297892766,-657.0468540664422,-483.91641738303935,151.04470871098704
13.67,-0.2140565448054668,0.6066376828794743,-0.4819372540429159,0.0222006641965476,0.0361114281142851,0.0054218226348931,6.048112655652776e-05,0.0022211451948962,-0.9126906135730224,-0.4086450081155386,-0.014132009425842,-0.0346562539095346,9.758674853418436,-0.0185359751954886,0.002161575741833,-0.0002141403318233,3.5123117129537462,4.985799948980112,2.051008737599991,1126.4018477396698,1127.808035170489,1123.7855075397363,1123.0107766061672,58.07156340403044,467.4995324553968,-522.4258370362479,-345.08893206177663,151.04422461439012
13.6725,-0.628994260360701,0.7344989246191302,-0.4870585755108189,0.0224775287625994,0.0385451447527988,0.003377770237768,7.748940934067732e-05,0.0021984789022393,-0.9126959674803832,-0.4086331826933647,-0.0142286710023248,-0.0360049493404548,9.758944245930746,-0.0185926737381633,0.0021653166295999,-0.0003353522530144,3.5123340528160334,4.985761272280754,2.0510031474436903,1126.6479069026911,1128.9946218026937,1122.7125056277503,1122.31750517863,131.6508774034695,481.9287192361273,-264.24204614414026,-191.13132815179335,151.04373098652877
13.675,-1.0834801259602376,0.8029527584580703,-0.4305366775227696,0.0217944371767894,0.0405181976120647,0.0018276171198048,9.221260125389078e-05,0.0021800805152598,-0.912698082398796,-0.4086285616491643,-0.0143309147903442,-0.0373763883832729,9.759203825001379,-0.0186480545661158,0.0021580080001542,-0.0004482168723458,3.5123567423204207,4.985722653126156,2.0509983933921454,1127.0601021266873,1130.21767876667,1122.4642973090151,1122.055119965408,190.31485047564027,543.3345314375007,107.46725996330636,-13.66104208864058,151.04322635178636
13.6775,-1.6169123574891435,0.8095495591011534,-0.3228153671369263,0.0189692004991159,0.0430289669296658,0.0007682447354957,0.0001075858197025,0.0021664459706613,-0.9126964862103192,-0.4086321979083219,-0.0145031204302883,-0.0387782679561736,9.75942768334355,-0.0187018091740759,0.0021406411427308,-0.0005543125722167,3.512380427810269,4.985683442995166,2.0509948666092033,1127.5994811550695,1131.7112944598816,1123.2498419275669,1122.2491999681868,178.48986530851928,545.0624898730614,454.02201062502104,156.1365299742048,151.04260894545243
13.68,-1.9933923298092335,0.7491280042749499,-0.2257376291956595,0.0142920025617813,0.0454575018168052,0.0006361574549521,0.0001227478940619,0.0021554185256113,-0.912691775122347,-0.4086427718640817,-0.0147611612225749,-0.04014405059277,9.759593045337633,-0.0187533029789152,0.0021148038932172,-0.0006555945351853,3.5124055921436015,4.9856433694923155,2.0509925704965184,1127.9525514532295,1132.9429912160347,1124.73440736214,1122.835802615279,86.75815557079213,474.83846391712024,715.5669837331307,318.74448944958675,151.04208539640115
13.6825,-2.2262605857776228,0.6226537955883322,-0.1472034462379887,0.0072529724419841,0.0476999366810611,0.0012385033383173,0.0001372427074643,0.0021469084488251,-0.9126842514810464,-0.4086596088172159,-0.0151092752556379,-0.0414514707575611,9.759680595751535,-0.0188017724991933,0.0020824959924262,-0.0007542187863832,3.5124325918298958,4.985602593709167,2.0509909118833933,1128.0332719329235,1134.0854867794676,1126.827676846233,1123.8429224154347,-62.622090042840895,458.0368400632972,978.7223424595427,525.1430173355945,151.04155367526255
13.685,-2.2801621713677807,0.4094635577759137,-0.0881032551887945,-0.0021747029409791,0.0497027212007028,0.0021951046584042,0.0001537804946937,0.0021400246747843,-0.9126742028296346,-0.4086820704668616,-0.0156117782949583,-0.0426939880919156,9.75967498926864,-0.0188465540560144,0.0020460465481911,-0.0008524996285786,3.5124618232735223,4.985561449124765,2.0509901475685948,1127.6394410030155,1135.2331754163515,1129.6280190744385,1125.4615177019573,-241.86627777408185,364.4490223768386,1011.2581987789064,642.7728565446984,151.0409078742262
13.6875,-2.1249299715186067,0.1988182123674307,-0.0631272918243544,-0.009413045363979,0.0506962372663526,0.0025427988648643,0.0001740769465012,0.0021323498916278,-0.9126621672511805,-0.4087089678246028,-0.0163242156930375,-0.0438349177882911,9.759565315930889,-0.0188873330529327,0.0020079662707398,-0.0009526226139186,3.512493158463005,4.985520373114013,2.0509903021552174,1126.8239405440531,1135.9077318913514,1131.8839678401266,1127.0567866981576,-427.4209867954992,190.5626179620792,820.4516852343472,660.2240672460944,151.04036471179157
13.69,-1.7843293906060522,-0.0187971269384798,-0.0438398105497422,-0.0150684198062697,0.0509330875882526,0.0023762156227436,0.000199904051863,0.0021243197449421,-0.9126489629874788,-0.4087384716943486,-0.0172765028161612,-0.0448937516370834,9.759344654964298,-0.0189243608758905,0.0019707422489668,-0.0010564259172161,3.512526050846397,4.98547988007584,2.050990826070953,1125.5023360690384,1136.1859885061615,1133.7302775006094,1128.762638038187,-671.6424330989726,16.07216054803506,665.8541763608678,741.3304904480561,151.0398183388872
13.6925,-1.218565564974858,-0.253418455444462,0.0005149841751407,-0.0196497203134022,0.0501875025421205,0.0016967090547472,0.0002312740102277,0.0021177913214975,-0.9126355632707386,-0.4087683994269776,-0.0184512719548402,-0.0459057672627776,9.759009909720952,-0.0189585926577422,0.0019366012983468,-0.0011652316385935,3.51255963646053,4.9854400231888345,2.050991612472097,1123.465728378558,1135.9880926940916,1135.2132387219315,1130.7634391503987,-786.0162411215377,-160.89169052731663,403.959293694225,703.8908327886737,151.03916157902466
13.695,-0.6665837324083249,-0.4033490733431281,0.0715846595507881,-0.021746462401241,0.0485438533674599,0.0008308346024287,0.0002711307376527,0.0021133620362053,-0.9126231842216894,-0.4087960287603324,-0.0198881861996238,-0.0469109708035155,9.75856114156504,-0.0189917066429654,0.0019073411189502,-0.0012799533250435,3.5125932115721166,4.98540105095366,2.050992854182193,1121.57225486343,1135.381530053525,1135.7500739690809,1132.282092202131,-743.1524921718506,-317.74791943609625,71.90800231934712,557.251707053976,151.03861545496684
13.6975,-0.0908406971979394,-0.4877458908301988,0.1854515580451556,-0.022301886036178,0.0460604709737671,8.808156615593664e-05,0.0003178290121831,0.0021097127730058,-0.9126131190698796,-0.4088184761129731,-0.0215546916728104,-0.0478814544249502,9.75800143324983,-0.0190260480290018,0.0018841970713553,-0.0014007707416388,3.512625745714403,4.985363345471388,2.050993818649369,1119.7499659176995,1134.3993530969115,1135.572778733528,1133.549697685668,-674.6324489011695,-432.6125116778945,-172.96497809577002,457.1836251544223,151.03807330749427
13.7,0.4631121628872425,-0.5181395534129752,0.3278886361759166,-0.0216282480481728,0.043516675479865,-0.0002040252313319,0.0003671496637558,0.0021055657914806,-0.9126063439062512,-0.408833569192921,-0.0233660229882193,-0.0487712730020699,9.757335978828088,-0.0190644383821035,0.001867770714068,-0.0015271131259129,3.512656507349557,4.985327157208876,2.050993792988696,1118.1990926189235,1133.2184674951352,1134.8852490786019,1134.5680103279035,-513.1578911479317,-488.365507098175,-365.3792107150704,344.9313376326615,151.03753670247835
13.7025,0.9451415685042488,-0.5045038663593101,0.4817771323113326,-0.0193997618679219,0.0415404064868963,0.0004487596949591,0.0004158574860301,0.0020992623105861,-0.9126031338059282,-0.4088407043445151,-0.0252520106014921,-0.0495361679587004,9.756571240251565,-0.019109862878661,0.0018580188235455,-0.0016578479936989,3.5126855936029124,4.985292320423271,2.0509913960232207,1117.1841764619592,1131.95752556142,1133.7458826799525,1135.2743543738316,-292.46059910643817,-538.0337174075228,-553.9177324539388,243.53549147477068,151.03700972495565
13.705,1.3894547692486174,-0.484057681933677,0.6390373871771313,-0.0149736947173947,0.0403527355666441,0.0027381753272928,0.0004624243065232,0.0020903982778584,-0.9126033385341044,-0.4088402216427183,-0.0271574563679473,-0.0501672553358423,9.755714266147672,-0.0191651260113361,0.0018543401142372,-0.0017914983403613,3.512713591300793,4.985258147956342,2.05098532921518,1116.7367896233918,1130.528298908098,1132.1156604163327,1135.785687785277,-33.943628484719206,-493.5492753259568,-601.4289884875158,138.39380807738078,151.03639257885655
13.7075,1.620450216095894,-0.5018734162674477,0.7193278268790833,-0.0100444652321225,0.0406417494570776,0.0057158722780322,0.0005029360494452,0.0020787412818376,-0.9126072189629924,-0.4088315478840778,-0.0289789488383392,-0.0506378625787328,9.754772828855913,-0.0192325810480481,0.0018557098880352,-0.0019265228765886,3.5127406023269185,4.985224159969961,2.050976219789612,1117.0144583195358,1129.489779184791,1130.7387377375155,1135.9663234142183,226.44331313264144,-375.0859046334295,-509.8771198244889,30.751634184884743,151.03589418123977
13.71,1.6928508323871678,-0.5876948747107114,0.7298521657354282,-0.0044696811624115,0.0415735626118017,0.0088359217484203,0.0005329199983653,0.0020643987001783,-0.9126149526927446,-0.4088142947849366,-0.0305973364354912,-0.0509202085275764,9.75375526738203,-0.0193139391605559,0.001860724858537,-0.0020618060223557,3.512766127814229,4.9851901134075565,2.050965683405161,1117.8690061890552,1128.6528693849307,1129.56627481721,1135.9394459562016,469.01642137247046,-319.73213942982966,-427.63444778149864,-49.4177105370377,151.03541635259612
13.7125,1.6111780068966755,-0.7675629575763132,0.6706591493230563,0.0018057726261429,0.0416839023686126,0.011445556716243,0.0005543547808152,0.0020457875846381,-0.9126254042369816,-0.4087910020637985,-0.0320201692908969,-0.0510046174387219,9.752670147578552,-0.0194100849130957,0.0018676265576203,-0.0021972175053555,3.512790394133877,4.9851559064914195,2.050955098877224,1119.3595404263983,1127.8911184876415,1128.6005654986077,1135.719234861533,590.9698970659786,-238.52848572091915,-261.6598131393923,-104.97755386552213,151.0348717681989
13.715,1.4336874216977715,-0.952613387235612,0.5811161335754753,0.0056470023544524,0.0401070996849102,0.0124713877221478,0.0005722550570882,0.0020237819812279,-0.9126367889314144,-0.4087656437078568,-0.033289713716511,-0.0509455188838811,9.751526518642503,-0.0195209312667259,0.0018745295497991,-0.0023334856347671,3.512814182740571,4.985121533952835,2.0509457385445784,1120.8238556743845,1127.4602269563263,1128.2579757515132,1135.414558186874,596.2480984107947,-127.885546489395,-34.286410496901325,-138.65129023063324,151.03444571133173
13.7175,1.1917176331181492,-1.1217512262727876,0.4734207057433162,0.0077186252197582,0.0369014962085167,0.013086424067746,0.0005906325086879,0.002001315058339,-0.9126477606120708,-0.4087412081012345,-0.0344163185482656,-0.0508217349428104,9.750334632054644,-0.0196453201404101,0.0018796338963787,-0.0024719251000455,3.5128378020277817,4.985086583815588,2.050938740741355,1122.3407809184528,1127.2516907551944,1128.4291334461232,1135.0259784103798,649.6661910222778,-35.25315906703685,182.20277430215785,-181.02263685433977,151.03405284736044
13.72,0.8747636363471208,-1.2481822631545885,0.3392022228365162,0.0091827192532299,0.0321733526368988,0.0140760154108186,0.0006087766682233,0.0019783322523058,-0.912657102748779,-0.4087204170010007,-0.0353543109452508,-0.0506171165140994,9.749106862420938,-0.0197810053932044,0.0018812461228948,-0.002614084584357,3.512861716867479,4.985050354982356,2.0509343532006694,1124.0721866294964,1127.283961160991,1129.168989623024,1134.5094450026022,607.6957802279893,63.3578906872243,340.8365595157416,-192.091221972707,151.03362466211837
13.7225,0.6073481213576986,-1.2601379622524504,0.2295491916047951,0.0102117216245146,0.0280019503279752,0.0148027572847795,0.0006211529173142,0.0019545700801736,-0.9126641082861006,-0.4087048655806409,-0.0359797955428082,-0.0502695002952545,9.747857571233576,-0.0199247345013069,0.0018779055302245,-0.0027612659018496,3.512886839986318,4.985012221328497,2.0509318532614262,1125.3792598195923,1127.5684802086305,1130.1333162437015,1134.0655223005165,490.9698832394109,171.08358281019483,425.96361323402846,-176.51923411211885,151.03330731109085
13.725,0.342098086059027,-1.159045439007936,0.1289098708118508,0.0114261474562488,0.023886646605036,0.0150735233561783,0.0006248441739315,0.0019315601040978,-0.9126682148478193,-0.4086958123242341,-0.0362084035188344,-0.0497663213476926,9.74660202374308,-0.0200724383362732,0.001868450661309,-0.0029143535100438,3.512913892463728,4.984971398321504,2.050929907088942,1126.5270360456927,1128.139379075042,1131.2988076891938,1133.6268488320416,436.46425533790983,275.6532182077559,471.733952136873,-174.9569852702461,151.03303486370032
13.7275,0.0779794784366148,-0.9673120581616624,0.040153809695277,0.0126065741790897,0.0201216474947808,0.0149283266149517,0.0006271761531763,0.0019101554365026,-0.9126688845256752,-0.408694438739143,-0.036151438238781,-0.0491621439706975,9.745355361777072,-0.0202195523397758,0.001852083001674,-0.003073901027191,3.51294312172921,4.9849271416433565,2.0509269137374195,1127.5615810962822,1128.9467462996695,1132.4919860043863,1133.190737374165,394.9866117991697,373.785547434805,447.700006235139,-178.8719157281041,151.03280247802388
13.73,-0.180181992818466,-0.6885388569095418,-0.0327891585543495,0.0127186338356926,0.0172182945899557,0.0143242087400851,0.000636140564573,0.0018908064761275,-0.9126662689924552,-0.4087003863834685,-0.0359435690179343,-0.0485081305501872,9.744133080542055,-0.0203615498547502,0.0018284986478363,-0.0032397807079529,3.5129744098354543,4.984879560876424,2.050921451747768,1128.5019691046891,1130.0083068122162,1133.5373077203699,1132.7324892534011,401.84879428610463,507.7035466402422,379.37481096863206,-217.56988888696247,151.0326216872878
13.7325,-0.4686101221118716,-0.3026637159626164,-0.109660258835194,0.0113828436265493,0.0153586746677744,0.0136700684441872,0.000653395409325,0.0018742768713585,-0.912660689571906,-0.4087129267513536,-0.0356122206141379,-0.0478102704294842,9.742951219980007,-0.020494519655677,0.0017979242941476,-0.0034111101549783,3.513007263734038,4.984830056875602,2.050913591417901,1129.5708250677123,1131.48526403287,1134.388860059229,1132.1028879297303,384.1636686851726,553.6553036316683,216.6499681831714,-252.14781975642396,151.03246845400497
13.735,-0.6813941211263023,0.0164419907387504,-0.1773521862618845,0.0102877070623172,0.015599742664628,0.0135864693143319,0.0006746566034626,0.0018597441895758,-0.9126532637411332,-0.4087295708457538,-0.0350989350831132,-0.0469998572575288,9.741826017541458,-0.0206155795172968,0.0017612244977687,-0.0035865860546602,3.513041277369654,4.984780577004106,2.0509037960737806,1130.4227874481146,1132.776583330374,1134.6205575612855,1131.4717501546193,324.4689047386093,494.15287865769193,-24.157494881133832,-279.3030217241285,151.0323965915246
13.7375,-0.8548404147083736,0.2811713710836811,-0.2648331485504768,0.0095637803460371,0.0173363858710061,0.0137459052324533,0.0006960668559722,0.0018465441966977,-0.9126456036513814,-0.4087467252051955,-0.0343574220393224,-0.046016510508399,9.740772893978292,-0.0207230501420474,0.0017198455341198,-0.0037649391369181,3.5130763322255625,4.9847327137100255,2.0508926306568185,1131.1931695914056,1133.956028426159,1134.2680725848231,1130.7063728211097,294.7276349167162,448.2717691333373,-278.00564711283386,-362.7202352393739,151.03238545220879
13.74,-0.9906775776434196,0.496536304840956,-0.4012749429079803,0.0075231942630103,0.0201206934736284,0.0140427563292474,0.0007190330758648,0.0018357232309126,-0.9126392701379956,-0.4087608936208683,-0.0334255381166179,-0.0448754942373427,9.739805807964004,-0.020816413433872,0.0016756023792548,-0.003945273658615,3.5131118928316507,4.984687005814024,2.0508804182166047,1131.8964256226984,1135.017942176041,1133.2305293257211,1129.658148978422,195.07907041192328,302.5027391466812,-449.94228564778354,-394.94595767936187,151.0324447910615
13.7425,-1.012516157085206,0.5811209421527485,-0.5352972762263432,0.0041437675844665,0.0224518486370889,0.0141590786887046,0.0007461862646381,0.0018283394657241,-0.9126346521372284,-0.4087711957940824,-0.0323651545880681,-0.0436064559855241,9.738937799930577,-0.0208961702274026,0.0016302953110242,-0.0041270879852235,3.513147208753157,4.984643140471734,2.050867060481558,1132.168564943465,1135.468542121892,1132.018361156585,1128.7316430327132,12.487448757154064,71.61108925978414,-497.65673484831893,-363.2711993127373,151.03255618255756
13.745,-0.9063667203163234,0.5759931597965084,-0.6646076021448906,-0.0004415015769458,0.0242653575244046,0.0133065252411426,0.000778788968662,0.0018240605931686,-0.9126314290752756,-0.4087783456940992,-0.0312257322900608,-0.0422085419830922,9.738181416149263,-0.0209636034494129,0.0015855423641386,-0.0043103082099907,3.513181579856823,4.9846004145031,2.0508529986642863,1131.958862866484,1135.37599762234,1130.7422456514792,1127.841792981858,-227.3752965729372,-161.51771899874095,-504.34793952800953,-362.614593226033,151.0327329230003
13.7475,-0.6270022682892948,0.4918310099229674,-0.7657046016130516,-0.0056377645410838,0.0257804995141986,0.0105340925314673,0.0008176051009086,0.001820604545262,-0.9126303039871686,-0.4087807822185667,-0.0300630653097283,-0.0406477432613653,9.737548755755082,-0.0210204959530046,0.0015428878681198,-0.0044953840311067,3.5132144256955966,4.984557995479132,2.050839606370949,1131.0316884606002,1134.6609535268983,1129.4966214589444,1126.9185700665828,-454.48330265089623,-341.76497886026004,-371.0603796183761,-304.5428048054115,151.03302107541705
13.75,-0.2983101510024447,0.3781848584294807,-0.7695039094866519,-0.0083215852246182,0.0267056001553265,0.007076211001965,0.0008629127265577,0.0018150413540204,-0.9126322984306872,-0.4087762380392504,-0.0289279626890377,-0.038880716885351,9.737051432441586,-0.0210689001118532,0.0015038169883283,-0.0046831816913334,3.513245470179603,4.984515709654659,2.050828159927503,1129.68644635323,1133.667172728039,1128.8869437533876,1126.3190789578312,-636.9425344363111,-440.14411901671,-140.1429640657449,-201.483947068522,151.03332449494334
13.7525,0.0595919112112973,0.2435802159522198,-0.666151630222856,-0.0084064787116239,0.0273053715572721,0.0036986587294709,0.0009118003012543,0.0018027762087063,-0.9126378235327332,-0.408763823106317,-0.0278254687711361,-0.0368156158333743,9.7367007125028,-0.0211109419429557,0.0014698005808707,-0.0048746447534301,3.513275439421617,4.984474052347893,2.050818577504386,1127.8469757884193,1132.4602329318152,1128.7959066386159,1125.9111503312404,-873.7038777103406,-528.1969546074463,55.924309799084206,-142.32159486744015,151.0336929406583
13.755,0.4270686159240409,0.0830750140235544,-0.4252334682419367,-0.0056769685185772,0.0275615799938725,0.000818015088977,0.0009599717917657,0.0017810443082061,-0.9126471273324532,-0.4087430082965874,-0.0267188157285721,-0.0343886569587148,9.736506876604537,-0.0211486095451065,0.0014425024260949,-0.0050704506836582,3.513305072196368,4.984433390475284,2.050809816917035,1125.3179269646776,1131.0261879550014,1129.166565302383,1125.607470983494,-931.8875082948488,-490.95549527866353,178.21628327653286,-90.45160842359513,151.0342087691223
13.7575,0.6248385076165631,-0.0335974450515401,-0.1513969101299881,-0.0018691076415709,0.0273406225819145,-0.0004794994016858,0.0010060138496464,0.0017504696438301,-0.9126600817090124,-0.4087140842245458,-0.0255928272141478,-0.0316257829478169,9.736478408064082,-0.0211835386821898,0.0014238125619602,-0.0052708619216136,3.5133345146027706,4.984393765631771,2.0508014656036013,1123.1875382469443,1130.0054554554215,1129.6869880549987,1125.4588922891223,-793.9033201952712,-349.05911934495305,198.40422805349897,-51.40187611451551,151.034698487074
13.76,0.6780830200158579,-0.1171524476887056,0.1554830165634631,0.0021152268595679,0.0266483080134738,-0.0006690638115064,0.0010527318399708,0.0017141970823375,-0.9126750429316844,-0.4086807048805399,-0.0244848399638916,-0.0286377365501647,9.736621470018354,-0.0212168411486257,0.0014156761751961,-0.0054756179191204,3.5133642078396448,4.984355167788267,2.050792977631187,1121.3484103637022,1129.280892358277,1130.1585864426504,1125.3504616029215,-645.7667488093093,-238.37469622672785,145.47386695642217,-45.10542242068573,151.03524793175026
13.7625,0.618949755471046,-0.1665875356281837,0.4525118515872395,0.0052926936163516,0.0257027337683475,5.385922754006981e-05,0.0011007919748368,0.0016778553284799,-0.9126891450522676,-0.4086492462689245,-0.0233726527589204,-0.0255682619804596,9.736939783713535,-0.0212490408959518,0.0014199925126101,-0.0056836081257326,3.513394981357287,4.984317375990061,2.0507833106791655,1119.9587045028973,1128.8135819742877,1130.414357389781,1125.2333651770189,-414.88794427907914,-138.38349624304666,25.89999751671307,-54.489027425952955,151.03584468964428
13.765,0.4635959602531011,-0.1752170888430429,0.6912246713376378,0.0067105920684706,0.0247669264497263,0.0019328903388172,0.0011445863735886,0.0016458222861956,-0.9126998283506536,-0.4086254187287745,-0.0221315112368499,-0.0224939435746753,9.737434342779217,-0.0212800521766075,0.0014385479604434,-0.0058928145577542,3.5134273953053787,4.984280018852528,2.0507718482348016,1119.2739706423065,1128.5889748770617,1130.288086430234,1125.0780164657915,-128.20776283386115,-71.43890358885585,-145.4658031457546,-79.43572830296705,151.03649531198846
13.7675,0.2317488847595912,-0.1496385865892265,0.8560546704199676,0.0064718120266073,0.0242113436841641,0.0055373735531482,0.0011777430589469,0.0016204480441011,-0.9127053794124866,-0.4086130534117149,-0.0206388485923485,-0.0194531958079423,9.738102517118785,-0.0213091738436052,0.0014728723793448,-0.0061006745433635,3.513461315555479,4.984242673549913,2.0507584392510747,1119.317665688728,1128.4563874563435,1129.6870283740523,1124.836186535504,143.47335111631887,-45.86349408710706,-275.8396272837311,-98.10628159200081,151.03733355992904
13.77,0.0421663159787215,-0.1107282735693461,0.8639682964216895,0.0054476564013068,0.024391775791727,0.0094189807487632,0.0011981413138499,0.0016022234741764,-0.9127054988680084,-0.4086128192016582,-0.0188626141760325,-0.0164878598491233,9.73893752457018,-0.0213351451142052,0.0015241220077175,-0.0063044694388253,3.5134962362524917,4.984204951464484,2.0507432158751095,1119.991337397888,1128.359657406626,1128.9088882938156,1124.5874850578318,359.9911305326151,-47.87222182675738,-327.5178286451989,-109.96193068511374,151.03807606565363
13.7725,-0.1146803622266416,-0.0646606837789447,0.7287846166133989,0.0041853595136186,0.0249303969452389,0.0132816365472566,0.0012085363909379,0.0015881496714964,-0.912701403972834,-0.408621997027699,-0.0168857263197268,-0.0136177235155533,9.739928569151543,-0.0213562627163677,0.0015929373276432,-0.0065015895717021,3.513532236766343,4.984166120952993,2.0507265746692127,1121.1176213413914,1128.2170263472096,1128.049439230826,1124.2863768820785,540.6101004935928,-65.6509955415356,-339.262027710394,-147.13360156090377,151.03885894523705
13.775,-0.258164907439654,-0.0009662059941405,0.4307028933917902,0.0028189291316347,0.0254758263331038,0.0165171091559693,0.0012140679281683,0.0015737777703184,-0.9126952061964057,-0.4086358708302783,-0.0148457413098714,-0.0108553910022505,9.74106141850899,-0.0213706057367472,0.0016793220440268,-0.0066895814237544,3.5135693968522244,4.984125474026053,2.0507081514647134,1122.6943879003563,1128.0314024289185,1127.2125781552631,1123.8518170500272,576.1511141714218,-51.940899894008325,-236.19604375844725,-175.01625419766995,151.03983846316277
13.7775,-0.3485282830224942,0.0682400507364544,0.1135266864860638,0.0019893801163151,0.0256036215919608,0.0175090964588128,0.001221016063674,0.0015563220996705,-0.9126889270392172,-0.4086499177029987,-0.0128879559301743,-0.008250094339187,9.742319281595575,-0.0213763382291086,0.0017825680733658,-0.0068662214250221,3.5136073035958124,4.9840828064025695,2.0506875753040577,1123.998376912248,1127.9573218477396,1126.868459012034,1123.4112956110903,485.9533352426902,16.91623309183987,-34.22612816174853,-198.0389489691024,151.04068312103564
13.78,-0.4249129199560058,0.1699891451031702,-0.2088620584824841,0.001344122857585,0.0252090087143143,0.0166084864148232,0.0012361711002087,0.0015356424412269,-0.9126841544462604,-0.4086605717167505,-0.0111461171404267,-0.005898470448338,9.743684026659666,-0.0213720244129608,0.0019012873710361,-0.0070297011922793,3.5136451786996536,4.984038401199078,2.0506646568497726,1125.12415457657,1128.1159835943777,1127.0414475144546,1122.8616223051815,435.025589878592,155.35038472714703,203.32403887697643,-270.97897745680115,151.04155114467179
13.7825,-0.5177162757056397,0.3413396959898951,-0.5299320756363208,0.0003546197294977,0.0245174240059966,0.0136904606676516,0.0012633974272616,0.0015127788079904,-0.9126817075269582,-0.4086659891339231,-0.0096924799460386,-0.0038895537563017,9.745137702087284,-0.0213569169859612,0.0020334544379723,-0.0071788045736982,3.513682260875864,4.983992460214749,2.050639261054869,1126.1735048616413,1128.7340737713755,1127.885079206419,1122.056400723806,331.66562842058966,311.437984196362,402.6570679305569,-316.1973510900854,151.0426125114613
13.785,-0.6045228568263143,0.5204825793509257,-0.7064996474800059,-0.0007367492050054,0.0244176063659504,0.0103794098682077,0.0013031439571563,0.0014898539455822,-0.9126820364844596,-0.4086651595584683,-0.0085291263212363,-0.0022977032585489,9.74666411575467,-0.0213311145319941,0.0021766133539166,-0.0073131907286427,3.513717858086564,4.983945421113559,2.050612109694348,1126.7824827186728,1129.6731735153592,1129.0547328541068,1121.2806355497314,194.01665382110187,462.4788676242144,532.6863185456355,-317.4137248522306,151.04350799499375
13.7875,-0.7067826960147165,0.7126171370830723,-0.774001094128958,-0.0018753688272259,0.0254327113092705,0.0071642047516048,0.0013529373849087,0.0014697945910064,-0.9126855489924808,-0.4086571775026309,-0.007598113636887,-0.001180406637226,9.748250501556312,-0.0212955916553637,0.0023281161354361,-0.0074336710356402,3.5137517389881734,4.983898334757135,2.0505845684541986,1127.1435881307464,1131.046468109496,1130.5485107991467,1120.4693320995452,110.92140820645083,606.5028695655161,619.4351089950428,-312.52468480829185,151.0444082622664
13.79,-0.821971465398459,0.8867090286199464,-0.7610361705502093,-0.003113178499951,0.0274211379317707,0.0045598228131952,0.0014120157029392,0.0014544689697226,-0.912692024529606,-0.4086425407687568,-0.0068780586119659,-0.0005811788218115,9.749889100332759,-0.0212520437327921,0.0024852423325978,-0.0075425238498264,3.5137839737308045,4.983852214883917,2.050558344687421,1127.3370897597051,1132.7056878631872,1132.1519083990827,1119.7180121256897,46.21072610652122,700.6718231250303,625.956658389798,-261.24494243472793,151.04530741249684
13.7925,-0.9453146400032396,1.0013220803651808,-0.6797543514114814,-0.004730148927761,0.0302950243055261,0.0028689496790771,0.0014811156774745,0.0014447100048536,-0.912700660040042,-0.4086230419979338,-0.0063796424777503,-0.0005276850414202,9.751578548066535,-0.0212026796454049,0.0026452933650086,-0.0076433595606026,3.513814590082968,4.983807685366669,2.05053532718445,1127.3746417612792,1134.5498272251218,1133.678294091096,1119.1631073873712,-11.703087677644872,802.9909290266692,603.0980902535993,-170.6151460601971,151.04619891500354
13.795,-1.0828877123747636,1.0290278963882489,-0.5465211002538289,-0.0073756285202024,0.0344497585663182,0.0015312570544406,0.0015548278336572,0.0014403129294668,-0.912711041111839,-0.4085996236420302,-0.0060091482915196,-0.0009704724117481,9.753324815739933,-0.0211500185457386,0.0028056429513013,-0.0077404536545954,3.513843669235415,4.9837653485064966,2.050516714611283,1127.278574321317,1136.7206425083195,1135.16739885035,1118.864936395389,-57.12105165372349,751.0347373872394,459.6732693026757,-34.2795583588736,151.04725154073083
13.7975,-1.1692770732173638,0.9421076769034212,-0.4346515630240786,-0.0102605986232562,0.0381910876649658,0.0007716851981348,0.0016264227908283,0.0014396867435521,-0.9127227857234484,-0.4085731612371118,-0.0056571220284362,-0.0018151630937381,9.755141455434416,-0.0210964700207006,0.002963651332025,-0.0078383311892711,3.5138714367829573,4.98372514077451,2.0505023523080514,1127.0890365030107,1138.3050009120573,1135.976660437609,1118.991709595577,-100.38558971535416,550.3731093151649,215.74868482254067,134.36041371608272,151.04810818886307
13.8,-1.2029162388879167,0.7389660836438864,-0.3497837259493277,-0.0134093538540073,0.0413796501105457,0.0003557352978632,0.0016949105729397,0.0014413496278988,-0.9127349155941846,-0.4085458380384353,-0.0053125524943375,-0.0030055482135424,9.757049148973048,-0.0210438911750437,0.0031165565816784,-0.0079413070576338,3.5138982506662786,4.983686051347012,2.0504911077252004,1126.77664637274,1139.472508054896,1136.2461422744627,1119.5367384639694,-169.34651998846755,397.30738956930657,0.2847344435849218,329.06666648158847,151.04893591463104
13.8025,-1.1605636259205672,0.3852932285086644,-0.3015469841392918,-0.0171595714287353,0.0435302828665272,0.0001691741846902,0.0017617813334515,0.0014448682819478,-0.912746585812002,-0.4085195285558798,-0.0049979602820353,-0.0045148768760011,9.759074559351063,-0.0209933597375571,0.00326145959251,-0.0080527437103671,3.5139243826056408,4.983646243431603,2.050481663416021,1126.2423039030682,1140.291537859904,1135.978084109827,1120.6370429279852,-223.5992485834676,209.53350788222076,-173.34045118326495,464.13252927145686,151.04988670371227
13.805,-1.044684810419649,0.0281833640273114,-0.3144680426239041,-0.0202757330754968,0.0438639391399339,0.0001697722526621,0.001827038369841,0.0014496000238328,-0.9127575085518724,-0.4084948741678364,-0.0047095617543641,-0.0062926570460979,9.761248554597453,-0.0209451337306331,0.0033953511915234,-0.0081745182416759,3.5139496396654337,4.983603743363259,2.050472411195696,1125.6586501298227,1140.5201755943067,1135.3794400185468,1121.8574011103262,-259.74325917978183,29.18076475620636,-273.4685565440059,527.9633542887125,151.05063687558803
13.8075,-0.8377024501242222,-0.3570056982076754,-0.3813732069332975,-0.0233510969397447,0.0432134193572714,0.0001818357298454,0.0018881408757863,0.0014541910285867,-0.9127673936081692,-0.4084725383003737,-0.0044033446571488,-0.0082483790641344,9.763603996470849,-0.0208987953670169,0.0035152478523099,-0.0083068091512453,3.513973591712926,4.9835577216841696,2.050461322583648,1124.943587607169,1140.4374416836852,1134.6107413271068,1123.2768596994292,-336.49934886142745,-51.982346764035405,-322.0671211491614,639.8146348540104,151.05133505624266
13.81,-0.4894060686943834,-0.8136285193975699,-0.506094386945658,-0.0268247708884245,0.0412814616887536,4.286192721915574e-06,0.0019422894991733,0.0014581419315587,-0.9127759059997804,-0.4084532851176958,-0.004024130129935,-0.0102990978142012,9.766173268861941,-0.0208534752396853,0.0036185966997273,-0.0084482187299079,3.513996486564486,4.983508815545065,2.0504470980293785,1123.9761533855155,1140.2602638604867,1133.7691044128007,1125.0564742845968,-363.6363374675325,-36.54389389472089,-263.331134198968,643.0896993533139,151.0521029735503
13.8125,-0.1349709400882279,-1.1647338159641651,-0.6216575512493056,-0.0290184684964319,0.0385077484622352,-0.0005665646571295,0.0019877437055486,0.0014609051510892,-0.9127829808415102,-0.4084372725757523,-0.0035369657223136,-0.0123656771245218,9.768985816654014,-0.0208080788806584,0.0037036963636548,-0.0085961504752331,3.5140192795463734,4.9834583438274525,2.050429588390049,1123.1254059198316,1140.2547222142116,1133.2940856561122,1126.4923081961952,-336.6924445667097,61.17674651405959,-125.20829136208467,541.4258705223514,151.0526773905135
13.815,0.2409149534152069,-1.4613357594883867,-0.705329375845349,-0.0292366471243154,0.0349882201500296,-0.0023924205605693,0.0020225585203392,0.0014607192793345,-0.912788709970614,-0.4084243148251679,-0.0029144950441199,-0.0143439678901037,9.7720659354742,-0.0207615121776959,0.0037699085718577,-0.0087472108525364,3.514042689878877,4.98340751817396,2.0504095021751167,1122.2926911626823,1140.5661475930567,1133.1430629559904,1127.763603637208,-320.54823013263086,182.936613638884,-10.13943409088666,468.5335141426272,151.05317532736723
13.8175,0.5889220611257366,-1.6999884451698655,-0.7257026287879023,-0.0272630482098194,0.0312117050508479,-0.0057283570849473,0.0020446561206985,0.0014565865730023,-0.9127928891252703,-0.4084148869122923,-0.0021228491412612,-0.0161427841934605,9.775430845610293,-0.0207128545153093,0.003817690659662,-0.0088975479320065,3.5140670697928855,4.983357345345309,2.0503879760796497,1121.5226647691684,1141.169405282406,1133.2433884856575,1128.8349757669087,-282.6803195530387,292.01211576282714,80.25520439476733,372.63861857316977,151.0536039255864
13.82,0.8530766920997744,-1.85623315066297,-0.6394379957160372,-0.0234426294094195,0.0270676521365631,-0.0098347741010801,0.0020538795615206,0.0014487955094117,-0.912795346152324,-0.4084093783158598,-0.0011543071511623,-0.0177118386497293,9.779089185406349,-0.0206614065887767,0.0038485308355583,-0.0090431641638054,3.514092764620271,4.983308542274088,2.050365771908176,1120.8792895649167,1142.0262081718713,1133.5443389779643,1129.626796730074,-243.8117433712281,384.4342976478257,141.91290206243232,283.7232269310898,151.05394233649042
13.8225,1.0397545950238596,-1.931270096641348,-0.4145263594550677,-0.0181895354370699,0.0214536428785829,-0.0135404314746669,0.0020517186111399,0.0014378389824055,-0.9127965377459776,-0.4084067620423316,-3.1150933518270245e-05,-0.0190223692736398,9.783040074541223,-0.0206066994856417,0.0038647461115739,-0.0091800579577577,3.514119898833468,4.983261198262415,2.050342659398204,1120.3036060523125,1143.091576770645,1133.9529529959696,1130.2535919015638,-174.11882108401193,352.65576336127134,131.42408721089615,181.49636854583952,151.05423641467857
13.825,1.0917282340832155,-1.8877624069808927,-0.157447229118748,-0.0141338867907987,0.0162827579344417,-0.0148344747012921,0.0020392118821593,0.0014243737031781,-0.9127967668492386,-0.4084063536823758,0.0012314328599545,-0.0200514010738932,9.78727270199014,-0.0205485416905581,0.0038690853141921,-0.0093042428050125,3.5141479266325013,4.983215112594719,2.050317788439332,1120.0086954594967,1143.789486988678,1134.2014594140187,1130.5342785728035,-77.12722280074264,196.3980000679533,59.89020272239914,72.39831167656808,151.05438301328766
13.8275,1.07231991553123,-1.725830249730363,0.1143864305662975,-0.011351759634283,0.0108747814510415,-0.0142655295401156,0.0020184617339691,0.0014097315151924,-0.9127953860363396,-0.4084095840904985,0.0026024643784766,-0.020804366862402,9.791766376054792,-0.020486987361361,0.0038643990135084,-0.0094119489427113,3.5141758878105485,4.983170306429189,2.0502905872975914,1119.9179699383087,1144.0735667709848,1134.2524040095818,1130.6155834599467,10.980565176716848,6.902119342522846,-23.584693565503727,2.005053235507547,151.05442192749163
13.83,1.0263008553004662,-1.4029144643919382,0.390883191328308,-0.0095837487034614,0.0050249124618499,-0.0122773325376877,0.001992996533029,0.0013954897352221,-0.9127917948751946,-0.4084177711309963,0.0040253437086124,-0.0213115065391834,9.79649112897196,-0.02042222379477,0.0038535558235865,-0.0094999050540198,3.514203248852797,4.983126625983565,2.050261125893509,1120.0635982853803,1143.8239975853903,1134.0835359461914,1130.544303838981,101.7371594521794,-184.11739315628463,-83.52203497462892,-47.696600464505934,151.0543385711285
13.8325,1.006653996566346,-1.048537606258351,0.5427667763825424,-0.0087645128913499,0.0015916395008142,-0.0101333578528371,0.0019666019404223,0.0013824054421373,-0.912786155377104,-0.4084305301827112,0.0054302538930961,-0.0216002573434212,9.801408822629607,-0.020354433865353,0.0038393962306987,-0.0095656188269201,3.514230160930857,4.983083510972508,2.05023039081732,1120.4266557355695,1143.1529798052036,1133.8347938347088,1130.3771004576242,206.92804250453668,-335.21486443127503,-88.04019864372538,-86.14375408109044,151.0541572042581
13.835,1.0290908429349288,-0.6451326954212521,0.5865669206020317,-0.0077518469444416,-9.133125760341005e-05,-0.0076045840434896,0.0019439164088753,0.0013707623658698,-0.9127787279238256,-0.4084472549904059,0.0067263073953671,-0.0217065040523373,9.806474555811008,-0.0202836853951088,0.0038246456114373,-0.0096076088361992,3.514257056244764,4.983040497986231,2.050200034080604,1121.0982384979031,1142.147923263234,1133.6433349529727,1130.1135850685755,381.8489807705504,-468.29025442368174,-29.265520406347576,-139.48607976187853,151.0538562112645
13.8375,1.0992898185020947,-0.1519725909422247,0.5068714744323558,-0.0056675907208855,-0.0005314692324918,-0.0045145840974318,0.0019284083837007,0.0013613509815575,-0.9127697094102204,-0.4084674862990276,0.0078456466058946,-0.0216759103972118,9.81163828109832,-0.020209937537106,0.0038118913138292,-0.0096253570522918,3.514284050509338,4.982997502522393,2.0501709836520927,1122.3359006394223,1140.8115285330848,1133.688466232677,1129.6796700588147,533.0590793294656,-471.79945035527743,84.31995067305108,-180.3049764187012,151.05335389242856
13.84,1.1744382822033663,0.2380279696853655,0.3420276712826118,-0.0032333580711946,7.0616894120136e-05,-0.0025166247904077,0.0019211991278904,0.0013561061290574,-0.9127593006499584,-0.4084907642227141,0.0087697985642353,-0.02156559752583,9.816846521644592,-0.0201330796983614,0.0038035858724054,-0.0096191263910091,3.514310793541737,4.982954680473497,2.050143425852415,1123.76353389455,1139.788926011458,1134.064934706338,1129.212060186482,652.1413355280746,-350.1566244081367,229.98404041828553,-207.91128793408848,151.05281649615833
13.8425,1.2349743084690699,0.5817207711075832,0.1075311695075821,-0.0003114772214807,0.0013378334166501,-0.001630062609583,0.0019246943908941,0.0013570531361495,-0.912747572663228,-0.408516913530295,0.0094563565568782,-0.0214537661422078,9.822044178456832,-0.0200528684296781,0.0038020461724965,-0.009589894460467,3.514337152939208,4.982912202966466,2.050117411866987,1125.5966073170634,1139.0607454110439,1134.8383864347686,1128.640113619144,790.0444400766122,-224.6057374226088,368.6636435405823,-240.9437118538413,151.05215540943675
13.845,1.2579249015147589,0.8738762838686398,-0.1517320785507342,0.0030161618770291,0.0031122774338766,-0.0017761352062209,0.0019429956978738,0.0013638881037008,-0.9127344249761568,-0.4085461432605987,0.0098122941153161,-0.021398727068904,9.827176303234546,-0.0199688796815055,0.0038094160221309,-0.0095391940763025,3.514363527599296,4.982869962920921,2.0500925999166513,1127.7137560949336,1138.6658973243448,1135.908252924041,1128.0073416272128,890.809947764087,-74.52100230904425,480.0164717357848,-256.1327914833837,151.05139224343085
13.8475,1.2079801309123614,1.090568577965901,-0.3991727316493851,0.0068621247188778,0.0057898561838648,-0.0030805639242098,0.0019773841046951,0.0013732061621658,-0.9127197167533868,-0.4085787777485,0.0097689562590472,-0.0213875529114971,9.83218956746364,-0.0198805683009901,0.0038276162102455,-0.009468783738161,3.5143904502924865,4.982827869325133,2.050068405518665,1130.0506570558828,1138.6881403994987,1137.238468793447,1127.3594496617275,1034.259789490694,89.12500431735634,615.5750446953649,-269.8164747450928,151.05050752517593
13.85,1.0412409724196443,1.2500942628726783,-0.6365918539660624,0.0116048673695482,0.0100464449883464,-0.0055710416222174,0.0020230804474115,0.0013797731230067,-0.912703866907695,-0.4086139261503102,0.0093508924159571,-0.0213313288331339,9.837033422933235,-0.0197873564418986,0.0038583410552332,-0.0093803914018335,3.5144182969994895,4.9827863779974075,2.050044412791032,1132.885055042386,1139.1115223459315,1138.986128147517,1126.6582592534876,1005.1752809490856,198.9102587254054,645.8658268234003,-230.94752340403855,151.04930853962503
13.8525,0.8121845874544235,1.2970293169676728,-0.7617029383192929,0.0148657379231107,0.013898570197274,-0.0079932639929804,0.0020720605618611,0.0013791459421313,-0.9126876542148428,-0.4086499030928458,0.0086470889602387,-0.0211329955216752,9.841661057090333,-0.019688665234613,0.003902975908785,-0.0092757034077125,3.5144473648984027,4.982745852012933,2.050021034484539,1135.0765334606292,1139.682691693126,1140.4677979275643,1126.204712044707,792.992568158628,243.2576462501931,577.12541295814,-142.03034942440863,151.04819814481468
13.855,0.5073837554133299,1.2650407065544018,-0.7971845587420612,0.0167387654232567,0.017305272315816,-0.0105622235699324,0.0021190098103224,0.0013701056036883,-0.9126716714250386,-0.4086854097899102,0.0077243290831314,-0.0207770527623812,9.846030178877536,-0.0195839018276133,0.0039624220988224,-0.0091564617528852,3.5144779602706526,4.982705952901932,2.049999185290554,1136.8500178831798,1140.3278105771826,1141.8717552123085,1125.9481075063654,636.1053747242651,270.6662610681262,576.4348654485967,-60.99069628563788,151.04697681111813
13.8575,0.0887930665433494,1.159524328230674,-0.7353375155440864,0.0174233400470341,0.0207206971666813,-0.0137337542812745,0.0021614846455816,0.0013543136278427,-0.9126565537667584,-0.4087190280194369,0.006622292149584,-0.0203228956786353,9.85010368671971,-0.0194725448351171,0.0040368648457527,-0.0090243527825711,3.514509864882628,4.982665888293552,2.049979158639813,1138.25706033425,1141.0360229984663,1143.3499722548067,1125.8997585632787,373.3127060020085,235.07922110702697,489.3051300110592,24.93598792607868,151.04538828483675
13.86,-0.2775057592060479,1.0352874456842047,-0.6067897801039351,0.0171014037288142,0.0231810213787688,-0.0160884051559818,0.0021988056662292,0.0013336880133704,-0.9126429137113702,-0.408749383232986,0.0053532479011281,-0.0198467612754009,9.853850245762924,-0.0193543024823822,0.0041255136780077,-0.0088808387133289,3.5145422267092696,4.982624701410753,2.049960185662869,1138.7165814131895,1141.5032066827175,1144.3182808623633,1126.0727874459958,28.932876670564863,157.0546876946746,310.14611859345376,108.7203902715658,151.04396579544644
13.8625,-0.6327051189904744,0.894822174076455,-0.4230400309828373,0.0163957501340311,0.0253835196479293,-0.0176180063114507,0.0022314558042814,0.0013101718630003,-0.912631251711972,-0.4087753486061755,0.003912076952714,-0.0194306809344146,9.857244610970753,-0.0192293255309275,0.0042265190090114,-0.0087269972790396,3.5145742890533462,4.982581990718806,2.0499404773036187,1138.4017247176027,1141.8212964369395,1144.9007028477745,1126.4433605146369,-299.24860947808025,111.64320196924636,144.07241367291613,200.45015362690316,151.0424450742701
13.865,-1.0092994248610772,0.7296497364744454,-0.1783390026932222,0.0145318598036586,0.0275183551934913,-0.0183420018086044,0.0022592704769779,0.0012875541950959,-0.9126221885103262,-0.4087955288253634,0.0023246980794884,-0.0191788098254553,9.860267798661658,-0.0190984394460791,0.0043370850197169,-0.0085634620680958,3.5146054096973396,4.982538373520956,2.049918452516069,1137.2203383657989,1142.0614226925638,1145.038642930728,1127.0750382141305,-538.9828003912661,71.87743339210621,-54.37494864114514,254.90726453709223,151.04051130523382
13.8675,-1.248913287819428,0.6093234909910096,0.0154766768227631,0.0113339945919848,0.028703542094566,-0.0181770181115405,0.0022836176297921,0.0012694224187012,-0.912616036786482,-0.4088092083778877,0.0005935620505418,-0.0191965567992151,9.862907390522984,-0.0189632162732131,0.0044535634543434,-0.0083908162525143,3.514634604465022,4.982494478911163,2.049893802689863,1135.7068107156467,1142.1806836039002,1144.6288281045688,1127.717896837322,-671.1558097731855,38.961701160672696,-276.52513100238366,268.7134282507521,151.0388123191677
13.87,-1.3732074736683844,0.5194313064793387,0.1669641591831204,0.006592795927872,0.0293479738630411,-0.0174312638640755,0.0023077892044,0.0012557898379505,-0.912612285762644,-0.4088175088005003,-0.001335527497572,-0.0195318440074907,9.865157861369504,-0.018825933275239,0.0045715563328745,-0.0082100962513491,3.5146606790372745,4.982450211926006,2.0498675314306207,1133.8645593169324,1142.2562311983672,1143.6560172757158,1128.4186053553844,-756.6220376638012,26.668641498595587,-475.6608545849924,278.47242667326293,151.0370261824694
13.8725,-1.3857818515311466,0.4573349168540374,0.2650263005873506,0.001419538563095,0.0297477770361438,-0.0161261172319282,0.002333971081354,0.0012456382687269,-0.9126102547203858,-0.4088219400689996,-0.0034974557391315,-0.0201958816738019,9.867020740014816,-0.0186894661860786,0.0046862893227922,-0.0080229977714554,3.514682811830343,4.9824052619519765,2.0498421495977484,1131.9237005273271,1142.3140268113932,1142.2505238316435,1129.1102589706886,-762.526891341228,19.619304177198767,-645.4255396270047,261.4943485318756,151.03517039954116
13.875,-1.2702424020641447,0.4208810282577778,0.2866377511716062,-0.0033211021883052,0.0301832091380252,-0.0141610268184869,0.0023640500785208,0.0012389576672583,-0.9126097133207536,-0.4088230054970531,-0.0059052108856492,-0.0212064675337861,9.868504748310084,-0.0185570360701289,0.004793117875839,-0.0078319618717503,3.5147008899184935,4.982359270527361,2.04982001870028,1130.051924860227,1142.3543277192532,1140.4288895775815,1129.7260770980436,-769.4505973123053,9.698883492230488,-855.790229516003,243.3392981794925,151.0332337644393
13.8775,-1.0251242630314104,0.383557365102266,0.2296840463008384,-0.0074251574668965,0.0312060907341528,-0.0116840758046369,0.0024006513294196,0.0012347627554356,-0.9126105686120786,-0.4088208996296722,-0.0085843203935195,-0.0225612513720004,9.869625898052627,-0.0184319368535737,0.0048879698252939,-0.0076400272412384,3.5147154762006814,4.98231209256449,2.049801752276631,1128.0764475407664,1142.3625212288543,1137.9715726840643,1130.3269554615858,-659.7096343711534,-9.822773214908295,-908.0577136618048,197.2981785102239,151.030820591954
13.88,-0.7783789648570058,0.3358738395185499,0.1365093123379181,-0.0086902973553824,0.0327462485801246,-0.0103808209433785,0.0024438731837304,0.0012317479120047,-0.9126130467106122,-0.4088151196901554,-0.0115089352384957,-0.0242243906674262,9.870407350089284,-0.0183173728267886,0.0049678420895796,-0.0074502703294751,3.514727695397306,4.98226434918125,2.049787066054216,1126.7533766883707,1142.3052138531787,1135.8886010092715,1130.7125679905948,-448.44955466453297,-45.40665404814917,-791.4229454329544,139.45626611891933,151.0287385960256
13.8825,-0.5405771749219481,0.2496936375093526,0.0428488347851367,-0.0079567852636373,0.0348344288830756,-0.0106180035073072,0.0024918966650344,0.0012293531275889,-0.9126173406654035,-0.4088052457815973,-0.0146048169021169,-0.0261523023202745,9.870878924774772,-0.0182163017483871,0.0050311640384026,-0.0072653166977131,3.514738850697816,4.982217226519859,2.0497747885367,1125.8341997674436,1142.1354879586136,1134.0144579568987,1131.0242367921803,-306.76319484611406,-109.11105153302184,-724.0780009378418,138.9765410971726,151.02658710716435
13.885,-0.2936748560700237,0.0988520250568742,-0.0116088529603058,-0.0070311169104608,0.0367720826981647,-0.0125391189301685,0.002543792723211,0.0012264798978223,-0.9126231670135752,-0.4087919187634349,-0.0178113176620424,-0.0282951113736864,9.871076276784231,-0.0181312576951966,0.0050779163229892,-0.0070870850413833,3.514750260756717,4.982172012570191,2.0497627401209635,1125.2195607141405,1141.7596585955137,1132.2682110045832,1131.4074506960803,-147.93254007297452,-167.8269060935428,-528.4293892564248,157.60553656229868,151.02393023498797
13.8875,-0.1120131629496233,-0.0501629053351077,0.0192545389794439,-0.0071463355256895,0.0369499966667119,-0.0145341008941994,0.0025975587338359,0.0012213577141725,-0.912630160817408,-0.4087759711706163,-0.0210485234253653,-0.030580399745902,9.871039950154712,-0.0180642218197331,0.0051095512862787,-0.0069166016205637,3.514763051793296,4.982129374905236,2.049749416960374,1125.0945370670784,1141.2963534281455,1131.3723110106164,1131.812264474992,18.991213195019313,-209.99775083743216,-227.75227140974567,194.7169552746496,151.0216576849427
13.89,0.0721346026844189,-0.1931057903993302,0.1321153601858489,-0.0079343121966534,0.0356693960693071,-0.0157314869601922,0.0026493392298634,0.0012123292153169,-0.9126383357687224,-0.4087574027200311,-0.0241986695215086,-0.0329228462405493,9.870814283531184,-0.0180164862999537,0.0051287093236185,-0.0067540881059565,3.5147780386123024,4.982089493096262,2.0497342897266044,1125.3145167801156,1140.7096698413263,1131.1294496475343,1132.381035472454,158.82181367399855,-269.2760406087099,32.941078468872725,294.8571474640308,151.01932959666377
13.8925,0.3240558228521729,-0.3315369289106727,0.3302580666227428,-0.0091895024370854,0.0335929978608356,-0.0156509112449373,0.0026947651753164,0.0011969105878832,-0.9126478144658012,-0.4087359773128786,-0.0271398937963562,-0.0352194886475563,9.870446235635805,-0.0179885393772795,0.0051387107175489,-0.0065993086164567,3.514795576409821,4.982052105515731,2.0497175060854453,1125.8886461354484,1139.9499732251024,1131.5370164029607,1133.286550212312,248.8132955413716,-270.22304114335304,240.62274662283252,364.4897253699853,151.01647807986743
13.895,0.5642135577353486,-0.4148690210081358,0.5111704434484846,-0.0098095222621194,0.0319923891773986,-0.0143713288070211,0.0027301857686991,0.0011738501182628,-0.912658290729543,-0.4087124081908453,-0.029753986058026,-0.0373976452631385,9.869984075401016,-0.017980030982289,0.0051429983853497,-0.006451871458752,3.514815589743807,4.982016820422507,2.0496999474998363,1126.558583257822,1139.3585546356098,1132.3325633806483,1134.2034840993035,292.05107488205596,-204.2683400210216,368.8881857978564,383.7618059725938,151.01405857750808
13.8975,0.814446216939719,-0.4749672767908912,0.6636924496531327,-0.0090166561256015,0.0307233421930677,-0.0121542049994023,0.0027553101074852,0.0011450893838899,-0.9126688679176254,-0.4086886936327793,-0.0319603796845202,-0.0394718825297155,9.869475955888648,-0.0179897532255658,0.0051446311049263,-0.0063115013089971,3.514837625700928,4.981983347955154,2.0496824067306925,1127.3489015098587,1138.9286315249972,1133.3814573319503,1135.2053592421753,323.5720495278605,-128.40113477175504,424.8423572038309,396.085818320882,151.01160041685168
13.9,1.0407215901093878,-0.5294835305149881,0.7657322663238743,-0.006778820302686,0.0296575321365137,-0.0093750178110938,0.0027723533677143,0.0011130150517708,-0.9126785578391832,-0.4086670187007986,-0.0337251605853191,-0.041487338026028,9.868968992961824,-0.0180156339570381,0.0051458314053763,-0.0061782072397631,3.514860784974247,4.98195067382803,2.049665250995736,1128.1764435054615,1138.7165489617507,1134.4567751666675,1136.1839131909082,322.81091545975926,-16.924819918225424,395.5197551830556,359.68086356822704,151.00911509995345
13.9025,1.1927276133504483,-0.5944962263107578,0.7886603047568678,-0.003167750924607,0.0286575560530545,-0.0063251324729659,0.0027851232770417,0.0010790705354522,-0.9126866970786142,-0.4086488367158488,-0.0350578897240646,-0.0434866011310448,9.868508407217575,-0.018054748856673,0.005147694795089,-0.0060523168905628,3.5148841671441686,4.981917231058612,2.049649222494648,1128.9629560871574,1138.844007425406,1135.3590561078652,1137.003763560016,313.78960644592195,144.06582506132986,316.4046116289188,292.3498331676908,151.0066032852012
13.905,1.2413736011015637,-0.7020105271066917,0.7234049280851236,0.0019912889114208,0.0273609335591045,-0.0031262881995871,0.0027973651263126,0.0010433239488175,-0.9126936103500786,-0.4086333994045977,-0.0359871504302762,-0.0454875433965597,9.868136739184612,-0.018103394111896,0.0051501518462719,-0.0059343592123004,3.514907620763866,4.9818813787921155,2.0496359451747326,1129.7453915376916,1139.4368780870575,1136.0387982248124,1137.6456623567467,246.0653296832404,288.49705498691986,165.14865693459035,161.3116219554943,151.0035669664022
13.9075,1.1516531028255932,-0.8232367261362019,0.6051277137253247,0.0066068219976483,0.0261081118321646,-0.0012163544215736,0.002810528183995,0.001006072678971,-0.9127002407584552,-0.4086185921612659,-0.0365088106255143,-0.0474931477837365,9.8678929983161,-0.0181573153924539,0.0051520768864909,-0.0058247063995445,3.514931065271907,4.981842059463568,2.0496264226962007,1130.1932827355738,1140.286492700341,1136.1847993925383,1137.8103216697937,127.70378709017488,400.53560139252806,-31.36746989021673,-19.225568883443163,151.00102475664963
13.91,0.9304696217856586,-0.9773557974898784,0.4461650961582449,0.010886326933958,0.0243834532796569,-0.0001307005067848,0.0028206607799539,0.0009685827602027,-0.9127071510166302,-0.4086031810526871,-0.0365250186711158,-0.0494788793931024,9.867811863798893,-0.018212074571961,0.0051514849934826,-0.0057230394571547,3.5149537462417486,4.981799114437363,2.0496196220774645,1130.3839104731424,1141.43955609402,1135.8819608753615,1137.5495345123295,27.41367908848224,553.1065275025603,-218.20979782591868,-205.03407874861736,150.9984782920992
13.9125,0.5547297946771907,-1.1901264029231609,0.2397707414415117,0.0143304400469017,0.0216107151017498,0.0004104521249641,0.0028235278565449,0.0009329073452206,-0.9127143743773632,-0.4085871138412625,-0.0359382867892372,-0.0514299639164724,9.867922026439146,-0.0182633320354915,0.0051459392296587,-0.0056280840767598,3.5149755452073226,4.981753170179748,2.049612869384896,1130.330351131016,1143.0520253378531,1135.0937504034089,1136.7851512760508,-54.74937819043643,609.1719393964879,-334.94285489286307,-339.35722701493586,150.9954275452676
13.915,0.2004528291197998,-1.378340887633491,0.073942444316963,0.0151292610008056,0.0187171490283943,0.0003863575885167,0.002818165252033,0.0009000470183285,-0.912721372775291,-0.4085715952367418,-0.0347302730907693,-0.0533364926366891,9.868244773499622,-0.0183070831828455,0.0051329627299152,-0.0055375969883441,3.5149969159316634,4.981705201609319,2.049603914611874,1130.11016358219,1144.4854157910029,1134.2072466008967,1135.8527483772548,-101.13564141864356,568.0826056987393,-366.47699752483,-406.8216146657778,150.992896918016
13.9175,-0.1283080988178161,-1.5599260372918544,-0.0692321929150858,0.0137502456362465,0.015108980063043,1.5168522007191107e-05,0.0028040179497604,0.0008710386856969,-0.9127273715699455,-0.4085583575412987,-0.032900966851526,-0.0551898797437456,9.868793252074878,-0.0183398888895196,0.0051104054872355,-0.0054484341136613,3.5150177223612595,4.981656022136131,2.049592161949169,1129.824672923923,1145.8924383663473,1133.2613654157844,1134.7510432027216,-108.8813695306033,586.4015166243719,-391.5679496691024,-488.09353794968655,150.99038740535923
13.92,-0.4308592244805384,-1.7488951432502369,-0.2042233346320326,0.0104425875704461,0.0100617558065846,-0.0007158101603192,0.0027811407543809,0.0008480081221478,-0.912731353694508,-0.4085496697272518,-0.0304628933120466,-0.0570037367181751,9.86957174528934,-0.0183589918995533,0.0050766933391845,-0.0053569282297501,3.5150379243531993,4.981606630028352,2.0495775645440246,1129.5657567345372,1147.417423374124,1132.2494068525518,1133.4122806875068,-60.39521782660196,513.273277099381,-330.87640680903166,-469.65449560684897,150.98741086103763
13.9225,-0.5855757919103937,-1.8693094008977895,-0.2827686435093523,0.0074140744092323,0.0056581081817611,-0.001472524417112,0.0027523815914419,0.0008312049487381,-0.9127329231978412,-0.4085463984101544,-0.027503296610634,-0.0587786366554456,9.870575511690848,-0.0183622718396076,0.0050310291634569,-0.0052594882655122,3.515058177932199,4.981558201697195,2.049560539052562,1129.52269683479,1148.4588047518437,1131.6069833817396,1132.4027707246876,33.89524095059112,348.28772579793633,-204.6951788246268,-360.6852287413749,150.98496710848315
13.925,-0.6472368084965625,-1.9390200155557584,-0.3259744025700603,0.0050475080682421,0.0011943987219161,-0.0022370895178344,0.0027228369065986,0.0008192713735559,-0.9127323542398182,-0.4085479001571361,-0.0241707905737007,-0.0605034160129157,9.871791214365864,-0.0183481788195014,0.0049733979530861,-0.0051530099270715,3.515079320061377,4.9815118337513375,2.049542186537996,1129.73523293929,1149.158862003114,1131.2259309584283,1131.6088545437997,129.41029547257835,210.14165622488133,-109.6169869679044,-273.75749851321683,150.98257059178667
13.9275,-0.6554208116241121,-1.9578022484323556,-0.3412294061413528,0.0033238631919025,-0.0036425379195642,-0.0030801075983942,0.0026940238990695,0.000810227049398,-0.91273055932604,-0.4085521284403599,-0.0205608637384517,-0.0621268936829061,9.873198169911737,-0.0183156782184822,0.0049043662885145,-0.0050349973654356,3.515101972210242,4.981467529344298,2.0495240149256744,1130.1697483121527,1149.5095130329682,1131.0588984469,1131.0339832321215,218.5484439492464,44.33771578725072,-22.317760116497887,-176.774052992722,150.9802200981511
13.93,-0.6357860994055236,-1.9055334401597968,-0.3251504038122018,0.0023435670625425,-0.008972347146882,-0.0042687216559402,0.002666029815683,0.0008016130367553,-0.9127288217430748,-0.4085562191812602,-0.0167517446076181,-0.0635787870116724,9.87476922116256,-0.0182641390874748,0.0048247647133426,-0.0049037556279551,3.515126156895864,4.981424355680653,2.0495070356248135,1130.8279751590362,1149.3805505820503,1131.114342157846,1130.7249842788362,319.7899866217495,-174.36049640857166,63.80126933990053,-83.22993915070192,150.97793343218862
13.9325,-0.6225127220739147,-1.7577899384062337,-0.2774169187344737,0.0018834032430631,-0.0151575194663841,-0.0059830009610395,0.0026390717716807,0.0007932949433108,-0.9127273360521851,-0.4085597359564746,-0.0128078911861835,-0.0648337101575931,9.876471666747028,-0.0181933440652116,0.0047352921103656,-0.0047583243639485,3.51515097751876,4.98138160797418,2.0494916938447063,1131.768698245262,1148.6377105509252,1131.3779047935996,1130.617833536368,350.805478792781,-367.7755917331404,121.92945890927062,-5.52263649060392,150.97527404406148
13.935,-0.6391277815217079,-1.5723586154091749,-0.2274163879094522,0.0017505015649306,-0.0195458454852192,-0.0070900255856957,0.0026137493349198,0.000787646322373,-0.9127247634515304,-0.4085656607649804,-0.0087812428018605,-0.0659173197165125,9.878268678079166,-0.0181035294551015,0.0046363129400296,-0.0045983326203832,3.5151752050626466,4.981338132241309,2.049477604022992,1132.5820025530004,1147.5416726233843,1131.7239894523923,1130.6973710963832,308.6981289069786,-524.2417430454358,160.0579985684226,54.1985289823168,150.97313625848128
13.9375,-0.6864139648522402,-1.3422886558182732,-0.1928558291897643,0.0012620893257905,-0.0229272537228429,-0.006981755254806,0.002590472321194,0.0007870837879088,-0.9127199061516322,-0.4085766621623344,-0.0047195345623653,-0.0668581749226914,9.880121142763091,-0.0179953909099065,0.0045280343044812,-0.0044238869758312,3.5151977516208888,4.98129267538154,2.0494640895488607,1133.3121888897963,1146.0165018356984,1132.1781947864415,1130.8888261812795,279.9763037029709,-742.6069998170192,226.34445392441148,99.25370770576748,150.9710887631239
13.94,-0.7549794754128419,-1.0413232939694175,-0.1980149170635946,-0.000172564642159,-0.0259431705513237,-0.0056858351310342,0.0025660742352352,0.0007931838324284,-0.9127124171313924,-0.4085935318248451,-0.0006110183287341,-0.0676454594912972,9.881989493631185,-0.0178701569816663,0.004410832861277,-0.0042354230308561,3.5152183880739636,4.981245878513644,2.04944990146622,1133.9818840715147,1143.8286376243,1132.8557117220143,1131.193639634912,199.68852215021403,-835.6137544850811,275.60138603648977,120.62607052787757,150.96874562022876
13.9425,-0.7933752727822178,-0.7864450941364294,-0.2469184429228844,-0.0021414743958101,-0.0278075640905549,-0.0046612779934817,0.0025381635274832,0.0008054077330302,-0.9127025247977169,-0.4086157750555705,0.0035281625196767,-0.0682420684135439,9.883835062140925,-0.0177295871593096,0.004285618693293,-0.0040339263100136,3.5152376674191728,4.981199681139241,2.049434966719924,1134.3106315005475,1141.8384330632723,1133.556201716624,1131.4919565339187,77.43867837360693,-797.3636994073449,316.4876549842535,128.51054542282137,150.96689415942964
13.945,-0.7750501481711317,-0.5414816413633166,-0.3230415187275879,-0.004913645659735,-0.0290260937127755,-0.0046936849472876,0.0025085740760744,0.0008221580460079,-0.9126903526733046,-0.4086431067034147,0.0076014844336132,-0.0686324184363059,9.885621232859735,-0.0175758915520445,0.0041540633642885,-0.0038211540146032,3.5152558722688885,4.981155253859573,2.0494205488411334,1134.369077463383,1139.8418191272626,1134.4381499969359,1131.836192362026,-34.45353282355203,-845.039293298746,435.89335665910346,163.1020704192776,150.96515446105985
13.9475,-0.655254901931336,-0.2681793763630311,-0.4008203115054362,-0.0087760133181839,-0.0297331010637278,-0.0063160861750363,0.0024806115643737,0.0008415388773783,-0.9126768998914588,-0.4086732773713708,0.0114884209889013,-0.0688149357512718,9.88731472474084,-0.017411545334092,0.0040187584767443,-0.0035996044513044,3.5152734975982645,4.981113224185729,2.0494085256727663,1134.13836383643,1137.6132365967796,1135.7356684999193,1132.3074668860152,-127.55993864209638,-769.0157650580367,513.4770771447727,180.09482552931243,150.96320296242553
13.95,-0.4673783173055497,-0.0593372457933908,-0.4203245399873522,-0.0116579774015261,-0.0297849211256718,-0.0086930084094766,0.0024562832462712,0.000863394790757,-0.9126634164808176,-0.4087034827609061,0.0151116005338568,-0.0688170611418692,9.888886264081687,-0.0172390776193665,0.0038830929039042,-0.0033722442847835,3.515291572132877,4.981073968301351,2.049400524997135,1133.7312777701725,1135.9967403019718,1137.00553538266,1132.7366664896729,-195.12894044575336,-580.2879240566201,534.3724452775933,169.4199736430354,150.9616946215967
13.9525,-0.2055834935920945,0.1339634723150811,-0.3680751821601329,-0.0131921309668948,-0.029437905936149,-0.0111658175868708,0.0024359092640569,0.0008866422291617,-0.912650964692363,-0.4087313521473416,0.0184226190949465,-0.0686441426952004,9.890311360613936,-0.0170608402409978,0.0037509924417537,-0.0031421694686001,3.5153107657224467,4.981037202958307,2.049396444351684,1133.162719134201,1134.711796976496,1138.4075307263076,1133.1545667542305,-271.65851526784485,-480.35134334527817,620.5988191042577,160.88195959731382,150.96031328378876
13.955,0.1499728703801702,0.3588939461235758,-0.2244689792179919,-0.0133057692760123,-0.028795004626611,-0.0133115447944458,0.0024182427673706,0.0009091375705174,-0.9126403076012706,-0.4087551963521196,0.0213987737479507,-0.0682777730647015,9.891570343603114,-0.0168788468272114,0.0036266061654622,-0.0029121186532812,3.515331658805185,4.981003136979539,2.049394916354411,1132.3729851938335,1133.594983585246,1140.1085294781808,1133.5410762876593,-296.03138310736966,-339.49493237689626,601.3648816281889,103.8904490768552,150.9588069850174
13.9575,0.4432332197560159,0.5497500583771378,-0.0571583737101511,-0.0122144473474131,-0.0282668771886582,-0.0140781193355259,0.0024012868469891,0.0009296773488613,-0.9126308954816512,-0.4087762587890873,0.024044414847075,-0.0677175454911517,9.892647712772131,-0.0166946943159286,0.0035138658701932,-0.0026840516568219,3.515353987814005,4.98097142788212,2.0493948837749025,1131.6825622186643,1133.014322314612,1141.414355134448,1133.6740189996146,-270.0097732916707,-168.4487775760054,465.14368508753256,-8.167141649026776,150.95768051676995
13.96,0.6920617044089916,0.7502971962883053,0.1237774227315145,-0.0101051498202719,-0.0276322523155547,-0.0134842863737064,0.0023863673832865,0.0009456423718987,-0.9126221562395868,-0.4087958133842499,0.0262975301020463,-0.0669704491791351,9.893531835399555,-0.0165094554939668,0.0034162145756132,-0.0024590775040861,3.515377362005449,4.980941063760418,2.049395416793795,1131.0229363273747,1132.7527396973655,1142.4342479036188,1133.500240579414,-250.060390673395,-63.7534152337494,334.74870695858266,-132.10479370216243,150.95669025450374
13.9625,0.8801861300757449,0.9545315822635652,0.2891460175588986,-0.0074457345058228,-0.0264255488834608,-0.0118338981590962,0.0023735880172286,0.0009568208752109,-0.9126131583202708,-0.4088159374614556,0.0281422103048717,-0.066081334842454,9.894213680258124,-0.0163237164728273,0.0033362904948176,-0.0022371817461553,3.5154022043605115,4.980910950501689,2.0493952255152017,1130.4322602652971,1132.6955552384431,1143.0880986692412,1133.0134950311035,-210.61627535436497,6.551015494871019,145.60059838648323,-271.86697209600374,150.95581433410385
13.965,0.9779825657126502,1.1450354732386907,0.4158673508186179,-0.0041425849505076,-0.0240406700200732,-0.0097131067898569,0.0023615942863476,0.0009664404927303,-0.9126030567593056,-0.4088385168966566,0.0296205760380455,-0.0651475799900986,9.894685856139555,-0.0161376742026595,0.0032757590360134,-0.0020173088535785,3.5154287491575475,4.980880779565937,2.0493931169133313,1129.9698549506031,1132.78549477484,1143.162250895551,1132.1409057189344,-164.82892706005407,44.7842439355939,-124.2774215997348,-454.29863828260017,150.9550773736603
13.9675,0.987471744314486,1.3260328839244828,0.5214173858782737,0.0004968004802793,-0.0197643370051836,-0.0078279843723734,0.0023492986881767,0.0009767465812882,-0.9125916744750432,-0.4088639492536848,0.0307652055695795,-0.0642508604026859,9.894942624256116,-0.0159513142248768,0.0032351743701981,-0.0017977784219056,3.515456553353052,4.980850776677913,2.0493887174341445,1129.6081156299967,1132.9194764581212,1142.4667115612424,1130.7420018396904,-96.81411767090445,33.99194503503546,-386.5056007288181,-543.4648566614729,150.95435429840393
13.97,0.921329079892906,1.4174375312440954,0.58127188095255,0.0040308512211344,-0.0153927869192355,-0.0069430446314915,0.0023369411871812,0.0009896856734756,-0.9125789218998304,-0.4088924317575641,0.0315852293640435,-0.0634752826812232,9.894979475059992,-0.0157646232333067,0.0032137919227726,-0.0015766995812624,3.51548449766488,4.980821103191589,2.049381835163506,1129.4857843622488,1132.955454500015,1141.2297228919067,1129.4235814356266,-11.564870564600396,-17.492838163938202,-608.158230757711,-515.1443652876085,150.95388604170333
13.9725,0.8202561598234248,1.438093495672604,0.624906806949335,0.0061008741756604,-0.01089722974676,-0.0060450404330734,0.0023239154875301,0.0010044037953769,-0.9125664492429943,-0.4089202903013258,0.0320847170068148,-0.0628423763897259,9.89479345336712,-0.0155776864965917,0.0032096048659376,-0.001352405625869,3.515511532431977,4.980791277720828,2.049372953807341,1129.550291277174,1132.8320122673015,1139.4259204074544,1128.1662800132528,68.39691572009994,-96.4761784457288,-871.508612051312,-488.63666068655846,150.95355643429855
13.975,0.7199032083620603,1.3934805410300135,0.6637147646157139,0.0065110637976326,-0.0063988272878384,-0.0042035583577599,0.002308670989298,0.0010162124481841,-0.9125570752686955,-0.4089412570824422,0.0322560618434567,-0.0622890260852252,9.894383622825536,-0.0153907323429695,0.0032193539460426,-0.0011238855351971,3.515536506177414,4.980759958922567,2.049363491135894,1129.8277689408492,1132.4730736077868,1136.872179831651,1126.9803981321943,133.1912082063146,-160.61032550889868,-953.6548503039159,-354.36046112980796,150.9533195045112
13.9775,0.687960043421262,1.3177188436054297,0.6847944539907429,0.0055352923430365,-0.0036745459402472,-0.002310865822317,0.0022933204479829,0.0010196384069836,-0.9125522751821068,-0.4089520407098451,0.032021920696158,-0.0617571152577476,9.893751325115009,-0.0152041820255308,0.0032386131264293,-0.0008911240193053,3.5155584151294126,4.980726504902075,2.049354660564606,1130.2162473182057,1132.0289606397569,1134.657646155934,1126.3944777076035,188.85980744318437,-190.0247740738153,-851.0709173443082,-139.67997886895864,150.95325246415214
13.98,0.7157612350547111,1.2235720854576575,0.6965892292783779,0.0047345711483373,-0.0015453690609365,-0.0007883021332826,0.002277912626394,0.0010134805434875,-0.9125527620533332,-0.4089510497620375,0.03137946648385,-0.0612370985257842,9.892900200415001,-0.0150186681516236,0.0032622931395539,-0.0006549542095159,3.5155772249077204,4.980691529996016,2.049347246453709,1130.7720679780653,1131.5229497374175,1132.6168252449288,1126.2819982378492,288.13103604126167,-209.14956707146823,-817.0190773081947,44.869079742793296,150.95331807795483
13.9825,0.7717326414433856,1.099985786256852,0.7042104255011281,0.0057827320516195,0.0013106645304426,0.0004809624727351,0.0022615616694933,0.0009962290926337,-0.91255937817647,-0.408936412316843,0.0303428051603088,-0.06069378466218,9.891837690282847,-0.0148349733888565,0.0032852128467095,-0.0004171083968779,3.515593348761969,4.980656096083391,2.049342088779304,1131.6569024984117,1130.9832128043995,1130.572550769394,1126.6188231063174,364.64809046581627,-167.38441918868068,-669.6328446397241,177.1905901919024,150.95354627321177
13.985,0.7795960028532021,0.9869239794853772,0.7028901371512858,0.008794490242029,0.0041040946161271,0.0014810235917386,0.0022469729369138,0.0009656259501311,-0.912571565676418,-0.4089093613663343,0.0288581152924492,-0.0600945274223648,9.890575882108784,-0.0146539540578107,0.0033024224104328,-0.0001801519371944,3.5156074466266967,4.980620144436464,2.049339021309968,1132.595308430394,1130.6860276414743,1129.2686610217308,1127.1679511888087,417.3445305833668,-72.13297276583727,-440.0370091915414,239.02664597140657,150.9538576068526
13.9875,0.6806962713575603,0.8610631520208757,0.6801367232010685,0.0129540742670673,0.00661053885026,0.0029291180022212,0.0022323103239977,0.0009219662543675,-0.9125875836644836,-0.4088737870296494,0.02697724316862,-0.0594037162749068,9.889131453770297,-0.0144764482388268,0.0033095440065233,5.301284793009173e-05,3.5156204958716923,4.980583384875489,2.0493379780084093,1133.7436251513288,1130.6225479405705,1128.372365723436,1127.8139563361747,487.96579255123663,16.290831056855676,-298.24283044122126,249.2132068070597,150.95429005109247
13.99,0.4650385563428429,0.726591970762108,0.6237101832020918,0.0168205215812989,0.0086504299161347,0.004978687972993,0.0022134396153359,0.0008677396473343,-0.9126056518172047,-0.4088336775890665,0.0248141090738425,-0.0585960087811166,9.88752597326401,-0.0143032310135979,0.0033030864358974,0.0002793220404517,3.515633574458613,4.980546498894231,2.049339770700674,1135.0351373931503,1130.7674817967586,1127.7774468695245,1128.4140172228442,534.9454404830949,102.63799507826884,-173.965861630848,206.9893435262159,150.9548189740491
13.9925,0.1112640292362285,0.5876689767188967,0.5098122233621253,0.0194318876309577,0.0103934922222884,0.0076596316025559,0.0021909627592033,0.0008079614382601,-0.9126243722944914,-0.4087921382461753,0.02242039621879,-0.0577210493005121,9.885785702372177,-0.0141350666521429,0.0032805763091336,0.0004956857876644,3.515647028422993,4.980509766714276,2.0493450463776535,1136.4183523537436,1131.1357379159615,1127.5025364152818,1128.8489030538055,601.5657546859499,199.6931478600488,-51.94087787757878,138.98460537709627,150.95545888176227
