t,ang_acc_x,ang_acc_y,ang_acc_z,a_vel_x,a_vel_y,a_vel_z,quat_x,quat_y,quat_z,quat_w,acc_x,acc_y,acc_z,l_vel_x,l_vel_y,l_vel_z,pos_x,pos_y,pos_z,mot_1,mot_2,mot_3,mot_4,dmot_1,dmot_2,dmot_3,dmot_4,vbat
43.0675,1.4875516678081864,0.6461439164789593,-0.1746898540180485,0.0420114624314972,0.0290715972410243,0.0025776972347553,0.0039528743138627,-0.0055234317920076,0.0245931650732732,0.9996743250022342,0.0778891664456596,-0.0283355504454756,9.834318351838329,-0.0238569363607218,0.0295473447548817,-0.0007197649300976,-0.0067445813105382,1.769414518057309,2.5876142217613207,1119.5974423605123,1147.798505160972,1155.8535994844497,1122.8751913226888,794.3163193487665,178.63748110353256,503.8063616461537,-195.998078783068,158.59254292442057
43.07,1.393864102901274,0.633880660751647,-0.2155595008071188,0.0445228449829699,0.0290888785099316,0.0015176313822081,0.0039935673319513,-0.0054805270925761,0.0245930686480775,0.9996744033121228,0.0755669106563499,-0.0286812283753248,9.835496020079615,-0.0238778829856836,0.0295160531717411,-0.0006714225035306,-0.0068069313569031,1.769483167029115,2.587607087861397,1121.812779493119,1148.1076274249072,1157.0851027001027,1122.498832875347,952.8962518274536,78.64248196858956,454.8757696711208,-102.73250855371109,158.58995899781263
43.0725,1.3346717653914066,0.69269614650423,-0.2244920644270193,0.0472236210987502,0.0293153865963745,0.0007336390723149,0.0040399398989153,-0.0054348102625341,0.0245930249677389,0.9996744692974908,0.0730869760398737,-0.0286114244196444,9.836759882961584,-0.0239029982631228,0.0294869765604747,-0.0006064417962995,-0.006868581011261,1.7695519316126953,2.58760045146482,1124.3619236196453,1148.1917175708145,1158.1279783328032,1122.3615287799207,1125.0663752603189,23.691069294897417,385.63509936369246,-18.25280152105709,158.58739948493246
43.075,1.2861472943783419,0.824047023683511,-0.2057664116463502,0.0504602530188568,0.030631706556252,0.0001468485685145,0.0040905940591183,-0.0053856563630984,0.0245927705325569,0.9996745385697487,0.0704495837684001,-0.0281683852158361,9.838052562343314,-0.0239326703156046,0.029461203610605,-0.0005255475884263,-0.0069300975718378,1.7696209516754304,2.5875945630144392,1127.4381113694235,1148.2260827713817,1159.013278196922,1122.4075688677417,1073.9071478073092,30.89464930424821,243.3001758141592,43.84924612966218,158.58436568731463
43.0775,1.2444589486187816,0.9535863275472416,-0.1726562021579691,0.053232181365699,0.0328559977073004,-0.0001084742377216,0.0041453356940581,-0.0053355114931874,0.0245958757709067,0.9996745094985364,0.0677159174359172,-0.0273773953440467,9.839317265533401,-0.0239668252500645,0.0294397151424351,-0.0004301069241224,-0.0069914373039595,1.769690907051775,2.5875898284486007,1129.7314593586843,1148.3461908173358,1159.3444792118746,1122.5807750105691,805.2123587111557,92.55809715609081,25.942219198555847,92.53709832245707,158.58187502112867
43.08,1.1715480428027136,1.0624634595696545,-0.1276701690319976,0.0561337334871631,0.0360657763077797,-0.0002229165282094,0.0042028310717471,-0.0052825050909778,0.0246017191016652,0.9996744101059952,0.0648609880637562,-0.0262878098931438,9.84050148314629,-0.0240053527676732,0.0294230952716314,-0.0003222395207236,-0.0070532683319997,1.769761269722288,2.5875864999854628,1131.4641731629756,1148.6888732571615,1159.1429892929148,1122.8702543593536,600.2574181960994,208.7438273951944,-230.20853583622784,154.66826484754435,158.57942979377938
43.0825,1.010385111525404,1.1305947370176697,-0.0624250126909877,0.0594176852276308,0.0403699788670692,-0.0003010823041235,0.0042603487767654,-0.0052244627090723,0.0246084531202841,0.9996743069709452,0.061852633623794,-0.024979583468983,9.84155789384992,-0.0240479510255755,0.0294117707605143,-0.0002044523757854,-0.0071163713144044,1.7698313751465211,2.587584570344978,1132.7327464496664,1149.3899099543123,1158.1934365326929,1123.3541163348073,333.72880852504045,292.2141987273204,-468.7602713506624,202.25304278841233,158.57655458940835
43.085,0.7880998484848439,1.1195569047354843,0.0025011406522621,0.0619252888557431,0.0438751287094151,-0.0003665099473563,0.0043175544917571,-0.0051628309768608,0.0246150031723889,0.99967421875431,0.0587308018960188,-0.0234898598597384,9.842444408297965,-0.0240941152265191,0.0294061392088162,-7.949033957692466e-05,-0.0071803330665616,1.7699014225839402,2.58758417511846,1133.1328172056017,1150.149944250799,1156.7991879361603,1123.881519573296,57.09997791337364,307.71830145591383,-665.7060601941481,238.1798791125568,158.57421191130652
43.0875,0.4466232638142899,1.034421128691149,0.0813313406439306,0.0648294425252076,0.0470963614099705,-0.0004496620374859,0.004376521778995,-0.0050968570740168,0.0246181786967529,0.9996742179609392,0.0554929325327538,-0.0218089288638465,9.843126126819076,-0.0241434401905236,0.0294064279848936,4.955642782739696e-05,-0.0072449589680624,1.7699713303472109,2.5875850277371377,1133.0182463392332,1150.9285014615905,1154.8649062317252,1124.5450157303687,-93.00496070272646,284.01490202990334,-833.263980466819,286.1507049330058,158.57192869771075
43.09,-0.0040194326501521,0.8944532105477186,0.1729414358291042,0.0680301736883674,0.049962580585075,-0.000522314327719,0.004437336768295,-0.005025107401482,0.0246148657718036,0.9996743882230504,0.0521221184031594,-0.0199668445832207,9.84357635390114,-0.0241955954005285,0.0294127898064013,0.0001797437679382,-0.0073101451463126,1.7700407561738667,2.5875870275747728,1132.6677924020876,1151.570018760949,1152.632868033824,1125.312273097962,-150.44021393270248,191.1902210600533,-912.03907791845,323.7224522802243,158.56969729306775
43.0925,-0.5673171891408254,0.7055125799322797,0.2771238592701938,0.0702027333606421,0.0522938718512238,-0.0004948754091386,0.0044995945393205,-0.0049478490268211,0.0246081966934978,0.999674652279896,0.0486356081697441,-0.0180046607684581,9.843776195646669,-0.024250033967251,0.0294255595442744,0.0003084421461213,-0.0073753924833815,1.7701097339115228,2.587590189763098,1132.2660452695693,1151.8844525668912,1150.3047108421304,1126.163627991771,-146.4232497648904,39.68485517238122,-971.4934679559261,373.2980989392884,158.56753069636952
43.095,-1.2938890007556298,0.453673862664197,0.4039258304688956,0.0692998824599719,0.0543146022061299,-0.0001529813755531,0.0045620964017523,-0.0048647592462058,0.0246014470163442,0.9996749367992604,0.0450395147036568,-0.015978073111715,9.843714866009858,-0.0243063845710601,0.0294448936567535,0.0004333713451374,-0.0074408476055354,1.7701783096883204,2.587594386978481,1131.935676153264,1151.768443036811,1147.7754006940488,1127.1787635926567,-85.36464396061272,-123.7927217905784,-833.7813438336808,348.25945041489297,158.56500786953728
43.0975,-1.851830398022064,0.2510625749103926,0.4941371025521692,0.0643942787190198,0.0550274433887848,0.0005787424113552,0.0046241730720856,-0.0047773468003404,0.0245951752178176,0.9996752250501024,0.0413773049184287,-0.0139316815426369,9.843388699500624,-0.02436463140974,0.0294705642984538,0.0005527594604723,-0.0075069738531444,1.7702465775488403,2.587599095222916,1131.839222049766,1151.265488957938,1146.13580412296,1127.9049252438463,-13.225366119643295,-264.8843442346342,-516.9132160364,232.02342781657487,158.562970761871
43.1,-2.250977716448221,0.0906865551512772,0.5406684769910672,0.0559499354571907,0.0545076406407582,0.002012659738055,0.0046852545365759,-0.0046895101363205,0.0245922797318408,0.9996754306142404,0.0377415119559211,-0.0119072505143302,9.842800577488354,-0.024424855204116,0.0295021524643618,0.0006654609966684,-0.0075734564663791,1.7703150318906182,2.5876039203857046,1131.8695493226655,1150.4440213156372,1145.1908346138655,1128.33888073174,11.520038659829442,-356.5242173428546,-249.04735198756407,100.45993785756804,158.5610018911618
43.1025,-2.4648128929916457,-0.0150323783150976,0.5289247144818873,0.0466155328750338,0.0533889777683861,0.0041401507997167,0.0047442347575648,-0.0046021274891241,0.0245901523901648,0.9996756179713806,0.0341666078825393,-0.0099526867516621,9.84195996313144,-0.0244877538903093,0.0295386501864417,0.0007707291370024,-0.0076402080758,1.7703839265864658,2.5876085322718048,1131.8968222430651,1149.4828678712252,1144.8905673630231,1128.4072249331336,-21.547050707056655,-385.5829105337608,29.58826786987934,-80.64668608254091,158.55908946017007
43.105,-2.4450822130451138,-0.0473830780459158,0.428348326017072,0.0381758232936183,0.0522772373463265,0.0069672469496734,0.0048008427486393,-0.0045126026577939,0.0245872686304534,0.9996758375350288,0.0306217258119009,-0.0080946056648164,9.840881700482237,-0.0245542845818752,0.0295788132540063,0.0008680585465848,-0.0077070138829214,1.7704531026213604,2.5876128977846244,1131.7618140691304,1148.5161067629674,1145.3387759532147,1127.9356473013272,-133.82685346512037,-391.47360306963475,336.94834433918953,-334.08336379312647,158.55724427692263
43.1075,-2.1985820642602345,-0.013822600704891,0.2071759688181391,0.0304409780435276,0.0514878270649267,0.0102713034166661,0.0048552179590382,-0.0044221358111833,0.0245876055889994,0.9996759841187072,0.0271542694742715,-0.0063498803601245,9.839584359515651,-0.0246253735121278,0.0296214284674843,0.0009574913872206,-0.0077727429020473,1.7705231742201892,2.5876165649556238,1131.2276879757392,1147.5254998558762,1146.57530908472,1126.7368081141672,-276.8067317115554,-317.59616779251485,530.312471305597,-525.41529655789,158.55510601954046
43.11,-1.8661566290034557,0.0539051061098416,-0.0328012623682515,0.0261441855800616,0.0514068399723252,0.0116456199579504,0.0049069865145967,-0.0043332724488033,0.0245925294647843,0.9996760131592252,0.0238404283049583,-0.0047422137942686,9.838089972670344,-0.0247022890373597,0.0296649957885047,0.0010394336362322,-0.0078373020123157,1.7705946801358128,2.587619298767476,1130.377780410574,1146.9281259240063,1147.9903383097403,1125.30857081854,-433.16595013280346,-180.24846126172508,587.1876235308897,-613.8472239554674,158.5533857845672
43.1125,-1.4733963354536637,0.1325611877185398,-0.2705691053990517,0.0233288573843336,0.0518471197257168,0.0103157289085091,0.0049553670934377,-0.0042462928561438,0.0246025257981709,0.999675914860226,0.0207141677336419,-0.003298398357718,9.83642366272819,-0.0247863594625276,0.0297079606249705,0.0011143067850872,-0.0079012196183744,1.7706676456900254,2.5876214203929035,1129.061858225074,1146.6242575495671,1149.511247202376,1123.6675719943883,-678.1193271677862,-61.29552043518336,621.7751826332008,-698.3943997472189,158.55172730937824
43.115,-0.9961014056763972,0.2053178121504564,-0.4820077000082153,0.0210295663510122,0.052625482731819,0.0064766512716934,0.0050008590708093,-0.0041614249928927,0.0246166687020232,0.99967570918916,0.0178110858664914,-0.0020164309529302,9.834612442067352,-0.0248788277427955,0.0297488809292979,0.0011824091847731,-0.0079649610857353,1.770741752315186,2.5876232110932595,1126.9871837747332,1146.6216483218302,1151.099214222908,1121.8165988198023,-824.6039478056215,57.8522665171548,494.84645625906967,-603.050040920928,158.54980567188016
43.1175,-0.6239710429035665,0.2261966466487957,-0.5680883773715261,0.0198750895648662,0.0531898602524792,0.0032547632902553,0.0050425047738618,-0.004077485395342,0.0246336272988451,0.9996754401200127,0.0151397842303737,-0.0009191445122603,9.832685406734784,-0.0249806869117957,0.0297866413103389,0.0012438988216229,-0.0080288334775227,1.7708161240632945,2.587625162445874,1124.9388384860497,1146.9135188821526,1151.9854794836692,1120.6523217897864,-852.1012640314003,168.88328699625967,219.42503281563353,-328.9201013554056,158.54825914455532
43.12,-0.2987736167457981,0.1825462195522247,-0.5633280382066346,0.019344940943567,0.0539925120911355,0.0011537317482339,0.0050772124501989,-0.0039957887315738,0.0246499622193085,0.999675203510212,0.012757294882113,-6.995426658094883e-05,9.830673200356301,-0.0250927194944656,0.0298204536559893,0.0012989876071626,-0.0080927952117724,1.7708900688212004,2.587627314673263,1122.72667745458,1147.4660647568107,1152.1963393869853,1120.1719983130267,-882.7209373134369,251.3771472967697,-46.75780806085067,-48.32789328827204,158.54676661714464
43.1225,-0.0186452452685153,0.0700614014374881,-0.5034569083428009,0.0192068138961623,0.0553503644999486,-9.551065130300969e-05,0.0051050120379335,-0.0039177022793336,0.0246635799047642,0.999675045751462,0.0107227909157182,0.0005310107471594,9.828606776403348,-0.0252152659425738,0.0298500217604073,0.001347506344125,-0.0081564145412672,1.7709633199923092,2.5876298224258223,1120.5252337994802,1148.1704046186371,1151.7516904433649,1120.4106823233449,-843.6874585346462,295.7569848358013,-337.3160729037502,282.7704490537061,158.54531653955223
43.125,0.2059479126643717,-0.1333550039862989,-0.4071865216686405,0.0194649482739897,0.0568141090838569,-0.0006441687275261,0.0051262976193615,-0.0038434592260777,0.0246727795531563,0.99967500689919,0.0090715575165582,0.0008925970286018,9.826517722021297,-0.0253482229431258,0.029875395172179,0.0013890280165294,-0.0082195850308254,1.7710357734135207,2.5876330105256526,1118.5082401619047,1148.9448496809905,1150.5097590224657,1121.585850558296,-808.9285247860142,322.5792849854065,-703.3006583189974,716.5026727400041,158.54391465652225
43.1275,0.4119918986853406,-0.4665570877892558,-0.2818471353592711,0.0202502907642633,0.0572736640618361,-0.0009082390665551,0.0051400165447285,-0.0037726944170448,0.0246759650580111,0.9996751344436898,0.0078232476892531,0.0009961695707087,9.824438245696161,-0.0254909671596855,0.0298968261804815,0.0014230606511905,-0.0082828947897828,1.7711075768580296,2.58763697463934,1116.4805911755539,1149.7833010435627,1148.235187151773,1123.9931956870416,-660.9030355263969,267.5751741333438,-926.8159762478523,1009.9725857146784,158.5422840854907
43.13,0.530578236334072,-0.787836217350342,-0.1844506591943736,0.0213660405563966,0.0561333367639909,-0.0010299422293516,0.0051475461126313,-0.0037064040254025,0.0246739039460767,0.999675399475489,0.0070210933638285,0.000870308010199,9.822399799071297,-0.0256421477774436,0.0299147777298855,0.001449013379925,-0.0083466239015425,1.7711789492263823,2.5876416142325382,1115.203724984271,1150.282725551658,1145.875679141224,1126.635713486872,-416.6751526897457,135.6688301852261,-982.5129778848781,1115.435933426054,158.5409655588269
43.1325,0.5927781107227108,-1.1058251210199672,-0.1034170319620683,0.0230009240376155,0.0536315159870007,-0.0011997020415488,0.0051521670846645,-0.0036457163120773,0.0246665744353363,0.9996757822704028,0.0067057089154046,0.0005805362521991,9.820432777209456,-0.0257998640686283,0.0299296780387258,0.0014662595524365,-0.0084109459131346,1.7712503816386496,2.5876465895922034,1114.397215412104,1150.4616451944892,1143.322622262346,1129.5703753541748,-250.06018331587265,-5.900312434146963,-1098.4239365992366,1253.1041096852305,158.53968611049862
43.135,0.6036330161244827,-1.4258866958806695,-0.0289146481846022,0.0253522208042167,0.0491446740939708,-0.0014484602168021,0.0051583564035686,-0.0035900775212354,0.0246546889890448,0.999676245021554,0.0068780061409715,0.0002159456515051,9.81856618544515,-0.0259616003533106,0.0299419659423181,0.001474148069465,-0.0084760624052756,1.771322159880594,2.587651703380693,1113.9534240676928,1150.2532239894872,1140.3835594582329,1132.9012340352924,-85.36383845576164,-141.11173831358485,-1011.6063279136424,1112.7091299504843,158.53819365846107
43.1375,0.566207631302841,-1.6056443299086507,0.0122389556705436,0.0272279374847356,0.0443508434305022,-0.0015428766788956,0.0051678456073856,-0.0035381934002579,0.0246399772757389,0.9996767413627232,0.0075147198126514,-0.0001888932408089,9.81682775172944,-0.026124251365236,0.0299521214246712,0.0014723187665147,-0.0085421598614835,1.7713943197434359,2.587657152242548,1113.970396219825,1149.7560865029209,1138.2645906227751,1135.13392100393,69.40175338041715,-244.06421739410024,-738.4173935523309,705.5384422316394,158.5369846029867
43.14,0.4968578985207522,-1.6686036058511793,0.0282310986992264,0.0285988434557416,0.0389740742943539,-0.0012898823638729,0.005181308650088,-0.0034869505280811,0.0246237283893154,0.9996772477175114,0.0085470664005971,-0.0006203998071983,9.815242868856616,-0.0262842908338151,0.0299606437574007,0.001460586503909,-0.0086097684550554,1.7714663621057187,2.587663380984043,1114.300432834595,1149.032902902516,1136.691472490469,1136.4289262464524,168.8257521295953,-303.9801292074608,-521.412189485019,328.0446653025393,158.53581092872832
43.1425,0.4170481357067832,-1.6313742122792332,0.0214126727973392,0.0294885776300941,0.0338201500193696,-0.0008457372515448,0.0051969774594456,-0.0034339026858813,0.0246074098172674,0.9996777463806652,0.0099084785529192,-0.001114374796248,9.81383392761212,-0.0264378584124649,0.0299680965756446,0.0014392403878409,-0.0086792340586619,1.7715375013131731,2.5876704512187136,1114.8145249804722,1148.2361858568847,1135.6575296753526,1136.7741443304412,233.43700224574485,-311.3101208321267,-278.58465476178327,-98.66239280108357,158.53466668473007
43.145,0.3430611418944444,-1.4893273384678178,-0.0108261593626337,0.0299110301275066,0.0296176922088314,-0.0004348846128185,0.0052132390539435,-0.0033797852017188,0.0245930804009268,0.9996781930620938,0.0115851498711287,-0.0017061644572621,9.812618728122692,-0.0265809223455964,0.0299750754765803,0.0014091494338629,-0.0087504252022234,1.7716077725422639,2.5876778078454774,1115.4676178458244,1147.4763522983546,1135.2985492166597,1135.9356142824467,304.4450796671106,-308.88400746009773,-10.841039028940852,-604.6505378432447,158.53355868606963
43.1475,0.2774596892327179,-1.2336575949540363,-0.0684340281030944,0.0301128489156583,0.0259565707049757,-0.0002028690406442,0.0052300086552692,-0.0033262481003876,0.0245803281590044,0.9996785930742306,0.0135722301391839,-0.0024024330153,9.811609458803096,-0.0267096966321767,0.0299819319967958,0.0013716531486537,-0.0088236472468382,1.7716772057214782,2.58768483411598,1116.3367503788083,1146.6917658195837,1135.603324480208,1133.7508916412235,327.5769765415385,-269.06380103957326,221.74247103805257,-937.2358308113119,158.5322727301169
43.15,0.246502814302751,-0.9774397780154588,-0.1196463993390629,0.0302109461299029,0.0238315693827969,-0.0003364858176494,0.0052473810598981,-0.0032732892309875,0.0245660055959461,0.9996790232177692,0.0158236585793622,-0.0032060361844472,9.81081239230934,-0.0268209104225615,0.0299886364086082,0.001328512156466,-0.008898846297263,1.7717463262640682,2.587691138861556,1117.1055027285306,1146.131033293158,1136.4072615718487,1131.2494351283945,315.96395289340967,-221.71978986577892,419.5368604786509,-1041.7894084463696,158.53123901501104
43.1525,0.2359211488090585,-0.7027251015334962,-0.1560700844705287,0.0304418143495712,0.0221836048836505,-0.0009037642780991,0.005267813557923,-0.0032203714172906,0.0245493689195063,0.9996794900963678,0.0182770053936561,-0.0040733903684113,9.810226760439882,-0.0269117523615034,0.0299949893771872,0.0012817741362131,-0.0089754335070626,1.7718159826061377,2.5876963659030863,1117.9165701432764,1145.5831668702542,1137.7010087826022,1128.5419445989887,332.9731024918262,-232.1369903623867,588.0433302726208,-1033.3515195866482,158.53024643441438
43.155,0.2332976767356431,-0.426362810540811,-0.1673918884937097,0.0309123787868416,0.020905632711235,-0.0018596667514005,0.0052916759616555,-0.0031666216186018,0.024529905682626,0.999680006940695,0.0208566796147966,-0.0050014388339264,9.809845303638099,-0.0269802137442774,0.0300005155045188,0.0012339254300264,-0.0090528990855399,1.7718861941887163,2.587700367250392,1118.7703682409904,1144.9703483413455,1139.3474782232136,1126.0826775304583,352.6891996146812,-271.55521619417556,731.5628216300697,-831.7306561977891,158.52928919018507
43.1575,0.226151035230885,-0.1609885526789746,-0.1392265781844176,0.0317669532681934,0.0202147001115961,-0.0031959112078937,0.0053183562432789,-0.0031113864918474,0.024508486855736,0.9996805580433706,0.023487458570282,-0.00600584136843,9.80965388979778,-0.0270251597416462,0.0300046068508723,0.0011876963519028,-0.0091308298146619,1.7719568758435167,2.587703033141732,1119.6800161413482,1144.2253907892843,1141.3588228907493,1124.3832913180036,409.3292445097811,-354.3050235161451,949.3956092291827,-490.49682609536296,158.52837591506187
43.16,0.196831595639539,0.1287618516588196,-0.0637238644279066,0.0331900677332897,0.02013683561012,-0.0047969853648218,0.0053495061770182,-0.0030563012068297,0.0244883829145953,0.9996810496601513,0.026138876348822,-0.0070580030849464,9.809630872038996,-0.0270463354213133,0.0300066664573192,0.0011458024419271,-0.0092083967572111,1.7720280274345135,2.587704268488953,1120.8170144635403,1143.1988232237638,1144.094456269362,1123.6301933999805,416.70512097267925,-381.7138827218381,1034.8609270998786,-41.710012151976606,158.52733241861048
43.1625,0.1508934190057595,0.334276158422042,0.0162171883111459,0.0344520139260754,0.0207172786234013,-0.0054393688129666,0.0053873806511582,-0.0030040049834017,0.0244728578379678,0.9996813825699274,0.0288011989775112,-0.0081166566211924,9.809748094083933,-0.0270444940375824,0.0300060437039184,0.0011107736819169,-0.0092845199832411,1.7720996796746693,2.5877041947506925,1121.7635417462127,1142.3168213756744,1146.5331275262513,1124.1747412572436,362.9282791177165,-325.9456700190421,970.6715258642547,433.1059203642627,158.52650759441707
43.165,0.0905173719376145,0.4882195304645586,0.0785912793630912,0.0351301244005303,0.0219603431908728,-0.0045082339187273,0.0054343787803083,-0.0029566566762887,0.0244646744334616,0.9996814705052822,0.0314582003765596,-0.0091358523388592,9.80997204172406,-0.0270212804111602,0.0300020726886371,0.001084702846865,-0.0093584725282921,1.77217200962637,2.5877031972941196,1122.6316558591275,1141.56909487367,1148.9478138986788,1125.7957230017998,340.74338945693694,-254.65847816740887,1000.858577048154,874.1628212401868,158.5257303700377
43.1675,0.0235973078889563,0.5998255048987566,0.0950291870274474,0.0348815793797337,0.0241488208315574,-0.0021941805488914,0.005487601936906,-0.0029127051879216,0.0244630742027188,0.9996813508789608,0.034022909513633,-0.0101697607670059,9.810266517159203,-0.0269791558498535,0.029993969846747,0.0010692291599618,-0.0094308091308575,1.7722447049884973,2.5877020335427754,1123.4672586934983,1141.0435289848367,1151.5374204114946,1128.5455553634467,255.77232479191127,-103.05684997532992,855.4938175936229,1057.060572268579,158.52485394858172
43.17,-0.0111155202020148,0.6273208236374603,0.0506264087654222,0.0342495800463922,0.0264847927816759,-0.0005898017674293,0.0055440918842397,-0.0028725144897019,0.0244668304139429,0.999681067121162,0.0364524430848056,-0.0112726062437491,9.810592460979905,-0.026920926746657,0.0299810742192395,0.0010654615556688,-0.0095019911667248,1.7723174763996257,2.5877010392135116,1123.9105174830877,1141.0538106237932,1153.225282986649,1131.0810258631454,112.40385495594856,117.28703839873312,536.1350960201308,961.7188256459592,158.52417143818306
43.1725,-0.0130159870969443,0.5929936708633768,-0.0382335151993062,0.0335991502494851,0.0289058862862722,4.557765859546663e-06,0.0056031181949324,-0.0028361207568314,0.0244753786479705,0.9996806357369628,0.0387065526711605,-0.0124527138098543,9.81090936727394,-0.0268494764661125,0.0299629403441142,0.0010737089639211,-0.0095722306896544,1.7723901179228452,2.5876999867825425,1124.0292779682775,1141.6299641768298,1154.2180958915928,1133.3541494916724,-6.382693527435921,325.884614820158,266.7957818322065,803.1472313650721,158.52354002742345
43.175,0.0123740354305576,0.5235654657515089,-0.1386305665854294,0.0330286124349538,0.0307477122743773,-0.0001949898330453,0.0056630261969362,-0.0028018153691893,0.0244863872009455,0.9996801269595236,0.0407191114973526,-0.0137334451340901,9.811177798119232,-0.0267677764892573,0.0299391930390118,0.0010935942738792,-0.009642261894791,1.7724622619224704,2.5876990977883727,1123.8786040154505,1142.6832336978948,1154.5592618958108,1135.0967620199729,-111.60806545516354,520.5590124367583,-11.114016490950004,525.5844050691888,158.522952310869
43.1775,0.0615623350936237,0.4421741931164221,-0.2176793011549293,0.0327530653539172,0.0313242985820511,-0.0012487685093728,0.0057220442897891,-0.0027698396440092,0.0244980561120748,0.9996795934303904,0.0424718337767676,-0.0151392392842764,9.81136046567514,-0.0266786806984372,0.0299096058275685,0.0011242188538525,-0.009712399228466,1.7725335321285656,2.587698603323612,1123.4712376410012,1144.2327592390147,1154.162525809138,1135.9820715170197,-204.605915063216,756.7930163209046,-296.11754447759824,183.3735055294104,158.52241917650184
43.18,0.1272612585670258,0.3676616200258758,-0.2493953430088217,0.0327891314836567,0.0310112347875591,-0.0033019643109751,0.0057781447211139,-0.0027388646951,0.0245088946915032,0.9996790864453396,0.0439254601222863,-0.0166965929693122,9.811424294857853,-0.0265849636723061,0.0298739950248926,0.0011640143450845,-0.009782458418561,1.7726040075486236,2.5876989321434096,1122.8555744401351,1146.467198779496,1153.078674173424,1136.013629547619,-214.08121159708037,843.2104112392091,-443.0186368331697,-135.69173253261914,158.5218453425926
43.1825,0.168309669346687,0.3387462289626798,-0.2078300627959777,0.0331901287424804,0.0306694224317957,-0.005355870329322,0.0058325220743481,-0.0027062538400551,0.0245188981649979,0.9996786061512762,0.0450266722904771,-0.018365975263338,9.811341208916383,-0.0264892859665625,0.0298321802904719,0.0012106382679868,-0.0098522440508118,1.7726739641353062,2.5877003843167383,1122.4008315830167,1148.4488112952072,1151.9474326249742,1135.3036128543572,-129.62188185490695,766.847370847489,-425.92462816238407,-387.4317671523223,158.521424423956
43.185,0.1709741835765538,0.3399906982304044,-0.0999102234619968,0.0341410776554252,0.030854207988952,-0.006962109990167,0.0058866506396548,-0.0026724226226307,0.0245293546404263,0.9996781114666516,0.0457919033144109,-0.0201015688796972,9.811089295068003,-0.0263942063601239,0.0297838825327638,0.0012615165906249,-0.0099215314654043,1.7727436445298632,2.587703096745284,1122.2074650308605,1150.3014356337353,1150.9490510326111,1134.0764707118565,-10.196978789867227,683.7460772492844,-330.02790710253464,-537.1734578307477,158.52106607390917
43.1875,0.1271879888028423,0.3509558525104942,0.0421138846097336,0.0353966702540038,0.0316440232858631,-0.007408169992261,0.0059403614943846,-0.0026398622776334,0.0245427277731907,0.9996775373495238,0.0462866538714615,-0.0218884457213931,9.810654140507427,-0.0263021698670233,0.0297286694327507,0.0013140639285473,-0.0099901698928781,1.7728136372776255,2.5877071434967007,1122.3498466890676,1151.8675416814551,1150.2972930894607,1132.617745565202,151.27610119507267,523.3082395757476,-144.48139084856345,-600.3073695388141,158.52076217678731
43.19,0.0207292236722355,0.3500571252968405,0.1878238638030635,0.0365169814930466,0.0331972979054434,-0.0063282654802084,0.0059927626851251,-0.0026117620816614,0.0245627218820372,0.9996767919691616,0.0465980232798212,-0.0237238221248522,9.810029389411689,-0.0262154543136205,0.0296659811116222,0.0013657306442812,-0.0100579693765503,1.7728843456172871,2.5877124112507426,1122.9638455368352,1152.9179768316117,1150.2266440783687,1131.0749338641651,371.5097978637832,316.95803727804713,105.09493088078752,-664.9124630010883,158.5205271322397
43.1925,-0.1697201897592331,0.3126308688557011,0.324373309213491,0.0371607874786731,0.0356816838026384,-0.004210218462844,0.0060408415333881,-0.0025916498424061,0.0245924549667139,0.999675810430465,0.0468257249000355,-0.0256441749100143,9.80921721665772,-0.0261361906064841,0.0295951205231461,0.0014142368545019,-0.0101244096896461,1.7729557581214148,2.5877186910738064,1124.2073956783875,1153.4523318678464,1150.8227677438647,1129.2931832501947,517.2401996986619,69.58287213152367,305.59250842659645,-628.4878921913755,158.52032836714972
43.195,-0.3616856647716057,0.2489939515636873,0.3891494662183013,0.0370179908768351,0.0376819511923811,-0.0024877793830482,0.0060830112161242,-0.0025792116409053,0.0246344383892664,0.9996745438995188,0.0470004117059229,-0.0276538012825115,9.80822815574581,-0.0260662302231988,0.0295153864904468,0.0014572844902311,-0.010188998755134,1.7730279407183902,2.58772522268268,1125.5500465353296,1153.2658911922695,1151.7546066205027,1127.9324944032066,557.1381686846116,-197.52302823021407,407.0834205379989,-510.0613187568434,158.52023438733264
43.1975,-0.5556389133283365,0.1711872312752578,0.4000085103491344,0.0359219109589512,0.0384736368802852,-0.0012026768106928,0.0061185482453371,-0.002574561149938,0.0246833518171632,0.9996731284443816,0.0471652801097125,-0.0297375449920451,9.807080148865047,-0.0260073402111282,0.0294258318438461,0.001492897623111,-0.0102518567643417,1.7731008535550608,2.5877315340892686,1126.993086521808,1152.4647167266962,1152.858184846553,1126.742876656413,597.7744342609765,-468.9551812790216,445.93857194163246,-475.4599780319336,158.52021694283016
43.2,-0.7478638794459234,0.1010293371710322,0.3601695772101382,0.0330986424655576,0.0375322447707556,-0.0001665203575028,0.0061483078745981,-0.0025785632230478,0.0247302679901524,0.9996717777938487,0.047381263466334,-0.0318477404629692,9.8057976660466,-0.0259607034340241,0.029325616905866,0.001519393816665,-0.0103136318112539,1.7731738267190102,2.587737999220275,1128.538918706636,1150.9211152858732,1153.984299480212,1125.5551945130455,492.4474608360224,-634.9644173102141,324.91379385893856,-387.6138914227176,158.52028632584077
43.2025,-0.8485970349571272,0.0847926294918051,0.2917726888828533,0.0299815371872111,0.0359578677389275,0.0004158856315993,0.0061733129859195,-0.0025848425605202,0.0247669362635731,0.9996707052209276,0.0475679668135296,-0.0339289388750339,9.804412117038696,-0.0259265077605359,0.0292143050159079,0.0015350198682417,-0.0103757886601584,1.7732461524608578,2.587744388862768,1129.4553238259891,1149.2898946401435,1154.4827538158484,1124.8048071992985,246.1608107108952,-683.4896789966328,60.33256116248625,-239.6571795320048,158.520420305142
43.205,-0.8740697358741063,0.1146908661259143,0.1950279306587016,0.0271650459386325,0.0349124803556341,0.0009092199263824,0.0061936197247791,-0.0025846374514448,0.0247913225065509,0.999669981437075,0.0475965543981623,-0.035943596729517,9.802960193453181,-0.0259035797889807,0.0290921398304601,0.0015382639192794,-0.0104396535893302,1.773317381751788,2.5877506211896515,1129.7697227601896,1147.503666890893,1154.285962286024,1124.3569086153868,4.922990966904063,-709.7225583143888,-208.34656971886287,-121.95916589383286,158.5206338824626
43.2075,-0.8397582337731462,0.1644920284313092,0.0788747728305159,0.0248525728766171,0.0348695502984073,0.001442121570262,0.0062075973122206,-0.0025707012974904,0.0248015314135366,0.9996696809551792,0.047363898304094,-0.0378881412133675,9.801482086333209,-0.0258899043655508,0.0289596414331489,0.001528088633999,-0.0105062081580592,1.7733867312977138,2.587756949154863,1129.4799387808239,1145.7412818485695,1153.4410209672535,1124.1950113698288,-268.50294778905567,-670.7391993999161,-481.0611685685938,8.545999059101808,158.52091348941207
43.21,-0.744188867146482,0.2033785323048324,-0.0548295387745619,0.0231445233278638,0.0360707066114592,0.0020429151134329,0.0062170440365054,-0.0025420128643998,0.0247975895297278,0.999669792512368,0.0468858762340725,-0.0396957726437754,9.800018655108344,-0.0258828488010737,0.0288175534638369,0.0015038894283513,-0.0105753803276173,1.7734542375656528,2.587763491991799,1128.4272080212436,1144.1499708938918,1151.88065644318,1124.3996386106824,-623.3600760350995,-642.6959511170869,-801.4707134707363,173.0255497194985,158.52127239220488
43.2125,-0.5725512737863927,0.1976160238910853,-0.2197605646567288,0.0218002436277981,0.0381884274624339,0.0026246210417472,0.0062254855128589,-0.0025000979082446,0.0247832227577978,0.999670196256646,0.0462232337932181,-0.04126879844019,9.798610758728078,-0.0258794865332031,0.0286667295004564,0.0014654298489446,-0.0106464446582538,1.7735205918011772,2.5877704333720546,1126.3631384006512,1142.5278020929873,1149.4336673999037,1125.0601391184257,-862.3841574214247,-547.792167373147,-942.2795621911245,304.41682924518204,158.5217941389406
43.215,-0.3873197479431004,0.1347854485750793,-0.3392772217709658,0.0210457073591025,0.03964875163059,0.0025975338574445,0.0062347234187784,-0.0024489332818487,0.0247619126921027,0.9996707838476316,0.0454771618054129,-0.042546389481343,9.797298223632689,-0.0258771836965635,0.0285077686415895,0.0014130903984802,-0.0107184592030511,1.7735866488431855,2.587777515471706,1124.1152872341343,1141.4110100570247,1147.169258632222,1125.921722756909,-961.4290147549666,-409.1774231611633,-891.9358431487565,394.35577384863626,158.52230429008907
43.2175,-0.1568095378441817,0.0146962158953353,-0.4019789159597925,0.020374039100558,0.0403414983039053,0.0014737408589355,0.006246100823571,-0.0023921893280402,0.0247402686985303,0.9996713736847016,0.0447355351680264,-0.0434792903693325,9.79611850222756,-0.0258736362639967,0.0283411545000505,0.0013477047541416,-0.010789809319786,1.773653455250256,2.5877847604491366,1121.555993326874,1140.4819149771804,1144.9739881841576,1127.0319179876699,-1133.3158493986805,-379.0087438545279,-895.958255997717,521.2679280762779,158.52289194792868
43.22,0.1779429325195788,-0.1751234393206674,-0.3630681646691363,0.0196712667003695,0.0404195950652424,-0.001235825383899,0.0062617017616437,-0.0023300257578405,0.0247223278256691,0.9996718527384888,0.0440106582662641,-0.0440048759960949,9.795105429647652,-0.0258672320942405,0.0281670550909955,0.0012703682437204,-0.0108597223815951,1.7737214444717002,2.5877918978458374,1118.448707987146,1139.5159663377535,1142.6894673522374,1128.528062397288,-1096.721239953179,-333.03163607666886,-755.8091160399499,554.7048573684042,158.52368579095955
43.2225,0.5049971861002746,-0.3508814576042034,-0.2112757274833236,0.0193889764194935,0.0397583656349637,-0.0041847416682605,0.0062845064599855,-0.0022630172080277,0.0247107416880307,0.9996721374699516,0.0433164619028982,-0.0440468777281609,9.794287232443539,-0.0258568220041562,0.0279855817708999,0.0011826560992055,-0.0109283149578012,1.7737908052982763,2.5877982741986902,1116.0723871271052,1138.816756796796,1141.194942603956,1129.805442274513,-852.2555124197613,-252.98303220011593,-502.1545597396813,491.6766477367432,158.52442042925676
43.225,0.8672777816641809,-0.5187322904673412,0.0627904367061263,0.0198212697240087,0.0383048931127192,-0.0069131752470106,0.0063168271195331,-0.0021961289401095,0.0247089581472131,0.9996721183207192,0.0427459315611933,-0.0435490026260925,9.793684933798945,-0.025841376904471,0.027797150310045,0.0010868812027822,-0.0109956679472472,1.7738616324419527,2.5878039174865424,1114.187430425045,1138.2510511767523,1140.1786945535375,1130.986445635973,-638.7126933036495,-196.78656115183617,-328.35818249703004,439.04994155290206,158.52522992127825
43.2275,1.233126550007282,-0.663161149502485,0.4065291128312845,0.021395216518061,0.0366163082158968,-0.0083901881056099,0.0063586201686566,-0.0021330831384156,0.0247128449577367,0.9996718888394702,0.0423603497712125,-0.0425054574971721,9.793312288498882,-0.0258202727562035,0.0276023144354755,0.0009858090683414,-0.0110624964582936,1.7739333123593788,2.587808855386132,1112.87882366059,1137.832823991038,1139.5531516914723,1132.0006919822758,-356.0735201189797,-123.86810480918967,-162.52739442598667,347.475659673914,158.52610064406633
43.23,1.5559048498721677,-0.7640814853031558,0.7610219904257977,0.0250677031261556,0.0347477904597428,-0.0070924693154425,0.0064081475689168,-0.0020741009658603,0.0247189916090388,0.9996715437093172,0.0421459301820493,-0.0409486640894655,9.79317525007188,-0.0257926882169101,0.0274024294046093,0.000882409617859,-0.0111290579249362,1.7740047178621903,2.5878127509915547,1112.4070628244492,1137.6317106527063,1139.3660575814074,1132.7238239343435,1.5449479941245323,-33.08569712378939,9.844828585659764,230.8435819880016,158.52704402131255
43.2325,1.8277557773568056,-0.8193068139327699,1.085519847798516,0.0318628575328903,0.0320262064773589,-0.0022096344420594,0.0064649004702677,-0.0020205583091432,0.0247269345859338,0.9996710942062196,0.0421070046544691,-0.0388954507225716,9.793270565116963,-0.0257574051062864,0.0271998927386845,0.0007798403227684,-0.0111951491531771,1.7740754013612479,2.5878153871946346,1112.8865484005603,1137.6673955054189,1139.6023758344006,1133.1549098922164,343.3399635643521,60.18823346849803,157.4737129301934,73.03944081734066,158.52825806308692
43.235,1.9237029901029448,-0.8027106636584346,1.2015240330555483,0.0386244285865458,0.0294916588136381,0.0033961100362058,0.0065254473607972,-0.0019675578242413,0.0247312218646312,0.999670704756039,0.042119220213891,-0.0364248377993717,9.79358729163042,-0.0257132253974725,0.026997721973728,0.0006811394553128,-0.0112619087664288,1.7741441749665878,2.5878166295133407,1114.1237626422694,1137.9326518200485,1140.1534261460577,1133.0890211384299,636.7609104117872,155.2775595403206,286.1944281457809,-123.80492559321316,158.5293361768059
43.2375,1.8760245950660015,-0.7199537284389762,1.1139122409903948,0.0448686654267336,0.0270360836519644,0.0089124941381954,0.0065863035928384,-0.0019088828677159,0.0247251493970764,0.9996705751306392,0.0420287937005614,-0.033625098441505,9.794106156148867,-0.0256588118459499,0.0267996140334949,0.0005891655939622,-0.0113309407394712,1.7742093844571587,2.5878162988318327,1116.070352952621,1138.4437833031209,1141.0333479751303,1132.53588526425,855.2599398927385,245.91792115921783,398.07286262164416,-301.48900191209617,158.53048039615797
43.24,1.72882950830037,-0.5891409697394797,0.8609129286567561,0.0498491432673725,0.0249503320829348,0.0135982626610713,0.0066468459632918,-0.0018436468166912,0.0247074656611259,0.9996707413846566,0.0417853699455335,-0.0305406356341069,9.79479898763872,-0.0255925790143443,0.0266099661893026,0.0005066093780482,-0.0114026659683705,1.7742707189295543,2.5878146509043813,1118.4000623417353,1139.1622414258452,1142.143790459167,1131.5815761288686,960.215424203816,337.9800578316353,484.07639478608326,-465.23654559911415,158.53167690981357
43.2425,1.5029941202034744,-0.4172461184640975,0.4514406275539761,0.0530898444049446,0.0235851736539882,0.0164900358908039,0.0067060561994161,-0.0017741367847257,0.0246822711371546,0.9996711040975872,0.0413997655904212,-0.0272342743247604,9.79563055078932,-0.0255131256943547,0.0264333980166892,0.0004358712303948,-0.0114764256196955,1.7743283732940962,2.587811801485582,1120.8714300736356,1140.1336835922775,1143.4537299490585,1130.2097025362566,1034.3606910288456,483.4116665492124,595.6639537991992,-667.9780361365993,158.53293292453523
43.245,1.1927093313394455,-0.1914659238516996,-0.1306944572845679,0.0551770234989696,0.0227522699722212,0.0172829748173345,0.0067619849448417,-0.0017036378795345,0.0246528368750901,0.9996715894208315,0.0409027017073093,-0.0237951060764519,9.79656035046092,-0.0254199775582401,0.0262739412601624,0.0003788180226277,-0.011551027482297,1.7743829118062067,2.5878081232981933,1123.5718657968748,1141.579299758589,1145.12211022816,1128.2416859481887,893.7202709337699,570.9782799731137,605.4683699301762,-745.1431608006995,158.53450368298098
43.2475,0.9236040414049108,-0.0084396776813371,-0.6141949153486194,0.0561437433720397,0.0227534261604634,0.015667899251091,0.0068164023377292,-0.0016384587426778,0.0246257135345148,0.9996720116346012,0.0403886693517419,-0.0202471949604275,9.797543251845878,-0.0253136357021643,0.0261348127470861,0.0003365303363788,-0.01162471621423,1.7744357371287725,2.5878044947750958,1125.3400314283067,1142.9885749921443,1146.481071798711,1126.4839867322512,570.7389659926584,594.7021634602293,509.63247398268624,-691.6967220297108,158.5358612997891
43.25,0.6431537316169154,0.1463733405307958,-1.0085552573574592,0.0570868169657673,0.0234064635085156,0.0120606317021821,0.0068704058356528,-0.0015831559279928,0.024605818283383,0.999672234001118,0.0399219017577851,-0.0166307945558761,9.798532578859843,-0.0251958896941102,0.026017851156127,0.0003092482342461,-0.0116964112563939,1.7744883155825255,2.5878015122249756,1126.4255606268396,1144.5528105758915,1147.6702725980747,1124.7832023380383,317.856863897321,707.1246197982483,453.8362848707073,-702.8077985638472,158.5372637975804
43.2525,0.265941908246025,0.2808620928469435,-1.3030521287098975,0.0583909299534039,0.024611568392763,0.0065028344005839,0.0069230145590105,-0.0015420349799559,0.0245973180589536,0.9996721541466916,0.0395666561147217,-0.0130284070559704,9.7994820597026,-0.025069597566675,0.0259234494581197,0.0002965783380258,-0.0117652743405351,1.774541824458619,2.58779923757418,1126.929315747792,1146.5241980911323,1148.7502532230624,1122.9699477394352,75.49651156824214,725.5216009343638,319.9500011820146,-612.5959063719214,158.5389918202361
43.255,-0.109133564636315,0.3433997718995953,-1.3691223783728628,0.0595800121610515,0.0258158769413926,0.0016116057195231,0.0069749540699398,-0.0015154514312219,0.0246036268994662,0.9996716830657492,0.039317735477729,-0.0094864498160851,9.80034741245931,-0.0249383616746564,0.0258506309746702,0.000297217256337,-0.0118309500599846,1.774597211449771,2.587797682247727,1126.8030431846807,1148.1804185805654,1149.2700226039858,1121.7202228061772,-112.95793904481476,649.9692157825706,117.02696273117378,-439.11931173416,158.5404642266211
43.2575,-0.5711003022117515,0.3544655611370772,-1.24293037408332,0.0605923005028527,0.0271084913031108,-0.0032533197732394,0.007026721650151,-0.0015012982156203,0.0246220917185429,0.9996708859003148,0.0391290374679451,-0.0060510352159963,9.801088146837596,-0.0248063812442045,0.0257970133809334,0.0003092511386368,-0.0118936447642647,1.7746550518690976,2.587797377768207,1126.3645260525675,1149.774044170047,1149.3353880367183,1120.7743511807632,-180.97239341980728,615.5950951493338,-47.18257572894543,-328.7725873283114,158.54196397651305
43.26,-1.1055582885192916,0.3286192875736791,-0.9745067339437264,0.0609546319885413,0.0283133360140558,-0.0077647660106934,0.0070787721024474,-0.001498636539023,0.0246485109823035,0.9996698653052,0.0389851373222626,-0.0027644377750744,9.801668548399645,-0.0246777751950007,0.0257593786998001,0.0003304844618974,-0.0119536600944829,1.7747156121239391,2.5877987684223887,1125.8981812175828,1151.2583940563093,1149.0341097253413,1120.076359869537,-140.83880324216875,551.9155542011863,-191.40094761523167,-223.8006662039644,158.5434815999182
43.2625,-1.695690011884439,0.2716023811078507,-0.5825704334785466,0.0594514675462278,0.0291946938168626,-0.0106350349921057,0.0071302364055791,-0.001503754509986,0.0246790519740628,0.9996687292412784,0.0388232207607925,0.0003132283028,9.802059663008132,-0.0245560822943096,0.0257341632850738,0.0003585096747558,-0.0120114824897427,1.7747786080273626,2.5878014273415126,1125.6603320363563,1152.5336219410544,1148.378383298642,1119.6553478497428,-3.8636550704248536,487.77890307035307,-332.89158934559305,-126.94367715110145,158.54501482091305
43.265,-2.3858742050878563,0.1894513287962263,-0.0582242529378678,0.0539731849088885,0.0298185676779453,-0.0106638874321629,0.0071771128472759,-0.0015098244423739,0.0247060806266082,0.9996677062973244,0.0385243763162421,0.0030704057280721,9.802240707455324,-0.0244441436713964,0.0257176331249869,0.0003909844941526,-0.0120685377120323,1.7748426920612292,2.5878044486536127,1125.8788629422306,1153.6972885716623,1147.3696517786125,1119.4416414837813,178.226833634588,342.87891322023177,-375.0561238793353,-31.368520272036555,158.54686482892848
43.2675,-2.869774748402195,0.1267291939313716,0.357224762543189,0.0461710114233265,0.0300291955772795,-0.0081823248712025,0.0072153267618125,-0.0015114432782835,0.0247231581684151,0.9996669949421564,0.0380032686973125,0.0054022195328017,9.802198539349046,-0.0243436592923244,0.0257063917648596,0.0004258135739004,-0.0121263751745822,1.7749062001936726,2.587807155013768,1126.5514662045287,1154.248016507154,1146.5031026792467,1119.4985052483828,359.54443602486003,103.56093940103324,-318.208030858269,75.08027247632323,158.5484090597388
43.27,-3.1783518719348227,0.0886043795794668,0.6961918051045491,0.0364049895056291,0.030016012348114,-0.0049275505447149,0.0072425970530897,-0.0015064999382643,0.0247305267518277,0.9996666106335133,0.0372448197715265,0.0072460779322667,9.801927380490403,-0.024254936256382,0.0256977020508291,0.0004611404577232,-0.0121856765277187,1.7749685132657491,2.5878092746263555,1127.6765851223558,1154.2150932686675,1145.7786116243203,1119.817042846163,496.64578209478407,-129.25716759084688,-248.58686227354167,177.38856276600947,158.5499489955406
43.2725,-3.3062178533926927,0.0820513626387869,0.9577841976363328,0.026415133213481,0.0298918582845429,-0.0018820292682536,0.0072595682251114,-0.0014935752688824,0.0247327710840725,0.9996664395976887,0.0362522539480894,0.0086054553259598,9.801429006147162,-0.0241772162836987,0.0256892683557509,0.0004950859989183,-0.0122468258418987,1.7750300659228389,2.587810887604704,1129.0346951150038,1153.6017306691995,1145.2601683678784,1120.3854480622133,546.495453124177,-396.13050365614635,-147.03579173633173,296.4427261344521,158.55148071856803
43.275,-3.209308766248248,0.1224771626205332,1.1326640611494776,0.017168241803956,0.0297241824091963,0.00075507543158,0.0072655341146729,-0.0014717750016499,0.0247323156751965,0.9996664305274844,0.0350397648247911,0.0094665602538502,9.800713728517316,-0.024109297154265,0.0256787943181739,0.0005258667922758,-0.0123095766244239,1.7750913874465715,2.5878123067686425,1130.4090623879742,1152.2344407503888,1145.043432665639,1121.299256476834,529.3661420742885,-764.1201396776705,-22.61204700115493,485.6364177104086,158.55299789539376
43.2775,-2.8592650846496928,0.2293388816739251,1.2612359303303047,0.0075846202470897,0.0296096384284136,0.0036023788680899,0.0072638982161482,-0.0014433988079798,0.0247339659674641,0.99966643644144,0.0336865418136158,0.0099031333930503,9.799798643822266,-0.0240495806347946,0.0256641565935992,0.000551590518197,-0.0123729740039862,1.77515357040539,2.587814154470474,1131.6815258253766,1149.7811299708092,1145.1471081328727,1122.8136301507664,349.17889981893813,-1005.4693044508296,95.70570701325427,616.2383088894816,158.55479696349613
43.28,-2.406753806248112,0.3633565325511402,1.3114687252579051,0.0010072761523097,0.0297183990622439,0.0060691530262633,0.0072563780658466,-0.0014062806258205,0.024738571033658,0.9996664257152698,0.0321821602754542,0.0099663730221973,9.798709504330471,-0.0239966062955349,0.025643146668074,0.0005701783693012,-0.0124366122953132,1.775216532459386,2.5878169114251617,1132.1549568870698,1147.207094228132,1145.5219612007058,1124.3804480212827,19.81287004566167,-1083.4343992318586,202.11548671136563,662.5343061425724,158.55627569366166
43.2825,-1.8350102570741913,0.5303767652097364,1.3056829637785512,-0.004172632248143,0.0302458816962006,0.00908230935639,0.0072425286802829,-0.0013584870999085,0.0247463014820769,0.9996663999780372,0.0305178368705587,0.0096719985792448,9.7974797050188,-0.0239489767857706,0.0256137504452131,0.0005797053703961,-0.0125005676158042,1.775279830972008,2.587820585998968,1131.7805901756049,1144.3639579746548,1146.1576855664287,1126.1263016814764,-382.21919460278053,-1233.7241315070569,325.5247005054724,760.5152851484692,158.55773119283265
43.285,-1.0698541434036777,0.7408301090614797,1.2293964716787436,-0.0084308899201273,0.0316358408440113,0.013120469189375,0.0072224618993243,-0.0013047922864256,0.0247597672073799,0.9996662853591964,0.028814181545194,0.0090488909453643,9.796148176101589,-0.0239052482640465,0.025574408725887,0.0005787036690915,-0.0125645282343693,1.7753438854790529,2.5878248837020967,1130.2438609140547,1141.0384735705936,1147.149584703234,1128.1830244470273,-735.5491620390113,-1147.4527814652488,386.9308273107275,708.9783956482745,158.55945000470996
43.2875,-0.4105199648696748,0.8973819089386695,1.1059429718473777,-0.0099552470646143,0.033577117293839,0.0165205666609637,0.0071987283101463,-0.0012469894069874,0.0247762225605655,0.9996661261828286,0.027131077094334,0.0081798273604867,9.794758998169096,-0.0238643853257958,0.0255237508896335,0.000565705066616,-0.0126287272605649,1.775408853326254,2.5878294620792506,1128.102844365408,1138.6266940673256,1148.0923397029833,1129.6711936597196,-998.2444147603002,-833.4914434244487,378.6016028550226,510.19533338445416,158.56085937992677
43.29,0.2211549372318018,0.9988007560897711,0.925499092780928,-0.0092779106719425,0.0362962771467775,0.0197080312489906,0.0071753835195529,-0.0011860828286359,0.0247922708870403,0.9996659746115109,0.025510316044525,0.0071800966872892,9.793360162246303,-0.0238255514160223,0.0254609581569763,0.0005394660726573,-0.0126932996841737,1.7754743423522834,2.587834159728143,1125.252638840258,1136.8710163534752,1149.0425927175074,1130.7340011139472,-1215.8952816950805,-566.4416647185875,362.169844160959,337.36613309657537,158.56224568017677
43.2925,0.7995713910557884,1.0302677958316464,0.7100988569618357,-0.0072587676641622,0.0394737362862527,0.0224051094581793,0.0071546909176834,-0.0011244852347378,0.0248102967371803,0.9996657502976584,0.0240174104410503,0.006129719129296,9.792002730767752,-0.0237878180206279,0.0253861924321291,0.0004992755960846,-0.012757064713672,1.7755399186937852,2.587838874394991,1122.0233679569294,1135.7944857437312,1149.903188923789,1131.3580243252031,-1322.4330415615495,-257.8581652830098,298.6114601256595,139.1526015741617,158.56361300761512
43.295,1.2899589937999851,0.9571468049385224,0.4786390504326524,-0.0042468237382657,0.042923379301019,0.0238864313883215,0.0071370140281166,-0.001061632108492,0.0248295742332448,0.9996654677222921,0.0226547703916901,0.0050725391728209,9.79073971568224,-0.0237506003852605,0.0253002322652039,0.000444769206143,-0.01281983544888,1.7756045620939116,2.587843478240348,1118.6404736324469,1135.5817255270595,1150.5356500181365,1131.4297641218184,-1441.3610751455428,86.03431591235315,195.39974184808247,-82.54492267127038,158.56495664328844
43.2975,1.7582285555557635,0.7407022264689735,0.2229537114697287,0.0001543154371433,0.0468007360193736,0.0240087250346336,0.0071229140576104,-0.0009968821192287,0.0248483218442713,0.9996651680035896,0.0214196942474668,0.0040541898247254,9.789623649945463,-0.0237134470438432,0.0252045254887219,0.0003759771022002,-0.0128821659672227,1.775667334533459,2.587848070927617,1114.8165625812082,1136.2246573232926,1150.8801876330283,1130.9452997118472,-1305.2478967274199,351.0876848335124,37.75078566784829,-250.8733263092007,158.56653924087755
43.3,2.037838889262964,0.4635062205653339,0.053100726947263,0.0045912813358543,0.0492538683302341,0.0231707537763663,0.0071153001752306,-0.0009314424351046,0.0248702016652837,0.9996647378308195,0.0203436327019566,0.0031614509810196,9.788704251750115,-0.0236756264949493,0.0251013248307064,0.0002933293828705,-0.0129441585139998,1.7757284662572923,2.5878529679134723,1112.1142341488064,1137.337163951228,1150.7244039464758,1130.1753974902715,-922.8189695634964,508.39875913508325,-170.33924901434528,-347.59233591058046,158.56783057639515
43.3025,2.189116399586879,0.1165170346839081,-0.0588161269930606,0.0099624119329939,0.0503789165145974,0.0221132942498887,0.007115402894106,-0.000865326366295,0.0248951806463973,0.9996641694939172,0.0194299233833704,0.0024445251709973,9.788027893932943,-0.023636560378839,0.0249930184828417,0.0001977584779389,-0.0130063639042683,1.775787693528551,2.5878579293293518,1110.2024677333884,1138.766651118969,1150.0284913879564,1129.2073380322936,-615.5071343533705,629.9709260391228,-433.9658498681128,-422.3269526462648,158.56908901829675
43.305,2.208446705206093,-0.3296913189329454,-0.1347533774702021,0.0171090641540503,0.0499619046553283,0.0210970255626868,0.0071233707444273,-0.0007970015397116,0.0249204007614952,0.9996635359076852,0.0186473483497809,0.0019281378339874,9.787635803792352,-0.0235957931478968,0.0248819318407834,9.070523828386105e-05,-0.0130687827819867,1.775844824596818,2.587862496836561,1109.0366984770424,1140.4870185814207,1148.5545746971372,1128.0637627270423,-229.02732074874527,582.4133798769548,-634.8481119281449,-380.0388810332425,158.57055461974548
43.3075,2.085835134514942,-0.6867368503012261,-0.1674777072961481,0.0232737139062244,0.0484058168541702,0.0205862281799487,0.007141495650234,-0.0007287251404126,0.0249472943865534,0.9996627834780037,0.0180367556748776,0.0016712387436152,9.78756134151763,-0.023552679187623,0.0247704096548102,-2.576479749440434e-05,-0.0131306482138337,1.7759005188695332,2.5878666915839443,1109.0573311296455,1141.6787180183514,1146.8542508283183,1127.307143627129,199.03241022815385,380.5361511488044,-745.6987869145273,-225.1689976154224,158.57173314190524
43.31,1.8288854901835423,-0.9853980217654564,-0.1964341724449826,0.0290619361419331,0.0458231637681293,0.0204066578316355,0.0071702229015395,-0.0006616497978437,0.0249729152679424,0.9996619814594264,0.0176127395634691,0.0016919264794797,9.787829890529807,-0.0235068250868019,0.024660179935065,-0.0001490151545058,-0.0131921523741414,1.7759553474771164,2.5878702470255246,1110.0318605281836,1142.3896993371657,1144.8260807625627,1126.9379177389646,517.157005689077,184.78797491934168,-830.1667352665236,-66.30417397456104,158.57285947211784
43.3125,1.4809833303277848,-1.2092199948967624,-0.2427427521773215,0.0339376019087165,0.0423418788788048,0.020417732106813,0.0072073882849594,-0.0005977471905561,0.0249937455636168,0.9996612332244008,0.017401340469487,0.0019516361782949,9.788457698512737,-0.0234578713536764,0.0245523970903871,-0.000275751327132,-0.0132540359286426,1.7760098301564504,2.5878727355206164,1111.6431161580924,1142.6026578929486,1142.7034171519836,1126.975622757256,742.7443440310004,-37.68068600974191,-821.6879958421229,114.74664431504128,158.57393660341063
43.315,1.0630669404804725,-1.3218739319924993,-0.328553953918672,0.0370940783361337,0.0381580735053994,0.020501625547962,0.007248830023766,-0.0005425751457618,0.0250109626864264,0.9996605363038392,0.0174950552480046,0.0023659001507101,9.789450682650852,-0.0234052509554132,0.0244478444611872,-0.0004020134805259,-0.0133157449882228,1.7760648721150887,2.587873492867466,1113.7455822483353,1142.2012959071171,1140.7176407833558,1127.511650960539,956.2847746802729,-294.787695462159,-778.552391448795,323.989992283048,158.5749477021276
43.3175,0.5406962744686532,-1.3215304692437213,-0.4877917912595395,0.0386573099140478,0.0333468446052071,0.0204134823621773,0.007289207994546,-0.0004961528811482,0.0250237897449702,0.9996599483128232,0.0178743180657147,0.0028259302461671,9.790804509202946,-0.0233485402716479,0.0243466713299214,-0.0005238246158588,-0.013377205449342,1.7761205883106594,2.587872147936056,1116.4245400314962,1141.128719415637,1138.8106551947378,1128.5955727186722,950.0353109261738,-457.3343987920841,-581.6586782342009,431.4294777332246,158.576076681183
43.32,0.1282578403078833,-1.217074193496778,-0.6630441581556753,0.0382743272872047,0.0299368221636135,0.0199274989040579,0.0073249304768899,-0.0004569878969665,0.0250318634040418,0.999659506523866,0.0184880991585289,0.0032544385925289,9.792503574672242,-0.0232873298952329,0.0242486222206796,-0.0006373805775461,-0.0134384491550839,1.7761768914234717,2.5878686599959235,1118.4957588029683,1139.9146239131555,1137.809347392183,1129.6687983492063,740.6174013954937,-497.8286525326419,-250.96449206416847,402.43134850107026,158.5769418511984
43.3225,-0.2284716641301932,-1.024771156503057,-0.8621777123724947,0.0366386840503262,0.0271748463782468,0.0186591591015083,0.0073559345786985,-0.0004255412507118,0.0250390329881044,0.999659115909952,0.0193231217423543,0.0036391741897165,9.79452070269016,-0.0232210193043333,0.0241533490524492,-0.00073924460471,-0.0134990447013552,1.776234554211389,2.5878634342331224,1120.1276270384703,1138.639576152976,1137.555832734418,1130.6077294611755,558.1523155861178,-476.60289719868337,25.14041262100896,305.53573985842206,158.5777226606919
43.325,-0.5323236772568397,-0.7776593599183151,-1.0564278261888744,0.0346329667907228,0.0249192474059367,0.0164946290459177,0.0073837406039246,-0.0003976452470778,0.0250455480104017,0.9996587617139217,0.0202736491980806,0.0039992640456175,9.796818903937025,-0.023149146086081,0.0240602265241711,-0.0008268144092122,-0.0135595877234111,1.7762935395938924,2.587857338062755,1121.2865203809004,1137.531609427161,1137.9350494552884,1131.1964770484994,351.2958506748895,-356.8529358954031,283.77232524675526,106.58980193719805,158.5784295630995
43.3275,-0.7842488367589903,-0.4874168176541648,-1.2096856446171451,0.0327594228294905,0.0232516206418097,0.0131406679257868,0.0074090439772653,-0.0003713406751411,0.0250502811827904,0.9996584699780054,0.0212746041260381,0.004335056549558,9.799352514256697,-0.023071255636866,0.0239686802359115,-0.0008980419453935,-0.0136205706942756,1.7763527916512665,2.5878513867806023,1121.8841062918457,1136.8553114734982,1138.9746943606526,1131.140678470862,167.62955330183797,-156.79082181209813,559.4380797220851,-198.70029638564,158.5790430620934
43.33,-1.0544223721551436,-0.1213409086116904,-1.3068205620633024,0.0307155642782875,0.021969630512645,0.0082107235720778,0.0074338567529155,-0.0003488624055716,0.0250566795890069,0.9996581394307954,0.0223423721314345,0.0046689932532743,9.802067960447214,-0.022986658506193,0.0238786110268895,-0.000951472073815,-0.0136814492546552,1.7764116432634929,2.587846242085991,1122.124668147409,1136.7476553181011,1140.7322398538963,1130.202975566572,48.15960802400051,91.26709538859235,682.8237673399743,-478.952191966237,158.5796663776574
43.3325,-1.271323239313158,0.1714256350649703,-1.2989765789171737,0.0289064446295063,0.021746823249698,0.0041068771075508,0.0074588280153906,-0.0003262516730624,0.0250650910205029,0.9996577569034832,0.0233697656666369,0.0049991542538652,9.804906898269742,-0.0228948393617424,0.023790073044448,-0.0009865166496767,-0.0137425522827374,1.7764694392116351,2.5878420010194447,1122.1249043319658,1137.3116469504412,1142.3888131973542,1128.7459175110296,6.270931016248571,357.1015779345536,647.6514654218006,-678.9192582843663,158.58008861433635
43.335,-1.4890862500801283,0.4140814640822487,-1.1969316193399069,0.0265440020999733,0.0226793837402387,0.0005516377990735,0.0074840164523045,-0.0003004692358263,0.0250717237617287,0.9996574172379116,0.0242661253784044,0.0053113065159211,9.807807172888111,-0.0227955699473545,0.0237031585587192,-0.0010030077824823,-0.0138040243636361,1.7765257637608909,2.5878385314457195,1122.1560228024903,1138.5331632077748,1143.9704971810067,1126.8083792751484,58.97192563907898,660.7846372177489,629.4210070786261,-882.8154596121593,158.58040677289853
43.3375,-1.741526196604252,0.6036260732676022,-0.9797685808848192,0.0226366076857337,0.0251400198440034,-0.0031116713583897,0.0075103709838184,-0.0002711161942983,0.0250767716406725,0.9996571077948656,0.0249930313911624,0.0056066975459704,9.81070409016918,-0.0226886022394559,0.0236182269724257,-0.0010010451531937,-0.0138650821353409,1.7765812628998736,2.5878358110613493,1122.4197639601607,1140.6155701365271,1145.5359182327445,1124.3318402129728,144.42694989112965,832.7909900451973,497.20897716417346,-866.5770941398137,158.58066520302833
43.34,-1.9257481074054896,0.6522519083605963,-0.7373316918050151,0.018283250136694,0.0280532163806851,-0.005733427025286,0.0075378992114235,-0.0002355450420296,0.0250776258080044,0.9996568943924184,0.0254676750700984,0.0058695103458645,9.813533052311428,-0.0225740244570538,0.0235354626595482,-0.0009810181635119,-0.0139256244663691,1.7766363185759264,2.58783315496551,1122.8781575519463,1142.6971181580027,1146.4565420668291,1122.4754938044473,224.41838749107205,856.7255695630756,280.711173588854,-627.3670441223632,158.5807759885881
43.3425,-2.054939365848395,0.577063770225489,-0.459945473615356,0.0128581315537074,0.0313584436337581,-0.0075986547410655,0.0075640761918461,-0.0001921297114801,0.0250716270148259,0.9996568640607154,0.0256271274162541,0.006034185650259,9.81623137092148,-0.0224521229643663,0.0234549278532846,-0.0009433277046875,-0.0139858614410649,1.7766907771698204,2.5878297980092326,1123.5418558976169,1144.8991979843447,1146.9394741006895,1121.1950049923591,282.8526334792358,865.1268519190262,125.46798955647816,-379.1472503741526,158.5807766381381
43.345,-2.1209938914988404,0.4118194818823095,-0.1814712155527672,0.0070082813672623,0.034195755827743,-0.008227602636982,0.0075869569809881,-0.0001430932597425,0.0250612560626058,0.9996569686779923,0.025486581061753,0.0060450528111789,9.818739003412409,-0.0223231267174908,0.0233767348614091,-0.0008884542318163,-0.0140455284895438,1.7767449233259107,2.587825559876357,1124.2924207193412,1147.022752417594,1147.0838820146107,1120.5797575525783,297.99751116436926,793.4492868982065,-10.29463312642675,-69.27785377839521,158.58068515740737
43.3475,-2.100949445451724,0.179551978513671,0.062791000357675,0.001331374466463,0.0352623174833035,-0.0071145374372451,0.0076056141838855,-8.88110154179199e-05,0.0250458824640936,0.999657230811993,0.0250279342989747,0.0058690584884276,9.821000678956167,-0.0221875723918924,0.0233006293532973,-0.0008173637695024,-0.0141050822684247,1.7767989268143727,2.5878207031657814,1125.0318434534395,1148.8664444188375,1146.888000935057,1120.8486157234672,299.70035397303167,711.0874514722582,-145.3111578120281,304.11290972959154,158.58048208755724
43.35,-1.9786609183045012,-0.1047394185686852,0.2857148406094949,-0.0050241069514965,0.0343327145367798,-0.0048142973146242,0.0076176638392237,-3.0306354473520612e-05,0.025024009195856,0.9996577066060846,0.0242485114868997,0.0054463228977675,9.822967850679074,-0.0220462091495985,0.0232260867273764,-0.0007314143360029,-0.0141649617519604,1.7768528891145179,2.5878154691412374,1125.790922489207,1150.5781896749572,1146.3573262255504,1122.1003221012268,248.40520570773916,528.2437113385441,-232.0428802074112,575.351327720978,158.58010943390732
43.3525,-1.8029524216213688,-0.297539745371684,0.4102494129938596,-0.0099110760879049,0.032377144215588,-0.0029834015969262,0.0076207450772528,2.74296749374504e-05,0.0249998380639473,0.9996583067635428,0.0232282778653279,0.0047174749095774,9.824599579226314,-0.021899749290814,0.0231526150469928,-0.0006323806747478,-0.0142243334882613,1.7769071672682644,2.5878104241925897,1126.273869481977,1151.507662975528,1145.727786534021,1123.7253723620695,160.98040615835035,260.6224038294871,-281.18253032379636,706.4089125082343,158.57969209584417
43.355,-1.5662623261481856,-0.4068802604093894,0.4893420151619646,-0.0142059830048177,0.0298485562307031,-0.001715111416145,0.0076137573107459,8.224302655963855e-05,0.0249765418383918,0.9996589575041652,0.0219970087585507,0.0036524887878393,9.825864254777633,-0.0217492042081541,0.0230794944618272,-0.0005228587279585,-0.0142829043497264,1.7769615629194535,2.5878064723113123,1126.5958245199993,1151.881301694105,1144.9514135739307,1125.63236666377,105.37496561823056,58.91805661614568,-330.0526106345973,757.8050051473598,158.57916565399893
43.3575,-1.2945177433080433,-0.4390071826242552,0.5525015147142721,-0.0177580450472503,0.0274656742139736,-0.0009301140658109,0.0075975855320219,0.0001331043642577,0.0249570058614861,0.9996595781102712,0.0205689400363934,0.0022644963404611,9.826740382698867,-0.0215958195631796,0.0230058650641236,-0.0004061554887478,-0.014340872269914,1.777015960691125,2.587804353008708,1126.8007443100685,1151.8022532586087,1144.0775234808475,1127.5143973878082,59.037733170734136,-129.06508192893767,-366.3288930139209,693.2380908947773,158.57855074946133
43.36,-1.0019620224356536,-0.3917033783951656,0.6205434955933938,-0.0203548711471077,0.0258922978773377,-0.0005195277673074,0.0075735997724538,0.0001806542222009,0.0249441112512904,0.9996600852224607,0.0189318764401875,0.0005809176727176,9.827217756897804,-0.021441017854897,0.022930785117165,-0.0002860706209672,-0.0143984246803667,1.7770706638878924,2.587804011849251,1126.8910131858527,1151.2359762844612,1143.1197691088628,1129.0985571182407,19.12116283264299,-332.6342674498054,-426.23774130384874,583.0875398489952,158.5778324689987
43.3625,-0.6538566040267356,-0.279038826509994,0.7235245276132403,-0.0226234485186339,0.0249912564910568,-3.580750147324191e-05,0.0075428721784407,0.0002258180100126,0.0249391864652684,0.9996604373974348,0.0170743542657547,-0.001372226664497,9.827297898893526,-0.0212864520708521,0.0228532208745801,-0.0001665757281347,-0.0144558590229694,1.7771256294926134,2.5878051278001633,1126.8963501242315,1150.139081921359,1141.9463347743272,1130.4298350870547,-11.822528839632787,-440.9263722752275,-418.8012614947314,381.70735969050406,158.57685638515733
43.365,-0.3843569869560801,-0.1684343371203103,0.8225610286429768,-0.0239488102316107,0.0249519446734236,0.0007269129366721,0.0075066724210614,0.0002698886936917,0.0249411279300016,0.999660652740388,0.0149845350403822,-0.0035603662578812,9.826993916873736,-0.0211340531988109,0.0227720801968217,-5.163829909483975e-05,-0.014512658650718,1.7771806436714104,2.5878073526396936,1126.8319005416545,1149.031344423084,1141.025762801388,1131.0070939166942,-36.771523310778115,-440.39572856794655,-335.4973966222001,131.83358057033897,158.57595256963927
43.3675,-0.1574442742241557,-0.0710470983705705,0.910248905303416,-0.024586512249905,0.0254173837577829,0.0023010681955266,0.0074679846906156,0.0003128812494064,0.0249490437175612,0.9996607316865084,0.0126836074026719,-0.0059116311499921,9.826329600074256,-0.0209858957117607,0.0226863815177985,5.493740520714336e-05,-0.0145681300545602,1.7772355602263128,2.587810533370399,1126.712492507678,1147.9371032785211,1140.2688477912177,1131.0890029899056,-62.68777925080274,-432.2667116267278,-274.14971820546646,-40.03677742370204,158.57496147061403
43.37,0.0404270559529669,0.0085990894043509,0.9561869332670878,-0.0242140378397411,0.0260448866273643,0.0054751452685516,0.0074289610480274,0.0003542718424746,0.0249607200505479,0.9996607145057173,0.0102098580576739,-0.0083665276961708,9.825339134458554,-0.0208441799228315,0.0225952112344627,0.0001497171556406,-0.0146222952937384,1.777289979230417,2.587815031542657,1126.5184616454007,1146.8700108649523,1139.655014210362,1130.8069100295759,-79.94783114564147,-327.1833670203395,-165.32745475424872,-129.10501882236292,158.57367973550535
43.3725,0.1278921373014727,0.0375730686931816,0.9104775592579082,-0.0228200487090576,0.0263441182226886,0.0091379762198234,0.0073912755556907,0.0003925313063957,0.0249732034622628,0.9996606643641702,0.0076277539139076,-0.0108714847698005,9.824065686695565,-0.0207110714226484,0.0224977279607322,0.0002297787447366,-0.0146754613373729,1.7773436768844515,2.5878208519873653,1126.3127533519496,1146.3011864434188,1139.442210517446,1130.4434778957936,-96.93632010116333,-152.81350052943165,-17.066253625162425,-125.28470549671468,158.57254067725577
43.375,0.1305424232728413,0.0273054450904586,0.7518278354195671,-0.020800142687156,0.0264145297685761,0.0130950030749158,0.0073555902550926,0.0004257347590724,0.0249849459715936,0.9996606173892376,0.0050152521452783,-0.0133894838108293,9.822559878069132,-0.0205884851521808,0.0223931927030216,0.000292868799275,-0.014727738611633,1.7773968712078356,2.5878276097182766,1126.0337800448947,1146.1059433623047,1139.569682942236,1130.180486502092,-132.72391746525747,-25.64511926691525,106.10629866264944,-58.227048967599536,158.57133449719163
43.3775,0.0776951901270603,-0.014149372612042,0.501518070976941,-0.0191299873210928,0.0263963451805039,0.0163608724483354,0.0073235066444172,0.000453726899737,0.0249957507385277,0.9996605680824744,0.0024214149314876,-0.0158609843907496,9.820877547098336,-0.0204779991474274,0.0222809091243323,0.0003373658813811,-0.014779314786813,1.77744990511027,2.587834768843829,1125.649133764624,1146.1729608470844,1139.9727420107588,1130.152342650956,-195.30410167316415,63.86491084064262,216.66445622138608,70.86142335234412,158.57007694760716
43.38,-0.0005737867659443,-0.0920261976583436,0.1714957611688767,-0.0190930502317897,0.0260959340855423,0.0180670117005638,0.007292918690858,0.000480008541605,0.0250063543164497,0.9996605124731645,-0.0001739192128935,-0.0182946284685909,9.819078455231882,-0.020380806318218,0.0221601836880121,0.0003624879814901,-0.0148304450674738,1.77750288106543,2.5878419754754876,1125.0572595365284,1146.425267916508,1140.6530052233436,1130.5347936188539,-331.27811983259886,113.19880348254294,334.534862708744,276.7858278304578,158.568761952647
43.3825,-0.0587479740092255,-0.2283986549585918,-0.2515899944194899,-0.0211055019565352,0.0253794936275306,0.0179704584406766,0.0072623460054626,0.0005065381757279,0.0250179726438715,0.9996604308555888,-0.0027571077231484,-0.0206851639035343,9.817222841673214,-0.0202976807619062,0.0220303302294953,0.0003683471529685,-0.0148809976149903,1.777555933468292,2.5878492346790214,1123.99274316546,1146.7389548644971,1141.6454163243031,1131.536271790109,-463.6181081062783,91.00470157417568,362.6556042147628,451.24397335889734,158.56712248543883
43.385,-0.0420669108930387,-0.3813464257842298,-0.572454843740342,-0.0232444064613928,0.0247774930351288,0.0161083967202078,0.0072343292319864,0.0005329578544298,0.0250304071266134,0.9996603100817104,-0.0052652477148145,-0.0229477538465464,9.815368584325213,-0.0202290142152074,0.0218906405347983,0.0003558367392954,-0.0149309778140657,1.7776091226159612,2.5878564205409087,1122.739168995999,1146.8802914243784,1142.4662832444155,1132.7910134856463,-585.6636330751104,12.710393448599325,286.168184533416,561.6463880677057,158.56570801371763
43.3875,0.0532727346913106,-0.5803501649812745,-0.803558331079331,-0.0244544188205943,0.0243234761428084,0.0127156048956251,0.0072101893567039,0.0005581980558771,0.0250420683856418,0.9996601812599176,-0.0076216763194417,-0.025020907520974,9.813570076334019,-0.0201747637632364,0.0217404428904647,0.0003267801517998,-0.0149807764806616,1.7776624406515569,2.587862987065329,1121.064425000083,1146.8025068317404,1143.0762572469712,1134.3445037304489,-826.1386362624629,-89.40086436573411,181.3545561781648,699.253675710867,158.56424628034193
43.39,0.2367497210359159,-0.8696212566896653,-0.9394221082938256,-0.0243029283367766,0.0233972195526574,0.0079195110503291,0.0071907207552958,0.0005796215746793,0.025052371445529,0.9996600551465507,-0.0097202518084577,-0.0268543134969412,9.811876107084377,-0.0201343186471493,0.0215792743541755,0.0002838778867121,-0.0150308633082902,1.777716190153428,2.5878682319014943,1118.6084758146847,1146.4332871025497,1143.373056025307,1136.2872818642024,-954.8727316032044,-174.43772750891588,24.498302580854666,676.9142053883814,158.5624400245999
43.3925,0.4209377579711295,-1.1386226116015283,-0.9332308612828372,-0.0230798367137044,0.0216842057145785,0.004346277766124,0.0071749137817829,0.000597700428836,0.0250625744686938,0.9996599070037486,-0.0115192122361806,-0.0284326247673761,9.81032853772654,-0.0201064956060821,0.0214070104278746,0.0002304270901558,-0.0150814611808824,1.77777020340375,2.587871693877386,1116.290061342071,1145.9303181941966,1143.1987487598751,1137.7290747573877,-943.736607923137,-224.7316516163879,-145.4537083524594,479.5663436137422,158.56089303393227
43.395,0.6085555227133742,-1.4059101083795442,-0.8286927337129006,-0.0212546040891128,0.0185990243630379,0.0018626461738423,0.0071611656212451,0.0006124832147167,0.025071301039738,0.9996597825761216,-0.0129727262356264,-0.0297543807852268,9.80896071688214,-0.0200897972831219,0.0212237968486302,0.0001701947094066,-0.0151325348746826,1.7778242421030919,2.587873049148272,1113.8897927750663,1145.3096288444672,1142.6457874835444,1138.6851135822724,-934.3656642560512,-251.3105642026936,-256.384464869512,263.74250111544063,158.55930518827725
43.3975,0.7838258586809997,-1.6441258977753792,-0.673215082522158,-0.0191492919992898,0.0144729468176317,0.0002914516872107,0.0071488635344871,0.0006229598546257,0.0250769016846926,0.9996597283823432,-0.0140188843221344,-0.0308025830336571,9.807796483847566,-0.0200823895165651,0.0210302348187444,0.0001071032280034,-0.0151839550593082,1.7778780788003514,2.5878726310667406,1111.6182330207887,1144.6737653731825,1141.9168264355271,1139.0477872629656,-824.5331218889755,-236.94243829189597,-285.28684135902523,-23.589185979675303,158.55768577992103
43.4,0.9338230764109668,-1.8176098976370425,-0.4943014672318696,-0.0168183918504948,0.0095408249754385,-0.000425145861705,0.0071380781454937,0.0006292471361869,0.025079073564223,0.9996597516722902,-0.0146238230680778,-0.0315509116673014,9.80685004131179,-0.0200821052071699,0.0208275003563546,4.487974940838618e-05,-0.0152356672166238,1.7779313757383315,2.587870516857404,1109.7671271656254,1144.1249166530088,1141.2193532767503,1138.567167652374,-651.8297845603987,-196.5460397595411,-233.52741196601403,-404.2942817127119,158.5560316598844
43.4025,1.0779879828408498,-1.9253646395312425,-0.2916983392684201,-0.0138911024989198,0.0034023488836,-0.0006733146990888,0.0071270684231103,0.0006307906043691,0.0250774770535358,0.9996598736711424,-0.0147486421412365,-0.0320146518179677,9.806126565752088,-0.0200865626237889,0.0206173031224639,-1.3015373920019307e-05,-0.0152878915885561,1.7779837282568691,2.587866910216744,1108.359084097985,1143.6910351743843,1140.7491893756965,1137.0263158544008,-342.87870736698744,-107.46811237035176,-73.08104149165854,-699.234535520242,158.55401161649422
43.405,1.165392905076785,-1.9225914824866936,-0.1513731626798249,-0.0113391055245244,-0.0016297896942926,-0.0006003149773542,0.0071156682645109,0.0006279697735528,0.025074518095963,0.9996600343831646,-0.014379903605963,-0.0321846327932374,9.805622461719027,-0.020093119931629,0.0204019606588923,-6.381082880051802e-05,-0.0153405201029415,1.77803472214116,2.587862406503484,1108.0527336287896,1143.5875760911567,1140.853948069292,1135.070994974771,81.48606113566665,21.148028658054635,166.35249009797585,-867.7815191649349,158.55230318035663
43.4075,1.2143948455571305,-1.8218683785443976,-0.0509810030657081,-0.0086090407281749,-0.006619467920734,-0.0004224467827215,0.0071051748868467,0.0006216578655837,0.0250709208111361,0.9996602052854264,-0.0135215727698126,-0.0320303796204517,9.805326506087805,-0.0200991357808232,0.0201841272555157,-0.0001055541560463,-0.0153936075481989,1.778084268231392,2.587857597242608,1108.7665144036628,1143.7967753176745,1141.5809518261856,1132.6874082585803,452.10268566229,134.1843592420669,388.1268683677096,-975.0109717143017,158.5505743309245
43.41,1.22650236729066,-1.6442624570575173,0.0153285549147713,-0.0056092770986016,-0.0114957221654153,-0.0002340180785016,0.0070965318506616,0.0006128109333424,0.0250660456965961,0.9996603947086796,-0.0121880907567086,-0.0315365534357428,9.805221533456558,-0.0201020352048028,0.0199666806183031,-0.0001370901482376,-0.0154475593006886,1.778132443211146,2.5878532417668487,1110.3132470571022,1144.2584978873674,1142.7945824111316,1130.195940116197,789.3701012594246,233.98568016343083,571.9860813540693,-961.472353599319,158.54883315266295
43.4125,1.1875456157308615,-1.38838710867328,0.0443601588593154,-0.0024279491671416,-0.0157677771503692,-7.142214849637071e-05,0.0070896237238408,0.0006008869852695,0.0250603328669976,0.9996605924660916,-0.0103737080729972,-0.0307179240404833,9.805286098186228,-0.020099321124062,0.01975269354156,-0.0001579413294013,-0.0155023298108895,1.7781793219277011,2.5878497664468254,1112.713364909962,1144.9667037184922,1144.4408822329572,1127.8800464905812,1183.6923909418451,345.1809103833013,767.134605317885,-910.0633048326565,158.547082692193
43.415,1.0770898980247463,-1.0227266781163369,0.0439538324219166,0.0014122657155846,-0.0195946431544422,8.089165685714254e-05,0.0070840182228381,0.0005856800720457,0.0250543963231353,0.9996607863796072,-0.0080878543983001,-0.0296038470802495,9.80549604749657,-0.0200887435753781,0.0195452780883062,-0.0001683087685588,-0.0155575608615151,1.778224750755589,2.587846832224729,1116.231709011806,1145.9844024392823,1146.6302554377176,1125.645623592038,1329.9097195307259,382.1470161673324,795.0708443232567,-693.7113942742689,158.54497797017774
43.4175,0.9339238949181324,-0.6991393853770458,0.0206460502286536,0.0044692582645798,-0.0215196498614552,0.0001706578689278,0.0070794531799594,0.0005676062300127,0.0250485324325145,0.9996609710300128,-0.0053600801725652,-0.0282281511908538,9.805826069945088,-0.0200684276184595,0.0193474388991759,-0.0001689877111475,-0.015612942118149,1.778268649361182,2.5878443090162127,1119.3629135076192,1146.8774387993299,1148.4162364545757,1124.411489519208,1208.4652927406935,346.4700024544573,665.0806383661583,-346.76132722543565,158.54322479967843
43.42,0.7493669484759014,-0.392532393380173,-0.0187379617448866,0.0068550694926003,-0.0221629030423418,0.0002105751335921,0.0070765869686605,0.0005475207445713,0.0250443811665267,0.999661100829316,-0.0022354865666306,-0.0266138223364697,9.80625105725682,-0.0200368716939989,0.0191619963709825,-0.00016129857152,-0.015668049818408,1.778311255858139,2.5878424389836607,1122.2740354755126,1147.7167524515555,1149.95565862955,1123.91181695591,1142.8501070610698,340.59525576111866,592.8038776602468,-65.3002744040944,158.54147683686296
43.4225,0.5042685157856234,-0.0779208361547277,-0.0751082943758611,0.0086128301969672,-0.0219383886362666,0.0001595016683275,0.0070758947060603,0.0005248103538112,0.0250440811932959,0.9996611200061276,0.0012628363956282,-0.0247944473260935,9.806747464052906,-0.0199929897161905,0.0189914138855363,-0.0001468755411567,-0.0157224196891088,1.7783527438120843,2.5878413617541414,1125.077164042919,1148.580415078134,1151.3802558428742,1124.084988147188,869.6604488888269,286.1880365611696,444.4403791474997,161.79032159685357,158.53938962021465
43.425,0.3003800268304493,0.1251606623226707,-0.1219977904143415,0.0092405063080247,-0.0213084588789374,-1.8940495366920747e-05,0.0070769666253841,0.0004994823621557,0.0250475778236701,0.9996610335644242,0.0050931909012388,-0.0228253457141584,9.807294504036465,-0.0199361509807267,0.0188375685585559,-0.0001276174668968,-0.0157752493624548,1.7783931822263903,2.58784100411262,1126.6223377199588,1149.147692634362,1152.1778605252887,1124.7207685638944,437.289419890616,193.28572700368684,239.34626711044564,307.4300752715108,158.5376615147451
43.4275,0.1171590565821217,0.2608409031350022,-0.1586334137991394,0.0090053008070811,-0.0204348811245292,-0.0004221275988237,0.007081372556367,0.0004737739168361,0.0250542947549606,0.9996608439929648,0.0091658839077544,-0.0207249487543696,9.80787450200226,-0.0198659656348445,0.0187017087404679,-0.0001057404250131,-0.0158263540444886,1.778432819900914,2.5878417381494274,1127.2636111423735,1149.5468437131528,1152.576987178427,1125.6221385235463,122.0640592536002,134.25890883862323,98.61321343118888,367.7805899786724,158.5359475981645
43.43,-0.0403940787324616,0.3425150892996788,-0.179153707796947,0.0081252138614468,-0.0193819392671432,-0.0010698369944889,0.007089569173248,0.0004487208841689,0.0250610513119692,0.9996606271628564,0.0134096237464,-0.018535018083097,9.808473621769048,-0.0197821551567485,0.0185842814141485,-8.338087253054562e-05,-0.0158763690840492,1.7784718546757017,2.5878438263140415,1127.2326580162264,1149.8189871785546,1152.670926592444,1126.5596715137863,-128.08563886922283,84.85615218927238,-27.141041921801968,349.46637537423106,158.53424689877795
43.4325,-0.1698242527703972,0.3670253463141449,-0.1734933446560327,0.0071354169925121,-0.018088488006209,-0.0020236379611501,0.0070994271334705,0.0004263203602336,0.0250651550645026,0.9996604641063878,0.0177291693557531,-0.0163466161537859,9.809082338074369,-0.0196842617833769,0.0184849893718815,-6.245291163728693e-05,-0.0159260778666586,1.7785103532370634,2.5878472686256315,1126.623182948028,1149.9711244740988,1152.4412819688182,1127.3694704004158,-323.5797589528538,49.372412842078326,-160.35496546170162,303.9910442668579,158.53256354941823
43.435,-0.3128558933897124,0.3483494754358839,-0.1358235553442554,0.0066263911694202,-0.0163497015272412,-0.0033430058069319,0.0071101561835986,0.0004063377507093,0.0250659956997942,0.9996603747545378,0.0220706806007333,-0.0142228299453013,9.809694243734745,-0.019571518731765,0.0184028112801914,-4.446509065928328e-05,-0.0159760912252885,1.7785487225517052,2.587851754094377,1125.614759221461,1150.0658492427651,1151.8691517651353,1128.079626735121,-358.77719796321634,26.40934712238517,-243.9981568904957,216.73018138660888,158.53056520219195
43.4375,-0.4405623098440711,0.3131664030989593,-0.0873181703352908,0.0067446575063992,-0.0150498909895284,-0.0042133394839915,0.0071194649870865,0.0003900112495472,0.0250636883361075,0.9996603711426654,0.0263484249560555,-0.0122506196034384,9.810306289211663,-0.0194429380605565,0.0183359400875623,-3.0395431264293794e-05,-0.0160268107165228,1.7785873674943793,2.587856607979871,1124.8292969582108,1150.1031712097108,1151.221291184365,1128.4531213073494,-248.69334358195252,10.73687370704714,-272.0690660476267,118.8299752173578,158.5289190280573
43.44,-0.5893639162159872,0.2911092611317708,-0.0425507699821938,0.0068904443005074,-0.0146356200080437,-0.0042164186273409,0.0071239788804477,0.0003786225056526,0.0250569720040925,0.9996605079824727,0.0304738026307692,-0.0105313434468244,9.810917888955585,-0.0192975079633232,0.0182817518012302,-2.0551442597386137e-05,-0.0160786887604601,1.7786268009663548,2.5878609761187064,1124.3712925035527,1150.1195336113003,1150.5088064348984,1128.6737766112076,-90.39329241254487,3.2193784180419143,-298.96983119327325,86.42378700015014,158.52729381733795
43.4425,-0.7807547524214155,0.3203297844090874,-0.0226944592348741,0.0061778346710239,-0.0153970575544027,-0.0031981304222578,0.0071212144123523,0.0003713153479233,0.0250442701744946,0.9996608428822684,0.0344001870823683,-0.0091416943917507,9.811529429428834,-0.0191343356439232,0.0182369637951147,-1.4567617152644227e-05,-0.016131468837425,1.7786673220001898,2.58786438286366,1124.377330496148,1150.119268101801,1149.726442028398,1128.8852402423504,100.87171377389792,-5.485472620418399,-253.1396237007881,84.74390777546645,158.52536893916195
43.445,-0.924790087032396,0.4084484933115981,-0.0481011150380824,0.004311654083843,-0.0162037248487775,-0.002121294640824,0.0071096297506722,0.0003678624912604,0.0250241064827634,0.9996614246468382,0.038069920625206,-0.0081302906562024,9.81214161251462,-0.0189528347394887,0.0181978212481357,-1.162498076853142e-05,-0.0161849704855646,1.7787091555217092,2.587866847113829,1124.8756510724224,1150.0921062481982,1149.2431083163935,1129.0974961500851,286.8737556678178,-21.704072423173518,-135.31254890961947,104.92478718133944,158.5237867489329
43.4475,-1.011192701915106,0.557388821183404,-0.1155251232469447,0.0011401416229471,-0.0161739353785603,-0.0014707683956765,0.0070908018647906,0.0003687477902238,0.0249957611190158,0.9996622606873072,0.0414151864090079,-0.0074743803205711,9.812754233488544,-0.0187528835286441,0.0181603294513327,-1.067820376881101e-05,-0.0162390129977867,1.7787524559797292,2.587868344183496,1125.8116992744858,1150.0107477396853,1149.0498792838505,1129.4098641782566,421.7564185763538,-46.69739051180271,-16.77289669791259,145.14925224263456,158.52222802163476
43.45,-1.022208796420845,0.7344286564033962,-0.2035696420107142,-0.0027600275145023,-0.0152080800112195,-0.0014421611550798,0.0070666959308946,0.0003725712254509,0.0249631173262062,0.9996632407303468,0.044409317780271,-0.0071351387291886,9.813365740385832,-0.0185348370885543,0.0181206288335557,-1.0413944809520247e-05,-0.0162929161036605,1.7787973336204963,2.5878688264246854,1126.9844331653053,1149.858619295639,1149.159243832904,1129.8232424112987,483.5187992491028,-83.93751980202322,121.63372164266691,186.5132583859532,158.52068923764975
43.4525,-0.9266516506943832,0.905189370788764,-0.2896356939333553,-0.006853485909155,-0.0129286241447812,-0.0022867498212151,0.0070406536415573,0.0003754114925941,0.0249311359606293,0.9996642193691408,0.0470811555903224,-0.0070385969727075,9.813972440253078,-0.0182997464493126,0.0180751036798038,-9.420618740305683e-06,-0.0163459088180558,1.7788437672892712,2.5878685180196745,1128.2292932707323,1149.5910601406747,1149.658047892064,1130.3424304701869,503.1404720056826,-150.14042410848572,297.8950025510111,238.42778458300785,158.51917500157586
43.455,-0.7007899400592026,1.0495618991030227,-0.3553332349544389,-0.0107165238849286,-0.0087297938043533,-0.0042014400632103,0.0070160882646559,0.0003741620751755,0.0249041202386904,0.9996650673625104,0.0494503609165406,-0.0071002599552055,9.814568961937926,-0.0180494136880796,0.0180205676577261,-6.412770991223465e-06,-0.0163972729778496,1.7788918558217472,2.5878676308658464,1129.5001355253314,1149.107917175097,1150.6487188456579,1131.0153813342126,386.97704286226536,-206.84518135356817,405.8960553797276,238.4279152143025,158.51738683651917
43.4575,-0.4503835522085955,1.091018500744469,-0.3606706990533465,-0.0121958328607357,-0.0046876158023517,-0.0061773223731163,0.0069950132830347,0.0003709512581835,0.0248829732625464,0.9996657468919304,0.0514411783093235,-0.0072527371786263,9.815149228451768,-0.017786382588297,0.0179544140729706,-4.5100840503591705e-07,-0.0164468968816014,1.778940942421166,2.5878662145959166,1130.1641784850449,1148.5568342339063,1151.6875281689638,1131.5345700462588,146.622853804563,-253.54961613789544,419.4288441602694,177.09029762772877,158.5159211197019
43.46,-0.1829553179145678,1.039300822077142,-0.3096159774445182,-0.0117986116360804,-0.0009871497937694,-0.0076837235224189,0.0069788566145218,0.0003658272173455,0.024867554600223,0.9996662512395308,0.0530277268567532,-0.0074354382289594,9.81570544677172,-0.0175136834878793,0.0178749116061357,9.218439733790985e-06,-0.0164945853464751,1.778990253525374,2.5878647035022433,1130.2332497943546,1147.8401690944072,1152.7458630664603,1131.9008328223515,-83.47420601065411,-315.51322467586533,392.6155852007856,107.6589398882858,158.51448105853916
43.4625,0.0690598326356055,0.9188299317672652,-0.2199294871492233,-0.0103586020167431,0.0021167341155108,-0.0083975970401254,0.0069694003671208,0.000358373599991,0.0248577414772342,0.9996665712336712,0.0542037797601897,-0.0075775518758245,9.816228428436201,-0.0172346057002956,0.0177813548354718,2.3019450233893127e-05,-0.0165401633326335,1.7790395207019207,2.5878633439366414,1129.746807454992,1146.9792681105287,1153.650606094966,1132.0728647457,-320.7082031548631,-380.6030661059012,289.0391337760661,13.714017718250291,158.51306244973685
43.465,0.2878402168038695,0.7403063611710483,-0.0994936916110941,-0.0084439643183071,0.0042664622171531,-0.008564158784092,0.0069652220664155,0.0003513671154037,0.0248506117879184,0.9996667874332608,0.0549097034156148,-0.0076678452688532,9.816709278235619,-0.0169525976779255,0.0176739963899747,4.104141452545822e-05,-0.0165841234353997,1.7790878611867968,2.5878624406391513,1128.6297087785795,1145.9371537638767,1154.1910587353411,1131.969402910943,-597.938911161567,-502.3578776605677,123.8321274529247,-107.8671316428784,158.51166986617696
43.4675,0.523387690887334,0.4991778389416507,0.0620680099020269,-0.0065889531047669,0.0054239079917721,-0.0083093448014534,0.006962943241245,0.0003449672898747,0.0248438615270795,0.9996669793511362,0.0551476186264102,-0.0077357654084676,9.817138713498984,-0.0166709744221498,0.0175541082118429,6.32414105058748e-05,-0.0166270583805382,1.7791342858816475,2.587862018764038,1126.7571128991826,1144.4674787222243,1154.269766732231,1131.5335290874852,-729.1553673191894,-575.7877929809872,-73.04480796681041,-203.2112839672238,158.51002898948977
43.47,0.7202711666391158,0.3025547367561116,0.2006706336113431,-0.0060825976939206,0.0054098586851452,-0.0074067746336248,0.006960476745132,0.000339422310533,0.0248367263413024,0.999667179708236,0.0549299099345784,-0.0077885973563001,9.817507293062564,-0.0163928001704593,0.0174238278662985,8.929756298618378e-05,-0.0166694264754985,1.7791784986075827,2.587862055708768,1124.9839319419868,1143.0582147989744,1153.8258346955076,1130.9533464911078,-686.6836819316757,-596.91954333954,-275.1920334124363,-260.13102963152386,158.5086868172846
43.4725,0.9419209590396272,0.1292072896566889,0.3384890912414761,-0.0063403322670366,0.0052408721403147,-0.006151725186625,0.006957857435667,0.0003339751570344,0.0248291391986984,0.9996673899811352,0.0543007104654739,-0.0077973253087934,9.817805542726594,-0.0161209147006188,0.0172858619035471,0.0001186826529455,-0.0167114367141579,1.7792206777413968,2.5878621764119574,1123.3236944895225,1141.482881005525,1152.893806565168,1130.2328739393267,-627.7033751700372,-712.707578073877,-498.2953442610957,-324.04299321121266,158.50737054081327
43.475,1.2298279247528943,-0.0477810606205008,0.509951984401452,-0.005689012257296,0.0054313324188842,-0.0051503549139023,0.0069549293987127,0.0003268533087641,0.0248221856408104,0.999667585217222,0.0533343766815238,-0.007743502387815,9.81802484677453,-0.0158579638302239,0.0171432223087189,0.0001507775300747,-0.0167530040652458,1.7792611524204882,2.5878622787157344,1121.845415066135,1139.4946769086032,1151.3343579742009,1129.3331315250507,-412.9037525090215,-722.3424900655776,-621.7247951053394,-316.1040378601375,158.50581965245627
43.4775,1.4517808054852748,-0.1706688512120988,0.6658999911324475,-0.0031804167640865,0.0057319722876942,-0.004868729289011,0.0069528541323381,0.0003183155988616,0.0248177551002714,0.9996677110329284,0.0520754881604238,-0.0075890661349491,9.818157965600465,-0.0156064645631577,0.0169989744684186,0.0001847256383321,-0.0167937347524729,1.7793003528486628,2.587862526718218,1121.2591757269793,1137.8711685552007,1149.785182589644,1128.6523537500275,-77.2350049516777,-608.6143304708982,-641.2464434478709,-237.76352482556487,158.5045494220767
43.48,1.5882300728776193,-0.2641950116944589,0.833829160170463,0.0015178441866251,0.0055453164967756,-0.0045832394077483,0.006955603666343,0.0003102714518539,0.024817867332237,0.9996676897173482,0.0505458374005024,-0.0072476366047095,9.81819891350463,-0.0153688361223072,0.0168560394186807,0.0002194077389564,-0.0168329851684211,1.7793390237047388,2.5878631011658095,1121.4592400413765,1136.4516052562471,1148.12812575696,1128.1443139009225,200.32172294612548,-508.7598124568684,-658.9567930428342,-165.33713818117303,158.50329930585707
43.4825,1.6046026838447511,-0.3246040363797219,0.9938937920883972,0.0076005550375666,0.0046899042197573,-0.0034201523614762,0.006965509395396,0.000302895028033,0.0248245780604419,0.9996674546830604,0.0488072900290386,-0.0066736535197638,9.818143492982504,-0.0151473216435735,0.0167170926180619,0.0002537268139698,-0.0168700355198246,1.7793772268216557,2.5878642201174724,1122.2607843417104,1135.327369492915,1146.4903986244283,1127.8256680591214,421.1984042253982,-354.1082078540095,-627.8058953714915,-80.43655484641971,158.50206304397295
43.485,1.4419119771471756,-0.333011432235962,1.1036277029355135,0.0140580459154542,0.0031745398355625,-0.0005058659120424,0.0069837057783393,0.0002952016135583,0.0248396167175739,0.9996669559707544,0.0469489627417036,-0.0058530676043119,9.81798935087496,-0.0149438163265814,0.0165845082247292,0.0002866239919317,-0.0169047573887283,1.7794149403238153,2.587865962367185,1123.5652320625015,1134.6810642169787,1144.9890962801053,1127.7421311266908,606.7649597472233,-155.71866711235307,-607.1871162208104,9.049023467418834,158.50083927924908
43.4875,1.0463240170295602,-0.2767593920727597,1.1198545317979407,0.0202107230019239,0.0011680365562126,0.0045664767321095,0.0070074473223767,0.0002878009445357,0.0248604264479005,0.9996662752383924,0.0450296439994735,-0.0048534924024826,9.817736852406233,-0.0147597551731841,0.0164602030110618,0.0003171546476981,-0.0169379220729076,1.7794520719635019,2.587868355876685,1125.294609140448,1134.548776157353,1143.4544630433227,1127.8709131764583,597.2790519637456,60.30932504174059,-508.35904978822697,76.30206234876557,158.4993787711347
43.49,0.589859929462809,-0.1819455947362978,1.0091883576844605,0.0231254575847141,-0.0001475092057927,0.0093604593579034,0.0070344478718406,0.0002805581356468,0.0248826420682359,0.9996655363091768,0.0431237977685538,-0.0037396791814185,9.817387677924431,-0.0145958185955172,0.0163456725347925,0.0003445056935625,-0.0169704477808926,1.7794884854908957,2.5878714772469285,1126.5516273223216,1134.9826108421876,1142.4473010311629,1128.1236414384348,404.29342097018366,274.34315166171865,-341.2250091663202,122.63504349623202,158.49816297763698
43.4925,0.0751819435181256,-0.0604809795562949,0.7684144644154284,0.0234746645411445,-0.0006079052285674,0.0134472429515593,0.0070629027669821,0.000273170286779,0.0249019088283552,0.9996648600383592,0.0413080764811852,-0.0025719102958454,9.81694460385624,-0.0144517763619417,0.0162419856436367,0.0003680701443905,-0.0170030211005235,1.7795241014750307,2.587875051739072,1127.3160762452972,1135.9204919156603,1141.7483379974926,1128.4840883939391,201.338823644029,440.99880766461047,-228.24729057863647,158.2073285807912,158.49694174926816
43.495,-0.4288415990627886,0.0594312191422422,0.4458452875604509,0.0218845377904425,-0.0001803808329727,0.0160479463994539,0.0070903072028173,0.0002640929917353,0.0249167480298731,0.9996643012118218,0.0396797159748751,-0.0014287129332733,9.816411234503343,-0.0143264098101,0.0161497944261928,0.0003875937347029,-0.0170359117102262,1.7795591686414427,2.587878736670583,1127.558321440541,1137.1876048805086,1141.3060645782707,1128.914678081338,-24.970545729125615,558.7664326454485,-117.79198391571639,185.26112135241036,158.4957111442127
43.4975,-0.8614223422119893,0.1509665479210473,0.0797449894741682,0.0183607278392002,0.0010414423038179,0.016449965947254,0.0071138392252794,0.0002526152713114,0.0249265592911254,0.9996638952327008,0.038313667280443,-0.0003964877668976,9.815791758600893,-0.0142176656867457,0.0160692150280487,0.000403137174653,-0.0170693968738465,1.779593991262075,2.5878822504738017,1127.1912235166515,1138.7143240788887,1141.1593780779135,1129.4103940007017,-263.5725855673188,695.4142850422239,-2.8455116277185875,225.15513138894073,158.4944637627014
43.5,-1.2546726334657987,0.2084631000567266,-0.331578230813121,0.0128167586867847,0.0028238220033164,0.0145599416108806,0.0071313803532054,0.0002419244072634,0.0249313503542701,0.9996636561530272,0.037200937822717,0.0004536649615572,9.815090639361717,-0.0141227938295949,0.0159997946198415,0.0004149484842318,-0.0171038486006683,1.7796286186617423,2.5878855019333207,1126.2404585127035,1140.6646763057215,1141.291837020132,1130.0404537382833,-390.8204304734143,711.4500017384321,92.85050309280707,227.9636531337728,158.49294099230772
43.5025,-1.474825460398295,0.2129564268700125,-0.6044619599143535,0.0082716419369122,0.004006200424975,0.0115881792268507,0.0071435740630045,0.0002348501809214,0.0249328894926665,0.9996635345037932,0.0363315205574431,0.0011056861331235,9.814311225564127,-0.0140384705164303,0.0159405521000755,0.0004234893212623,-0.0171393919053023,1.7796635918721346,2.5878884567830007,1125.237121364286,1142.2715740875778,1141.6236305933771,1130.5502122663695,-391.0851500099216,617.2345442951635,166.89109175754868,188.17241636069787,158.49164606745856
43.505,-1.608841827033974,0.1873256787415093,-0.7762522892851604,0.0047465138929027,0.0043369709183628,0.008387059349934,0.0071510202610689,0.0002325707970248,0.024932307335279,0.9996634976009876,0.0357168836884877,0.001544637636291,9.813455926007014,-0.0139610647249027,0.0158899564283177,0.0004295080354569,-0.0171759135404202,1.7796991372580175,2.587890731697009,1124.2850327626531,1143.750849027199,1142.1262924789203,1130.9813158200873,-355.73984370494134,603.5612314845007,243.40058554604465,159.16586841586692,158.49031949005038
43.5075,-1.7111747642145787,0.1446270408639263,-0.8687140852356249,0.0014751997194143,0.0040127916895099,0.0053030550218975,0.0071522769691624,0.0002364796974802,0.0249272762504093,0.9996636130411746,0.0353511826289586,0.0017200557508895,9.81252673693868,-0.013886916200712,0.0158459425573973,0.0004339604036941,-0.0172132327086965,1.7797353321122884,2.5878918304697334,1123.4584221457603,1145.289380245002,1142.8406335211082,1131.3460416084492,-227.3850610115254,515.1192297185072,267.7853739734181,103.63138879306791,158.48868614327944
43.51,-1.7670264038817587,0.1098197408830254,-0.8683192073896218,-0.0011610793125335,0.0036405640438985,0.0033501484201079,0.0071467573991338,0.0002461854844426,0.0249165318855382,0.9996639160617462,0.0352517456565942,0.0016023436297649,9.811524398121689,-0.0138123518461822,0.0158061605788268,0.0004378314754583,-0.0172511473830385,1.7797722944108387,2.5878917524667404,1123.1481074575963,1146.326445175789,1143.465219348786,1131.499472764052,-39.148198075852605,355.97673171760084,245.48302696836063,30.719509560442678,158.48728731108477
43.5125,-1.7912461797385575,0.0768898730863065,-0.8117215069022309,-0.004716557850918,0.0035435328919041,0.0017665961716531,0.0071349983116377,0.0002619690812537,0.0249003820731353,0.9996643947811648,0.0354109496728795,0.001189985889068,9.810448806500528,-0.0137338085763832,0.0157681176963073,0.000441883454316,-0.0172897267336127,1.7798099288932463,2.5878910574911655,1123.2626811553812,1147.0692639035908,1144.0680486559506,1131.4996391562515,105.26838272047895,246.475717170107,236.25919689076645,-21.182927451434885,158.48584570410685
43.515,-1.7732902832592043,0.0396159864788467,-0.723139273993096,-0.0093318860974418,0.0036719183031724,0.0002316224113333,0.0071163808045946,0.0002851460467138,0.0248799965154537,0.999665024182166,0.0357882805309816,0.0004655902701952,9.809299905884329,-0.0136479843147817,0.015729284338183,0.0004465782381323,-0.0173291828468647,1.7798481531688444,2.587890110330521,1123.6744493711992,1147.5588237616403,1144.6465153332404,1131.3935581267947,207.55228403541656,141.00677473024095,233.05670901734908,-60.40189157839487,158.48436572479855
43.5175,-1.6821165950610044,-0.0126213900670304,-0.6079739929002967,-0.0145969118898062,0.0041234566467253,-0.0015646646027393,0.0070890879615038,0.0003169382119916,0.0248595482507143,0.9996657127414776,0.0363333149484481,-0.0006055966203352,9.808078034720243,-0.0135519092329431,0.0156872735908564,0.0004520308653269,-0.0173690698891711,1.7798871787341912,2.5878888216215343,1124.300442575557,1147.7742977772411,1145.2333322010363,1131.1976296983598,276.3809238067502,52.84514213960417,277.0122797299284,-96.00289388894998,158.48283563838584
43.52,-1.474617286445405,-0.1005081894546282,-0.4539790338062672,-0.0204386096066877,0.0049144567178068,-0.0037543828925096,0.0070529716238884,0.0003554356875599,0.0248415278816507,0.99966639947507,0.0370473605856787,-0.0020205374493248,9.806783474513798,-0.0134432068606419,0.0156398463833485,0.0004579569146494,-0.0174085587352414,1.779927231835822,2.587887596666714,1125.0563539902337,1147.8230494723384,1146.0315767318907,1130.91354365735,240.7541935633749,6.63445311579041,320.0550321773062,-105.05113372741188,158.4809362434113
43.5225,-1.2258304090233096,-0.1916989701742379,-0.3288771198122726,-0.0243802824505566,0.0052465731201258,-0.0050792697516671,0.0070103387175167,0.000397339049878,0.0248272848820191,0.9996670348943844,0.037950981557463,-0.0037226757217025,9.80541703950328,-0.0133201088710924,0.0155850847832072,0.0004635792214043,-0.0174469741277291,1.7799684064797408,2.5878869136941423,1125.5042135433748,1147.8074700428203,1146.8336073619237,1130.6723740297225,102.63037142722408,13.328789891432576,354.77938509707633,-92.0698142421698,158.47929647052885
43.525,-0.9201168465806626,-0.2853760582066138,-0.2345453815133156,-0.0271469437546846,0.0045693069022375,-0.0053717749619147,0.0069635327730653,0.0004395606822148,0.0248143284680655,0.9996676645586142,0.0390527352818913,-0.0056489425531199,9.803981285844648,-0.0131814739327225,0.0155214890352068,0.0004676987479501,-0.0174845150161646,1.7800100048541592,2.5878870695934078,1125.569505847369,1147.8896934217955,1147.8054736573747,1130.4531945861395,-89.7521182938358,86.41183202248739,456.87643311456947,-91.14785067472323,158.47759224446597
43.5275,-0.5223502404302802,-0.375835864973318,-0.1885306585305606,-0.029067793762443,0.0029069598775355,-0.0046229496712208,0.0069138246831367,0.0004779061892921,0.0247998179619416,0.9996683512027416,0.0403763867636022,-0.0077534773509866,9.802480941351908,-0.013026578561779,0.0154481950192644,0.0004688665798042,-0.0175213934919111,1.7800509937181774,2.5878885153450324,1125.0554529519054,1148.2395292029328,1149.1179895274977,1130.2166347763487,-295.47531479705304,176.82975404777656,487.51130349944634,-84.59316676185372,158.47546604340482
43.53,-0.1911912285887507,-0.4197674532842805,-0.2184245337731332,-0.0295199593809912,0.0011944377480368,-0.0037733115522345,0.0068627900339999,0.0005096043796168,0.0247828735981221,0.9996691067361696,0.0419138431456106,-0.0099807326072086,9.800923108419958,-0.0128549824439522,0.0153650406754163,0.000465432279983,-0.0175577054069855,1.780090534988686,2.5878911770135606,1124.0921292733833,1148.7738421920349,1150.2430301748732,1130.03022875233,-486.6367987972686,249.761654421354,428.18002780848315,-73.94156104207826,158.47362154458963
43.5325,0.1135807390741737,-0.4269895953933517,-0.312742477220648,-0.0288926776200709,-0.0005647908521174,-0.0035321486660828,0.0068121221142287,0.0005340458723586,0.0247647021430166,0.9996698900157344,0.0436123428190514,-0.0122698968679401,9.799317390495663,-0.0126664982278546,0.0152724435216098,0.0004557175842497,-0.0175935681298768,1.7801284956353407,2.5878945582258246,1122.6222689579213,1149.4883374750386,1151.258889666538,1129.8469269711386,-649.061081089062,287.06544957743836,369.1111491322703,-71.02227796050106,158.47169566142628
43.535,0.3840698278287287,-0.4104026927161757,-0.4412436890709192,-0.0275243889225751,-0.0018678346966642,-0.0040767435176865,0.006762995054508,0.0005502935623254,0.0247470817979707,0.9996706502404584,0.0454246063424979,-0.0145694131241364,9.79767544965978,-0.01246123926861,0.0151711641826212,0.000438261476097,-0.0176293033200771,1.7801649143245188,2.5878987245617795,1120.8468238679363,1150.2091694399228,1152.0885859205355,1129.675117362527,-740.0481457579496,239.1693759401873,274.9384754804354,-58.84020248001153,158.4696981863028
43.5375,0.6097363116044773,-0.3809182892458946,-0.578185424912732,-0.0255941482360795,-0.0023243670915502,-0.0054613710961125,0.0067184342292278,0.0005574356024811,0.0247309277854721,0.9996713456959332,0.047304750579387,-0.0167910673682409,9.796010126672256,-0.0122397006287487,0.0150620728522042,0.0004118715758545,-0.0176646947207657,1.7802004336769484,2.5879036503088506,1118.9220282291296,1150.68418435474,1152.633582043941,1129.5527259587384,-814.4318040185811,84.30038886156972,176.6535741683371,-27.457182591640464,158.46760993775976
43.54,0.8390779718200525,-0.3481118502785448,-0.7086857365189425,-0.0231355108824558,-0.00250128278192,-0.0076955161053425,0.0066798439147534,0.0005567593693635,0.0247143696253946,0.999672013139302,0.0491656893000485,-0.0188774146273086,9.794335756489811,-0.0120028654840719,0.0149459556416285,0.0003758019913107,-0.0176996212091494,1.7802356176795566,2.587909182567841,1116.7746648478471,1150.6306713842303,1152.9718537913764,1129.5378314495692,-713.6457947967289,-159.71855792709917,84.24068669751486,28.843743963701648,158.46499403367665
43.5425,1.010482710165206,-0.3268938560114493,-0.7607405434573667,-0.0211376549663629,-0.0027847269226034,-0.0098877300064078,0.0066474898277129,0.000548203170978,0.024696594346753,0.999672671771534,0.0509507491921488,-0.0207952311896503,9.792666777437937,-0.0117521115900976,0.0148235500300766,0.0003299437683507,-0.0177337700480832,1.780270603078214,2.5879150084159206,1115.353799255144,1149.8855915651043,1153.0547854774288,1129.6969446785567,-451.6858071301576,-456.0408189600307,13.838110367662209,109.09109584694183,158.46271924227435
43.545,1.1798655641321258,-0.3059406761659813,-0.7264184372175378,-0.019241657433829,-0.0033942757070879,-0.0124623938810877,0.0066213454112733,0.0005332806024803,0.0246799657142113,0.9996732632291376,0.0525784214254772,-0.0225183992126812,9.791017139255068,-0.0114891475305469,0.0146955856185437,0.000274801627347,-0.0177667697355093,1.7803055608110951,2.587920162162534,1114.5162358121952,1148.3504672894287,1153.0410443432147,1130.0832869288042,-226.08697332259553,-728.5219433799998,-5.164069000106942,191.23917213200116,158.46034275516803
43.5475,1.3556325358835577,-0.2760070633007412,-0.6074444227112573,-0.0172950896394983,-0.0042250374503284,-0.0150557486013144,0.0066009508771916,0.0005142918212952,0.0246645146888014,0.9996737892623861,0.053958911203564,-0.0240306054640099,9.78939940508312,-0.0112161295084461,0.014562672292038,0.0002114991226257,-0.0177987047969208,1.7803404823245563,2.5879234571005627,1114.2233643885322,1146.2429818482076,1153.0289651324283,1130.653140539216,5.83485511824321,-935.4317130639846,7.760898414604194,257.5630204261462,158.45787998115102
43.55,1.5347670637818285,-0.2239987949161451,-0.3841260895910446,-0.0146887535676533,-0.0053614782720355,-0.0170337337844857,0.0065848908294386,0.0004911602967708,0.0246510504015971,0.99967423979126,0.0550571445073795,-0.0253379322227074,9.787823651426889,-0.0109355020266074,0.0144254048487462,0.0001417025521426,-0.0178296347634185,1.780375219670023,2.587924804002786,1114.5454100877864,1143.6733087241066,1153.0798488352875,1131.3711020309356,250.35780064286809,-1162.3824592897984,33.71900045197529,316.279629473067,158.45531134174675
43.5525,1.728814002929373,-0.1287376361562943,-0.0099663464734796,-0.010159682978255,-0.0068038752226018,-0.0182660358102815,0.0065748882093385,0.0004656021390365,0.0246421165541474,0.9996745393429012,0.0558141163189352,-0.0263871842957603,9.786296921020893,-0.010649921266595,0.0142844070550363,6.715379432118089e-05,-0.0178597500724749,1.7804099205813724,2.5879244771298833,1115.4751533917472,1140.4310695517556,1153.1975601346883,1132.2345386865823,398.4694680880225,-1160.34424900864,33.770504058323944,286.72433704376704,158.45210471793428
43.555,1.8476306580644335,-0.026197698487131,0.3702290253677986,-0.0053674120967938,-0.0076148699256037,-0.018361852901531,0.0065720690721196,0.000438830918377,0.024637690456762,0.9996746797320876,0.0561905823059406,-0.0271396538543253,9.784823254455274,-0.0103623467523587,0.0141402625540844,-1.0412143593682553e-05,-0.0178891930136147,1.7804445298863498,2.587923114520669,1116.5377574282247,1137.8715874790687,1153.2487013555792,1132.8047237161531,445.69194346344887,-940.4247843334728,-27.05341578291796,164.0500238083078,158.44932761250706
43.5575,1.894699634341338,0.0834229670986934,0.7888720301682481,-0.0002590281128758,-0.0077047880149147,-0.0175406168551685,0.0065752610594117,0.0004118250994493,0.0246374642370666,0.999674675469916,0.0561615075951554,-0.027604857098248,9.783403995768335,-0.0100759613086091,0.013993602310002,-8.940434304312612e-05,-0.0179174833929618,1.780478965841949,2.587921442422197,1117.7036131090624,1135.7289456300923,1153.0622930557738,1133.054788805623,501.3187764508239,-809.0000201860174,-184.02997456377892,12.13979516577926,158.44643975668654
43.56,1.848491427190592,0.1952255706231037,1.286217251455032,0.0057027956942457,-0.0066516125067912,-0.0151320269302207,0.0065845393242659,0.0003852741923348,0.0246425239408954,0.9996744990986693,0.0557189725312544,-0.0277716438757556,9.782037439271,-0.0097940847993165,0.0138451669595557,-0.0001685461082906,-0.0179439888233151,1.7805132348428383,2.5879203648934217,1119.04435131048,1133.8265873781363,1152.3285514827598,1132.865422691982,465.73140274807696,-578.9455659271192,-376.8541119978072,-155.54770732238694,158.44284388572729
43.5625,1.7176169499140739,0.2542665318311574,1.6525202401492407,0.0105334356397238,-0.0050256779006603,-0.0115633639468648,0.0065992883767362,0.0003610853196424,0.0246537946042804,0.9996741314077594,0.0548414736838827,-0.0276452680785035,9.780719827658972,-0.0095201048384441,0.0136957891286989,-0.000246805521128,-0.0179684049420841,1.7805469405732928,2.5879199983272607,1120.032270122804,1132.8342178004555,1151.1780224957838,1132.2770502690107,361.2086891543742,-287.60073732781854,-573.0364116555147,-316.76003091940106,158.43973670550778
43.565,1.4911928800316474,0.2707760569582552,1.9130892774989456,0.0151716359116431,-0.0034556052993486,-0.0060485314403987,0.0066189296954069,0.0003378290232027,0.0246725639677233,0.9996735450586168,0.0535827448278355,-0.0272355288340213,9.779445128050781,-0.0092572774498304,0.0135463913984186,-0.0003232070177038,-0.0179903683228711,1.7805800212380896,2.5879200549559678,1120.8503947562504,1132.3885836914988,1149.4633694244849,1131.2816225373865,301.8849923388918,-109.15858179058758,-757.850029423729,-453.2041333010921,158.4365122363828
43.5675,1.194118704856616,0.2597793887024994,2.051698955123143,0.0192334363046927,-0.0024033046396681,0.0006075714439657,0.0066459867573788,0.0003149701372201,0.0246995121566328,0.9996727067282414,0.0519894716079293,-0.0264946758591521,9.778205961711155,-0.0090085140291628,0.0133979255364276,-0.000396886188059,-0.0180098920123786,1.7806128898476832,2.5879201390383115,1121.5416950844992,1132.2884248915022,1147.3887723486632,1130.011029602504,256.89215344032664,13.735398637838692,-869.3127147174536,-556.0205005537111,158.4331885371076
43.57,0.8344629821750223,0.2353258552290714,2.0255653310135298,0.0219872804024397,-0.0021102930934552,0.0072504937651528,0.0066805157972612,0.0002939690297514,0.0247314419394458,0.9996716941510058,0.0500756698808008,-0.0254252544517748,9.77699553828944,-0.0087762074146114,0.0132512959490759,-0.0004668934786742,-0.0180280118908346,1.7806455050834973,2.587919811185118,1122.1348555234526,1132.457260684688,1145.1168058508952,1128.5015200346163,257.7165716538345,107.00792482985617,-973.5003900760815,-694.3470443653445,158.42974267931464
43.5725,0.3705222251324835,0.2160151647890789,1.816939303891005,0.0234788739245275,-0.0024036824690877,0.0140274136117952,0.0067194154236708,0.0002756164329741,0.0247632681752849,0.99967065317488,0.047872905229792,-0.0240951346492558,9.775808389506349,-0.008561986654915,0.0131074070645528,-0.0005321288909086,-0.0180457286615451,1.7806778428645211,2.587918699357778,1122.8302779427672,1132.823464515651,1142.5212703982872,1126.5392943806803,265.4932533410835,151.92374584168147,-882.2364439180125,-725.7100313405242,158.42546345584987
43.575,-0.012872586722671,0.2191091211693656,1.5246213158988322,0.0232290264159476,-0.0027583796931336,0.0184254471609922,0.0067607788580189,0.000259781863982,0.0247904928307306,0.9996697080069056,0.0454355815131262,-0.0225527679688676,9.77464080884669,-0.008366595186511,0.0129672081611476,-0.0005915171625986,-0.0180635088016842,1.7807095937858153,2.587916662602561,1123.4623217901587,1133.2168794138968,1140.705623631303,1124.872969877912,270.64200030026564,179.32808683217365,-615.3543699041201,-647.3636396466972,158.42177585402544
43.5775,-0.3649696854721932,0.2408270817398338,1.1555733380407143,0.0218091308833768,-0.0025376842657437,0.0213213595477373,0.0068038505108897,0.0002452193098551,0.0248120793194753,0.9996688897178032,0.0428429651686203,-0.0208282612826715,9.773492163745912,-0.008189868186865,0.0128317205831113,-0.0006441058155854,-0.0180815022298997,1.7807406416976308,2.587913766957677,1124.1834879442692,1133.7201049498124,1139.444498548765,1123.3024761824452,297.3201381264946,230.25645981795628,-400.9514521486389,-589.3027508072821,158.41796153962576
43.58,-0.6806725048731948,0.2688769896268008,0.7582212841364425,0.0199821409877689,-0.0017344230753748,0.0228892495407482,0.0068450921401136,0.0002335741109752,0.0248285803473524,0.999668208043173,0.0401171251372115,-0.019007583944223,9.772367574459903,-0.0080308856450688,0.0127019604618987,-0.0006891539373197,-0.0181003550840972,1.7807708816634744,2.5879094901208592,1124.9489224807899,1134.3681617129855,1138.7008663705617,1121.9264561238783,295.18947725985885,310.2601101463056,-178.39118026731708,-472.8106451080603,158.41404266666285
43.5825,-0.951432809408566,0.2924017156613061,0.3610990547967048,0.0182318410713431,-0.0006416681648842,0.0231650075604317,0.0068802086380775,0.000228192507305,0.0248414631673959,0.999667654985234,0.037245522846135,-0.0171929138030903,9.771278936907418,-0.0078881573091363,0.0125788623153467,-0.0007263129701393,-0.018120763396114,1.7808003216692765,2.5879040338582815,1125.6594353305693,1135.2714055005447,1138.552542647428,1120.9384229569039,261.05661465622063,472.2355207106688,47.95715485854364,-310.53519211147915,158.4099994474501
43.585,-1.2256013482577757,0.306101460582058,-0.0891600685898658,0.0158852935453885,0.0005921600128045,0.0226975098359381,0.0069075427846367,0.0002299696022826,0.0248527210051102,0.9996671920337432,0.0342623199290037,-0.0154376740834783,9.77024540242169,-0.0077598824498475,0.0124632049113807,-0.0007558072427647,-0.0181423850168673,1.7808293469544632,2.587898075391001,1126.2542055540716,1136.72933931654,1138.9406521448543,1120.37378016332,147.8121747694766,598.917626190131,212.86577479928644,-89.69781254048912,158.40500750946094
43.5875,-1.4059955855336803,0.3038433994268741,-0.4360348411604926,0.0132008442594768,0.0013317589221892,0.0219641859162425,0.0069263885342577,0.0002387740089646,0.0248641960108448,0.9996667786287576,0.0312184630891134,-0.0137780573542457,9.769295486756368,-0.0076442238556225,0.012355565836057,-0.0007785225614695,-0.0181644860617602,1.7808581603826275,2.58789251813389,1126.398496204416,1138.2659936314926,1139.6168715214235,1120.4899338942018,-35.14792128660722,666.7388951742623,314.77188855153406,163.79257429708366,158.40073456529714
43.59,-1.5198047915866835,0.2882316771919076,-0.7531073152824775,0.0096344185929637,0.0017297762392241,0.0208907003757099,0.0069352906126106,0.0002539030231602,0.0248774879371115,0.9996663857912496,0.0281709872437818,-0.0122652926428555,9.768468956414388,-0.0075394875972535,0.0122563176443208,-0.0007959672043368,-0.0181862217730879,1.7808865424382976,2.587888098460708,1126.0784659476385,1140.063033792413,1140.514511587613,1121.192743034806,-247.23880842417287,812.5319892926592,417.28866793424936,411.5502468709278,158.39635002086987
43.5925,-1.5556027421964131,0.2518230092422063,-1.0960337931759263,0.0042407894494444,0.0022459281798406,0.0188937774395282,0.0069354599603569,0.0002737874362315,0.0248921639038866,0.9996660165931948,0.02518959956445,-0.0108981396673997,9.767817435897552,-0.0074442296341841,0.0121655918794472,-0.0008102328648351,-0.0182073703088441,1.7809147856610827,2.587884741758105,1125.1623021622945,1142.328653577958,1141.7033148610958,1122.5476851285575,-408.0339825016909,813.1027292930986,438.7366029583416,543.6216849901881,158.39096713750564
43.595,-1.4899690752109895,0.2012790305482975,-1.3413246647506183,-0.0009112967776762,0.0029511030345643,0.0163252921916666,0.0069285194916645,0.0002944719438965,0.0249068015657612,0.9996656965387384,0.0223847548358984,-0.0096670476706286,9.767405648851584,-0.0073572062206042,0.0120832954128646,-0.0008237467496026,-0.0182276191625586,1.7809428152614768,2.587882404884973,1124.038296035132,1144.1285474388749,1142.7081946024027,1123.9108514597544,-490.96641042867645,660.8422643177876,392.9504241655913,541.2257724351507,158.3863856698509
43.5975,-1.331045418857855,0.1226506492983938,-1.5259449308850854,-0.0059079166810422,0.0039170743038022,0.0126001967501537,0.0069171136778544,0.000311229636465,0.0249191918548415,0.9996654639529248,0.0198760413499992,-0.0085407259839367,9.767312018538476,-0.0072772911401689,0.0120091142804202,-0.0008391385217544,-0.0182469293603226,1.7809706453646934,2.5878813673756462,1122.7074701101499,1145.6328648995486,1143.6680669819248,1125.2538139907347,-536.6673877796967,529.9534735133892,371.2670763065864,497.1194643873972,158.38171094548957
43.6,-1.118834052423474,0.0197985433187332,-1.6453492063738027,-0.0100316129344838,0.0047734876760025,0.0081257986373972,0.0069037197037442,0.0003220667418327,0.0249281167405969,0.9996653325701976,0.0177230257946424,-0.0074870593690701,9.767629221602489,-0.0072033265681239,0.0119425408731351,-0.0008590780409861,-0.0182655201892365,1.780998494317949,2.5878815558627206,1121.354959096232,1146.7783148064432,1144.5645299839366,1126.3964487816927,-512.0375398539745,357.49087995250875,337.2793353625068,376.680744156444,158.37696315383462
43.6025,-0.8927458621146181,-0.1039458717270521,-1.6751378285449479,-0.0124126953602797,0.0048072890862704,0.0034496155342811,0.0068880633562573,0.0003258988421702,0.0249331132771973,0.9996653159542912,0.0159594780742145,-0.0065236970978441,9.768463999599593,-0.0071340399285822,0.011882887477472,-0.0008859866158567,-0.01828374497003,1.7810264900572577,2.587882906619776,1120.1472824108823,1147.4203192993095,1145.3544636587355,1127.1372177115152,-466.4987609721153,164.98215934257783,310.11099604950283,216.70010555065167,158.372132075365
43.605,-0.6802233468249336,-0.2583516533942866,-1.606628078545377,-0.0130856101048663,0.0037908653843062,-0.001897353692428,0.0068688546026092,0.0003228416694014,0.0249347784385838,0.9996654080058094,0.0145885274788559,-0.0056834063243337,9.7699357786229,-0.0070679787543489,0.0118293165401262,-0.0009218840838109,-0.0183016466807173,1.7810542101327331,2.5878856710988045,1119.0224652913703,1147.6032256031565,1146.1150849641847,1127.4799493094465,-349.68333109364113,-20.84995691606152,234.11799965567144,44.109408818371946,158.3662443197287
43.6075,-0.5971568465507127,-0.3807296906853265,-1.4705926845881832,-0.0120566703312569,0.0026023481077725,-0.0060986899642382,0.0068449367638394,0.0003150605268299,0.0249348285652923,0.9996655729421388,0.0135667026970726,-0.0049907030281029,9.77217488747479,-0.0070034815602952,0.0117808475897234,-0.0009682193423456,-0.0183195154644152,1.7810814101939425,2.587889488183709,1118.3988657554132,1147.3160695147292,1146.5250536570147,1127.3577647556071,-193.02440696991928,-184.88616367879771,101.49789737966012,-98.60087657057066,158.361266448213
43.61,-0.6320148978942066,-0.4905715784976817,-1.2704227105343675,-0.0102716274626097,0.0014432347255235,-0.009786003749074,0.006816338866899,0.0003041105152505,0.0249334172219878,0.9996658058030852,0.0128563963969084,-0.0044419926500681,9.775320023670531,-0.0069387544035265,0.0117362870548169,-0.0010256553545624,-0.0183380339337334,1.7811083429700407,2.5878939721802214,1118.0573432565216,1146.678794784763,1146.6225744510828,1126.986944926594,-114.82281473989624,-331.5545776772192,-37.198202238759286,-161.59015571393783,158.35621889912704
43.6125,-0.7713444656925018,-0.6066605736610519,-0.9861872001029524,-0.0096811017999045,7.625903383547644e-05,-0.0128305793057556,0.0067829385600146,0.0002919359042661,0.0249311622038721,0.9996660910818924,0.0124061654463518,-0.0040311449022521,9.779516047196813,-0.0068718970030489,0.011694228028627,-0.0010939019204467,-0.0183575166070556,1.78113529669023,2.587898584101822,1117.8247516817135,1145.6582966263422,1146.3390626458208,1126.549813977037,-83.08819998483456,-396.4334921083509,-164.05377188589927,-115.4313308338124,158.35008617366023
43.615,-0.901199704675104,-0.6888310507112876,-0.7362450398190504,-0.0121234502267909,-0.0012116245080029,-0.0140317886387204,0.0067455637874988,0.0002809178487964,0.0249278150675676,0.9996664284703614,0.0121507406424618,-0.0037277757787556,9.784910823327207,-0.0068010732454367,0.0116530384621887,-0.0011716596431862,-0.0183777261733224,1.7811628769476435,2.587902707724892,1117.6419022565972,1144.6966273242203,1145.8023055916528,1126.4097882724247,-98.19991904232502,-389.4217010955248,-252.9891845535103,28.07863440127956,158.3449161032411
43.6175,-0.9501076222784436,-0.750353909409686,-0.4917029553712184,-0.0171510083003601,-0.0028724302441221,-0.0145413421943194,0.0067064738993741,0.0002721703412128,0.0249228796579853,0.9996668147173148,0.0120453332641595,-0.0034688263624388,9.79165179241806,-0.0067246462658273,0.0116109387844599,-0.0012566034227895,-0.018398276325424,1.7811912181393956,2.5879061904692486,1117.3337520865023,1143.7111881208664,1145.0741167230544,1126.690207149043,-153.29810555936393,-390.7728949282416,-294.89683185456204,192.00110305395535,158.3396887808539
