t,ang_acc_x,ang_acc_y,ang_acc_z,a_vel_x,a_vel_y,a_vel_z,quat_x,quat_y,quat_z,quat_w,acc_x,acc_y,acc_z,l_vel_x,l_vel_y,l_vel_z,pos_x,pos_y,pos_z,mot_1,mot_2,mot_3,mot_4,dmot_1,dmot_2,dmot_3,dmot_4,vbat
8.759999999999998,0.3711047852773911,0.173696522635131,0.5545618114296583,0.0014369919900484,0.0190476230804514,0.0069711775492371,-0.0014075065717826,-0.0004498526160519,-0.0333707502389285,-0.9994417930054332,0.0901393464270842,0.0348173129648759,9.746982057108896,-0.0153729712516495,-0.0193837125125115,-0.0026618933241731,3.477518602205388,5.04770394088688,2.0714513127249123,1143.9680025745126,1116.9896827045889,1124.4027942997322,1144.3404171283132,-20.83190468492505,102.21460989731207,-298.5529717693668,161.175651906817,154.61632651763608
8.762500000000001,0.6486013341547202,-0.0165744653413289,0.3589334261683172,0.002206294865725,0.0181674746893307,0.0070802587527533,-0.0014284952000646,-0.0004924793194725,-0.0333684298822365,-0.9994418298997092,0.0881859353652762,0.0386723793432826,9.74637619540854,-0.0153164781953475,-0.0191944189814566,-0.0028277488568298,3.477480756174089,5.047648677938142,2.0714463753438586,1143.817691977524,1117.3570403619603,1123.7809717119032,1144.7460051992489,-95.63127129739183,156.19626769764469,-197.72052410459403,138.4100572651516,154.61450939533887
8.765,0.8706500456014366,-0.1465646104262694,0.2441944949144089,0.0050161969553092,0.0173982151581887,0.0070959201712717,-0.0014430708759523,-0.0005387650038252,-0.0333614758457072,-0.9994420278571122,0.0861426999097377,0.0424706533089329,9.745999455693822,-0.0152556070777448,-0.0189833567849284,-0.0030044343808734,3.4774428368815093,5.047593696289347,2.071440963271971,1143.4898462180256,1117.7706640430772,1123.4141916792091,1145.032467414639,-173.87488158982526,168.93556168132542,-167.7386090906445,107.50359399882974,154.6130280190333
8.7675,1.0167695219857051,-0.2649714697768179,0.1905211899019302,0.0093157925012556,0.0170562056598708,0.0071418531069354,-0.0014531818766687,-0.0005833520991647,-0.0333516663789214,-0.999442326316955,0.0841102763674815,0.0461809533579362,9.745886267106595,-0.0151892853199984,-0.0187499688689801,-0.0031913079947032,3.4774047623290985,5.047538718579806,2.071435331378402,1142.948317569575,1118.201718170367,1122.94227866645,1145.2835231692427,-247.2897748833512,160.23448751560414,-239.48769813823887,96.47383062344589,154.611580863355
8.769999999999998,1.068798956816412,-0.3904799489569934,0.1881101570165096,0.0136667096785205,0.0168829857268467,0.006903709839895,-0.0014610412527781,-0.0006205697010237,-0.0333424999093457,-0.99944260770861,0.0821944041508494,0.0497774495818577,9.74606773231252,-0.0151170487582952,-0.0184944192550083,-0.0033873793787935,3.477366657373988,5.047483661018113,2.071429604744736,1142.253397343609,1118.571836480655,1122.216753188518,1145.5148365677562,-302.4902181202815,118.69907830480732,-373.0045602491699,86.23087100848822,154.61016217830579
8.7725,0.9989717434914568,-0.5391590440755601,0.2393608769901431,0.0171759955499398,0.0164071408833616,0.0065031295432458,-0.0014686093493686,-0.0006480418769797,-0.033336814998399,-0.9994427763112892,0.0804361705941779,0.0532341572153069,9.746570355199408,-0.0150389638964075,-0.0182177443705869,-0.0035913902131993,3.477328466621126,5.047429509540474,2.0714238417396853,1141.4358664789731,1118.7952135618912,1121.077255865204,1145.7146775242854,-363.4371158181125,54.93108738591269,-590.6865871611432,70.9757343484287,154.60877826375471
8.775,0.7907902217816147,-0.7509680657796511,0.3366102051937767,0.0201689438848484,0.0152793554184104,0.0065223130443638,-0.0014752367104477,-0.0006670012389773,-0.0333347485908668,-0.9994428280462084,0.0788052663703882,0.0564813011638276,9.747415170438696,-0.0149555882882448,-0.0179219178738447,-0.0038018380961011,3.4772895167082547,5.047377154766138,2.0714185139905394,1140.4362117645182,1118.8464919175847,1119.263320252712,1145.8697152394984,-346.47642634306595,-15.454335623556636,-707.8102238464043,29.89229874229435,154.60715876989215
8.7775,0.5353949200200535,-0.9514055227131942,0.417168577774989,0.0217858276984051,0.0140304100638562,0.0073638686045985,-0.001481321933219,-0.0006751724421278,-0.0333375517776187,-0.9994427222425571,0.0773431934685241,0.0594736057476444,9.748615348678594,-0.0148682356830519,-0.017609652069754,-0.0040165235308063,3.477250503408981,5.0473274614556365,2.07141351341554,1139.7034843472584,1118.7179418837732,1117.5382047459727,1145.8641390179969,-241.6086993962861,-74.13712973472339,-669.8123305905451,-49.36643584311314,154.6058445826205
8.779999999999998,0.2236068356763233,-1.16079906702354,0.4552804314616742,0.0226692933110851,0.0122960304734164,0.0093158985804876,-0.0014887331053642,-0.00066977606385,-0.0333488846421452,-0.9994423364972232,0.076106617386032,0.062201977159529,9.75017494556856,-0.0147790438619337,-0.017284139728394,-0.0042325081526453,3.477212995561721,5.047280764622268,2.07140758572284,1139.228168267537,1118.4758062689111,1115.91425859976,1145.622883060283,-116.90626285497264,-107.6659412792028,-601.2049225852448,-179.23732179780853,154.60456877519124
8.7825,-0.1824839668179532,-1.387680351773149,0.4125124331479425,0.0228450941799418,0.0088318667563759,0.012468553642789,-0.0014996466153587,-0.0006516125831706,-0.0333685136202499,-0.9994416753566048,0.0750865117251927,0.06467492289012,9.752088278270593,-0.0146906144192787,-0.0169489395564965,-0.0044462479640112,3.4771773336152285,5.0472367057294765,2.0713999764751394,1139.1189530329834,1118.1796121773773,1114.532180133046,1144.9679524090077,53.137688546749686,-88.4995602958359,-354.0996354012251,-305.1719064739223,154.60308458109859
8.785,-0.5226038631460926,-1.524312760972612,0.2919958863908674,0.0221298180136506,0.0046370633226864,0.0149724828167517,-0.0015130062597836,-0.0006248527040314,-0.0333941067142958,-0.9994408162883864,0.0742108855285193,0.0668500477969305,9.754340291990019,-0.0146058364327204,-0.0166076089477852,-0.004653822766575,3.477144052131767,5.047194345327542,2.0713897464189217,1139.4938567102708,1118.0333084674319,1114.1437604227535,1144.097023527913,250.08271586917064,-15.300308364115468,43.86721019455726,-403.9189935439375,154.60188881003486
8.787499999999998,-0.8333460462105808,-1.5731267854429165,0.0972015768251871,0.0204257760908762,-0.0003145407641051,0.0164483966633572,-0.0015250467226687,-0.0005953058553482,-0.0334238863299626,-0.9994398209886076,0.0733796699616759,0.0686433145894654,9.756906309458689,-0.0145276736237212,-0.0162634420722486,-0.0048511067595167,3.477113389773431,5.047152999005204,2.0713763403673333,1140.369366612329,1118.1031106355567,1114.7515161840188,1142.9483574412884,479.024823052048,97.21687737045005,493.8038086931693,-535.2340298604831,154.60073832303524
8.790000000000001,-1.1359062206149146,-1.5123394043587597,-0.1783616933974306,0.017160174714288,-0.0064162497657552,0.016425774790376,-0.0015348102025162,-0.0005637273246195,-0.0334534119527453,-0.9994388374686524,0.0725977793213708,0.0700322306711612,9.759750830248986,-0.0144587679105874,-0.0159195447126631,-0.0050337517213585,3.4770848922648314,5.0471128513873,2.0713596455998338,1141.8889808255315,1118.5193928542842,1116.6127794662195,1141.4208533786102,602.9507429871923,212.54160071631617,833.285564104114,-551.3616927379692,154.59941287691066
8.7925,-1.3057974192824815,-1.3677987122125204,-0.4029835318802836,0.0133886239676572,-0.0110424011547303,0.0148759597699667,-0.0015434441859031,-0.0005310191308555,-0.0334786392990431,-0.9994379978181372,0.0718734070840293,0.0710450845061892,9.76282867057345,-0.0144011647334006,-0.0155787242763436,-0.0051977795357449,3.47705726075088,5.047073784971686,2.071340297493496,1143.3841203272655,1119.1658186391385,1118.91794400454,1140.191548977598,594.889803289043,318.8829296157744,1002.3642502110026,-442.52610895677833,154.59835596311305
8.795,-1.3725167435491534,-1.1538616819388463,-0.5818244227361248,0.0088624628485681,-0.0143625958413338,0.0121994192574395,-0.0015517897095333,-0.0004999813502675,-0.0334978007099801,-0.9994373583025326,0.0711817324290639,0.0717143300282414,9.766087121144768,-0.0143561419472954,-0.0152433901978163,-0.0053400894706959,3.477028967928028,5.047035826241297,2.0713195318870326,1144.863429841976,1120.1138075023628,1121.6246007172736,1139.2082228338268,550.7705661000914,424.33662217389866,1082.195873504849,-330.4613676789561,154.59735005682506
8.797499999999998,-1.3538012013249878,-0.9133484931100492,-0.706823904280756,0.0044904063259925,-0.0164458160075537,0.0093350794311142,-0.0015620884724645,-0.0004704525626621,-0.0335115111678669,-0.999436895420715,0.0705595908354044,0.072105790059588,9.76946738633889,-0.0143242361325624,-0.0149155334694388,-0.0054585275370018,3.4769999476104565,5.046998910250146,2.071297753535332,1146.1379731577651,1121.2875017500076,1124.3289233720632,1138.5392421392037,425.79122893437375,514.4689651000241,1008.2954203881188,-183.37699079353885,154.59638731057075
8.8,-1.250236079415609,-0.6777017920731043,-0.7689147542209163,0.0013186063275286,-0.0174682129006894,0.0069124265812318,-0.0015771149243093,-0.0004388680152234,-0.0335217853735853,-0.9994365399675776,0.0701118775077611,0.0723003124454427,9.772907129613392,-0.0143053025684535,-0.0145967054880746,-0.0055520447190156,3.476970752101855,5.046963040537779,2.0712758776442537,1146.9923859866483,1122.6861523278633,1126.6660778192152,1138.2913378798587,260.2559904465172,648.2190666927532,881.8250250512832,-28.513072534992805,154.59547727466696
8.8025,-1.0615897501359193,-0.4352629693346257,-0.7919721181059735,-0.0012715840857816,-0.0179984966126964,0.0044322045921803,-0.0015940613578212,-0.0004051376280643,-0.0335294841561221,-0.9994362675203144,0.0698709986735684,0.0722775057058645,9.776344708573648,-0.0142984344919153,-0.0142879855282808,-0.0056211035650307,3.476941171779876,5.046928121332735,2.071254745715459,1147.439253109998,1124.5285970834718,1128.7380484973203,1138.3966767765287,74.61917771121655,681.7691907348936,623.8891448264771,76.25055652703549,154.59444655315608
8.804999999999998,-0.8713419483029518,-0.2799961731048512,-0.7898674368857268,-0.0033632169934053,-0.0181716269635685,0.0027276378260841,-0.0016088299175722,-0.0003731012279011,-0.0335331472097592,-0.999436131846134,0.0697888166045194,0.0719983246715148,9.779720362063646,-0.0143019809599602,-0.0139900266642849,-0.0056674646393842,3.4769108241699596,5.046893931913016,2.0712350873104577,1147.3654818752043,1126.094998281537,1129.7855235433467,1138.672590662494,-93.95202891904216,599.4959314409671,297.3405915908178,103.86889670083487,154.59363866068966
8.807500000000001,-0.6639886265373577,-0.175715860681274,-0.7913843183717024,-0.0056022220435976,-0.0182907378524517,0.0015275427911089,-0.0016190233029345,-0.000346312919247,-0.0335321531515564,-0.9994361567279209,0.0698203484894269,0.0714592305387186,9.782977655302982,-0.0143137737049972,-0.0137029905167488,-0.0056937869348625,3.476879500700638,5.046859695440114,2.071217429024736,1146.9694929654029,1127.5260767406771,1130.2247514552744,1138.9160212600327,-203.3275827881108,555.5904065379805,105.070405774888,51.5744347353949,154.59288328009447
8.81,-0.4171116810827355,-0.1006714974288834,-0.8179184663821644,-0.0073883980681256,-0.0183229329660443,0.0004435711226585,-0.0016212833792554,-0.0003262909427711,-0.0335251805654318,-0.99943639182231,0.0699546892428243,0.0706376139060518,9.786066297250414,-0.0143312371059928,-0.0134266136235931,-0.0057033751218254,3.4768466738043196,5.046825303120806,2.0712020770998154,1146.3488439612636,1128.8729503142274,1130.3108755722214,1138.930462836171,-219.34881554793532,405.08914289656656,2.533523751617899,-61.70896318236692,154.59203649081408
8.8125,-0.2332420335407674,-0.0684541163284854,-0.8635734802290581,-0.0077131185864746,-0.0183448392657854,-0.0004996805001015,-0.0016179282514658,-0.0003095316366466,-0.0335105962865944,-0.99943688807884,0.0702770617535427,0.0696183008170357,9.788941872814547,-0.0143516273700307,-0.0131603682247336,-0.0056995796300219,3.476812098543123,5.04679127256546,2.0711885093600166,1145.8727488876634,1129.5515224551596,1130.2374190740327,1138.6074764441212,-153.55963990467316,159.18986737509368,-13.798046108288888,-198.94316412623405,154.59137946946515
8.814999999999998,-0.0939367316687041,-0.0502250958747686,-0.9198140019831168,-0.0070848405879873,-0.0186126068043275,-0.0019512185966442,-0.0016121006083597,-0.0002911504064697,-0.0334895609415855,-0.9994376020743614,0.0708946988526421,0.0684998559588227,9.791568458664033,-0.0143722943650919,-0.0129033930437745,-0.0056857338624282,3.47677683197072,5.046757586695112,2.071175807820074,1145.5810457617404,1129.6688996511027,1130.24188534168,1137.93574701554,-73.21953433410037,-81.92901450478158,51.86257784979815,-346.8554414712711,154.5907712514712
8.8175,0.0117878426822068,-0.0238471020444529,-0.9652902640441876,-0.0058174542757565,-0.0191709525968724,-0.0047161500292195,-0.001605252776003,-0.0002708814150516,-0.0334635030005674,-0.9994384832627516,0.0718168009351038,0.0673482078879707,9.79392006588728,-0.0143907075277512,-0.0126545871667271,-0.0056651815923047,3.476741568590663,5.046723808846664,2.0711635479294355,1145.5066512159929,1129.1418773826356,1130.4967319632815,1136.8731992367643,13.456292953558375,-294.66956737310227,140.75425201983836,-398.22207304021646,154.5900953819785
8.82,0.0566408615146609,0.0133153934701792,-0.9554272358509152,-0.0049688388445906,-0.0196126708978746,-0.0079395059560998,-0.0015957088595172,-0.0002521742408331,-0.033434554039829,-0.999439462304282,0.072971290178906,0.066166879571123,9.795981345663288,-0.0144045365130453,-0.0124126533655579,-0.0056411805303554,3.4767061496579346,5.046690153751726,2.0711514190934888,1145.648327226508,1128.1955518142368,1130.945656601779,1135.9446366503387,79.46489258139754,-459.6372160670858,215.96751253400475,-335.8769552856061,154.58957506268803
8.822499999999998,0.0821979682589843,0.0730897996832364,-0.8691985560797315,-0.0047173357133383,-0.0198496343633095,-0.0115870133826872,-0.0015818363561449,-0.0002377722771945,-0.0334045262720031,-0.9994404818628976,0.0742934689571944,0.0649553696134901,9.797746586140562,-0.0144116988135166,-0.0121762497352244,-0.0056166510304304,3.4766699138377883,5.046656572887894,2.0711392431400246,1145.9039756788995,1126.8436913023006,1131.5765695259515,1135.1938144603369,101.56857269515288,-583.3695265325784,262.625856416348,-242.21603580109183,154.5890964147756
8.825000000000001,0.1167065517495052,0.1518343242612751,-0.7143429643402203,-0.004966975034996,-0.0198283775117574,-0.0147601317451985,-0.0015663574996456,-0.0002281432540866,-0.0333772469675763,-0.9994414104804032,0.0757607417117602,0.0637919415647036,9.799218052836338,-0.0144105067145084,-0.0119440472794369,-0.0055940185206563,3.4766325755421024,5.046623051457746,2.0711273887480224,1146.156170089984,1125.2787041815736,1132.2587858838613,1134.733556471333,78.12508129544456,-644.0532391995378,256.86313518672785,-93.45909186652892,154.58864990948047
8.8275,0.1890567840734068,0.249310612952864,-0.49086121687589,-0.0057569882915517,-0.0194128919086366,-0.0166897019513538,-0.0015502361716819,-0.0002260310050654,-0.0333531863917619,-0.9994422306456884,0.0772989108295491,0.0627165969022018,9.800406983034918,-0.0143996145791511,-0.0117148825148218,-0.0055754810058598,3.4765945361465977,5.046590211933241,2.0711161576472845,1146.294601085377,1123.6234251063024,1132.8608852018851,1134.726519001004,17.780691144211133,-708.513844421127,214.9831677265384,102.67398762127635,154.58823896029122
8.83,0.337654785966572,0.3798473523107805,-0.1779237979903362,-0.0066266814937334,-0.0183934295168197,-0.0174856944309971,-0.0015350054972705,-0.0002298886261899,-0.0333309333936161,-0.9994429879278864,0.0789136308479949,0.061772100003014,9.80133186063616,-0.0143782540252584,-0.0114877535028977,-0.0055627054994778,3.4765568245189407,5.046558810926841,2.0711055141002825,1146.245073545705,1121.7361349594687,1133.3337017224935,1135.2469264094393,-54.34571864444651,-652.096693433116,117.34906976387325,260.58806746223763,154.58778268000356
8.832499999999998,0.5083471006158254,0.4942768645860821,0.0923533198418314,-0.0064764444406808,-0.0171413862250853,-0.017184839277703,-0.0015254382234759,-0.0002325129037688,-0.0333119261836492,-0.9994436278445928,0.0807210739323166,0.0610551810511348,9.802016398505124,-0.0143463718666208,-0.0112616408456952,-0.0055566536531589,3.4765206625605702,5.046529094242316,2.0710948836008645,1146.0228724921549,1120.3629416391375,1133.4476305507046,1136.029459338315,-111.97476329123742,-491.45804923324744,-17.738059607424432,347.4248818954405,154.5874301005449
8.835,0.7037557072299243,0.6105675182890824,0.3443122489511741,-0.0051565976540804,-0.0157226300560036,-0.0162072807970028,-0.0015220803537862,-0.0002313073884449,-0.0332988006885913,-0.9994440597964538,0.082742527267193,0.0605769725909034,9.80249036127992,-0.0143043245895048,-0.0110353441584602,-0.0055580106686612,3.476486454162415,5.0465009097972535,2.071084012964649,1145.6851997292488,1119.278844713302,1133.2450114244566,1136.9840508189168,-144.38036959343225,-406.93268385260126,-155.37581373166475,410.008681759045,154.58710263551114
8.8375,0.9285982806139528,0.750741583814537,0.6018964978637318,-0.0027256148052589,-0.0142908927400063,-0.0144933646166424,-0.0015222451406392,-0.0002274705318822,-0.0332939862594026,-0.999444205504146,0.0849214843398949,0.0602820828210886,9.802787927192153,-0.0142526053638303,-0.0108074058080346,-0.005567141599931,3.476453388033475,5.046473174072524,2.0710730428116078,1145.3009706441876,1118.328278219874,1132.670751482046,1138.0795027471106,-111.05982995879847,-296.8782715479528,-255.77452388789052,362.80454954242424,154.5867346290202
8.84,1.0795427227441248,0.8645360251742265,0.7672047703789872,-0.0002228707635801,-0.0130697225948195,-0.0128333018504057,-0.0015213777388771,-0.0002269874467693,-0.0332979391538475,-0.9994440543654076,0.087105476584136,0.0600763456269277,9.802946037890383,-0.0141915817406941,-0.0105761375711511,-0.0055841022511144,3.476420316496189,5.046444820034446,2.071062005870162,1145.129900579455,1117.7944533555626,1131.9661388050174,1138.7980735666283,-10.446797573060651,-175.85074965217106,-316.98599876396594,225.142144310302,154.5864458260581
8.842499999999998,1.160622707022528,0.9616022631878728,0.8698289623146733,0.0028482948091074,-0.0109961733664732,-0.0107472907272653,-0.0015188491287572,-0.0002329580262647,-0.0333077720890793,-0.9994437015448964,0.0892005619581068,0.0599359464058043,9.80300134363584,-0.0141214834548659,-0.0103398224609056,-0.0056083100921284,3.4763869833849004,5.046415199747561,2.071050590659247,1145.2487366563223,1117.4490244716135,1131.0858214882267,1139.205213468662,134.68904931439903,-133.01079721607232,-420.0523520696859,103.44213770729968,154.5861721490984
8.845,1.1455941042313007,1.0347514540756717,0.9091066427691428,0.0072928629817837,-0.0074450049915194,-0.0075055686326173,-0.00151285957139,-0.000246332360864,-0.0333201340709713,-0.9994432617855132,0.0911548856845365,0.0598086651095816,9.802990341664279,-0.0140424999087447,-0.01009679699847,-0.0056387183873154,3.476353145003604,5.046384362136521,2.0710381922951964,1145.8033458260268,1117.129399369482,1129.8658770446687,1139.3152842551651,268.58191509473164,-119.67770456351847,-472.9911223024544,-12.151707585233371,154.58585734405693
8.8475,1.0257926224049374,1.0454286602342948,0.8684808179080366,0.0113469043170483,-0.0042292078267294,-0.0044728192532002,-0.0015056798470501,-0.0002646494019629,-0.0333316018862289,-0.9994428484396995,0.0929874481640362,0.0597166697680591,9.802946832338833,-0.0139549029132767,-0.0098457610354961,-0.0056737717247895,3.476318699781649,5.046353128068313,2.071024251597585,1146.591646231796,1116.8506359487956,1128.720865876714,1139.1444549307355,361.4007399646008,-129.3381495567958,-483.92237422900126,-99.74339061215852,154.58560363100165
8.849999999999998,0.798212276597171,0.9980919006805248,0.7598825295849765,0.0148000053126589,-0.001342577975711,-0.0017841116037059,-0.0015010635863957,-0.0002828106282759,-0.0333447679366125,-0.9994423733166632,0.0947731867545059,0.059707075429366,9.802901783800845,-0.013859272704641,-0.0095857860676603,-0.0057116708466508,3.4762840330895046,5.0463223473619605,2.0710087004646995,1147.6103495258496,1116.4827086216983,1127.446265173524,1138.8165673021044,419.185846422013,-162.7941085865332,-528.0292828166323,-137.4355544204958,154.5853559849603
8.852500000000001,0.5011758144368155,0.905897648486249,0.611468760431556,0.0170956281900849,0.0012198596353018,0.0002570546985557,-0.0014981639010887,-0.0002991483527975,-0.0333610806716765,-0.9994417934171964,0.0965188159398977,0.0597383497122467,9.802884673645712,-0.0137563722625738,-0.0093165486186645,-0.0057508816285922,3.476249403930012,5.0462923026675774,2.0709919818573033,1148.6875754639063,1116.036665405863,1126.0807194626304,1138.4572771586331,406.6578474595009,-180.28306439311473,-557.5254812351924,-131.38731828724067,154.5851115732996
8.855,0.1594968029413728,0.7692264195868616,0.4435900986316023,0.0177621779851999,0.0035015809370787,0.0012935900606337,-0.0014974253679507,-0.0003143062963384,-0.0333807850523454,-0.9994411060053248,0.0981889607990571,0.0597964420528077,9.802921580729697,-0.0136472040157549,-0.0090384096903911,-0.0057901712451828,3.4762155583000047,5.046263523531818,2.070974800272723,1149.6436387631475,1115.5812932997324,1124.6586377673475,1138.159630710668,345.3570454624474,-158.26224404912375,-616.7386697556911,-101.664292694679,154.5848693356028
8.8575,-0.2467099005572946,0.5718205665930838,0.2573071703421539,0.0168641986186996,0.005844668003195,0.0011671167075807,-0.0014949144451212,-0.0003322090071441,-0.0334036463455055,-0.9994403289167012,0.0996838764236834,0.0597856641880672,9.803036685243987,-0.0135329744333653,-0.0087522876254277,-0.0058288533760258,3.476182978754368,5.046235901079659,2.070957515023724,1150.4143606912185,1115.2453541856175,1122.9970261138524,1137.9489556951598,193.86350403355428,-45.73820527353747,-582.6349446859945,-49.99242569239044,154.5845795039693
8.859999999999998,-0.5468401644985126,0.3972139992266854,0.1340919090915292,0.0150097976052776,0.0070415989273808,0.0002586019041451,-0.0014931377613981,-0.0003519378039641,-0.0334277940245507,-0.9994395218354776,0.1010055627107335,0.0597367206703644,9.803248923001286,-0.0134150576967173,-0.0084597518435616,-0.0058663970057942,3.47615147152656,5.04620902575336,2.070940698059319,1150.612956283315,1115.3526022733647,1121.7454630439183,1137.9096685822062,-26.701506419517877,171.5481842505328,-451.92367578094706,8.61604718306673,154.58433788975483
8.8625,-0.778650573146201,0.2362645716171096,0.0477544706678383,0.0122557816512314,0.0068976349950486,-0.0002955792690341,-0.0014910280915759,-0.0003751187755031,-0.0334503064399447,-0.9994387812663164,0.1021065401906557,0.059616388897058,9.803575167811875,-0.0132947866898337,-0.0081628622475695,-0.0059027656650723,3.4761204608307685,5.046183147055952,2.0709252033629193,1150.2808531591209,1116.1030951068703,1120.7374077349475,1137.9920359310752,-260.3223112477783,510.24908098889887,-369.9962477183694,55.5034999510012,154.5840957119883
8.865,-0.9668663835393512,0.0776773344304529,-0.0312776197789474,0.0085412672010451,0.0058585945837249,0.0001201550176989,-0.0014899265417685,-0.0003955966151475,-0.0334702225230387,-0.9994381349635068,0.1030966451736247,0.059438576146828,9.804028081414268,-0.013173532845859,-0.0078641226533589,-0.0059378874377536,3.47609042703061,5.04615918267934,2.0709113721938643,1149.311344727076,1117.9038476783098,1119.895481805326,1138.1871860819613,-429.9771326863211,804.7968294187976,-240.3664396539194,82.83059203078494,154.58380447526383
8.867499999999998,-1.0559912613240299,-0.0271048274462322,-0.0927174930754579,0.0058086535982578,0.0054866465109464,0.0008589124360588,-0.001495022389216,-0.0004043657603877,-0.0334878251077958,-0.9994375658509188,0.1041468571652164,0.0592963218869637,9.804616042150695,-0.0130525361804921,-0.007566415068451,-0.005971541994827,3.476061906041877,5.046137658207417,2.070898931710659,1148.1309674956897,1120.1270792539635,1119.535575536678,1138.406188891229,-514.2869114325655,993.907500514596,-69.10841439111039,100.33571194451974,154.58356162938907
8.870000000000001,-1.0946146470254237,-0.1194487773949676,-0.1584471431012557,0.0036597383992075,0.0059688714466278,0.001120579647104,-0.001505160052642,-0.0003991191500847,-0.0335008278295992,-0.9994371488383974,0.1052941111931387,0.059168769308907,9.805346520026122,-0.0129325679389239,-0.0072727768709297,-0.0060035407501548,3.4760346846556143,5.046119102263972,2.070886839159429,1146.7399101699127,1122.8733851808836,1119.5499397333704,1138.688864641684,-562.9314961957817,1126.8479200758122,69.4675657431963,129.90643851956307,154.58331929970535
8.8725,-1.1060322972558587,-0.2127413506751791,-0.2250855903937223,0.0017438930781938,0.0064281624767186,0.0009138265878651,-0.0015182376412852,-0.0003817020992084,-0.0335080402062668,-0.9994369240950703,0.1064950362845974,0.0590247151339043,9.806224466348612,-0.0128138337725328,-0.0069860750334152,-0.0060334198076702,3.47600820787766,5.046103921699987,2.0708739394582447,1145.3163100147103,1125.7613188543435,1119.882913365394,1139.0557210838267,-547.4124865089104,1104.5987875459027,211.42968525454876,177.89866180618347,154.58307796413283
8.875,-1.0938327444685096,-0.3095708047194535,-0.2833143048128443,-0.0001159453028431,0.0064685421646188,0.0002966332141819,-0.0015279622379841,-0.0003620771337167,-0.0335074372724396,-0.9994369621900144,0.1075450512345084,0.0587610585281278,9.807253481092545,-0.0126957619565145,-0.0067086704191274,-0.0060605945088574,3.4759812844948463,5.046090973500592,2.0708597852890342,1144.0028477373687,1128.396379118612,1120.6070881596431,1139.5783579507147,-526.3862486917925,1000.091453396152,407.2917070176018,277.10412599472926,154.58283857402296
8.877499999999998,-1.0492377075740236,-0.4183134290164769,-0.3291628173028152,-0.0026207235651772,0.0058315643144734,-0.0008360989911492,-0.001530072177803,-0.0003490503233389,-0.0334963601962187,-0.9994373538424755,0.1082637645145166,0.0583175477736905,9.808433528602624,-0.0125771224797002,-0.0064421823235385,-0.0060841621932485,3.4759529087569767,5.046078842786956,2.070844259780567,1142.6843787712519,1130.7617761213232,1121.9193719004816,1140.4412417138003,-432.39634211802303,683.3703233851178,547.6326553344333,356.93641658798566,154.58255459975598
8.88,-0.9763659450894884,-0.4870052879809723,-0.3383958182769437,-0.0051459490816551,0.0045228913656765,-0.002069035695144,-0.0015235134187119,-0.0003499247289027,-0.0334740747254714,-0.9994381237062052,0.1085028630349555,0.0576980149462502,9.809760658471912,-0.0124562428133392,-0.0061872916116822,-0.0061030683366707,3.4759218978318343,5.04606703426604,2.070827926779577,1141.8408660267783,1131.813230735538,1123.3452514363155,1141.363040033655,-286.4326089480989,208.6594523377372,619.6574320605064,400.02195665695695,154.58232152010393
8.8825,-0.8504611917193432,-0.5133097463408612,-0.3123211991142686,-0.0080343394375433,0.0026111618876273,-0.0034480391691403,-0.0015085114774739,-0.0003650326797795,-0.0334380293282377,-0.9994393585182996,0.1082512005550989,0.0569277955695792,9.811227293633058,-0.0123313756197539,-0.0059437921819403,-0.0061161636380847,3.475887864373317,5.046055116455733,2.0708111527620554,1141.2522157265112,1131.805073383012,1125.0176590607848,1142.4413514970854,-211.9579672662861,-219.18638587612617,756.8256889942089,483.1994976310904,154.5820931908573
8.884999999999998,-0.6280840067225248,-0.483050975700399,-0.2450561695235084,-0.0111704433885163,0.0001744561626413,-0.0047485068034124,-0.0014878799285169,-0.0003883344048891,-0.0333899291456955,-0.999441001215481,0.1076257473643127,0.0560777146673364,9.812822289558888,-0.0122012245768027,-0.0057105165902527,-0.0061223077049999,3.47585192746565,5.046042272570448,2.0707942094449607,1140.781076190447,1130.7172988061575,1127.129379881286,1143.7790375218099,-144.18070227577593,-528.2527759755878,760.5088483956198,472.09855697507817,154.581825995207
8.887500000000001,-0.3870961661479904,-0.4078669527201559,-0.1697835089438733,-0.0130482426614864,-0.0016274874326447,-0.0050501617393288,-0.0014648087464172,-0.0004137512731031,-0.0333407180813977,-0.9994426827159908,0.1067477503139497,0.0552230548426237,9.814532529940504,-0.0120653218791188,-0.0054853474992671,-0.0061206034529172,3.475815786094582,5.046028216198422,2.0707773553844553,1140.531312215132,1129.1638095031335,1128.8202033027635,1144.8018442819612,-79.87160449805401,-678.1902521080459,625.7407744928446,360.3495872965032,154.5816100127507
8.89,-0.1051982038405723,-0.2957380392528788,-0.0892777012291487,-0.0140585362200709,-0.0028185687830629,-0.0047715955895008,-0.0014394806111803,-0.0004377588135982,-0.0332967593210532,-0.9994441891651814,0.1056873162304983,0.0543789388977062,9.816344581235047,-0.011924056713992,-0.005265757559677,-0.0061105094425353,3.475780422875651,5.0460129096383,2.0707601793505503,1140.3817181679567,1127.3263475456167,1130.2580837537507,1145.5807854582927,-43.32044836047269,-785.769632798403,542.292830977584,262.2229559015135,154.581402247508
8.8925,0.2492565615031022,-0.1471014228514254,0.0043846710459771,-0.0141396994694384,-0.0030931515882722,-0.0045802304023938,-0.0014113793238966,-0.0004595196730961,-0.0332605504330836,-0.9994454370922384,0.1044634726939745,0.0535446889583095,9.818244675390092,-0.0117787251326696,-0.0050490898511374,-0.006091825661056,3.475746593462401,5.045996713671901,2.070743021445854,1140.3147099733299,1125.2349613391425,1131.5316674576509,1146.1129590614685,3.6443983271517912,-696.9868270227857,379.776235792072,120.9554836727661,154.5811640104174
8.894999999999998,0.5305009003777451,-0.0327661330248171,0.0792902651416085,-0.0130070936793356,-0.0025272361152431,-0.0047110546949583,-0.00138392069713,-0.0004761241993148,-0.0332344431901925,-0.9994463440904534,0.1031423947316085,0.0527907214223051,9.820217794717268,-0.0116315210522415,-0.0048327772404401,-0.0060645509131691,3.475715150199121,5.045980218711201,2.0707260640191865,1140.3999401595925,1123.8414134105035,1132.1569649327107,1146.1855628766564,85.17468724092883,-447.531764550352,161.36098914705352,-43.865680547371504,154.58097592977995
8.8975,0.764094569276968,0.0556023745184633,0.1504865699058339,-0.0107525193862423,-0.0017373569728132,-0.0047841480568026,-0.0013606786680492,-0.0004856310813091,-0.0332177263937993,-0.9994469301992815,0.1017753990180222,0.0521865744012484,9.822249461110413,-0.0114852406163598,-0.0046145606933662,-0.0060289965097791,3.4756858051737467,5.04596379848678,2.0707092184025475,1140.7405834095343,1122.9973025163904,1132.3384724033863,1145.8936306587316,197.78163278785175,-235.99886605544216,11.645731422002424,-166.7934540050931,154.58080022170958
8.9,0.93898513955989,0.1201324554695499,0.2147842400154813,-0.0080647511663465,-0.001041236204322,-0.0044219647328021,-0.0013460466484253,-0.0004861787728201,-0.0332104417489053,-0.9994471911435244,0.1004181570491837,0.0518131556688731,9.824326011354012,-0.0113430544453993,-0.0043925315264632,-0.0059857455880789,3.475658421992079,5.045947867582044,2.070692646838871,1141.3888483235319,1122.6614190802263,1132.2151935898207,1145.3515956066308,350.20078227178294,-15.56625593839581,-97.1943404831757,-258.9703941439044,154.58063596948446
8.9025,1.0300525316744944,0.1625614057014977,0.2631164589384799,-0.0051444009189726,-0.0005794045664923,-0.0034460467691865,-0.0013451240789432,-0.0004738943387649,-0.0332168398644328,-0.9994469822855048,0.0991725633823057,0.051759390195294,9.82643490109529,-0.0112082822438404,-0.004165115035661,-0.0059355919447668,3.4756337979460823,5.045932765452047,2.070676367076171,1142.4915873208931,1122.9194712366984,1131.8525007009705,1144.5987786880123,591.3155997040388,232.8096772695525,-176.16847375451337,-354.11266371604813,154.58048704724496
8.904999999999998,1.037441307605809,0.2019650129855663,0.2965296326356375,-0.001439061092912,-0.0002881299861195,-0.0021183494124065,-0.0013567714953458,-0.0004497798855977,-0.0332377215325163,-0.9994462773204617,0.0980448956450935,0.0519916050159479,9.82856710676418,-0.0110839203323007,-0.003931182440291,-0.0058797268276003,3.4756116615667003,5.045918249245966,2.0706605307946324,1144.3454263220515,1123.8254674665739,1131.3343512210483,1143.581032288051,749.3495698804702,413.58833497809326,-177.6062698950859,-374.9819589604936,154.58032810997415
8.9075,0.9632638165627858,0.2349128187506156,0.3052883720542343,0.0016527405413272,-0.0001916103329298,-0.0012072309140403,-0.0013751611734744,-0.0004168000933519,-0.0332693122537966,-0.999445207840926,0.0970029310215812,0.0523828976374674,9.830716609333482,-0.01097233215818,-0.0036901017407362,-0.005819599447689,3.4755914934027565,5.045904121969816,2.0706455122715353,1146.238335170296,1124.9874129115892,1130.9644693514947,1142.7238688932096,784.6370059549964,525.4836633635565,-114.12522627932084,-329.9402305457473,154.58021366284015
8.91,0.8220273032524663,0.2743187535122024,0.3011893679659858,0.0044539686428702,-0.000116951603679,-0.0005934818351181,-0.001391357394227,-0.0003812059732785,-0.0333069068053478,-0.9994439404115056,0.0959505688234213,0.0527456844097731,9.83287996204356,-0.0108749732331726,-0.003441709187837,-0.0057568355568259,3.4755725956111423,5.045890433946738,2.0706320105062073,1148.268611351827,1126.452885783392,1130.7637250896516,1141.931331135322,855.4804893747923,684.2227416595048,-44.98808966251076,-325.6178258526427,154.58011944503212
8.912499999999998,0.6083194265388114,0.3262607875352235,0.2903511341589781,0.0068527168584492,0.0001311394858717,-9.265050612179965e-05,-0.0013991541809717,-0.0003511068749782,-0.0333446733538051,-0.9994426761060488,0.0947581797555957,0.0529465455646707,9.835054387978534,-0.0107922162783608,-0.003186421070898,-0.005693003754622,3.475553255071924,5.0458774216266065,2.0706197894246365,1150.5157376171692,1128.408526619886,1130.7395289031824,1141.0957797639467,740.8773048455465,723.2319952345058,15.699536939152768,-285.5881256822167,154.58003071957816
8.915000000000001,0.424551710526923,0.3639530985614505,0.2800839010389387,0.0073861464263583,0.0006138691695609,0.0002742369125573,-0.0013938304732772,-0.0003322011722975,-0.0333774003268887,-0.9994415954227444,0.0933445616717719,0.0528799355439109,9.837237314773821,-0.0107233930757039,-0.0029251860987193,-0.005629349554414,3.4755319080325537,5.04586563293067,2.0706092631175634,1151.9729978760552,1130.0690457595651,1130.8422227743474,1140.5033905069104,448.3283907872855,631.9530414141276,39.52328899189816,-215.38054441122128,154.57997711494977
8.9175,0.268399772109289,0.3774466578677189,0.2678590349504347,0.0064153155294594,0.0015334315159027,0.0007788802262048,-0.0013793262354043,-0.0003236920732043,-0.0334026658597812,-0.9994407728902728,0.0917610206377648,0.0526074919532652,9.839423638128201,-0.0106670471499728,-0.0026594490926345,-0.0055664651811782,3.4755081994226686,5.045855957359871,2.07060022641482,1152.757379571106,1131.5682918269572,1130.937145348142,1140.0188770418904,163.17237789493055,572.3126144124992,2.9113178297854,-187.33586903703412,154.5799439208249
8.92,0.1254496905607611,0.3411898553032756,0.2453374848691453,0.0049664589040283,0.0031946294553635,0.0017115385056899,-0.0013617071325409,-0.0003213961052977,-0.0334222479735764,-0.9994401406774454,0.0901250365244854,0.0522324427785545,9.84160675958204,-0.0106212116030962,-0.0023908693194244,-0.0055042143245031,3.475482962612244,5.045848833336842,2.0705915948245406,1152.7888597655299,1132.930608831627,1130.8567793634963,1139.5667111617256,-136.04895968535834,393.23014264508487,-84.10813703455315,-142.38385745373412,154.57992592088533
8.922499999999998,0.0280577839433497,0.2532916179563871,0.2160728469021601,0.0045552044940631,0.0048911031912721,0.0027855698471398,-0.0013447352311038,-0.0003249220265057,-0.0334359352891758,-0.9994397004945536,0.0884736338606843,0.0518181770669523,9.843779138527712,-0.0105835786972389,-0.0021211477021377,-0.005441797347951,3.475456878255116,5.045843564156721,2.070582526409727,1152.0771347726793,1133.5344425401822,1130.5166046629693,1139.3069577546219,-407.4423453212876,105.23120625678705,-205.54166470821167,-76.72215057485738,154.5799271952961
8.925,-0.0840419768647568,0.1013587204923283,0.1769860493278639,0.0055383432863165,0.0063718405771328,0.0039674542579553,-0.0013304163809645,-0.0003346056780387,-0.0334421780505518,-0.999439503061133,0.0868233048540521,0.0513972443813001,9.8459311466137,-0.0105517336473292,-0.0018517814517705,-0.0053777063248504,3.475430066073524,5.045839415204621,2.0705718100682047,1150.7516480389231,1133.456764862911,1129.8290710399551,1139.1831004088513,-594.3102492355573,-146.89178174692165,-329.00380960272145,-24.69050035883425,154.57994232155394
8.9275,-0.2345653019126236,-0.0940488788507458,0.1382020903878391,0.0074127019209563,0.0071553561984438,0.0048155652017645,-0.0013169102398196,-0.0003499267241229,-0.0334434776357492,-0.999439469936202,0.0852004963140136,0.0509290096074792,9.848050861619075,-0.010523324809121,-0.0015837935763848,-0.0053098762810581,3.4754023647430046,5.045835638347428,2.070559119986852,1149.105583526501,1132.7999836314475,1128.8715856149552,1139.1835052528277,-680.3022050842618,-382.05895403569554,-428.5730575316336,33.49013262282581,154.57996616815524
8.929999999999998,-0.4383009137574515,-0.3166176463011478,0.1186510882738101,0.0089021578932762,0.0067344653380596,0.0045369840726658,-0.0013039591202522,-0.0003673608750208,-0.0334444862967543,-0.9994394493086616,0.0836868820536969,0.0504051396009241,9.850122260685023,-0.0104962066441868,-0.0013178126218997,-0.0052358998820268,3.475373574390401,5.04583152575762,2.0705448091965577,1147.3501370135025,1131.5464700927328,1127.6862057522972,1139.3505510719651,-726.6037215003735,-637.1491326242361,-536.0448529915701,116.23411167172893,154.5799972075316
8.932500000000001,-0.7087521705326527,-0.5750677176218469,0.1393594733070248,0.0084159269069827,0.0051827246230469,0.0030562088792616,-0.0012907397001469,-0.0003852506103155,-0.0334432558372479,-0.999439508141208,0.0823202605427749,0.0498107355032124,9.852125877706984,-0.010468522683184,-0.0010543211050564,-0.0051534350611027,3.4753438718009297,5.045826816228284,2.070529474953374,1145.4725649189986,1129.6142379683258,1126.1913613499971,1139.7646758111864,-607.6680569763497,-729.8280550325438,-528.6947968029009,188.1740214721664,154.5800394109378
8.935,-0.9068230300438744,-0.755025172180726,0.1942911321583636,0.0059605661333805,0.0032640400040959,0.0019610570977774,-0.0012814075675584,-0.000397749956366,-0.0334388971816261,-0.999439671823454,0.0812195490766773,0.0492289523727696,9.85403760364692,-0.0104389559066415,-0.0007936984866962,-0.0050603038295571,3.475314114010931,5.0458221023423535,2.0705132093443015,1144.3117967286203,1127.8973298175697,1125.0427317682825,1140.2914211793263,-349.7602556135703,-647.3371445791068,-404.546371646928,243.7985280066672,154.5800770444933
8.9375,-1.014793609899928,-0.869451170688677,0.2638736052670333,0.0022163103169217,0.0008571252409788,0.0020204617835788,-0.0012787006237307,-0.0003982463265272,-0.0334347211877307,-0.999439827050939,0.0805144890098358,0.0487169647443366,9.855831084066352,-0.0104067572492168,-0.0005362232292073,-0.004954782954923,3.475285972708359,5.045818056845272,2.07049591738724,1143.723763640931,1126.3775522454307,1124.1686294917629,1140.9836684512195,-122.05286768992364,-565.6994872811299,-291.3013820865342,330.95906489736296,154.58011618072405
8.939999999999998,-0.9893687061075956,-0.906232256591588,0.3152896262595668,-0.0029284481158879,-0.0024931722026132,0.0036061681096351,-0.0012825488824273,-0.0003885238679503,-0.033432195773331,-0.999439920787427,0.0801635074809907,0.0482845121907235,9.857479201452398,-0.0103715305982681,-0.000282252860895,-0.0048359717629138,3.475259992772489,5.045814921005094,2.0704784507878777,1143.7015323901708,1125.0688323811646,1123.58622485785,1141.9462165038128,88.67875131385041,-370.9289981825225,-123.95077287835984,363.88114186178194,154.58016483516428
8.9425,-0.8252445082999785,-0.8428409497833794,0.2965425180389282,-0.0073343166675636,-0.0056439655369606,0.0059791946827638,-0.001291652311264,-0.0003741629678156,-0.0334333954379034,-0.9994398808985134,0.0800465373516439,0.0479214711267854,9.85895479056436,-0.0103330374220074,-3.219232532846557e-05,-0.0047038122754774,3.475235058690862,5.045812704478184,2.0704614518103353,1144.1671573975004,1124.522907254518,1123.5488756273708,1142.8030741605287,248.75947538999503,-105.48855807731512,78.9092904560552,340.74884820924257,154.58020753465988
8.945,-0.5306184973797415,-0.6839199279909882,0.1914016122242973,-0.011017181944064,-0.0088198881955635,0.0087032484075681,-0.0013031122122911,-0.0003600092061755,-0.0334375529216128,-0.9994397340331098,0.0800539940059102,0.0475873108338201,9.860232047311925,-0.0102910243591898,0.0002134624909586,-0.0045590228262951,3.4752097405204454,5.045811359188408,2.0704451792685217,1144.9453297671207,1124.541389590778,1123.9807713101304,1143.6499607448593,328.2657446084357,82.43238805595686,241.24366552414608,328.2266277827346,154.58025428118472
8.947499999999998,-0.1682634217670228,-0.4622706053649932,0.0212515092418445,-0.0130881135969524,-0.01131866590279,0.0106825565185771,-0.001315250963232,-0.0003482241954625,-0.0334435795599797,-0.9994395183015792,0.0801283351961367,0.047264838256062,9.861287247901313,-0.0102451953214922,0.0004541912658084,-0.0044030139480799,3.4751833216150594,5.04581108323626,2.0704302305442144,1145.8084861205423,1124.9350691947975,1124.7550939549915,1144.444207299442,325.1853762773354,213.2917108301293,370.3225260085095,296.17657201688337,154.58030635830025
8.950000000000001,0.2023300135540837,-0.2033353580008629,-0.1904768976209353,-0.0124401220769135,-0.0122331199253953,0.0106386712445546,-0.0013252925506097,-0.0003395282691392,-0.033448681441598,-0.9994393316559732,0.0802384606185158,0.0469148428457555,9.862100697827811,-0.0101953039448336,0.0006895063679683,-0.0042378130980104,3.475155733979525,5.045812018327503,2.0704168305000263,1146.5712566485079,1125.6078481449288,1125.8323839401733,1145.130843604944,272.1301837231779,316.1573384492801,506.136106683528,267.2346060589044,154.5803673735331
8.9525,0.5580559706445468,0.0900326320344014,-0.4287076916922744,-0.0089391353253218,-0.0115725448927901,0.0083414728998742,-0.0013348656965643,-0.0003290107794057,-0.0334520482926804,-0.9994392008520406,0.0804674341885998,0.0465811096218668,9.862656490789728,-0.010141347872119,0.0009190761905266,-0.0040658297360659,3.4751277528589393,5.045814236350018,2.070404901152095,1147.1691370391584,1126.5158558870444,1127.2857744884095,1145.7803803297368,150.64356603291614,325.6198611833236,529.0718902150873,201.4851936134565,154.5804534269528
8.955,0.7266999131643446,0.2798037373928793,-0.5745904507351619,-0.0047727763801055,-0.0099436304341879,0.0055833984992026,-0.001346623939815,-0.0003112351968437,-0.0334566383010336,-0.9994390257649688,0.080910656193431,0.0463264646239728,9.86294435038011,-0.0100836206881975,0.0011428958020209,-0.003889799077765,3.475100640949,5.045817380711439,2.0703943718542726,1147.3244744786723,1127.235947450845,1128.477743391248,1146.138269573011,-8.027970779268577,265.7121632318723,439.1376455650935,95.21441115504861,154.58053701672557
8.957499999999998,0.7378765134843026,0.3808209887388313,-0.6420915383468221,-0.0006448290732563,-0.0075735006689722,0.0030218591599314,-0.0013599084275138,-0.0002864007580298,-0.0334628541061343,-0.9994387942771173,0.0815507374292403,0.0461508474383682,9.862961404416849,-0.0100226466429231,0.0013612666434541,-0.0037127428579486,3.475075104164659,5.045821193810353,2.070385161903201,1147.128997185262,1127.8444167032035,1129.4814627162343,1146.256452385512,-142.16690236046412,240.22829660844647,371.07714714442074,-12.355493150423968,154.58063358264369
8.96,0.5931913637971545,0.3916563766482905,-0.6330745532121753,0.002846811909395,-0.0047350229001497,0.000579068747913,-0.0013744279813397,-0.0002586074467757,-0.0334681644240173,-0.9994385917472288,0.082294564437563,0.0460620483557337,9.862711536693247,-0.0099590553717733,0.001574787560273,-0.0035377917026458,3.4750508229078023,5.0458254829341405,2.070377042482028,1146.6136399668699,1128.4370889338875,1130.3331291269703,1146.076492107259,-206.20108055087672,198.8938120071596,245.65969858209223,-120.23494734615208,154.58076424749075
8.9625,0.384211419095821,0.3242154470549196,-0.5622608462561431,0.0039637421781329,-0.0030784719371713,-0.0009721539234548,-0.0013847475881346,-0.0002345505984474,-0.033470126559924,-0.9994385069661276,0.0829964716439025,0.0459654709672936,9.862206614188567,-0.0098934082603192,0.001784448176605,-0.0033680177132962,3.4750270160296166,5.045830180361402,2.070370289803906,1146.0979917825075,1128.8388857632394,1130.7097612091452,1145.655277648781,-184.34202164020488,147.53857450526291,87.16687787047617,-214.35841695760877,154.5808846595253
8.965,0.1452812755951805,0.2144722375581908,-0.4447820264272781,0.0035758718833441,-0.0025015459826185,-0.0021736663767666,-0.0013858322400201,-0.0002207046000115,-0.0334664569157672,-0.9994386242864224,0.0835177660967336,0.0457710593705236,9.861464629635677,-0.0098261116781402,0.0019915633247043,-0.0032062507177888,3.475002988663196,5.045834995026237,2.070365453453784,1145.691929858669,1129.1747818064136,1130.7689635163229,1145.004700022471,-114.35830840812288,134.53394463083845,-25.61208155321365,-312.9384938676307,154.58101532489383
8.967499999999998,-0.1156059325703124,0.08453611959785,-0.2732699395853416,0.0023388993044968,-0.0028917239699391,-0.0032347393222506,-0.0013722974229415,-0.0002234377304382,-0.0334579522629889,-0.9994389263579307,0.0837248215448008,0.0453781250961203,9.860509057728141,-0.0097574019014125,0.0021977892153313,-0.0030548861579892,3.4749781808912847,5.045839460277068,2.0703629776992982,1145.526200240467,1129.5115554863935,1130.5817008013792,1144.0905851794432,9.014031782497524,109.03325910770153,-90.48416846675033,-332.1381553233941,154.58118105033563
8.97,-0.2819291384043046,0.0094163751912473,-0.1221837580448964,0.0010826743944151,-0.0037212865754177,-0.0035919163569111,-0.0013457957878265,-0.0002399649553404,-0.0334473571802782,-0.9994393188943482,0.0836721684365741,0.044814825840559,9.859365704196525,-0.0096874912458387,0.0024049686259604,-0.002915483221932,3.4749527167362846,5.0458435255698415,2.070362162586139,1145.7370000175815,1129.7199481019522,1130.316542673989,1143.3440092458538,155.76913342622285,59.717853186284394,-103.80666780986952,-265.0304331456068,154.58132393202203
8.9725,-0.3756882026538553,-0.0072906904617819,0.0177477835392816,-0.0002330141963389,-0.0045984038060606,-0.0031793097563166,-0.0013135284758509,-0.0002632144056857,-0.0334397229459385,-0.999439622152862,0.0835056594412336,0.0442120162730308,9.858061891532035,-0.0096166476598096,0.0026150270185382,-0.0027886406995773,3.4749272522166734,5.0458471252387085,2.070361653980415,1146.3050459075982,1129.8101447523247,1130.0626674623295,1142.7654330137148,269.483588351758,9.705793712648413,-85.3321641311765,-186.31138434119816,154.5814681893404
8.974999999999998,-0.4031792133222532,0.0308586952612201,0.137660515499731,-0.0015865115795249,-0.0054013239390091,-0.0023644715335377,-0.0012788201546936,-0.0002907973788813,-0.0334370335497177,-0.999439761794444,0.0832783457085306,0.04362390436666,9.856627558851084,-0.0095452510218335,0.0028297769753706,-0.0026740428323826,3.4749017737718564,5.045850144639571,2.070360351243949,1147.08441795934,1129.7684770705155,1129.8898818533332,1142.412452324148,326.06068305062206,-51.5266312921914,-39.953757716869525,-80.20211426167971,154.5816106604247
8.977500000000001,-0.3506163943803434,0.1298940297933223,0.2291461512567268,-0.0029422547914438,-0.0060331326991384,-0.0014701173483528,-0.001245589493128,-0.0003205287439976,-0.0334384903299865,-0.9994397572468832,0.0830417760797869,0.0431137550758217,9.855092682549481,-0.0094738698667295,0.0030507386480722,-0.0025704711116315,3.474876349760464,5.0458528227824635,2.0703571677395973,1147.9353493228516,1129.552511595864,1129.8628986737451,1142.3644224424063,334.51965894673094,-128.66480988921273,23.81229829197392,33.696404581582286,154.58174713493415
8.98,-0.2032953792652503,0.2964053750796478,0.3108913668643166,-0.0043228882416233,-0.0059036326197121,-0.0005188925881005,-0.0012158511533266,-0.0003495359426177,-0.0334411853797403,-0.9994397033643352,0.0828619438957465,0.0427048609005299,9.853486609332036,-0.0094032910014904,0.003279013716967,-0.0024760173984861,3.474851430621097,5.045855360010173,2.0703518246922816,1148.757016254074,1129.1251530210693,1130.0089433447931,1142.580934347056,230.7552057414345,-173.29193226286216,77.29948308403155,97.97975808971516,154.58189862285343
8.9825,-0.0229112088020389,0.4496474749329967,0.3633224744559925,-0.0051120694636752,-0.0045780804780043,0.0001789005647678,-0.0011924752695642,-0.0003764183476607,-0.0334425912772274,-0.9994396826285242,0.0827788734266217,0.0424372309556317,9.851836491763283,-0.0093344792290643,0.0035151862511428,-0.0023884780353387,3.4748274499518095,5.0458577464929695,2.070344564282374,1149.0891253515583,1128.6860519345498,1130.2493960891654,1142.8543212328548,33.127776650423804,-176.75890299541484,105.21711080516344,88.22368794332696,154.58201044858964
8.984999999999998,0.1942365792487707,0.5882553126605466,0.4089382662144522,-0.0053128412214097,-0.0025604084823779,0.0008647607854683,-0.0011770671870426,-0.0004028017766507,-0.0334448111668756,-0.9994396225541756,0.0827751608853218,0.0423278057303092,9.850167192117658,-0.0092684639645332,0.0037592915874575,-0.0023057173765072,3.474804190956914,5.045860174290141,2.0703357488386294,1148.922655137326,1128.2413585060924,1130.5350288988188,1143.0220527867723,-185.67954145143457,-182.46524537609605,109.50292819368876,11.124021321255066,154.58210199684606
8.9875,0.4610154896761876,0.7159131275350323,0.4631572748241818,-0.0044862744494636,-0.0002443326245025,0.0017439008501903,-0.0011729199607538,-0.0004251493157449,-0.0334487965025301,-0.9994394881200503,0.082937438845709,0.0424245883197379,9.848500106601962,-0.0092063142918799,0.0040106039478056,-0.0022258346162933,3.474781765554236,5.045864141260737,2.0703258745781654,1148.1607276443012,1127.7737257076692,1130.796910730134,1142.9099413394613,-347.82599461717854,-155.1551141039666,61.27414888163864,-104.47424297192995,154.58218187239106
8.99,0.6583857209895704,0.782088633815572,0.509397534706546,-0.002698177241217,0.0015747701781229,0.0024934443780164,-0.0011831816624594,-0.0004420720899926,-0.033453251789673,-0.999439319508325,0.0833102340938116,0.0427765125679495,9.846853807588051,-0.0091490070708917,0.0042676534349994,-0.0021475207777373,3.4747602247272087,5.045870534678698,2.0703159539033127,1147.1835251642399,1127.4655829355725,1130.841399643227,1142.4996815719128,-412.39702229303487,-105.82799871224157,-38.29763018312258,-217.80339980887007,154.58221873253433
8.992499999999998,0.7971488458862119,0.8004018829271901,0.552555312878318,-5.5830590516846074e-05,0.0034375055332531,0.0033760925138352,-0.0012065617770874,-0.0004545755791511,-0.0334563825853216,-0.9994391782859594,0.0838877824738509,0.0433499918112409,9.845245336243018,-0.0090972896772015,0.0045284633658823,-0.0020701401395762,3.474739504866448,5.0458796481122175,2.070306755789277,1146.0987425328365,1127.244585714108,1130.6054225792184,1141.8209243404172,-438.930531900564,-80.53887224190126,-175.63746228363,-320.2955450549279,154.58221984932968
8.995000000000001,0.8723566962445403,0.7601475923054067,0.5876078064572574,0.0035286946667577,0.0058429334101871,0.004920719658914,-0.0012412592319353,-0.0004604718299465,-0.0334586312103978,-0.9994390530455228,0.0847261050927812,0.0441031768371882,9.843689576990137,-0.0090515375444043,0.0047908626611614,-0.0019936362323341,3.4747200734937294,5.045891528061787,2.0702986712832234,1144.9888725047367,1127.062888574363,1129.9632123318088,1140.898203846638,-338.5209967118424,-54.91177419161482,-286.75527680957265,-318.8902427571931,154.5821753366224
8.9975,0.8549355690188487,0.6703910383795049,0.5900078642390603,0.006401624115362,0.0081358088220974,0.0065342358348276,-0.0012817817064622,-0.0004620182407974,-0.0334604146478974,-0.9994389347198585,0.0857889090138514,0.0449288973366954,9.842200704731546,-0.0090115708584805,0.0050527529137947,-0.0019185287181802,3.474701602120436,5.045905164039765,2.070292461340577,1144.4061375492768,1126.97002684315,1129.1716461951703,1140.2264731266307,-141.89497847062833,-24.301840736739283,-346.3392572026585,-207.7604092766664,154.58209750870776
9.0,0.7644847919101198,0.5229271437155844,0.5502873725521262,0.0084624465194038,0.0104362440699124,0.0080328429766357,-0.0013220917988694,-0.0004625311050529,-0.0334604514006845,-0.9994388723434156,0.0870147244101622,0.0457145192752331,9.840791813543815,-0.0089765302757961,0.0053122901270288,-0.0018456692406866,3.474682907041989,5.0459194651763255,2.070288478747182,1144.2793976123835,1126.9413793706792,1128.2315160457958,1139.8594018002548,19.466822923918023,2.4720634139617146,-378.22159933010226,-76.21979678898849,154.5819753163591
9.002499999999998,0.6273742265992576,0.3370309282631263,0.4671346506131741,0.0098194594048919,0.0120734644771671,0.0094560264311055,-0.0013573396649786,-0.0004657794303446,-0.0334590262866018,-0.9994388619136096,0.0883294411384806,0.0463752506448502,9.839474793553558,-0.0089447999281259,0.0055680296810571,-0.0017759695837287,3.4746631447302128,5.045934066566161,2.0702865119421574,1144.5034716638963,1126.9823871602196,1127.28053819852,1139.845374142686,146.27194751335523,38.219166846095895,-357.3341712456009,85.85311905356798,154.58181547109643
9.005,0.4495509677659581,0.127124324047717,0.3240336765609195,0.0109486916023777,0.0125468163587701,0.010998441002335,-0.0013862244068387,-0.0004705628980509,-0.0334536580783698,-0.9994389892553136,0.0897524729740408,0.0468967346128416,9.838259675165354,-0.0089141688905192,0.0058188339529294,-0.0017100513986428,3.474642101669957,5.045948715364744,2.070285272786071,1145.0107573499506,1127.1324752049095,1126.4448451895676,1140.2886673955227,238.4536183338778,95.18863461565493,-316.57882383437527,284.72806478030276,154.58161001791424
9.0075,0.2048218292554377,-0.1192874759859399,0.0815658505850701,0.0123031999505781,0.0122138111154987,0.0126025767263036,-0.0014109506352236,-0.0004749433369138,-0.0334443746912585,-0.999439252521658,0.0913137297559045,0.0473360118393655,9.837154700276914,-0.0088819376553932,0.0060639136319896,-0.0016481624653627,3.4746198941974544,5.045963447393443,2.0702833212152685,1145.695739755566,1127.458330333298,1125.697644079348,1141.2690144665878,228.1623880630831,142.96148574188126,-221.61961776046013,407.1691074614492,154.58131152545212
9.01,-0.0122903445032061,-0.2982607896772484,-0.1702765760883793,0.0131706265440559,0.0113067486290946,0.0134426050666719,-0.0014324566550794,-0.0004791654491078,-0.033432382510864,-0.9994396118393208,0.0929922327586106,0.0477288286284447,9.836167460434618,-0.008845119009256,0.0063027535638164,-0.0015901915652448,3.474596387172376,5.045978630228848,2.0702804837902407,1146.1515692902656,1127.8472826336188,1125.3367471007655,1142.3245129328295,129.52141310531965,173.71120863692354,-87.41066034270713,428.1152228664964,154.58102060708836
9.0125,-0.219595099132157,-0.42991495771743,-0.4481869970285135,0.0133194365330438,0.0096402334861794,0.0133477731261742,-0.0014544281635956,-0.0004801708170072,-0.0334197631075015,-0.9994399949018472,0.0948264262712219,0.0481640426530864,9.835303498172058,-0.0088006556535625,0.0065350552077318,-0.0015357489268332,3.4745720005701144,5.045994474585137,2.0702765868438804,1146.3433468210928,1128.326886376483,1125.2605907776344,1143.4095905809206,15.238601204371099,219.33112944158196,27.078740044585487,432.6435468299002,154.58068746077777
9.015,-0.4188043037613564,-0.5228339076241456,-0.7656334361058635,0.0122020582949156,0.0075087574354692,0.0114130380332898,-0.001477667397231,-0.0004805075629528,-0.0334100315436435,-0.9994402818698858,0.0967356985713101,0.0486777347745783,9.834567892272364,-0.0087455577502879,0.0067607672597201,-0.0014844257553711,3.474546835478944,5.046011380480735,2.0702722545971675,1146.2277622962877,1128.943938280827,1125.4721408009884,1144.4877306669791,-89.7534408613134,222.63521319214183,121.39239406844948,329.16087022397005,154.58024076486643
9.0175,-0.513554783376653,-0.5484837737756881,-0.9795736851457362,0.0101024709215806,0.0061642312933501,0.0082662096807689,-0.0014997445525297,-0.0004829198463342,-0.0334037744595202,-0.9994404568364608,0.0986263217162585,0.0492420829528478,9.83396497445586,-0.0086771283149086,0.0069800590418889,-0.0014358168338376,3.47452046385556,5.046029396038224,2.070267745374708,1145.8945796167864,1129.4400624424431,1125.8675527479763,1145.05539493204,-158.27922611859742,183.953892417858,195.59584169941695,141.78857387326482,154.57983086773163
9.02,-0.5082014329179351,-0.5291802490789007,-1.1070938831165675,0.0075207790621831,0.0051216557078438,0.0043632271782248,-0.0015172425760501,-0.0004919719969766,-0.0333988520279602,-0.9994405957910524,0.100362152715168,0.0498095701760581,9.833497723068403,-0.0085931333878146,0.0071933943390619,-0.0013896382735385,3.474492634743251,5.046047802197162,2.0702638958580155,1145.4363661656948,1129.863707742916,1126.450120009485,1145.1966735363455,-183.87881463838167,152.4752429774924,260.04351144434196,-12.694137368860371,154.57938369763454
9.0225,-0.4147404979222749,-0.4782592496010334,-1.152957557749606,0.0053677378568259,0.0040399661196985,0.0004925329504487,-0.0015327880856635,-0.0005044527245288,-0.0333944608044903,-0.9994407220949492,0.1019602276050205,0.0504435814118557,9.833165264585405,-0.0084919848876729,0.007401628590284,-0.0013456376081214,3.4744641779151806,5.046066624239179,2.070260961536687,1144.9751855435943,1130.2024386573307,1127.1677703051985,1144.9919242451958,-166.36426428655923,113.10514065701732,318.96332303276284,-149.97025004884037,154.57890702736015
9.025,-0.2267840688453564,-0.3933336018775603,-1.1077102746280811,0.0041291730060133,0.0028651732560961,-0.0029708523099466,-0.0015490515466737,-0.0005160642899143,-0.0333916578652211,-0.9994407983461998,0.1034572259983632,0.0512038407205585,9.832964488457868,-0.0083728777376666,0.00760602764538,-0.0013035490458065,3.4744365125443393,5.046085479930197,2.0702588328963265,1144.604544844262,1130.4292334462011,1128.0449366246492,1144.4468222861012,-130.81859046604097,74.85285772105851,426.5341369180927,-287.60135918024656,154.57839656179613
9.0275,0.0786800580816843,-0.2578466006378894,-0.975903114827586,0.0034645663653651,0.001487375995962,-0.0062496472337491,-0.0015638318511449,-0.0005275594011272,-0.0333893367969382,-0.9994408626738664,0.1047867574364959,0.0520533360038807,9.832891519532705,-0.0082358693303072,0.0078081570254253,-0.0012630147287029,3.4744095973046933,5.046103811828605,2.070257337013214,1144.3210925912642,1130.576702945936,1129.3004409897885,1143.5539174492949,-79.0080308688787,34.33971356663052,497.07328567415857,-340.97120631247395,154.57774732643895
9.03,0.3724996396025725,-0.1247410710269504,-0.8288757311006423,0.003552358581728,0.0006232082308386,-0.0079367775195752,-0.001577867031415,-0.0005370527671493,-0.0333871274042347,-0.9994409246756614,0.1059383622921424,0.053005922602355,9.832939096926246,-0.0080818108201381,0.008009790098324,-0.0012234778608297,3.474383066733993,5.046121453086525,2.0702554097285075,1144.2095046899176,1130.6009320140345,1130.5303030530197,1142.7419662545392,-31.29421254520332,-11.648082292138495,527.6974103552759,-308.5719111118096,154.57717755078556
9.0325,0.6681467619285361,0.0136700822468756,-0.6737914958799329,0.0047865964246213,0.0002687035917925,-0.0087506184455796,-0.001591942535724,-0.0005442698988387,-0.0333836625354222,-0.9994410277700504,0.106873826718976,0.054071991061748,9.833097405541848,-0.0079123277967573,0.0082127142256864,-0.0011842158207396,3.4743573382142614,5.046138382279951,2.070252922342476,1144.164621528538,1130.5184625344755,1131.9389280415653,1142.0110578937356,-26.2618185091428,-65.31121678548405,644.1353268890809,-274.96985812545313,154.5765801927913
9.035,0.9754406987310408,0.161149700991582,-0.4986267824461714,0.0078086405336075,0.0005580204989584,-0.0095967518981689,-0.0016050481077516,-0.0005479984713354,-0.0333767598407053,-0.9994412475418096,0.1075781028789169,0.0552203554681277,9.833354269693213,-0.0077297928099423,0.008418551579219,-0.0011443395866495,3.474332595791969,5.04615494577746,2.070250361682578,1144.0781955973719,1130.2743759301068,1133.7509796874656,1141.3671169639117,-52.90756392779401,-117.86976511068659,661.1739908511432,-185.17670469663287,154.57583420466165
9.0375,1.1594812906997192,0.2489993983370653,-0.3648522614637689,0.0113170381876256,0.001445647031341,-0.0104067748253634,-0.0016177815500189,-0.0005502257867902,-0.0333644301583638,-0.9994416491749152,0.1079822371053652,0.0564477940150668,9.833694544905718,-0.0075372365385989,0.008628607607675,-0.0011029711443229,3.4743089075430653,5.046172092053638,2.070248123111486,1143.9000837088993,1129.929113708922,1135.2447979958204,1141.0851743702526,-105.22337346940904,-171.40367684962305,556.7741855797105,-58.57905240699432,154.5751903171765
9.040000000000001,1.2430176640232395,0.2808793822189329,-0.2395816873867761,0.0154080591941471,0.0029810231053822,-0.0109561342560512,-0.0016348414353469,-0.0005501824246205,-0.033346945362045,-0.9994422159194842,0.1080840587520717,0.057824146811352,9.834099062074898,-0.0073382326952266,0.0088438340969623,-0.0010591989461251,3.4742866451454986,5.046191034737215,2.0702459291763975,1143.5520787300247,1129.4173575458587,1136.5348506153643,1141.0742217018767,-191.58091686046376,-263.88163847619086,476.9274670030591,41.85176705440681,154.57452591605076
9.0425,1.2203279137178038,0.2455967641134268,-0.0898996643459274,0.0202976607127067,0.0052741014755082,-0.0111523738386167,-0.0016572169493703,-0.0005502934734008,-0.0333264280152839,-0.9994428725732084,0.1078271184777437,0.0593430939493866,9.83454728176009,-0.0071367524184523,0.009064913654876,-0.001012045180405,3.4742662514151124,5.046211794294564,2.0702430814209287,1142.9421791245968,1128.6097055165408,1137.629435330836,1141.2944332055247,-243.7194671807932,-324.3436713122455,302.3495575457365,99.49583423301353,154.57370801240398
9.045000000000002,1.1105177175261722,0.16380977110267,0.0438030590145772,0.023824293342733,0.0069880110374776,-0.0112281573691293,-0.0016842973300717,-0.000552636874268,-0.0333058416018448,-0.99944351972663,0.1071721429433945,0.0609618484911799,9.8350168053699,-0.0069369889436387,0.0092924019477511,-0.000960501228378,3.4742481916211836,5.046234473270907,2.0702394891477294,1142.333481394121,1127.7956391892978,1138.0465984030927,1141.5717008730417,-237.75913236454653,-344.3435450879636,52.25662038379726,104.3129360195715,154.5730115809618
9.0475,0.9354963908794826,0.0589829128335432,0.200028943406594,0.0262804727670913,0.0074492660033907,-0.0114763121390397,-0.0017147621171266,-0.000554927360006,-0.0332881485786834,-0.9994440616320972,0.1061765605792682,0.0626166598029074,9.835483310672927,-0.0067431146699198,0.0095268936343214,-0.0009036017017259,3.4742325642471497,5.046258962483902,2.0702353227869974,1141.7533834627743,1126.8879877911015,1137.8907184327547,1141.8159978856224,-201.12227987957837,-366.2804268274495,-154.16083316342656,77.4074017402533,154.5723026346591
9.05,0.733409602219266,-0.0319229869365133,0.3816450723515367,0.027711792769441,0.0065721593489748,-0.0115941750443375,-0.0017454327099034,-0.0005586079579299,-0.0332759436540556,-0.9994444154710465,0.1048342442573093,0.0642062125082049,9.835922071243528,-0.0065589751401713,0.0097691806085751,-0.0008406344553459,3.4742186676246702,5.046284161472117,2.070231231557466,1141.3278699947227,1125.9642370551603,1137.2757942372757,1141.9587378817428,-99.87383013775144,-353.5115119174309,-342.38552461892243,25.71851361312436,154.5715855496836
9.0525,0.5270630309842848,-0.0715262691980625,0.5918967384408899,0.0281675962257188,0.0048629964545115,-0.0111737518101871,-0.0017746121568281,-0.000565684529834,-0.033269357833705,-0.9994445781190068,0.1031385572335794,0.0656561383926104,9.83630750551178,-0.0063878918887901,0.010020290729329,-0.0007712120985348,3.474205505610179,5.0463089198556,2.0702275203599014,1141.2540143120855,1125.120430231514,1136.17879080966,1141.944590453688,83.17032996312099,-323.27974176989363,-569.6660662357541,-36.19151054527529,154.57086145731043
9.055,0.2948248649879892,-0.0404514980309668,0.8596987286693786,0.0282476372301726,0.0029846999649462,-0.0096463777399841,-0.0018005266872921,-0.0005785362957092,-0.0332679426180038,-0.9994445665497272,0.1010842058695937,0.066888983736141,9.836614368705352,-0.0062325072707361,0.0102814358709076,-0.0006952372994528,3.4741924625619247,5.046332398522545,2.0702243097339927,1141.7437216445385,1124.3478383463112,1134.4274639060975,1141.7777803290167,288.3272765522637,-222.4232428995145,-696.1187629229976,-73.05389322785908,154.56998819957323
9.057500000000001,0.1151731178811044,0.0439011603042914,1.0742981861814735,0.0282982439192293,0.0019632044036589,-0.0072589970717869,-0.0018261642609964,-0.0005969170905876,-0.0332699264265846,-0.9994444343184912,0.0987275482900546,0.0679185551086885,9.83681704224773,-0.0060948058872337,0.0105537760818185,-0.0006129292992341,3.474179167555105,5.046354614408597,2.0702213500675355,1142.695650694847,1124.0083140170163,1132.6981969950443,1141.5793209875487,486.8909926721392,-54.316402008171885,-727.1382740797662,-72.3072183302407,154.56925969616847
9.06,-0.0603756614094918,0.1602204486638967,1.2513471464251231,0.0283096582126972,0.0019330136364815,-0.0040878796883228,-0.0018553592500455,-0.0006169380666246,-0.033276022294936,-0.9994441528677004,0.0962030857914916,0.0687733367994807,9.836891515835712,-0.0059761010980554,0.0108381883369323,-0.0005247249145106,3.47416628350309,5.046375815664134,2.070218036402579,1144.1781766078996,1124.0762563362703,1130.791772535698,1141.4162442373652,737.8203507518368,130.94411424424712,-858.0727154574449,-46.18210092085983,154.5685338707445
9.0625,-0.2835627661679361,0.2899237375239734,1.3920984723820222,0.0280886886216761,0.0033529086079093,8.026282774969841e-05,-0.0018886229524012,-0.0006366607066227,-0.0332886869656053,-0.999443641056022,0.093608504543329,0.06941985905848,9.836817838692557,-0.0058770720557491,0.0111349781438533,-0.0004312979348806,3.47415474866631,5.046396408780923,2.0702145299438355,1146.3847524486055,1124.6630345882375,1128.407833417758,1141.3484104829445,837.5012684066708,293.4307632634629,-875.1094871919497,0.1399327457875466,154.56767018262715
9.065,-0.4913157581107883,0.3582838613397845,1.4337546053841175,0.0276799134597175,0.0053762619662382,0.0038085170412644,-0.001923498101654,-0.0006551693846137,-0.033307708421672,-0.9994429126279204,0.0910198408730381,0.06977114263978,9.836580813415456,-0.0057977878617753,0.0114435856896541,-0.0003336130946959,3.474144489358369,5.04641724205913,2.070210741395351,1148.365682949932,1125.5434101525873,1126.4162250997392,1141.4169439010943,762.0371913562112,415.7249553362622,-779.8000259085856,44.61286553973181,154.56695969865055
9.0675,-0.7291413255919686,0.3639999448480015,1.383569945630836,0.0269399346777866,0.0076561344141215,0.0077629259122976,-0.0019545622422148,-0.0006718566872088,-0.0333324492626714,-0.9994420021602246,0.0885038580357497,0.0696879750354309,9.83617071706551,-0.0057375289367241,0.0117624604984533,-0.0002329752460944,3.4741341847198655,5.046439173256962,2.0702071836793166,1150.1949384053871,1126.741659364919,1124.5088332882146,1141.5714748106432,704.9360460634297,572.8661981887412,-798.2846760278451,65.03014177709595,154.5662627256422
9.07,-1.0450100181967648,0.3016961109498552,1.2117913739317256,0.0252343334148338,0.0097671877132528,0.0123146676940897,-0.0019783502172808,-0.0006841825559967,-0.0333630285910234,-0.9994409172682602,0.0861634602371431,0.0690759910648678,9.835582412319228,-0.00569470635529,0.0120890507564025,-0.0001311379159737,3.4741224183596087,5.046463187957156,2.070204753050376,1151.8903631802496,1128.4077411435314,1122.4248017195991,1141.7420946099799,503.5283820669612,628.1734511708122,-713.597889177032,41.17586595794729,154.5654465481161
9.0725,-1.320395776352547,0.2113529830580929,0.9807397243765706,0.0227835465502972,0.0102860623125665,0.0155522298789578,-0.0019916681577493,-0.0006932583927225,-0.0333957427188672,-0.999439788640366,0.0840236733383024,0.0678580708718541,9.834816424150704,-0.0056670933640608,0.0124198778697098,-3.026628526219644e-05,3.474108115676944,5.04648966341707,2.070204262252178,1152.7125803157214,1129.8825266207723,1120.94084384233,1141.7773541404329,186.4110620591127,586.9370341459663,-521.2971872894835,-24.480862241485546,154.5647864063658
9.075,-1.5840028884335295,0.1111891995346928,0.6751477061111392,0.0192575683360099,0.0096357057368483,0.0180068249686317,-0.0019975844999482,-0.0006954920108341,-0.0334256834249102,-0.999438774658564,0.0821988171733997,0.0660877728299942,9.833877154059293,-0.0056520558230022,0.0127508016882859,6.71980723115773e-05,3.474091695984235,5.04651855240881,2.070205568527217,1152.8224184905455,1131.3424263142615,1119.8183157831515,1141.6196902987724,-71.91267402230336,570.4019893067216,-375.60264687079814,-97.3412533220046,154.5641505434596
9.0775,-1.8174413302642327,0.018871489969064,0.3271441704716635,0.0149747375983854,0.0087218300140098,0.0196611290805915,-0.0019996968960743,-0.0006872716855939,-0.0334519254766452,-0.9994378996116172,0.0807965288313653,0.0638403555914147,9.83277465172144,-0.00564673216502,0.0130773511820126,0.0001588441342024,3.4740747502825537,5.046549814313974,2.070208491760875,1152.3530169456099,1132.7345365673063,1119.062830607976,1141.2906478738228,-307.5493213387447,532.4789668365761,-202.3776381909504,-159.80241239829863,154.5635372246559
9.08,-1.9919533806552248,-0.0604489325792794,-0.0415438559474837,0.0100730868491406,0.0079407462475168,0.0202222351520075,-0.0019983493159581,-0.0006702749148608,-0.0334741124440904,-0.9994371721550726,0.0798090458446887,0.0611425288554131,9.831525358812538,-0.0056482996570003,0.0133949427468853,0.0002425547094303,3.474057916142228,5.046583412915404,2.0702131100474475,1151.284671883852,1134.004821148444,1118.8064275921968,1140.820678236781,-569.1966409479614,524.7638716426216,6.280539986256712,-204.2438084939428,154.56295375161548
9.0825,-2.10996451975039,-0.1532682445773576,-0.4622285860175707,0.0039488788532846,0.007257846969711,0.0195357733057311,-0.0019953874034036,-0.0006458643484755,-0.0334945936548978,-0.999436508995616,0.0792263112134165,0.0580620374726862,9.830149959853456,-0.0056539412678041,0.0136991573434344,0.0003166697568569,3.4740414577312198,5.0466199329344565,2.0702186692090203,1149.5070337408706,1135.3583559255192,1119.0942333079072,1140.2694288313533,-700.9403320528504,464.557137990205,197.5748873395933,-167.01688062327892,154.56229120301154
9.085,-2.118872008262487,-0.2453135683288103,-0.759304253578151,-0.0014994222597914,0.0069796301015433,0.0177552214025632,-0.0019920390965551,-0.0006126263838867,-0.0335152101262535,-0.9994358484700016,0.0790818169077283,0.0546638143638211,9.828673063819066,-0.0056608641918125,0.0139859800894053,0.0003802252551093,3.474025670112402,5.046658688841473,2.070223975125039,1147.7799702235873,1136.3276068383955,1119.7943020288951,1139.9855938336643,-701.5157194950274,349.5962375802173,355.1855733288348,-39.27602993157348,154.56177247057178
9.0875,-2.024112916707392,-0.3735188837321552,-0.9614260112385627,-0.0073840408917369,0.0070338802672391,0.0147082699253331,-0.0019883451102976,-0.0005735265150192,-0.0335315645350503,-0.999435336685391,0.0793104260640025,0.0510024844512885,9.827122422415085,-0.0056663715685933,0.0142519926416184,0.0004329093845202,3.4740099804175766,5.046698682076505,2.0702284522336134,1145.9994551433947,1137.1063371134203,1120.8701611745516,1140.0730486816951,-754.2593968180108,287.57430997858404,526.6519307696537,153.67134720871363,154.56129056387195
9.09,-1.792160871178313,-0.5828092354741196,-1.062556230689235,-0.0138074718035388,0.0073627799767296,0.0100019393984035,-0.0019799532334835,-0.0005371727170973,-0.0335398937856779,-0.9994351031167542,0.0797234748915511,0.0470583384773273,9.825528620506482,-0.0056676199408744,0.0144946055001847,0.000475042463897,3.4739932471727584,5.046739407734802,2.070231802720216,1144.008673239498,1137.765478388288,1122.4275616827429,1140.753950569708,-681.924087227616,182.93874471100028,590.6025626824696,351.3566142944245,154.56075702484432
9.0925,-1.5137016312461051,-0.7977447910053552,-1.0232417048261917,-0.0179356970106582,0.0073071402989695,0.0060050693003735,-0.0019642764840337,-0.0005104628963982,-0.033538840918384,-0.9994351947317988,0.0801583314016253,0.042851402052364,9.82392229897658,-0.0056616232417325,0.0147121469184066,0.0005073297634749,3.473974392075322,5.046780544471979,2.0702338778842626,1142.5898347072575,1138.0210308369751,1123.8231739879634,1141.8298317531671,-499.2662146099648,21.081677847765945,556.821357199173,521.4016888334394,154.56035106459407
9.095,-1.1705756213224638,-1.0231829467641824,-0.8738160661747462,-0.0207253727522487,0.0056452781014664,0.0028990022275262,-0.0019451272845473,-0.0004947718248517,-0.0335311111559759,-0.9994355106290372,0.0805575576746618,0.0385275242528318,9.822332120989234,-0.0056454106484037,0.0149039071071405,0.0005305723131208,3.473953717344634,5.046822338924149,2.070235071265271,1141.5123421664475,1137.8708867775267,1125.2116684687392,1143.3609590138756,-368.56897094402177,-143.24357010370963,546.882908249796,663.2957279124512,154.5599865950246
9.0975,-0.7904636176550615,-1.2198603905411187,-0.661784927673335,-0.0226155206524647,0.0021816503271148,0.0007940632390692,-0.0019241082139511,-0.0004885775106417,-0.033517932819805,-0.999436004859579,0.0809118399121936,0.0341887680402434,9.820786095895658,-0.0056164692641162,0.0150700800648213,0.0005457089892943,3.473931881365626,5.046864144910747,2.0702360558403057,1140.7469898525371,1137.3048129864567,1126.5575885292128,1145.14631039273,-233.59285053115957,-341.1223431853383,528.3371998462512,736.4805859600538,154.55965735942084
9.1,-0.3792968673988893,-1.3387189931133368,-0.4172949056253438,-0.0236156073312991,-0.0026585526812134,-0.0001627429517164,-0.0019031094205723,-0.0004887723060537,-0.033501428810045,-0.9994366027315376,0.0812380719677526,0.0299407927707395,9.819310265234794,-0.0055729091027158,0.0152117750755107,0.0005536373862416,3.473909457680123,5.046905486776376,2.070237318624028,1140.344377913792,1136.1652750616004,1127.85335446797,1147.043361943675,-108.509190379283,-637.1945778460854,564.1768038932269,809.8207873927192,154.55937137870467
9.102500000000001,0.1406952479446673,-1.362031907602265,-0.1405040811001587,-0.0238981801381269,-0.008329385779718,-0.0002010052072234,-0.0018821420301933,-0.000490272204118,-0.0334838683396813,-0.9994372303346408,0.0815874557192608,0.0258477479867808,9.817928541924289,-0.0055136370179821,0.0153309154107435,0.0005552764852542,3.473887026725871,5.0469458344818285,2.0702389944076556,1140.2044439006406,1134.1188400972255,1129.3784725486792,1149.195414329694,-12.131156475605088,-849.2020069338688,558.1491893828153,736.1132032636974,154.55907890383236
9.105,0.5923423479914751,-1.2836185322268268,0.0434829412541574,-0.0234661556009053,-0.0120490659356014,0.0005395164725558,-0.0018628425277447,-0.0004894381395095,-0.0334673693995083,-0.9994378163438428,0.0819828291993521,0.0220011691498823,9.816661552836813,-0.0054384464378502,0.0154300756797118,0.0005514654040066,3.4738648517888335,5.0469849642219105,2.070241128512555,1140.283722131414,1131.9192650269304,1130.6441004148844,1150.723927959994,45.80524608710223,-942.7201918704725,505.5701701293952,526.4051126255846,154.5588777217625
9.107500000000002,1.0556404605911731,-1.1227481550043348,0.1525993005355025,-0.0222183620009439,-0.0147820065597155,0.0019150123844396,-0.0018467810541573,-0.0004866216048139,-0.0334534503556897,-0.9994383087940995,0.0823698798411723,0.0184865802376613,9.815526705775188,-0.0053480586896301,0.0155122700719753,0.0005430541798938,3.4738428821643814,5.047023530360568,2.070244026515645,1140.433470131076,1129.4052391378743,1131.9063233993259,1151.8274398928215,50.05453790864608,-1110.3536349602955,547.7097732503987,365.5370062609836,154.55872080039663
9.11,1.6043979814650011,-0.8611679665175345,0.1876159100357748,-0.0192286119945673,-0.0172935084083694,0.0039912166591894,-0.0018369590278439,-0.0004820529788497,-0.0334409019152688,-0.9994387448074206,0.0827008202466229,0.0154087345921689,9.814537535544568,-0.0052441903795786,0.0155807577893784,0.0005309975430097,3.4738212074091295,5.047061793908416,2.070247063452375,1140.533994820957,1126.3674968521302,1133.3826492811359,1152.5516129912987,4.07698895187359,-1062.07357500836,526.6697915303753,160.5808656143585,154.558583339483
9.1125,2.030397340129089,-0.6027718523747558,0.1472380866452232,-0.0151136161049736,-0.0188371437025117,0.0056157755297361,-0.0018388183879263,-0.0004731920722288,-0.0334321364710996,-0.9994390354966564,0.0829900554542548,0.0129082677375445,9.813703299773763,-0.0051293381188097,0.0156390020663237,0.0005164143543298,3.473801072166007,5.047099936096661,2.070249551175256,1140.4538550758355,1124.0948712628317,1134.539672356978,1152.6303442208934,-77.76526095898284,-797.3840353536278,438.0216460012204,-68.44882672338666,154.5585104490264
9.115,2.3866540010631123,-0.3179089492802138,0.0680556631839083,-0.0091003556347517,-0.0199406468589218,0.0061837432089337,-0.0018531988397489,-0.0004614907966129,-0.0334279617148072,-0.999439150886338,0.0831778921444061,0.011027449534466,9.813030323053807,-0.0050068374291144,0.0156905264745132,0.000500703757902,3.47378343300045,5.047137507322284,2.0702511458920405,1140.1451685161624,1122.3805766753615,1135.5727575111423,1152.2093688576815,-180.45020831654207,-583.806429275344,418.4066904082024,-273.0374832804589,154.5584792928463
9.1175,2.696054116793686,0.0387920002003829,-0.0173521486144882,-0.0002368902605578,-0.0204676576435326,0.0050588447240389,-0.0018789905819105,-0.0004509272842965,-0.0334275860131614,-0.9994391180343886,0.0831624918577927,0.0097609532524885,9.81252148823106,-0.0048806024225192,0.0157388201882629,0.0004853860129039,3.4737689571936765,5.047174520407928,2.0702516831258118,1139.5516040342527,1121.1758391164556,1136.6317058090187,1151.2651568044914,-233.7355849914364,-293.5883791189095,355.1102636561963,-391.7016877835365,154.55848756510915
9.120000000000001,2.8424271857005987,0.3360163331490355,-0.0457682096886151,0.0076097586874994,-0.0200747957223923,0.0033593008591858,-0.0019112320878963,-0.000444927629288,-0.0334299150843653,-0.9994389817596978,0.0828600766543676,0.0090165388166971,9.812176697922942,-0.0047547093389173,0.0157872205767763,0.000472063301667,3.4737574032259535,5.047211032268385,2.0702516514342766,1138.9764905912048,1120.9126347797667,1137.3483088294236,1150.2508604187635,-209.04801409111684,25.658996451916742,249.509862740667,-418.6381039233111,154.55853006399448
9.1225,2.879068841513256,0.6173974382816443,-0.0105784744216177,0.0149062746062517,-0.0187871559724775,0.0020306293038306,-0.0019493990154736,-0.0004443421877354,-0.0334348550999418,-0.9994387454587808,0.0822505481329957,0.0087766791497282,9.811991858448426,-0.004632952361509,0.0158388044566934,0.0004620631041896,3.4737479455627915,5.0472472686273875,2.0702510661471187,1138.5063639637972,1121.3041340987152,1137.8792551227223,1149.1719662848743,-140.1538271849228,230.25430303127936,178.2014833400253,-421.3427514693123,154.5586059455063
9.125,2.840493120151612,0.8743461157203076,0.0733841857859873,0.0214765665673427,-0.01676088157638,0.0013231598144538,-0.001994924538773,-0.0004546539836277,-0.033442359573187,-0.9994384048156392,0.0812341562895645,0.0090554590530748,9.81196009627825,-0.0045185591805442,0.0158962718175906,0.0004563537297688,3.4737390643624084,5.047283369034241,2.0702503265886176,1138.2757214552803,1122.0639062949228,1138.2393162461235,1148.1441466614176,-5.924587922210136,341.22329049021084,95.2300744550674,-384.7362720582025,154.5587063481643
9.1275,2.7318802167718417,1.0911938552313567,0.1958438360545319,0.0274121110250984,-0.0140090742680189,0.0014103523543175,-0.0020468223721637,-0.0004781351479726,-0.0334513886584742,-0.9994379948134724,0.0797816840428829,0.0098086989955918,9.812072961012557,-0.0044140615715352,0.0159618667821245,0.0004557191320493,3.4737296502183987,5.047319595769968,2.0702500368666414,1138.476741024186,1123.0102505511659,1138.3554054949975,1147.248284924584,202.87659800070756,400.77421851536303,-18.345897013747933,-362.46799106078254,154.55883189907195
9.13,2.5372414875523543,1.297776964000692,0.3518663874353003,0.0342283730608625,-0.0103706065520688,0.0022672226365367,-0.0021060227240752,-0.0005086672166989,-0.0334623169701356,-0.9994375012259727,0.0780381730626246,0.0110168230089471,9.812320423927137,-0.0043212352148936,0.0160373831987306,0.0004606872925151,3.473719689035412,5.047356441370262,2.070250139907014,1139.2901044452842,1124.0677773875,1138.1475867610548,1146.3318067061134,384.7081414333696,348.6823145004019,-143.50987808441036,-320.24432641232573,154.5590052758274
9.1325,2.3242866598486276,1.4238578508331592,0.4623330331793965,0.0399439370058264,-0.0072835502491307,0.0034293280384409,-0.0021708654649059,-0.0005391459747982,-0.0334744086734523,-0.9994369527038494,0.0761731479262452,0.0126029136530135,9.812692746148066,-0.0042412892708497,0.0161241661078513,0.0004716467712301,3.47370956348516,5.047393510966425,2.0702502515982593,1140.4002817313533,1124.753662123668,1137.6378561045751,1145.647063292522,502.7631806412592,230.0406987658792,-281.6392514724717,-279.9178185017911,154.5591638980503
9.135,2.0559072548415527,1.500696924654428,0.522547665067084,0.0456279829687518,-0.0040603224847982,0.0050853673877382,-0.0022393005149758,-0.000563924613587,-0.0334865362743835,-0.9994363924040613,0.0743327882572121,0.0144790598817794,9.81318105206869,-0.004174931618066,0.0162231470952444,0.0004887778980489,3.4736994117539313,5.047430290302488,2.070249798018299,1141.80392034849,1125.2179808813291,1136.7393905036927,1144.9322176136047,634.8900460102785,180.23531832201937,-486.06604238790754,-350.3052383291468,154.559331634995
9.1375,1.6705572066729923,1.5298593338841096,0.5092277549031112,0.0518464273283677,-4.630185934496791e-06,0.0075588308461262,-0.0023098672946286,-0.0005804455112433,-0.0334987396706999,-0.9994358223442432,0.0726072202842558,0.0165683026716162,9.813777983411864,-0.0041223772968731,0.0163348224768079,0.0005119601977201,3.473688728628692,5.047466557908967,2.070248339539023,1143.5747319614052,1125.6548387152784,1135.2075258926354,1143.895537100876,626.4547922249607,172.21070104103129,-630.3535404866049,-425.0344249679774,154.55953724181416
9.14,1.3058603107051319,1.4934450582676373,0.4158913275882392,0.0559073473899623,0.0036169887658338,0.0098106382433834,-0.0023831998560352,-0.0005858988560142,-0.0335098488082331,-0.9994352810570374,0.0710951464967126,0.018833764225478,9.814478104832068,-0.0040834943076834,0.0164591486753625,0.0005406393940527,3.473677658084141,5.047502804165269,2.070246257765286,1144.9361943096153,1126.0790343865344,1133.5876228012592,1142.8070454887643,484.4310199619994,221.04194034445604,-701.0898156986544,-485.5569731457364,154.5597078068593
9.1425,0.9169974131919452,1.3822697591106072,0.2405522983743181,0.0583247030372816,0.0075917130914144,0.0118753602945755,-0.0024596492147668,-0.000581415262325,-0.0335191248509921,-0.999434791265618,0.0698186703782791,0.0212364259395629,9.815278960382384,-0.0040578413119891,0.0165954814651972,0.000573742489406,3.4736663493503928,5.047539537635055,2.0702441932424436,1145.9968870612147,1126.7600484170005,1131.7020768141429,1141.4677522351478,368.7334415270749,389.29916049035927,-859.3226786851465,-629.859461489366,154.55987253438875
9.145,0.44980765666191,1.1547836806146388,-0.0352226020420878,0.0597916453123003,0.0123583388126847,0.0132618629598325,-0.0025382533569899,-0.0005688785357082,-0.0335257594193945,-0.9994343813946378,0.0687835353041117,0.0237144346446826,9.816181709529296,-0.0040447413044096,0.0167425636393262,0.0006096968325666,3.473655049863772,5.04757747943948,2.07024356198113,1146.7798615172503,1128.0255301889858,1129.2910094078343,1139.6577481813183,193.0115722368708,544.4694443418542,-881.5197164302832,-672.8458332638951,154.56005785379432
9.1475,0.0757305937048512,0.8917515263798375,-0.2825026069365568,0.0603535592594189,0.0156960157829903,0.0128370972189773,-0.0026198549228546,-0.000549710001272,-0.0335323112754575,-0.9994339624891794,0.0680040852337217,0.0262448465985159,9.817190773890509,-0.0040431745162048,0.0168986363007967,0.0006464364466861,3.473644601396295,5.047617166632168,2.070244906521177,1146.9619449223992,1129.48239563871,1127.2944782319908,1138.1035230688278,-31.609822295099157,651.5473557684236,-763.4175655527257,-594.2214646967822,154.560198058584
9.15,-0.2682718953173182,0.5734292048755513,-0.4969451786414927,0.0600481355879581,0.0177735222737908,0.0106452018006831,-0.0027035160495401,-0.0005281722505049,-0.0335405247490135,-0.9994334755712956,0.0674341389697826,0.0287767025161893,9.818314444857688,-0.0040518528418162,0.0170615561305554,0.0006817250661933,3.4736346334721766,5.047658189437289,2.0702484718280045,1146.6218124057748,1131.2832669678285,1125.47392158007,1136.686640857834,-221.4785482317424,752.0480673224614,-678.0863097149435,-516.0537371548006,154.5603190432676
9.1525,-0.5776179135841811,0.2329249607157949,-0.6535025836621151,0.0586628509784161,0.0187049061829028,0.0075924743856605,-0.002786604270938,-0.0005095834669243,-0.0335502864066959,-0.9994329285445566,0.0670006529997587,0.0312323795928486,9.819564468945117,-0.0040691589424458,0.0172289540858372,0.0007134696939406,3.4736242880883967,5.047700466403627,2.070253749883483,1145.8545521812407,1133.2426359753215,1123.9040466834167,1135.5232543830543,-397.88102527198777,779.7370996988509,-549.7915911109616,-377.23401908863934,154.5604210922538
9.155,-0.8368834222119181,-0.1034708048105038,-0.7252024742943785,0.0563834612696673,0.018428417872225,0.0046070927221547,-0.002866933825802,-0.0004970836948319,-0.0335592341622508,-0.9994324055994374,0.0666674290625483,0.0335479893539857,9.820954838582695,-0.0040931376406552,0.0173983790228123,0.0007399623951243,3.473612815642917,5.047743926990802,2.0702603697529387,1144.6324072794152,1135.181952466322,1122.7249636245156,1134.8004707623911,-609.5977880540843,790.1459992802886,-417.4036124503148,-197.87751427371947,154.56049721622517
9.1575,-1.08890310856814,-0.4674955725736689,-0.7227704590619858,0.0535076599752929,0.0171570502465458,0.0018497051674407,-0.0029435714698525,-0.0004903077483663,-0.0335641292977138,-0.9994320194173478,0.0664610553320735,0.0356884864747426,9.822500463048224,-0.0041215354564862,0.0175674458649618,0.0007600842124878,3.4736001632717626,5.047788669411744,2.0702675135286968,1142.8065632409698,1137.1933659717236,1121.8170286211648,1134.5338668116856,-692.367235344801,647.1273468361585,-248.3602681481055,0.8144539094699756,154.56055529738916
9.16,-1.2532697446569576,-0.7177788049254827,-0.6673101779370295,0.0511679074756952,0.0156868084616875,0.0002818850144772,-0.0030156869133375,-0.0004870393283057,-0.0335636667741762,-0.9994318193086316,0.0664375719300158,0.0376260287990147,9.824215949685213,-0.0041518495827717,0.0177339961562051,0.0007734620111493,3.473586507676718,5.047834628371271,2.0702748150490566,1141.1705711026907,1138.4175892005032,1121.483162283775,1134.8045430319385,-625.3748675275681,364.89744557455174,-52.88689847771963,192.24404571413476,154.56057407241352
9.1625,-1.3715747398975209,-0.8930310507319033,-0.5843250781959111,0.0486002085001901,0.0136350872250813,-0.00075951786906,-0.003082004897979,-0.000486830979708,-0.0335597257043192,-0.9994317483181052,0.0666109678454307,0.039331141204075,9.82611406682508,-0.0041814320051546,0.0178962473820194,0.0007805059950759,3.473571778234712,5.047881710721804,2.070282166129923,1139.6796889033324,1139.017853199596,1121.5525941287763,1135.495087040256,-564.4248674563214,107.5213995144909,109.9751937925076,366.0563296664232,154.56056042059782
9.165000000000001,-1.451233091446118,-0.9956703162524568,-0.4796326801643442,0.0447322720619002,0.0101139983254479,-0.001735700448699,-0.0031397698298524,-0.0004864436967718,-0.0335542071991239,-0.9994317543220308,0.0670415483647649,0.0407486556494951,9.828204313143182,-0.0042077251887419,0.0180528954764381,0.0007824936950438,3.4735564517589337,5.047929923758093,2.0702887817298583,1138.3484467654087,1138.9551961980756,1122.0330382527377,1136.6348246802709,-381.5029557244856,-145.55179179717467,230.30836261601544,441.36627062550735,154.56050535639224
9.1675,-1.4538805154816667,-0.9816991487802854,-0.4012291348418936,0.0406641565750874,0.0066619434735549,-0.0024762750341715,-0.0031869278540356,-0.0004864123518107,-0.033548036106285,-0.9994318133639092,0.067708525805129,0.0418439652836492,9.830490717563245,-0.004228414179293,0.0182032224482111,0.0007813719850387,3.4735406830345585,5.047978500763657,2.070294580519078,1137.7721741247099,1138.29009424061,1122.7041359418563,1137.701918393384,-106.74423364441584,-364.80918755467405,308.2100415462423,419.58861667098233,154.5604268596196
9.170000000000002,-1.3799813940670824,-0.8673753455907393,-0.3410506705746091,0.0361567356118878,0.0036089444282137,-0.0031031988810278,-0.0032255935148114,-0.0004880414328636,-0.0335415792720988,-0.99943190654384,0.0685718797895761,0.0426681545783088,9.83296954467512,-0.0042414780623751,0.0183471565646221,0.0007795515000273,3.473524438284647,5.048026735782874,2.070300157512004,1137.8147255971867,1137.1311502603028,1123.5740884604686,1138.7327677636251,143.59347617904075,-573.1348301663505,405.5740467339445,415.93542383069774,154.560314596382
9.1725,-1.2088163123541535,-0.6377459307046958,-0.2942332664650215,0.0313809295824329,0.0009806897495759,-0.0035190784344696,-0.0032578958740622,-0.0004958221217232,-0.0335347634668545,-0.9994320281278,0.0695228693944617,0.0432769871336342,9.835629012855303,-0.0042452578646474,0.0184852198501553,0.0007799501937831,3.4735075799057125,5.048074302576276,2.070305636359196,1138.4901415056047,1135.424420089779,1124.7320061755258,1139.781595512537,318.70690979430515,-637.0726304054101,423.64623269561633,339.26945189136103,154.56014134065188
9.175,-1.0159637532597627,-0.3951617301415922,-0.2748697335586656,0.0283716285909344,-0.0003209413670756,-0.0036852117049201,-0.0032865270315805,-0.0005114866049753,-0.033528244127752,-0.9994321474113816,0.0705024052604548,0.0437367948293938,9.838448338481891,-0.0042384874300872,0.0186184114750982,0.0007859871924065,3.4734902013656885,5.048120702168596,2.070310115551478,1139.4082601461585,1133.9457871082752,1125.692319623947,1140.4291150230824,387.3053404185916,-560.1415305880926,358.9263461565118,207.1085624298252,154.55996535736236
9.1775,-0.80316866838147,-0.1336014162925643,-0.2664512392571146,0.0265464331549813,-0.0008357402565528,-0.0041070029117699,-0.0033167772196621,-0.0005301348034617,-0.0335238980407394,-0.999432186235908,0.0715798635756536,0.0441611429576657,9.841396796227329,-0.0042203502710725,0.0187480229332204,0.0008014393722375,3.473473242357323,5.048165659658337,2.070312213779483,1140.426668207698,1132.623712436838,1126.5266379063087,1140.8171383246863,382.41191232590023,-481.5957273607231,298.6784160128221,118.0860227618958,154.5597573484374
9.18,-0.5984429115472494,0.1183931793512194,-0.2552473805241912,0.0257400829761151,-0.0007887405234217,-0.0049446060466186,-0.0033506392114699,-0.000548514305125,-0.0335234963728051,-0.9994320789496672,0.0727874364256469,0.0445997592872707,9.844435162304608,-0.004190558912932,0.0188753681154327,0.0008303257747304,3.4734573409241025,5.048209244592496,2.070312084145384,1141.3203197077876,1131.537808471472,1127.1857117040108,1141.0195451368916,288.7877203848351,-367.6647445243696,214.666080118298,52.25282422251532,154.5595234872782
9.182500000000001,-0.423978698446367,0.3296527327027682,-0.2263319763902052,0.025757319003606,-8.219977627754914e-05,-0.0060628150827811,-0.0033887020696367,-0.0005655366736368,-0.0335270401323386,-0.999431823267681,0.0741121081221129,0.0450756993645954,9.847515944097202,-0.0041493341078775,0.0190015033992379,0.0008764911716878,3.473442709301184,5.048251984455454,2.0703099892888566,1141.8706068096224,1130.785388714216,1127.5999683069003,1141.0784024457987,140.86546354904,-258.6891579092531,133.61149114241655,16.407423411735344,154.55925945686354
9.185,-0.2551203025842113,0.5008206603771296,-0.1605429322141415,0.0260305623722799,0.0016047112211233,-0.0073662278473056,-0.003428543164085,-0.0005816621666615,-0.0335326047041307,-0.999431491319122,0.0755077857073478,0.0455530683568162,9.850585015373884,-0.0040972662610176,0.0191270007092054,0.0009433372290675,3.4734289523833386,5.0482949558287125,2.07030612581362,1142.0246470255329,1130.2443626819256,1127.853769159723,1141.1015822539505,-21.259639277199906,-149.82115963046706,69.06518419843006,13.470455246854678,154.55890923529475
9.1875,-0.1363350554356471,0.5529581513632245,-0.0802314042493595,0.0261308809644332,0.0037548030838089,-0.008369184259284,-0.0034676943273159,-0.0005981391353938,-0.0335373330252889,-0.9994311871743649,0.0769134393750832,0.0459947944973629,9.853582692054578,-0.0040351431031936,0.0192518545672403,0.001033420347158,3.473415277622458,5.048338953074153,2.070301487107945,1141.7643086132366,1130.0362829160636,1127.9452942278924,1141.1457547220332,-155.09052972186868,-51.52588650936311,38.17719836016145,28.176479632162376,154.5585907919057
9.19,-0.0128029212060087,0.495944572009147,0.0150582004889405,0.025687750784518,0.0065146915649779,-0.0087153277077322,-0.0035052351074031,-0.000614531213791,-0.0335393222726171,-0.9994309792489908,0.0783041481980736,0.0463923431332443,9.856445533694403,-0.0039638091447737,0.0193755373053038,0.0011482005960499,3.4734014903847914,5.048384626022761,2.0702972477613915,1141.2491943769237,1129.9867332493789,1128.0446551515236,1141.2424646521113,-236.33858008648477,-8.197287475785371,73.46677462227251,50.306359789093534,154.55824625799892
9.1925,0.1757745355862925,0.3090810377222621,0.1233104309280097,0.0244581573077986,0.0097123677364829,-0.0078328330148085,-0.0035446805829583,-0.0006274968472424,-0.0335406111353595,-0.9994307891872533,0.0797184788246512,0.0468217201044471,9.859108132887988,-0.0038840452416341,0.0194971878062094,0.0012878589901446,3.4733875386243542,5.04843252466237,2.07029344725264,1140.582615712804,1129.9952964786848,1128.3126281010038,1141.3972865209787,-216.70075663870443,-1.0939964295174032,134.75335661585345,57.4655306843307,154.55780393233533
9.195,0.3813702045193192,0.082904765409461,0.1935727331785095,0.0232979616830338,0.0113270069975008,-0.0065361844085651,-0.00358961603037,-0.0006358964051071,-0.0335451415894973,-0.999430472892604,0.0811553738345088,0.0473608109047148,9.86150695263779,-0.0037966807306123,0.0196158374924207,0.0014514132921417,3.473373473034065,5.04848278605597,2.0702898121070183,1140.16569059373,1129.9812632672313,1128.7184219346032,1141.5297923055327,-106.11054089424508,-24.661825797698288,199.53056685844209,49.26535538071291,154.55741164640082
9.1975,0.6296406149987319,-0.1593050057159842,0.238040977137845,0.0230675319259502,0.0109461529329168,-0.0055270032902226,-0.0036406377964477,-0.0006416569120591,-0.0335517207066335,-0.9994300657887796,0.0825544022652391,0.048029636300991,9.86358388286998,-0.0037029009295639,0.0197306424091441,0.0016368261700497,3.4733595476885255,5.04853466055014,2.0702867242496352,1140.0520630083329,1129.8719873496964,1129.3102809352959,1141.6436132978822,15.772381267467871,-66.09941710015723,256.004904373327,43.10929980878663,154.55699457814785
9.2,0.8868896574963419,-0.3658401982783582,0.266466778159262,0.0243912457111717,0.008742806844699,-0.0048927690797628,-0.0036967726025351,-0.000645843601164,-0.0335589963130167,-0.99942961472868,0.0838754136437029,0.0488151160817411,9.865288486875794,-0.0036040510379913,0.0198411754766901,0.0018409854698329,3.47334638029138,5.048587398369344,2.070284461289872,1140.2445525000671,1129.6507661817304,1129.99844645647,1141.7453388045767,146.63924284493513,-117.67837194036454,273.8099928622914,43.72737147636369,154.5565563116006
9.2025,1.108741449309128,-0.484408716647187,0.2861523608632257,0.0277345339032088,0.0051942011284033,-0.0043274414518896,-0.0037578375007798,-0.0006471383512869,-0.0335654070092767,-0.9994291725859402,0.0851304287465606,0.0497160812887546,9.866579737119892,-0.0035015861619532,0.0199475730286587,0.0020596647232655,3.4733340704482982,5.048639991062476,2.0702839790858207,1140.7852592225577,1129.2835954899945,1130.6793308996075,1141.862250155264,294.2224572503295,-191.80101276100865,259.45544267615946,66.85878868699058,154.55609109937208
9.205,1.280863519840822,-0.5082043041183129,0.3125259623034812,0.0331728838990429,0.0014133561230494,-0.0035756813855271,-0.0038209822710689,-0.0006472296412587,-0.0335701487130202,-0.9994287746474396,0.0862753708135627,0.0506780890162912,9.867428952870986,-0.0033969769226743,0.0200505322369835,0.0022877438866596,3.4733221389522275,5.048691563556766,2.070286120250593,1141.7156647863187,1128.6917611179256,1131.2957236698503,1142.0796327480118,361.73693162798287,-235.8082946706432,165.8784659331434,101.30696513012676,154.55549914382723
9.2075,1.3255143036507364,-0.4486136113831709,0.3449821486380974,0.0379588515505797,-0.0003225458556532,-0.0030164184801469,-0.003882840789121,-0.0006492408324065,-0.0335727377098759,-0.9994284472269084,0.0872423649104881,0.0516343565083437,9.867820628977842,-0.0032916759774969,0.0201511929643021,0.0025194019373473,3.473310507153436,5.048742485343974,2.0702920031918404,1142.5939438806972,1128.1045540166415,1131.508723229273,1142.3687849809144,339.35833204963427,-242.49482950491105,0.5267501757770418,142.7912595311004,154.5549753569353
9.21,1.2714927192133991,-0.3509220121541626,0.3955421005789891,0.0420341168528365,-0.000699559209612,-0.0024133095285786,-0.0039422239807568,-0.0006548286909261,-0.0335725058680783,-0.9994282160048732,0.0879984879530193,0.0525566753293384,9.867752335279969,-0.0031871125567656,0.0202509951569551,0.0027484327237064,3.4732993141529964,5.048793361562031,2.0703018339373327,1143.4124564465671,1127.4792869704008,1131.2983574207294,1142.7935890456674,315.90794704975053,-265.30685994267003,-196.228946143234,209.7756910402167,154.5544164722819
9.2125,1.1250027224978445,-0.2413548518746669,0.4801688363812617,0.0456424296868305,-0.0002437427423581,-0.0016464018520366,-0.0040014232666941,-0.0006614727688631,-0.0335702400576588,-0.999428046288755,0.0886000457598494,0.0534791180431684,9.86723415621386,-0.0030845787571375,0.0203516004507485,0.0029686922932625,3.473289613186347,5.048844032191228,2.0703146891982698,1144.1734836159462,1126.778019716928,1130.5275784985567,1143.4176634361158,230.64748968295177,-233.6710882220824,-357.23143985403846,231.80620029734263,154.55370114001485
9.215,0.9663420201356836,-0.1824714085897536,0.5680589852367233,0.0475730098733305,0.0004642934272942,-0.0010017395004244,-0.004062644697526,-0.0006673173517366,-0.0335672751097562,-0.9994278852644481,0.0890940151706394,0.0544310440639322,9.866288873643368,-0.0029851798754843,0.0204547897182785,0.0031746434937244,3.473281653554438,5.048893812570386,2.0703298330602875,1144.5656938949817,1126.3109315292907,1129.5122002214596,1143.952620047154,108.00993486766276,-145.5761968673249,-451.94864364916504,191.4716792611597,154.55306524431487
9.2175,0.8033392084626553,-0.1688402762391269,0.6625309778833823,0.0486003235321436,0.0010351835109882,-0.0001803082123367,-0.0041287118974592,-0.0006699320803453,-0.0335638472367508,-0.9994277155288928,0.0895419868648737,0.0554505793729938,9.86495017048108,-0.0028897150917822,0.0205623151034036,0.0033616771955472,3.4732745037140167,5.048942107597136,2.0703471783748606,1144.7135332902844,1126.0501387325914,1128.2678352803111,1144.3750218324215,27.229672611379392,-53.61944888717588,-549.518025383491,132.72538199132867,154.55238562297137
9.22,0.6242777012651723,-0.1949968632770424,0.7570770971449504,0.0494202495854274,0.0010465626535188,0.0013723676826707,-0.0041985642710393,-0.0006694538424324,-0.0335600994662413,-0.999427537147234,0.0899546254175222,0.056498500860149,9.863261744849769,-0.0027985264542417,0.0206756513701466,0.0035265485076999,3.473267369999499,5.048989005777827,2.0703662071912463,1144.7018422580384,1126.0428342848547,1126.7646100945417,1144.6162469571107,-15.098282307687809,52.00320621387714,-513.9563980556537,33.32486071216797,154.55151750175736
9.2225,0.4897910007026686,-0.2350276324449324,0.7934012841915135,0.0502451590088933,0.0004220901783728,0.0034074426891172,-0.004269110461046,-0.0006692103987154,-0.0335568890119392,-0.999427333350056,0.0902799784878374,0.0574960860689657,9.861274264096126,-0.002711463145691,0.0207957569466342,0.003667522025102,3.473259226326026,5.049035235062781,2.0703859013456007,1144.638041878746,1126.3101547636609,1125.6980532900327,1144.5416461359823,-11.4232977814504,160.56802615506524,-348.7342264253369,-83.89331856539535,154.5507493050278
9.225,0.358763728944168,-0.270906346154245,0.7519828872758422,0.0513184810768312,-0.000672283618991,0.0063447583434933,-0.0043371150784831,-0.0006733266846399,-0.0335529989034213,-0.9994271579251586,0.0904506920290547,0.058362015379979,9.859041902303856,-0.0026281026692151,0.020922884922425,0.0037844278732937,3.4732494842810686,5.04908180599214,2.070405271195355,1144.6447257691311,1126.84567441563,1125.0209389624151,1144.1967803642835,27.94240128573183,251.70508513165876,-187.460039531077,-168.98047106130522,154.54993414219337
9.227500000000001,0.218522714395808,-0.2896221528445404,0.6283121808787016,0.0524204303875716,-0.0020185254654493,0.0097854891318652,-0.0044032054788627,-0.0006792451269091,-0.0335465665871045,-0.999427072792116,0.090533612540564,0.0590875134897257,9.856618023958166,-0.0025478513985392,0.0210565680430484,0.003878515489148,3.4732386089788774,5.049129751460554,2.0704233981585047,1144.7777538851747,1127.5686801893191,1124.7607530923772,1143.6967437806757,88.12885124187673,322.8394015286035,1.8103581637203103,-213.73663617206444,154.54908012794755
9.23,0.0560658179057959,-0.27995019762371,0.405642354958685,0.0532809868911575,-0.0034143913808967,0.012786700852725,-0.0044717090061409,-0.000680417209031,-0.0335408875901737,-0.9994269518444276,0.0906769409883031,0.0597357282468095,9.854052526284796,-0.0024699279743047,0.0211957354148798,0.0039522575987536,3.473227851132175,5.049179107543406,2.0704388771284377,1145.0853700253408,1128.4598714232732,1125.029990753234,1143.1280971834233,164.8790316429641,414.934586094151,223.67447267979415,-237.51495238129968,154.54817995584233
9.232500000000002,-0.1693437079734085,-0.2391953768047226,0.0587085913209896,0.053935505555554,-0.0045220670017193,0.0140811212990853,-0.0045448666190581,-0.0006739654303855,-0.0335375965050052,-0.9994267313220117,0.0909536958443776,0.0603343001808005,9.851391281088516,-0.0023938026918557,0.021338789168713,0.0040091975907416,3.473218002185644,5.049229967459773,2.07045084952414,1145.602149043389,1129.6433531197897,1125.879125455776,1142.5091690187692,197.26518590686567,440.8063307137549,371.3750095999615,-202.06986913485176,154.54704801859964
9.235,-0.377393481073508,-0.1908584224809445,-0.2553969918046677,0.0540101462102804,-0.004584589436891,0.0129250693232362,-0.0046229857668429,-0.0006603781354967,-0.0335351204553312,-0.9994264625048708,0.0913672440023412,0.0608792927157146,9.848674228168479,-0.0023192160056207,0.0214837642867679,0.0040534605839336,3.4732092196907782,5.04928247609766,2.070459655212973,1146.0716959548747,1130.6639030768415,1126.8868658012332,1142.1177478377492,172.76473217900303,399.39094052836606,422.32089421188664,-123.57113381124579,154.54606335364193
9.2375,-0.5887611304429576,-0.1382191430687361,-0.5497854876944098,0.0530601737489814,-0.0042483079088073,0.0106110402070157,-0.0047014149362421,-0.0006445105724252,-0.0335319111380077,-0.9994262149199636,0.0918299547662796,0.0612769317138554,9.845935024112304,-0.0022459268645985,0.0216284931299865,0.0040893567311992,3.473201239161144,5.049336459716658,2.0704660023269486,1146.4659727042845,1131.6403078224319,1127.9907299268357,1141.891313349713,135.6508503298543,398.9603175557762,458.2253551587394,-63.70955613864594,154.54503842880797
9.24,-0.8161254787097014,-0.0701989522233945,-0.8509596877131526,0.0506096508164993,-0.0042751822039774,0.0078236460127958,-0.0047755154245634,-0.0006295848044742,-0.0335255753156516,-0.9994260882244632,0.0922842576164763,0.0614381544505375,9.843198886455804,-0.0021735752247417,0.0217708090053947,0.0041207681079651,3.4731935281692814,5.049391690523556,2.0704715825293665,1146.7499502065243,1132.6587046646207,1129.1779925770275,1141.799200057056,66.30041132990709,333.47948780671953,383.8733810306476,-9.912277196465007,154.5437659123238
9.2425,-0.9627982059572582,-0.0028944143916609,-1.0509345761579445,0.0477778566182407,-0.0048768384271507,0.0056142263964003,-0.0048412636334572,-0.0006203072053041,-0.0335142022137112,-0.9994261631373618,0.0926417191968395,0.0612926696952404,9.840482573465335,-0.0021015897268497,0.0219087032286905,0.0041508408907381,3.4731851584452103,5.049447717292621,2.070477640256604,1146.797474760934,1133.3077052614651,1129.9100968319883,1141.8417519637308,-17.3027462695218,205.64861726421864,219.99543914158687,32.145468742732625,154.5426733891186
9.245000000000001,-1.049338180056579,0.080935528337632,-1.1939891050268492,0.0445036181631621,-0.0057552429948092,0.0031544911055715,-0.0049000673163894,-0.0006175979086142,-0.0334980792168735,-0.9994264229728888,0.0928900984953073,0.0608800362959435,9.83779337637818,-0.0020291136394128,0.0220404724733594,0.0041817481198368,3.473175562437086,5.049504043704681,2.0704845986919413,1146.6634364751767,1133.686947750942,1130.2779697727356,1141.9599274007696,-88.57672946277015,100.80194916602764,75.96480261089432,57.69871033561693,154.54155227131065
9.2475,-1.0821127984877612,0.1915850037685712,-1.2926753416630752,0.0407404898545502,-0.0060648925596652,-0.0007179077566864,-0.0049551172145302,-0.0006185763360541,-0.0334809292943549,-0.9994267297824532,0.0930913055417491,0.0602774548323946,9.835131057531795,-0.0019550992392584,0.0221647372574168,0.0042149150608809,3.4731651270437287,5.0495604982846976,2.0704922280487015,1146.35459111362,1133.811715007295,1130.289920845043,1142.130245515409,-126.8490698231542,-3.4405864544176006,-55.26836120089874,59.0798118648426,154.54018016432974
9.25,-1.059309351389517,0.2744879936535603,-1.308997363239576,0.0380378530461493,-0.0051617557237264,-0.0045910735999691,-0.0050070687163863,-0.0006217559379027,-0.0334633970006033,-0.9994270605701427,0.0932753275536067,0.0595182375589609,9.83249049527924,-0.0018788105217762,0.0222803723962934,0.004251280760537,3.473154549476357,5.04961656754406,2.070500402726734,1146.029191126061,1133.6697448186699,1130.0016279667311,1142.2553264600936,-133.05985025770414,-92.25504697394189,-149.92610975412643,37.217640343768046,154.53901954478252
9.2525,-1.0014936718741976,0.3246325171487953,-1.259306769324103,0.0355790838290787,-0.0035575383883337,-0.0083332274247015,-0.005056948205857,-0.0006263777140173,-0.0334453358347527,-0.9994274170980948,0.0934559201313259,0.0586478069524887,9.829862299981736,-0.0017998190595703,0.0223864805811367,0.0042912555662489,3.473144712309943,5.049672252992413,2.0705087917646625,1145.6892918623316,1133.3504397724255,1129.5402902962724,1142.3163337171277,-133.25955328284823,-142.04476015131658,-185.57933911185327,6.60911567770096,154.53784759782968
9.255,-0.9284197502355646,0.337691736889174,-1.1657646519484517,0.0333669754855925,-0.0019518546453788,-0.0113599176514565,-0.0051005713259261,-0.000634161440605,-0.0334273477422644,-0.9994277985950936,0.0935931207343761,0.0576143748417016,9.82723591338261,-0.0017179477218797,0.0224822510547197,0.0043350080789485,3.473135749000335,5.049727636660264,2.070517307650789,1145.3628933596467,1132.9595210179132,1129.0737312711717,1142.2883720384823,-124.88067366441877,-157.05320820168072,-150.06092081737208,-40.20764586461436,154.53667132911283
9.2575,-0.8527837782141073,0.3067631138004212,-1.0384475810999545,0.0316909537778175,-0.000673260266173,-0.0135586244615683,-0.0051375403995757,-0.0006438776881972,-0.0334093568963142,-0.9994282083840308,0.0937059405582859,0.0564414680968558,9.824598506870784,-0.0016332041647563,0.0225669339576495,0.0043821064973637,3.473127631188892,5.049783252797625,2.0705258364113024,1145.0648884940094,1132.5651737314172,1128.7899856921856,1142.1152954878044,-123.5614992633846,-162.47025741680366,-36.044471376233446,-112.76045017473248,154.53549620359
9.26,-0.7737683464736271,0.2322977002879846,-0.8677171177644545,0.0302175407141353,0.0003593186597449,-0.0158127703649839,-0.0051701837343497,-0.0006534912690611,-0.0333912111671969,-0.9994286400733772,0.0938299483049215,0.0552074541691424,9.821936917771948,-0.0015456839198238,0.022639794317444,0.00443155768264,3.473119468592001,5.049839910466114,2.070535374307698,1144.74508586333,1132.147169730829,1128.8935089142904,1141.7245697876087,-110.27988095104868,-145.20460938299496,137.8017501768466,-168.17676812567797,154.53409586927475
9.2625,-0.7202885206109709,0.1540719112928251,-0.7201235501519928,0.0291891771529285,0.0007882435699488,-0.0175217145476778,-0.0052052562088218,-0.0006591111950337,-0.0333717290990868,-0.9994291007791813,0.0940391537721236,0.0540771828927543,9.819238623129984,-0.001455573076375,0.02270019424714,0.0044817990704811,3.473110762948701,5.049898541807573,2.070546356099862,1144.513489089254,1131.839150684502,1129.47899444307,1141.274411647176,-84.54754116295177,-126.99173201938552,351.2703790907741,-190.64430774121064,154.5329435084975
9.265,-0.6703777397284588,0.0782333463606556,-0.5734196141583824,0.0280281833341134,0.0007267307208219,-0.0188416467082049,-0.0052490022481024,-0.0006582074475941,-0.0333506865053023,-0.9994295685530018,0.0943802056212134,0.0532058157005044,9.816494463205434,-0.0013631299460825,0.0227477551524273,0.0045310516534526,3.4731025170100676,5.049959001731185,2.0705579882695595,1144.322348157515,1131.5122110707323,1130.6498608097447,1140.7713482489023,-75.93840240062183,-169.01483678828933,638.4169815977108,-211.41599659603912,154.5318141627174
9.2675,-0.5907469125985848,0.0081906359930075,-0.4013740673619965,0.0262315626690158,0.0001454439840894,-0.0199210269449805,-0.005301751591875,-0.0006516646891862,-0.0333281847010582,-0.9994300390179311,0.0948287599496749,0.0526329368374272,9.813701155968273,-0.0012687391250151,0.0227825605764757,0.0045776875896591,3.473095754345606,5.05002076521602,2.0705696945080505,1144.133797077251,1130.9940765005608,1132.6710793510579,1140.217331664196,-66.76454249833533,-223.93891630981577,816.2351049209777,-180.83969380330888,154.53049500130135
9.27,-0.4869841391524496,-0.0259585420526041,-0.260167775409488,0.0244541426772168,-0.0003485680430959,-0.0204887120482638,-0.0053601725019107,-0.0006433057475786,-0.0333030757420751,-0.999430567368392,0.0953003931442671,0.0523253627938583,9.810861503076502,-0.0011728630130356,0.0228053799429315,0.0046201744164778,3.4730904092799086,5.0500831504542685,2.070581026623059,1143.9885254450235,1130.3925164891834,1134.7310363343488,1139.867149779886,-66.42093572071515,-281.8307356996698,850.8069712568192,-107.06238920655012,154.52943279170947
9.2725,-0.323336110958868,-0.0358926611055722,-0.1156379923556108,0.0227883112285411,-0.0005129278577832,-0.0208411748002839,-0.0054176666633369,-0.0006380998645659,-0.0332782189989137,-0.999431091620054,0.0956870302584844,0.0521821608154627,9.807984819122135,-0.0010756137300293,0.0228177960740148,0.0046570338362292,3.4730855371018174,5.05014489817009,2.0705922335845286,1143.8016923986474,1129.5849228220623,1136.9251142073426,1139.6820197181632,-92.22620367052893,-352.0176637013624,853.3449193137161,-45.553189699005245,154.5284171632551
9.275,-0.1015651601006981,-0.0302187913404819,0.0379154716950078,0.0214786495401174,-0.0004996151008992,-0.0210695743732297,-0.0054698953598188,-0.0006380325679698,-0.0332558277624753,-0.9994315605787432,0.0959409847368302,0.0521394965032169,9.805085688567953,-0.0009768220854098,0.0228222200213206,0.0046865631990553,3.4730804764668632,5.050205150647708,2.070604017496675,1143.5273944266708,1128.6324281706763,1138.997760930918,1139.6393838313911,-141.29644375141734,-398.22514704954955,742.1041825473934,12.032870348869103,154.52744554982385
9.2775,0.1892033829441335,-0.0111713786815581,0.209606382953536,0.0207269766849005,-0.0004080154371193,-0.021112937350016,-0.0055138554001317,-0.0006481737738908,-0.0332337627183189,-0.9994320573975009,0.095954974781455,0.0521557697571568,9.802184594237307,-0.000876291619372,0.0228217120909169,0.0047068830672648,3.473074290323665,5.050262992728205,2.070617230063201,1143.0952101798905,1127.593797086815,1140.6356351200789,1139.7421840699076,-228.88721781432656,-444.1420862169681,555.0935148986549,67.24306699926701,154.5265326326121
9.28,0.6002024559967147,0.02250293003911,0.4410504370772163,0.0207337857442172,-0.0003069995866715,-0.0207424404665323,-0.0055523512774226,-0.0006697405627522,-0.0332108012833968,-0.999432603589506,0.0957019610963872,0.0522937231605342,9.799306219569488,-0.0007736454271383,0.0228197455893465,0.0047158974608437,3.473066717818632,5.050318190045032,2.0706319910412554,1142.3829583375991,1126.411717739592,1141.7732285054108,1139.9755991663872,-283.62840783374963,-396.8452094311777,245.2299910238779,95.02982842990029,154.52551111182547
9.2825,0.968764961224248,0.0577178222589604,0.6525547548985736,0.0216991882577232,-0.0002568308272749,-0.0198632160996892,-0.0055912215954853,-0.0006991830219824,-0.0331891632904899,-0.9994330928252204,0.0952517132629098,0.0526650500228339,9.796479585638009,-0.0006684395630393,0.0228198175461922,0.0047116271974341,3.473058599123703,5.050370901253832,2.070647621414365,1141.6770681407215,1125.6095710396587,1141.8617850751984,1140.2173332120572,-281.21433162950933,-257.28212090580723,-160.9717988714895,97.97574950747108,154.5247251442241
9.285,1.3188427221781849,0.0984161311650952,0.8730938757805992,0.0239893400162952,-0.0002308010169005,-0.0183094280692989,-0.0056350574614299,-0.0007297525319114,-0.033171677207199,-0.9994334088268664,0.094737086301436,0.0533480124376054,9.793738417330129,-0.0005605161897418,0.0228250238600933,0.0046925789739704,3.473050458816647,5.050421706440033,2.0706637999898767,1140.9768866794516,1125.1253071350627,1140.9683695110532,1140.4654779139248,-268.69740037301085,-124.6608278201868,-608.7138386361249,103.11602351514244,154.52401034692787
9.2875,1.6507797801893611,0.1491771298293723,1.1289196288926115,0.0286155652339835,-0.0001697243869909,-0.0157362399595851,-0.0056860326505014,-0.0007540178223401,-0.0331592127132636,-0.9994335151869964,0.0943039283337045,0.0543671087138135,9.791120515408515,-0.0004502612002911,0.0228377150424542,0.0046579108476994,3.473042663034738,5.050471366853276,2.0706803706137036,1140.3335811388567,1124.986266900558,1138.8182158820184,1140.7329133296328,-175.27883156678388,20.488430188421695,-938.307473882004,86.96481879295338,154.52323759189895
9.290000000000001,1.8039629475125407,0.1869694593500005,1.3169270194422924,0.0338881405305705,-2.6338642521765035e-05,-0.012891981939289,-0.005743395658592,-0.0007689568933387,-0.0331522998431823,-0.9994333997607266,0.0940116792686471,0.0556874326911736,9.788666883017997,-0.0003386175093505,0.0228592624676929,0.0046075247599766,3.473035442536244,5.050520972427529,2.070696916018812,1140.1004925216175,1125.2277492860048,1136.2768321416424,1140.9003020078896,-5.503716830161514,152.7465202829933,-1115.4474426618056,44.94270365629952,154.52266569442543
9.2925,1.781754500548101,0.2086034113848584,1.455036811602185,0.0399697894276158,0.0003151268463427,-0.0092915482488762,-0.0058077777426892,-0.0007719716834245,-0.0331504888385248,-0.9994330753168073,0.0939143941540883,0.0572977097243748,9.786419045032009,-0.0002270495504955,0.0228899993119769,0.004541913364236,3.4730293850335574,5.050571628351864,2.0707123480970857,1140.306062554706,1125.7499995019728,1133.2409786687083,1140.9576268479143,202.05781389749444,261.0406822471824,-1369.7646074891506,-16.75797337443661,154.52216952218868
9.295000000000002,1.5286777417816335,0.1985147038915527,1.5378999307714363,0.0471340101660097,0.0010691059835642,-0.0045432038411141,-0.0058774509621883,-0.0007617001668539,-0.0331519621327457,-0.99943261326756,0.094042439259575,0.0591389356343815,9.784418654741394,-0.0001174693149916,0.0229292511821149,0.0044622593506216,3.473025020982452,5.050624732954112,2.0707262094448566,1141.1107815911048,1126.5329526972405,1129.428009104198,1140.8165121410175,380.70666747115246,287.50655954010006,-1369.486987334812,-98.76337901762018,154.52166251184158
9.2975,1.1384807551112093,0.1473861609134258,1.5240793356663647,0.0522558269252974,0.0020238219253552,-0.0005018217889541,-0.0059505263309044,-0.0007420682611621,-0.0331556923876782,-0.9994320556272795,0.0943248469546856,0.0611511150828393,9.78270576469276,-1.1983710934808596e-05,0.0229756040817787,0.0043701622606311,3.473022314205039,5.050681310964699,2.0707388265284896,1142.209595892061,1127.1875322996732,1126.3935437320358,1140.4638099528263,503.250356313732,239.16543948235713,-1131.2827285952656,-197.09333182151212,154.52131420647927
9.3,0.6058038620381399,0.0424503656943949,1.414143474941055,0.055778040825022,0.0032201880598127,0.0034775877649173,-0.0060255280975268,-0.0007170062862312,-0.0331631020287781,-0.999431361803415,0.0946928846788134,0.0632819608631565,9.781317185526753,8.748623851245894e-05,0.0230273121817582,0.0042674377857233,3.4730221137581085,5.050741080379005,2.0707502527305937,1143.6270333726738,1127.7287798946525,1123.7715954612208,1139.8310454819095,591.9533305703665,189.53985433819747,-957.9371219906402,-293.762967214388,154.52104347265737
9.3025,0.0089891065597692,-0.1050246964631061,1.222268896348523,0.0572966921321068,0.0043430532665378,0.007327804205313,-0.0060997294273504,-0.0006922555994985,-0.0331763536747808,-0.9994304742229844,0.0950426361251808,0.0654563672650511,9.780285924873107,0.0001794348094577,0.0230827321236305,0.0041560320203302,3.4730248079523607,5.050802879915335,2.070760850899138,1145.1693625449136,1128.1352315713643,1121.6038581220819,1138.994995116754,608.9418195009632,131.06889700659727,-751.8844343318636,-358.4236330037387,154.52083740879422
9.305,-0.5835671176069656,-0.2850433765519531,0.9376727727160574,0.0556583343071882,0.0046781892166603,0.010615847031761,-0.0061681280552668,-0.0006712163265572,-0.0331959126368704,-0.9994294081852304,0.0953140975272009,0.0675543075756941,9.779640345200708,0.0002630784807405,0.0231406581054044,0.0040379591730986,3.4730291857380062,5.050865092438585,2.070771253738464,1146.671742470178,1128.384124379685,1120.0121732895623,1138.0389273168914,606.3880632225353,82.27117913882998,-579.9205099770919,-397.3630192252418,154.5207096612425
9.307500000000001,-1.1882649982698696,-0.4956034747981994,0.5106133317014693,0.0505395211406966,0.0033560793232968,0.013374793899235,-0.0062238962966781,-0.0006579396364147,-0.0332176424822275,-0.9994283422022754,0.0954312269797831,0.0694219757609489,9.779403384917623,0.0003384971405601,0.0232004728656104,0.0039152398789148,3.4730332754105944,5.050926055056434,2.070782060939609,1148.2013028610268,1128.5465874670583,1118.704255572196,1137.0081800206276,490.0357078173472,43.731925480180955,-395.4127146769061,-317.23662536569054,154.52064723076012
