t,ang_acc_x,ang_acc_y,ang_acc_z,a_vel_x,a_vel_y,a_vel_z,quat_x,quat_y,quat_z,quat_w,acc_x,acc_y,acc_z,l_vel_x,l_vel_y,l_vel_z,pos_x,pos_y,pos_z,mot_1,mot_2,mot_3,mot_4,dmot_1,dmot_2,dmot_3,dmot_4,vbat
46.375,-0.1038386350519556,-0.0399891128009585,-0.0668019590062031,0.0018301949840022,0.0138800967149504,-0.0201541809289605,0.0062986885382562,-0.0056151086272732,0.065432989218443,0.9978211869098293,0.0317902595375442,-0.0118159066271149,9.835405971584802,-0.006751981313506,0.0092497938134815,0.007259105133059,8.426661064137873,4.9751057675325825,2.0864957687098102,1124.5562471606215,1135.6192237203384,1138.2351169790022,1138.026433722346,-55.3635090138008,190.32674694302867,-343.6238203366371,-254.01119839503187,155.78284771090264
46.3775,-0.0833428249858653,-0.4305569400479972,-0.110542589572242,0.0015352367873204,0.0134229221888813,-0.020485205788709,0.0063265569168315,-0.0055726168400386,0.0653818125764462,0.9978245924594418,0.0309309851055938,-0.0116363952268793,9.833153312142544,-0.0068990207323991,0.0090518459807086,0.0073141129521522,8.426638263271334,4.975129763831996,2.0865159534305247,1124.5322795318957,1136.3853327308657,1137.567584382813,1137.4121208236659,51.359687894338194,451.1642552887645,-193.7899759051479,-237.8610133390032,155.7848197403658
46.38,-0.0030949568249555,-0.8597115336941711,-0.1538372220718128,0.0010270186714656,0.0097162026640116,-0.0210391864890733,0.0063534979229464,-0.0055238078725909,0.0653292154297114,0.997828125918444,0.0299685471733735,-0.011320453725467,9.830894040312335,-0.0070393048576723,0.008852276892722,0.007360063841817,8.426613715672364,4.975153538202768,2.0865362663353952,1124.8130456000936,1137.8750449967831,1137.266167099476,1136.8371286556503,154.34914621938623,617.6972655132454,-27.553759344013542,-174.5566798277667,155.7872143951985
46.3825,0.1163127536507296,-1.1260602844830288,-0.1788372889847381,0.0004170619060054,0.0050843965774229,-0.0215497820271445,0.0063800705700626,-0.0054714737034296,0.0652755824754813,0.9978317443449788,0.0289494517175864,-0.0108763173002245,9.828637828925064,-0.0071723312959016,0.0086519601669742,0.0073976605494388,8.42658728611079,4.97517589486167,2.0865565837952453,1125.304025262993,1139.4738190584335,1137.429815586093,1136.5393374245264,238.053406322013,674.5139224612326,141.80135281721215,-83.21052068043464,155.7892326106612
46.385,0.2887934196184764,-1.2605287335030328,-0.1904217246079562,-0.0004637466092768,0.0002280049734393,-0.0219425721113813,0.0064070435678225,-0.0054241008161415,0.0652216072774155,0.997835351594358,0.028034487027513,-0.010319157865456,9.82639180247942,-0.0072982054692875,0.0084524177856279,0.0074279732120069,8.426558919226585,4.9751958687590845,2.0865759413942624,1126.0033126317023,1141.2476146090864,1137.9751738635612,1136.4210760522485,327.2586626186384,762.2438275413709,305.70160284053424,-27.701901057557205,155.7912731959564
46.3875,0.5331949847514166,-1.2713843380174956,-0.1872776197282463,-0.0008829392097647,-0.004892131404778,-0.0223748287676331,0.006434695654565,-0.0053912311750945,0.0651711973394517,0.9978386392947216,0.0274077960082152,-0.0096787266176134,9.824160789578537,-0.0074179279144536,0.0082556841210366,0.0074522884875505,8.426529903231001,4.975212871638408,2.08659345594314,1126.940318576087,1143.2850381961423,1138.9583236002964,1136.4008279192387,332.5190306896847,684.028236747977,392.05340542846847,-5.0555584721197695,155.79374643354615
46.39,0.7313453957037969,-1.179154128999284,-0.1682648022344217,0.0006123989184708,-0.0082503444497434,-0.0229201418692031,0.0064612867417773,-0.0053819307256342,0.0651265176964693,0.9978414296633844,0.0272459908928157,-0.0090270768317652,9.821947433694282,-0.0075336874354588,0.0080639115455387,0.0074718975343135,8.426502078599187,4.975227146106822,2.0866092354933494,1127.6659077851518,1144.667755792828,1139.9354408907047,1136.395798259888,246.22094185692387,434.5489719146686,389.77574647027694,-19.28622349489095,155.79582697642374
46.3925,0.8689505972464686,-1.024321462982634,-0.1298068151362436,0.004449987195476,-0.0107818516686286,-0.0236560450899596,0.0064877716632795,-0.0054011693831661,0.0650873487844252,0.9978437054176484,0.0276539740450723,-0.0083809544025771,9.819751982020518,-0.0076488709759167,0.0078790804341,0.0074877129905711,8.426478006153655,4.975240052575237,2.0866250244140256,1128.1714232853703,1145.4577830557137,1140.907202332646,1136.3043968017644,146.87556600517144,189.6147789685468,360.5171443159608,-59.66286776689816,155.79792668727876
46.395,0.9261369444496336,-0.8518175676829931,-0.0763520673961797,0.0090756409377257,-0.0124461758636243,-0.0242761698144958,0.0065161064896122,-0.005443959268517,0.0650540661382505,0.9978454553685808,0.0285481813018232,-0.0077266950659193,9.817573116904487,-0.0077677327143127,0.0077027480485233,0.0075000702044653,8.426458261116457,4.975253154192719,2.08664200080852,1128.400285615178,1145.6158296876713,1141.7380266122855,1136.0974839210533,13.458830830352262,-99.74639314304467,267.18346910865847,-111.63560670769328,155.8000414998367
46.3975,0.882638171035876,-0.6939700541631258,-0.0116967790128054,0.012894306694282,-0.0128965961206607,-0.0243859403213873,0.0065444733369924,-0.0055018015316151,0.0650279760779119,0.9978466517710912,0.0297766475977936,-0.0071209431265551,9.815408080894812,-0.0078946824161614,0.0075358687979519,0.007508962891137,8.42644209310933,4.97526665966464,2.086660754798518,1128.2387174395224,1144.959051089998,1142.24311967819,1135.7462187682256,-159.13892858930842,-456.3590576346145,114.64645478273692,-179.91544650329152,155.80217357412963
46.4,0.7486408268619781,-0.5476775161793765,0.0666644118108193,0.0154762120252451,-0.0128382468583583,-0.0240594426430465,0.0065699941019651,-0.00556680055262,0.0650135185552445,0.9978470673519444,0.0312021072399954,-0.0066413627668215,9.813252292213033,-0.0080335392593309,0.007378884393288,0.0075142719971451,8.426428965782822,4.975280318724653,2.0866813821233055,1127.6045909722322,1143.3340343995003,1142.3112588861986,1135.1979066885376,-292.82495975033754,-697.8562168126768,-78.87113400707278,-213.30408548658852,155.80475079687267
46.4025,0.607080612799121,-0.4601956659652868,0.1251688226249615,0.0159847917704317,-0.013259504665486,-0.0237188053635548,0.0065923368128118,-0.005633138792748,0.0650125810537454,0.9978466138091812,0.0327339401259278,-0.0063164693035631,9.811099062321702,-0.0081870208654118,0.0072317251758969,0.0075160029481456,8.426418164897852,4.975293737555186,2.0867032829828327,1126.77459264077,1141.469770005933,1141.8487640081544,1134.679698340792,-368.9771941483672,-791.2794268267634,-294.75105068694046,-209.8319100986664,155.80691322318864
46.405,0.472115319097033,-0.3871782556817831,0.1705621203811836,0.0154727508729017,-0.0146080792107476,-0.0233252778380189,0.006610592845973,-0.0056933745572902,0.0650205367139473,0.9978456401147648,0.0342495809215634,-0.0061805805360184,9.808940600041106,-0.0083564022259822,0.0070936916295281,0.0075144901512653,8.426407596775878,4.975305743061089,2.0867252475863194,1125.7597050014895,1139.3776372653645,1140.8375036327632,1134.1487471380435,-453.00289825682097,-901.4983706320904,-552.9105290336728,-227.2398083403252,155.80909011085848
46.4075,0.3308817243063427,-0.2869509767908647,0.2045605963997333,0.0150537386355291,-0.0166781714458967,-0.022604126550331,0.0066212276208354,-0.00574226397913,0.0650321399501912,0.997844541228066,0.035664196227531,-0.0063172796211195,9.806768131670994,-0.0085411391273698,0.0069634215016082,0.0075105762607555,8.426395473537942,4.9753162576603245,2.086745764733892,1124.5095781494879,1136.9622781527767,1139.0842113629883,1133.5434992990915,-436.909831420284,-827.3115058485333,-705.6600959131657,-211.0763712292567,155.8117185809396
46.41,0.218090944752013,-0.1805416440693288,0.2133204823318731,0.0155750211180203,-0.0181265004584736,-0.0219467906665849,0.0066223144728659,-0.005778465131081,0.0650449327525883,0.9978434982829332,0.0369668263893274,-0.0067773265290465,9.804571595357015,-0.0087388480437431,0.0068388704442795,0.0075054828212343,8.426380317310691,4.975325773643868,2.0867635438583494,1123.5751558443867,1135.2410797361197,1137.3092031531955,1133.0933652818967,-323.2748047463867,-597.4365961221009,-731.2993429252298,-162.66534161428217,155.81392242436755
46.4125,0.0833595276856984,-0.0508274358245869,0.2013783761139448,0.016722693654478,-0.0188642425324181,-0.0214251521221477,0.0066136609333644,-0.0058029143231095,0.0650532785720258,0.9978428759671945,0.0381865011528448,-0.0075729769975112,9.802340342796615,-0.0089457148575974,0.0067171293939618,0.0075004818859658,8.426361085538158,4.975335601697624,2.086778072468213,1122.8932041257551,1133.9750951721646,1135.4277146483605,1132.7301725910197,-218.82726740934123,-444.7823931789069,-797.9089844825446,-132.65928586018404,155.8161405404832
46.415,-0.1283541849730155,0.1169544695518918,0.1645879934615452,0.0179336824474252,-0.0187844206975497,-0.0208959230565103,0.0066001021039152,-0.0058164219038977,0.0650486359078776,0.9978431949470848,0.0393475070337046,-0.0086096615292736,9.800063841142643,-0.009156986921326,0.0065945496857222,0.0074963900987063,8.426337689464345,4.975347523293138,2.0867905209727167,1122.4810195073412,1133.0171677702272,1133.3196582307864,1132.4300688525966,-76.00589704134768,-269.1902903690321,-714.2313755488868,-82.84101985264297,155.81881959833547
46.4175,-0.3514266097338119,0.2526209877250384,0.1164509225305548,0.0183607734073967,-0.0179497181795273,-0.0204664445657054,0.0065918072916009,-0.0058201575306944,0.0650284734501615,0.9978445446815848,0.0404778108406274,-0.0096803725630108,9.797732596042179,-0.0093673609304149,0.0064672107116443,0.0074931984080001,8.426311026489874,4.97536224502772,2.086802569710827,1122.513174640548,1132.6291437203188,1131.8565577706142,1132.3159674917563,87.58538905244744,-97.00520695927975,-498.1760967899115,-14.029023611276088,155.8210674699544
46.42,-0.6117426893312671,0.3703850162033952,0.0523539255818322,0.0179529688485306,-0.0165365113093304,-0.0201131947432318,0.0065962621017926,-0.0058146971951501,0.0649938456701397,0.9978468024665398,0.0415796194771077,-0.0106214681540493,9.79534021526565,-0.0095714826406774,0.0063312437827855,0.0074899710160437,8.426281634755684,4.975379684675128,2.086815937044519,1122.9189464526037,1132.5321417354303,1130.8287777468356,1132.35992373454,213.4905629839645,-14.688475745938092,-330.6954102545939,43.63661034480504,155.82333264952655
46.4225,-0.8835021247576779,0.4696677470294452,-0.0218828599710653,0.0168223193185553,-0.0150107986411337,-0.0198762929436776,0.0066148377475369,-0.0057994227509564,0.0649477040294358,0.9978497696731826,0.0426134755513464,-0.011379592331735,9.79288481234786,-0.0097643178618786,0.0061832752874577,0.0074849329952377,8.42624997048487,4.975398866507614,2.0868316451366806,1123.580627455467,1132.5557013415892,1130.2030807193428,1132.53415054348,305.93450864642176,12.318363160414329,-153.0962556461544,96.41292790033344,155.82561344656477
46.425,-1.1350039688239817,0.5511164783512645,-0.1019563864843348,0.0146175534646935,-0.013820031650318,-0.0198279432093069,0.0066434432442808,-0.0057711491633407,0.0648944524290765,0.9978532043707709,0.0434732379036117,-0.0119982554956252,9.790369892298607,-0.0099414496760989,0.0060208691494866,0.0074756911945488,8.42621597569627,4.975418373630432,2.08684978102012,1124.4486189958363,1132.5937335512326,1130.0632964686044,1132.841988374042,399.565721945942,-2.098535380763514,44.95392058258832,154.3401864085019,155.82791437281395
46.4275,-1.3616799799552195,0.638280273622007,-0.1926671816291877,0.010500831307009,-0.0124050964267195,-0.0200654855493197,0.0066741513943999,-0.0057294110982435,0.064839997295539,0.9978567772910476,0.0440931218729866,-0.0125942797589252,9.787803982804247,-0.0100992628815855,0.0058428052740838,0.00745967446987,8.426179722566847,4.975436158991065,2.086870024654139,1125.5784560651975,1132.545208664685,1130.4278503222558,1133.305851475523,409.0159798832783,-38.79340523716455,215.28738070866464,173.88162994472975,155.83069910582466
46.43,-1.451785027320578,0.7074183765259655,-0.2523861539767525,0.0061423317622022,-0.0108077848167435,-0.0205809887823029,0.0066983075453517,-0.0056773401212122,0.0647893820844442,0.9978602000765492,0.0444710043979104,-0.0132998809330767,9.78520032089914,-0.0102352459702627,0.0056490802507104,0.0074344692871605,8.426141925266567,4.9754506866409525,2.086891561936607,1126.493698895251,1132.3997665250467,1131.1397333721468,1133.7113965237647,343.66612322878035,-73.94628602962617,356.19369563201525,150.6284010490168,155.83303850134624
46.4325,-1.4083964855189535,0.7771056039666471,-0.2806860947936598,0.0014733407168219,-0.009026725702029,-0.0214983497434347,0.0067114120303079,-0.0056201835050974,0.0647444586968008,0.9978633522032216,0.0446483423542719,-0.014167264686745,9.782576335678264,-0.0103482965054519,0.0054406774854095,0.0073980128053626,8.426103896650215,4.975461849562889,2.0869133951698173,1127.29678668134,1132.1754772345375,1132.2088188004143,1134.0589934807674,317.877929801599,-98.74196355194222,528.0318900260254,123.71060655348664,155.83539493210696
46.435,-1.1899666322224172,0.8660773728343935,-0.2639009072055248,-0.003957397222613,-0.0070304472412368,-0.0230330748908373,0.0067112412749182,-0.0055624087257486,0.0647048921134454,0.9978662453595054,0.0446541108695763,-0.0152035769825871,9.779953691925897,-0.0104388908383775,0.005219168856324,0.0073486914769274,8.426066886331707,4.975470455746946,2.0869343618168594,1128.08308854426,1131.906056707287,1133.7798928222783,1134.3299495565327,256.9244315304836,-82.35297507804141,598.2745354907488,67.45447537087972,155.83823771925267
46.4375,-0.8791997536657513,0.9459427948322272,-0.2034448514348382,-0.0080381384380187,-0.0053411874950471,-0.0244664144085406,0.0067003736155165,-0.0055065148703972,0.0646665140121997,0.9978691185860082,0.0444878987640511,-0.0163218000854224,9.777357399003046,-0.0105090711212075,0.0049863440314678,0.0072852835781094,8.4260317641053,4.975477542951024,2.0869545187346987,1128.5814088389932,1131.7637123591471,1135.2001914778696,1134.396265857622,167.37895619809694,-21.304466170496475,552.8860733833907,-8.376809643876529,155.8406147157976
46.44,-0.4714076674400156,1.0268193825558267,-0.1022021312037311,-0.0109304971969586,-0.0035902724414913,-0.0254888515260004,0.006685254812153,-0.0054555794787993,0.0646276319526689,0.9978720211062764,0.0441710796904543,-0.0173639510421937,9.774814543132734,-0.0105621354857734,0.0047440722756226,0.0072069424221152,8.425998721495443,4.975484433671058,2.086974482483721,1128.9199833252496,1131.7995343764346,1136.5443231891927,1134.2880655083131,113.02090500065462,72.95868384122417,525.9032636835436,-79.47365805458075,155.84299318627313
46.4425,0.0574535155024722,1.1080599844956787,0.0418544253436776,-0.0119352001462399,-0.0010011820215598,-0.0256117072838127,0.0066706101803728,-0.0054122230128565,0.0645901289098658,0.997874784902074,0.0437219799659323,-0.0182101266804163,9.772353728063012,-0.0106023513874001,0.004494159643694,0.0071131743846412,8.425967685910027,4.97549182626998,2.086994618465368,1129.1465133639967,1132.1285057783534,1137.8297077962886,1133.9988975673489,53.044783517789405,174.90004420228763,384.38454445170805,-119.28954095390772,155.8458394507275
46.445,0.4664317855416832,1.1430602847356728,0.1579396537193157,-0.0103450517257415,0.0020632549538503,-0.0247586314768851,0.0066615576436617,-0.0053794568702176,0.06455623816635,0.9978772152589288,0.0431772559735761,-0.0187392545764493,9.770003374788594,-0.0106346431454176,0.0042383737302043,0.0070038598490615,8.425938611499932,4.975500040207732,2.0870152212038655,1129.1852072428387,1132.6740345974465,1138.4662459114522,1133.6916178035435,-16.30536426165809,275.6637362969065,133.96394080299066,-113.81656531031132,155.84819723792296
46.4475,0.7710774769358176,1.120665547453969,0.2478450494941011,-0.0068013315210196,0.0058028672491289,-0.0234033406138636,0.0066586249129755,-0.005358624735883,0.0645275031800833,0.997879202071438,0.0425469557579742,-0.0189244284123848,9.76779095407812,-0.010664303449799,0.003978501004827,0.0068793174727846,8.4259111745365,4.975508810796627,2.0870360919346824,1129.0649865426883,1133.5068244598367,1138.4995275003027,1133.4298147407978,-74.54416128458257,376.34022117066553,-100.64187111574336,-77.80059116617505,155.85053183934053
46.45,0.9542091703544524,1.0416233437052407,0.3087344193897355,-0.0025969576915808,0.0093076761176163,-0.0221017889960028,0.0066611850278733,-0.0053479302931651,0.0645055209677119,0.9978806570760363,0.0417909466523793,-0.0187646411209803,9.765741345771644,-0.0106966899583083,0.0037165690290182,0.0067403262851542,8.42588592772412,4.9755172973139485,2.0870568068215705,1128.8124864364156,1134.5557357033008,1137.9630365558733,1133.3026148477124,-131.69860396403774,460.05698684715856,-354.8432007360592,1.1979606995731285,155.85284132160197
46.4525,0.9800970943382904,0.8979433184953636,0.3370989711337206,0.0014948889952513,0.0121491343592407,-0.0211309417150762,0.0066687125844,-0.0053473235899973,0.0644889612614118,0.9978816719328212,0.0409159791094343,-0.0182668110132851,9.763874605276051,-0.0107368611503353,0.0034548706579424,0.0065882785975181,8.425862906907613,4.975524483609246,2.0870772414698378,1128.406493522868,1135.8071093940737,1136.7253114966215,1133.4358045442957,-210.22602281223973,574.4052765986675,-688.8138872866319,129.84159059054022,155.85511398246538
46.455,0.8533144583740415,0.6693247284109113,0.3443154917847794,0.0054743689936285,0.0149539885997073,-0.0203642092492696,0.0066791807446181,-0.0053609752593032,0.0644785622962406,0.9978821927856903,0.0400209995008763,-0.0174804491141265,9.762204449380516,-0.010789181514976,0.0031959861915708,0.0064252609276522,8.42584176377743,4.975529537006193,2.0870969397341033,1127.7613563223551,1137.4277620862915,1134.5189671194432,1133.9518228006643,-257.94386316788854,591.690645158512,-899.3503781901783,242.16572984615937,155.85779091721076
46.4575,0.653881523948485,0.4526721575953409,0.3359526115289345,0.0075345711880305,0.0164681701833898,-0.0199403369141607,0.0066892194229183,-0.0053922642633808,0.0644747584013492,0.9978821982224464,0.0391985222140342,-0.0164880995679117,9.760737750593288,-0.0108571189569144,0.0029425515133664,0.006253913992258,8.425821805158876,4.975532586732537,2.0871151222295428,1127.116774207028,1138.7655626198675,1132.2285596056684,1134.6466331935271,-271.0936519772508,500.6398407574746,-956.6548438549597,308.0656181301735,155.85997473478764
46.46,0.4131180204127756,0.2386621042361908,0.3173448872935096,0.0079914458670156,0.0167585066418068,-0.019542785362051,0.0067006269592254,-0.005436634706065,0.0644723272410003,0.9978820365294536,0.0384021857806421,-0.0152690392615313,9.759473911472856,-0.0109431477123712,0.0026969905548769,0.0060771378539719,8.425801786272528,4.9755339766939,2.0871313741216846,1126.4058880624684,1139.93096129008,1129.735692900166,1135.4921508913162,-312.8129055936486,434.3681766101184,-1068.130422638904,363.5586362973877,155.8621043660094
46.4625,0.1352971803729763,0.0154034041931861,0.2804824204346142,0.0072333585957996,0.0158461052500249,-0.0188777385321507,0.0067171509128521,-0.0054858198880898,0.0644671621834365,0.9978819911949006,0.0375226742203761,-0.0137668355301201,9.758403977575602,-0.011048572027423,0.0024614202516216,0.0058980224001038,8.425780421232181,4.975534488283642,2.0871462587148844,1125.552709679061,1140.9374035029164,1126.8879074924787,1136.4644263750124,-297.80920172532433,279.32515668325584,-964.5748921615062,315.59837600081886,155.86459173481492
46.465,-0.058857034431471,-0.1315672951800346,0.2318332715304806,0.0062883132365216,0.014536056247725,-0.0180659343598774,0.006741213425637,-0.0055343841607994,0.064458444439263,0.9978821278565926,0.0365086715523178,-0.0119604070195841,9.757509951936166,-0.0111735359409196,0.0022375654026957,0.0057198278265232,8.425757018957134,4.97553463163727,2.087160099299352,1124.916842053841,1141.3275870734972,1124.912818439356,1137.0701427713211,-217.43889015722533,44.86185192897644,-651.9005673591739,165.90661791743213,155.86660417425043
46.4675,-0.20052444254792,-0.2434746475844168,0.1579287344398995,0.005466977064103,0.0136536553162357,-0.0170177639669606,0.0067726560209359,-0.0055811757552796,0.0644507365922502,0.9978821581548916,0.0353912146480137,-0.0098890365838378,9.756765076087863,-0.0113172263001961,0.002026809125861,0.0055458957924559,8.425732083095177,4.975534200978263,2.0871729319187873,1124.4655152282744,1141.1617127625611,1123.6284046556812,1137.2939594646,-132.82015182342803,-202.55247273803664,-368.00271401768254,-11.962197152944976,155.86855030929428
46.47,-0.3104444927274622,-0.3602205412027887,0.0406275031706057,0.0044343004858589,0.0136091530384073,-0.0158566701601333,0.0068089486591968,-0.0056251032806946,0.0644479262241481,0.9978818543761276,0.0341997329409173,-0.0076414820765797,9.75613513409039,-0.0114781827515298,0.0018301078526806,0.0053794530618935,8.425706145076097,4.975532946236624,2.0871842823990905,1124.2527412947245,1140.314824709808,1123.0728048692692,1137.0103317855564,-12.996453136650132,-405.14012762602954,-35.77981261085358,-197.27061647789836,155.8708055160473
46.4725,-0.3576268754014864,-0.4576125215283751,-0.0712020447708667,0.0035425464114543,0.0138589899102553,-0.0154429824834337,0.0068441484303823,-0.005661846228441,0.0644500683956831,0.9978812780570598,0.0328947585669802,-0.0053706153631349,9.755580205078166,-0.0116545029414645,0.0016479054685734,0.0052233991457946,8.425679328106119,4.975530280909932,2.087193440763111,1124.4005329625911,1139.13601212443,1123.449505592627,1136.30760638221,125.22992172496701,-540.7958004795053,299.9461012610311,-360.738399181807,155.87261597801637
46.475,-0.3682065548495618,-0.5566239065418731,-0.1762418386795188,0.0027742225158389,0.0134355099853276,-0.0159917993596498,0.0068718022438164,-0.0056897235752267,0.0644527620608294,0.99788076699523,0.0314840728449543,-0.003242764757551,9.755055368069403,-0.0118438861525596,0.0014800697593714,0.0050802070096785,8.425651589446158,4.975526506477532,2.087199494244935,1124.8788909033497,1137.6108457074088,1124.5725353755752,1135.2066397896465,233.3299119108081,-640.6997985181904,535.4876032857513,-481.2404877685651,155.87435301723272
46.4775,-0.3555758588597512,-0.645168735544507,-0.2579439661597591,0.0020156213817809,0.011969013053502,-0.0171714692170997,0.0068910484552896,-0.005708907198061,0.0644492885546415,0.9978807590813152,0.0300135472806984,-0.0013163872655948,9.75451212488844,-0.0120437313302589,0.001325899712909,0.0049515668586469,8.425622850902382,4.975522283047905,2.0872027689722006,1125.567182522144,1135.932513131842,1126.1269436090531,1133.9014039433691,297.72387623714394,-675.4399186698448,666.571710918538,-531.5550802050448,155.87602813497367
46.48,-0.3219968056591283,-0.701193451966059,-0.2968945763562409,0.0012621438217334,0.0094303712163224,-0.0185640491166273,0.0069028459886666,-0.0057162513754006,0.0644352276514274,0.997881550296685,0.0284606279924965,0.000392576508041,9.753901658749987,-0.0122512814109106,0.001184153039182,0.004837910071845,8.42559263585406,4.975518083216285,2.087205045385946,1126.367510284536,1134.233646114058,1127.9053939301696,1132.54886438862,332.31980769857097,-714.9530497207687,754.9096397611952,-553.762121064336,155.87762781825023
46.4825,-0.264980602971941,-0.7155791236309436,-0.2890386948838408,0.0005442002948514,0.0062549483814009,-0.0200695775159182,0.0069080702129906,-0.0057100959736324,0.0644111184289991,0.9978831084405134,0.0268248458532864,0.0018691260663103,9.753177042279232,-0.0124637034411265,0.0010531468663429,0.0047382988461551,8.42556031417702,4.975514783708139,2.0872077734074055,1127.2287815606376,1132.3577478832365,1129.9014918078612,1131.1325933380463,266.17160909342255,-640.2739859546184,658.2862969729906,-453.4089572689968,155.8794598388515
46.485,-0.2078273591697736,-0.6856465037691029,-0.2421785016258931,0.0001361593229604,0.0041465228180786,-0.0210415232258891,0.0069100879288087,-0.0056934840816395,0.0643809344182397,0.997885135063066,0.0251934807032637,0.0031466157925275,9.752295147125167,-0.0126782409206107,0.0009309034401788,0.0046505088284673,8.425526706555862,4.975512150843848,2.087212317275394,1127.698368330002,1131.0322761842879,1131.1968254150315,1130.2818196022768,107.10607325153408,-468.35632119949565,399.7222125280816,-249.18613204018567,155.88091352111667
46.4875,-0.1435112605132651,-0.6263994561397115,-0.1669602599092367,-0.0001146271222579,0.0026215478527312,-0.0215728582390171,0.0069126426043036,-0.005670680983696,0.0643487690449617,0.9978873153351284,0.0236712177282107,0.0042709666155976,9.751219620466792,-0.0128924085062165,0.0008152418672225,0.0045711616765322,8.4254923525967,4.975509648977544,2.087219481224537,1127.7643119268955,1130.0159662772376,1131.9001028705027,1129.8866626778447,-75.22287877464595,-378.6575066760515,154.8826782492714,-64.54906568602718,155.88229131244512
46.49,-0.0579020461881204,-0.5421693866464095,-0.0635016690984481,-0.00030935682102,0.0012631039883731,-0.0216363857096551,0.00691777500573,-0.0056447849711053,0.0643172768298238,0.9978894467748504,0.0223313841221585,0.0052638888801809,9.749923336394026,-0.0131040918118783,0.0007038512721134,0.0044960260859324,8.42545701528403,4.975506649103226,2.087229041513804,1127.3222539361286,1129.1389886509066,1131.9712388062783,1129.9590742738467,-238.8916449311081,-275.9137906342639,-93.45627234251283,106.03842594596792,155.8838563775631
46.4925,0.0222957871770934,-0.4741293758753757,0.0207034951907196,-0.0004252018875725,0.0004982614973944,-0.0213443688782751,0.0069251328185479,-0.0056189075915788,0.0642866984955126,0.997891500002798,0.0212386642696506,0.0061083673071109,9.748389799323732,-0.0133115976112052,0.0005943008929032,0.0044204536440714,8.425420152998385,4.975502903478054,2.087240610597679,1126.5698537022413,1128.6363973240675,1131.4328215087903,1130.416854807574,-350.29224878831,-170.90908430102073,-305.38970465423097,238.384602654913,155.88508633842363
46.495,0.113997659961464,-0.417877543990575,0.0921980941101549,-0.000503227225495,-2.23661982236913e-05,-0.020943304125866,0.0069332384265283,-0.0055958896943481,0.0642580166930122,0.9978934080069644,0.0204459745931145,0.0067738989311516,9.74661380639855,-0.0135137679440018,0.0004841219305757,0.004339744872494,8.425381543311802,4.975498731644389,2.0872539391224354,1125.5707926921887,1128.2844432294023,1130.4442902830085,1131.15099728712,-409.9848488386391,-125.33473977930907,-432.5754782367373,313.920691758743,155.8862380460932
46.4975,0.2151432532660351,-0.372355549108973,0.1491259069415606,-0.0005159968184897,-0.000502300357516,-0.020551433743768,0.0069431921368104,-0.0055811387956309,0.0642316108807962,0.9978951107312598,0.0200552285405216,0.0072847858696859,9.74460084958424,-0.013710114069351,0.0003707994309066,0.004249548678036,8.425342290577115,4.97549475440411,2.0872680583305105,1124.519929458047,1128.0097236251709,1129.2699441176055,1131.9864582663683,-396.65904132478033,-93.22935083300541,-463.7047211842757,328.9541844509267,155.8873237190992
46.5,0.3226509357419463,-0.3333500619481242,0.1864144260424228,-0.0003485736699985,-0.0011263853301315,-0.0201747230202033,0.0069564936155037,-0.0055786844282862,0.0642063289358026,0.99789665242859,0.0201387939350893,0.007682149080776,9.742367253192521,-0.0139009364751058,0.000251781172916,0.0041459831579644,8.425303942866872,4.975491784715013,2.087282170548322,1123.5874974855635,1127.818296475237,1128.125766677086,1132.7957682093756,-348.9258490815691,-54.741970472382256,-435.94247506874666,321.6503209525596,155.88832805397783
46.5025,0.4438219847251018,-0.2795272257640908,0.2063764482799889,0.0002661204410059,-0.0022006685028084,-0.0196628161273596,0.0069777215967597,-0.0055895243451911,0.0641826492609192,0.9978979671282456,0.0207116086045382,0.0080773376531217,9.739938873038366,-0.0140872205629868,0.0001247185119216,0.0040257048005539,8.425267961256948,4.975490329824352,2.0872968082122334,1122.7753002126408,1127.7360137728092,1127.090231742264,1133.59470987113,-235.90120091618456,7.708853947993397,-290.0242020260856,253.8844941815634,155.88943660652035
46.505,0.5208753927039015,-0.2178777797133709,0.200291546668807,0.0013040400514264,-0.0033442427028612,-0.0191139279720668,0.0070054151723418,-0.0056090976292142,0.0641634333857564,0.9978989059462544,0.0216714489885114,0.008476649021751,9.737351050373027,-0.0142703225747222,-1.2382439524059004e-05,0.0038859172216296,8.425234816184634,4.975490332804365,2.087312893061464,1122.4079914809822,1127.856840744977,1126.6756456669548,1134.065190680284,-87.92929943047106,104.28910311347076,-51.89891308388797,148.24048760248536,155.89027780043736
46.5075,0.5481226504984457,-0.131685343222735,0.168278059299049,0.003062149038272,-0.0044251682837502,-0.0183959696106662,0.0070359748450718,-0.0056290773826866,0.064146959981943,0.9978996488700872,0.0228392355653634,0.0088534357718546,9.734646078009572,-0.0144514829615342,-0.0001611061813381,0.003724598886769,8.425202795885836,4.9754909323848455,2.087330158035097,1122.3356537154882,1128.2574592883768,1126.8307371768444,1134.3359123091427,11.29188776318305,254.28448875691564,196.900916598176,86.54083869322363,155.89103106110943
46.51,0.4983710840182202,-0.0042699238245545,0.1008077377682187,0.0059568751564641,-0.0048831004582394,-0.017447970659742,0.0070667010408271,-0.0056454840363062,0.0641331699236274,0.9979002382090656,0.0241207699743525,0.0091955617949883,9.731869912306445,-0.0146313825733883,-0.0003222618013572,0.0035409668263101,8.425170365205604,4.975491219465826,2.087347646518185,1122.464450919798,1129.1282631887605,1127.6601502499448,1134.4978948737498,58.06126288058962,386.40328461122647,392.0056109223237,46.87084580079829,155.8918313413693
46.5125,0.3815746762853574,0.1124082258164504,0.0263050887673459,0.0086138662622404,-0.004381864087277,-0.0168543270834799,0.0070955827159483,-0.0056558127368749,0.064123011495404,0.9979006398344176,0.0254505554246245,0.009503060066509,9.729070094484879,-0.0148100241843554,-0.0004958213777854,0.0033355561096876,8.4251368786078,4.9754907884621815,2.0873639185357615,1122.6259600298913,1130.189475711434,1128.790765231457,1134.5702665381468,47.714887540199165,483.85575057748406,504.6463456371076,34.00342718821855,155.89241083163083
46.515,0.2015898862273566,0.2300519956879584,-0.0526452952280604,0.010427132262718,-0.0035769748446384,-0.0169492512230775,0.0071201708335764,-0.0056595035977274,0.0641150497652562,0.997900965950452,0.0267993200500957,0.0097637703464321,9.726293533324494,-0.0149867688082296,-0.0006810249159671,0.003110219803015,8.425101855037285,4.975489287739432,2.0873772140399556,1122.7030253574992,1131.5475419416491,1130.1833819781316,1134.667912009691,-2.8493948832445763,634.4979761390136,617.2521427357126,65.16479507437468,155.8928988002475
46.5175,-0.0416950158142678,0.3686905096054479,-0.1318201503439612,0.0105669033996251,-0.0027638960214399,-0.0177543022171149,0.0071357621345792,-0.0056543947104244,0.0641058346191124,0.997901483868692,0.0281026986960655,0.0099207905669681,9.723584981717888,-0.0151605024279269,-0.0008764273257547,0.0028677878803764,8.425065160285232,4.975486553321768,2.087387173397176,1122.611713055475,1133.361965592126,1131.8770259451328,1134.8960905135184,-60.841089535338845,660.3054830838834,583.5509323909462,107.96126928529635,155.8933782128069
46.52,-0.2264786553392666,0.4818672593987254,-0.1733686542967345,0.0091372266681197,-0.0021860181240146,-0.0185770263758447,0.0071409451945468,-0.0056392211033807,0.0640936747735508,0.9979023194921308,0.0293166075519666,0.0099754775789727,9.72098425226741,-0.0153298234908715,-0.0010798326223362,0.0026117858212227,8.425026733546014,4.97548224196518,2.0873941858426535,1122.3988199098224,1134.8490693570702,1133.1011366400878,1135.2077183561175,-92.20826171449347,538.9496544224556,409.3094349991768,145.885169115143,155.8936893956829
46.5225,-0.3542816983417034,0.5884793220108459,-0.1835864779565147,0.0071117114871108,-0.0012984347976407,-0.0192700427586566,0.0071390174914891,-0.0056171878026271,0.0640785442593373,0.9979034320318664,0.0304883290214596,0.0100090390501353,9.718524338737955,-0.0154932549068164,-0.0012884159803345,0.0023461752954178,8.424987015004275,4.9754757598570025,2.0873983543952375,1122.1506717469024,1136.0567138642396,1133.9235731201295,1135.6255163590945,-82.88795409724379,401.4132092685954,241.30705378028443,172.19464423257904,155.89390950136735
46.525,-0.4213616678736678,0.6814033853417998,-0.1680577720125054,0.0051584922314517,0.0003131249027617,-0.019793845948103,0.0071344323649559,-0.0055915181860555,0.0640611837181833,0.9979047239267836,0.0316658459580892,0.010118069871946,9.716231599167651,-0.0156494849596565,-0.0014989613663052,0.0020748721306,8.424946229621494,4.975466893627532,2.0874002349655916,1121.9843801393365,1136.8561354034111,1134.307671908988,1136.0686915772799,-25.016664350947327,193.79376835535456,37.30248698832749,158.25929188268762,155.89405486572824
46.5275,-0.4166762989385068,0.7458161583508124,-0.1245561559812426,0.0036143680589912,0.0027575355614349,-0.0201326089869673,0.0071309603818482,-0.0055643455085347,0.0640417760743116,0.9979061452863768,0.0328744482063074,0.0103797039232541,9.714125928766697,-0.0157975386785841,-0.0017081557580405,0.0018014209592464,8.424904769344137,4.975455852354266,2.0874004603592207,1122.0255884251476,1137.025682706017,1134.1100855550715,1136.4168128185083,75.63530072057571,-77.14540249253933,-216.065261442262,93.15884544648506,155.89411145644388
46.53,-0.344676535909423,0.7834808297277281,-0.0447109323400178,0.0023325137308698,0.0055587462938458,-0.0203825419710414,0.0071300733624812,-0.0055347080117788,0.0640194360586953,0.9979077485982908,0.0340764183717947,0.0108227152881373,9.712221510931615,-0.0159369042217906,-0.0019128703575602,0.0015287220518117,8.424862694107818,4.97544221886252,2.08739948152904,1122.3625566429396,1136.4704083909485,1133.2273456017763,1136.5344858045123,163.70433180742447,-311.9947575576698,-415.15731339819934,-32.04452721404964,155.89407899971698
46.5325,-0.2462593092104695,0.7857063633456476,0.0415090768985622,0.0015965244874515,0.0073743549342745,-0.0204873051744792,0.0071319577445993,-0.0055044418043136,0.0639943983316599,0.9979095082604036,0.0352872093221553,0.011440223330083,9.710526745416,-0.0160676163837771,-0.0021103599510011,0.0012590956676567,8.42481982018805,4.975426234476704,2.087397217065052,1122.844110084184,1135.46570891823,1132.0342989880824,1136.2565901824382,213.773139204686,-472.2290358120375,-541.9745715505497,-207.70330767935152,155.89397033716173
46.535,-0.1293438248984568,0.7660678133204273,0.1434242806555243,0.0012689694588936,0.0089561003686758,-0.0204685344054435,0.007135048250859,-0.0054766311724489,0.0639710723481716,0.9979111361445712,0.0365454689237332,0.0121833158427908,9.709045503910994,-0.0161903817756369,-0.0022984351789125,0.0009941425456598,8.424776676822649,4.975408793643154,2.087393772771192,1123.4314223389636,1134.109263211887,1130.517472744022,1135.4959692661153,257.27920011145693,-618.9104391417931,-698.4005964884155,-445.08979525644423,155.89377981190844
46.5375,0.0086539557013757,0.723799924407671,0.2752111858776472,0.0014580762272454,0.0110219329333633,-0.0202057344704566,0.0071365683988122,-0.0054540739201541,0.0639517951158507,0.997912487391208,0.037884509226492,0.0129745465878443,9.70777847533424,-0.0163066116976688,-0.0024758531460421,0.0007346178202414,8.424734458343725,4.975391393149644,2.0873893545262594,1124.130506084742,1132.3711567225196,1128.5422960056385,1134.0311412061549,242.57834965668968,-617.1085354674389,-715.1740615218068,-611.0628087934957,155.89346040332123
46.54,0.1074140332336589,0.6754450133145182,0.3831693161190794,0.0020363718901255,0.0130723241328519,-0.0196665646555986,0.0071372158811613,-0.0054395003980687,0.0639367278213341,0.9979135317381737,0.0393427816543084,0.0137997577314054,9.70672376987239,-0.0164183241276344,-0.0026423568706392,0.0004804199977181,8.424694241466291,4.97537542786167,2.087385139330167,1124.644314087246,1131.0237205345527,1126.9416024364164,1132.4406552221503,186.57724584399608,-487.16614458887847,-589.2003437026401,-674.103950128593,155.89312176668307
46.5425,0.1785592200772249,0.6189397472733098,0.4732614024088634,0.0027728589538374,0.0149636983133742,-0.0186283022172792,0.0071397038247426,-0.0054321761272695,0.0639284395275121,0.9979140888459018,0.0408964582702711,0.0146852955984844,9.705878818152206,-0.0165278896127979,-0.0027983878658745,0.0002305257224061,8.424656568290011,4.975361900435497,2.0873824521930473,1125.0633923139624,1129.935325999574,1125.5962942871236,1130.66062145551,168.1177422453906,-406.3445168370631,-489.6600530991914,-771.154874640448,155.89271215076693
46.545,0.2281998034466092,0.5555757492353077,0.5399527408059139,0.0033410920465178,0.0166143888400064,-0.0166880580602955,0.0071468460219849,-0.0054305239480784,0.0639297761786535,0.997913964403678,0.0425077054030936,0.0156589795406826,9.70524147489145,-0.0166375922639834,-0.0029448501155215,-1.6721687031217037e-05,8.424621539883832,4.975351108666249,2.0873817764080638,1125.4849027984733,1128.9919979503663,1124.4933021709192,1128.5848808489463,148.1611109709303,-290.03548345926,-294.9288835815832,-712.8689115684327,155.8921438658969
46.5475,0.2395771645925935,0.5188687474343282,0.5487504199410822,0.0036096902692661,0.0176247376236826,-0.0145830082654016,0.0071580376039052,-0.0054291061674582,0.0639396354962219,0.9979132613502444,0.0440612950127015,0.0166869930984388,9.704811810655672,-0.0167491265074895,-0.003082872033736,-0.0002633975445491,8.424588070688733,4.9753410987378395,2.087382810853851,1125.8041978688163,1128.4851485822787,1124.1216498692172,1127.0962768976713,128.1486082929204,-161.50181478706975,-18.907754871306096,-513.5955942629254,155.8916101370222
46.55,0.2169698526711207,0.5111056884952271,0.5044659552509149,0.0041832661919293,0.0184362139788372,-0.0125113829357711,0.0071729503442329,-0.0054222505425578,0.0639552765374339,0.997912187409383,0.0454386722638321,0.0177420234102595,9.70459160468786,-0.0168632193374211,-0.0032134646343257,-0.0005114893380707,8.424554588065929,4.975329770650645,2.087384732586619,1126.1256458399382,1128.1844888764304,1124.3987633965623,1126.0169028776304,130.76354958768792,-101.4376373919212,218.63241260587256,-354.61552921656266,155.8910181194675
46.5525,0.1621945510023891,0.5323387396864333,0.4229436985981967,0.005149248229305,0.0191308026049875,-0.0111782494614049,0.0071919561271596,-0.0054069248613969,0.0639738622606881,0.997910937611952,0.0465732346221398,0.0188087663540455,9.704583990769235,-0.0169794812074579,-0.003337457121307,-0.0007625059225663,8.424519961752038,4.97531629641388,2.0873866699968993,1126.4580156167551,1127.977960395319,1125.2148119322471,1125.3231992515875,132.1593256667094,-73.56996179639604,440.78045965005987,-190.10780637276193,155.89038056802923
46.555,0.0678772990190574,0.5872933071656778,0.3122305934773057,0.006277344792417,0.0198920374803277,-0.0110108649924289,0.0072135539787253,-0.0053836590542147,0.0639908804670334,0.9979098086584552,0.0474640218778819,0.0198337726046133,9.704793493270943,-0.0170964669267272,-0.0034557199545142,-0.0010172958868341,8.424483491508205,4.9753011230865924,2.0873876532385,1126.7864424682712,1127.8166390674487,1126.6026656948109,1125.0663638457675,132.4133175967585,-64.988233211684,703.950477204402,-34.10324331028651,155.88969113850445
46.5575,-0.0782663496586197,0.6797210803920243,0.1601753904112283,0.0071173172344243,0.0212760172366662,-0.0110506127145341,0.0072356794127845,-0.0053536435152677,0.0640009811749393,0.9979091519781464,0.048120389645826,0.0207550788988103,9.705225724378282,-0.0172119022575871,-0.0035693406326907,-0.0012760990429578,8.424444224408548,4.975284777742628,2.087386938141271,1127.1200822047383,1127.6530192292607,1128.734564318266,1125.1526830350363,101.1255623136486,-49.311083599898,821.3946895339069,75.52854606943357,155.88880730607784
46.56,-0.2071500049503265,0.7631557425236357,0.0187833986769369,0.0067959197902136,0.0231065880921588,-0.0104267564391657,0.0072543746256856,-0.0053168030109893,0.0640005793136927,0.9979092267070256,0.0485226828455702,0.0214793270266501,9.705887236917263,-0.0173230431683597,-0.0036796553886059,-0.0015387140447762,8.424401392292417,4.975268154453933,2.0873844420233505,1127.2920702798397,1127.570083649449,1130.7096391424825,1125.4440065761148,33.68127789447595,-10.732363228311408,782.3376903246843,134.2719442027141,155.88802588003347
46.5625,-0.3130869097221299,0.8327545910429369,-0.1382116276577742,0.0053257736912073,0.0258053638472045,-0.0095363908799914,0.007266914038655,-0.0052739935842492,0.0639865035205407,0.9979102513835196,0.0486686438208576,0.021940071549961,9.706783962998866,-0.0174271216249612,-0.0037883019613423,-0.0018045440389612,8.424355263142543,4.975252339274314,2.0873806244760806,1127.2884885942108,1127.5993574131192,1132.6462527698911,1125.82404275605,-52.876529952575645,48.858576104520445,792.9840621834893,158.74762570670896,155.88720009187278
46.565,-0.3872522852869114,0.8863111793818516,-0.3302202563227772,0.0032076715919816,0.0296791907716451,-0.00947703201885,0.0072744408552829,-0.0052247554082782,0.0639611590512344,0.9979120644589122,0.0485337474398993,0.022151760916023,9.707920294164563,-0.0175218423233556,-0.0038969150829822,-0.0020727729082988,8.424306979870343,4.975237527197538,2.08737608678794,1127.027687630077,1127.8143765299717,1134.6745594533963,1126.2377447046476,-141.33731752896935,110.24903085998449,667.4129489181947,129.16252594493685,155.8861600603972
46.5675,-0.398024723915083,0.909777894368736,-0.4711042690959271,0.0016886748623939,0.0326037269675571,-0.0106139155912691,0.007277840850271,-0.0051673762191148,0.0639295113394467,0.9979143491161264,0.0480680844968235,0.0221299626153098,9.709299018138907,-0.0176057181952102,-0.004007003350664,-0.0023424598800692,8.424257625134473,4.975223324069527,2.087370966989502,1126.5818020065656,1128.1506025674196,1135.983317514484,1126.4698553857752,-222.3939471867424,161.61155703231003,425.1552497529345,61.41659896703954,155.88525398128922
46.57,-0.3602289301542294,0.9322568208357787,-0.5622778286162458,0.0006278795009455,0.0342158725497409,-0.0126376442646335,0.007280434728661,-0.0050996028831009,0.063895720393778,0.9979168257000324,0.0472145814336234,0.021942745165,9.710920062740929,-0.0176782495454412,-0.004119892057601,-0.0026124936852816,8.424208063455353,4.975209180424121,2.0873651434416143,1125.9157178941427,1128.6224343151337,1136.800335702162,1126.5448276994828,-331.11971743431343,228.53070376375263,236.68709420488693,3.432966308858734,155.88430887172626
46.5725,-0.2716561828323023,0.9842684049092328,-0.5896974027667278,-0.000186864899052,0.0350130692662995,-0.0153625989279414,0.0072816964394216,-0.005019651413764,0.0638621708801679,0.9979193546709324,0.0459221583502701,0.0215875093364938,9.712780799744488,-0.0177399905377326,-0.0042366236996262,-0.0028816165067633,8.424158488893681,4.975194498850938,2.087358847509181,1124.9262034193955,1129.2932560862373,1137.1667529855074,1126.4870202173195,-380.48006284956136,257.5319973421348,30.560607542322767,-29.644796273654105,155.8831318363666
46.575,-0.171769020072136,1.0519066301221716,-0.5380020634542144,-0.000607758037336,0.0357454774687858,-0.0174771091461412,0.007279745017543,-0.0049316529251152,0.0638323879355887,0.9979217041809736,0.0442559970454726,0.0210320157284058,9.714874378270991,-0.0177926102268682,-0.0043578461017048,-0.0031482004896341,8.424109211648258,4.97517902137204,2.087351784505488,1124.013317579894,1129.9100943018448,1136.9531387398736,1126.3966037181146,-364.6388596644964,256.9771634514431,-190.5773511034502,-13.75512838521196,155.882116890055
46.5775,-0.054901152847925,1.1210079993147235,-0.4152751861065633,-0.0008926490353494,0.0375245058989772,-0.0190702043718298,0.0072724190867096,-0.0048450267836343,0.0638113838603311,0.9979235233527444,0.0423882473448819,0.0202355286859606,9.717189329220105,-0.0178388590500733,-0.0044838615847692,-0.003410263655863,8.42406177708442,4.975162685931769,2.087343130899338,1123.103009121072,1130.5781419034952,1136.2138662299897,1126.4182445753931,-350.8925979339445,278.19403768133105,-376.0045059252898,56.313613972776075,155.8810686225948
46.58,0.0692521465733489,1.1571836872418224,-0.2462498502282917,-0.0011062834644179,0.0403448983627668,-0.0201544970700891,0.0072590643112589,-0.0047694496535449,0.0638009265467405,0.9979246583988524,0.0405038282039973,0.0191893913092823,9.719709784480573,-0.0178823301521222,-0.0046149110759893,-0.0036657010351457,8.424016912512977,4.975145745876894,2.087333014616495,1122.2588545902258,1131.3010644902504,1135.073116210249,1126.6781717879783,-310.4464501385113,307.41003233372527,-534.2603334331211,195.90326834221725,155.8799943103158
46.5825,0.1921658613135064,1.1069346109507134,-0.0422798652070556,-0.0010404796598417,0.0441345286181853,-0.0206576908637963,0.0072414013980194,-0.0047124701715145,0.0638023718169794,0.9979249772300636,0.0387561039220732,0.017936208611874,9.722415616024717,-0.0179271306663417,-0.0047511868230277,-0.0039124750830457,8.423975246982193,4.975128884466868,2.0873222846584865,1121.5507768703787,1132.1151920651644,1133.5425645628227,1127.3977609171047,-272.16475273207556,383.8939295133824,-722.9641448318429,453.1932739716877,155.87889057796687
46.585,0.3207504125689993,0.8993951047358212,0.2116968937587208,-2.6156051107112247e-05,0.0492338726265795,-0.0206152938359453,0.0072225545210063,-0.0046739383342509,0.0638144984146948,0.9979245384587848,0.0371577728837638,0.0165574829933062,9.725283379518409,-0.0179773514750544,-0.0048929579437784,-0.0041488770300783,8.423937275940922,4.97511259980349,2.087311837106168,1120.8980308265648,1133.2205341378183,1131.458295486088,1128.9441381578379,-205.37445375639925,426.3656219987537,-767.2028567871778,684.5846718705476,155.8775347440076
46.5875,0.3992655386456472,0.5899027262005857,0.4058498503633436,0.0014828777744767,0.053241999365721,-0.0199929855415414,0.0072068548806598,-0.0046444802190004,0.0638300705270047,0.9979238150562956,0.0355505447264639,0.015171282667732,9.728286760787118,-0.0180364702999587,-0.0050406717231042,-0.0043735326647773,8.423901253728745,4.975096651634657,2.087301331184716,1120.5239046015977,1134.2470201751564,1129.7065502788903,1130.8206842764544,-117.65969704382206,426.4343831120733,-657.0958362471905,849.959183887742,155.8763807607293
46.59,0.4401653425341283,0.1559937274773889,0.5497032172151031,0.0030195631311669,0.0560610701853764,-0.0186301860318676,0.0071974687095325,-0.0046178314639109,0.063844444495045,0.9979231075225888,0.0338408924940502,0.0138701265971366,9.731395994064707,-0.0181070774196803,-0.005194561669183,-0.0045849127760358,8.423866331074962,4.975080139283923,2.0872901899939453,1120.3097323413451,1135.3527060533795,1128.1728163048504,1133.1939340772788,-65.25362223548045,492.1022416162697,-582.2707430307423,1100.428704049301,155.87520422191355
46.5925,0.4488583064319219,-0.4448439907817821,0.6282419737303881,0.0042975502860728,0.056668668873027,-0.0160155090046391,0.0071939950294574,-0.0045907420413038,0.0638561843653766,0.9979225234573595,0.031994098523966,0.0126738916497068,9.734579000958307,-0.0181906273781061,-0.0053545931805217,-0.0047813465721538,8.423831368857137,4.975062514820436,2.0872773290296447,1120.19763649042,1136.707531383239,1126.795196563735,1136.322827796704,-24.29679486465311,490.89982317172223,-411.5632345562168,1136.6392814385442,155.87376929458475
46.595,0.4283225679526383,-0.9460334420201209,0.5958497704039228,0.0050262009231241,0.0541782664064496,-0.0131138406870162,0.0071953858398495,-0.004563397785023,0.0638636040387152,0.9979221757394556,0.0300446715764115,0.0115855243862492,9.737801886300833,-0.0182873294429056,-0.0055206744379868,-0.0049610761480642,8.423795167173415,4.975044194558264,2.0872618486655115,1120.188248367022,1137.807205169236,1126.1150001320711,1138.8771304844663,5.4470027921497035,423.15160146296154,-175.04759207859163,937.6236926076423,155.87255655461047
46.5975,0.383074494774112,-1.3691970137666154,0.4570903353752696,0.0055983919337597,0.0491535754659447,-0.0100936434932592,0.007198987269254,-0.0045340044526193,0.0638641072529286,0.997922256885386,0.0279884525648377,0.0105786319690386,9.741030888970116,-0.0183961748962348,-0.0056927348996555,-0.005122707755598,8.423756681776634,4.975025359157272,2.087243810245061,1120.2248715043809,1138.8232893905547,1125.9199586033417,1141.0109462597443,21.65793574125729,420.4566657693372,3.5426542413897617,768.6007016787405,155.8713290092512
46.6,0.2975143747666652,-1.7283822178417416,0.1956274614534086,0.0063832154560558,0.0418931198656357,-0.0077134326196087,0.0072031487903137,-0.004501742007464,0.0638568145119368,0.9979228385873304,0.0258418558140573,0.0096440098061468,9.74423312462288,-0.0185152469233515,-0.0058706490340351,-0.005265390493123,8.42371468529911,4.975006633014184,2.087223396024924,1120.2965380457283,1139.9094884980839,1126.132713403278,1142.720133992862,31.798570377924804,373.86754610022206,124.40813670589196,448.32014267753794,155.86984222897453
46.6025,0.1941330314513828,-1.8934088695170732,-0.060050413751357,0.0075497137227969,0.0361172860783163,-0.0074211358415307,0.0072100307600191,-0.0044675905766956,0.0638425046888983,0.9979238504944702,0.0236602783728526,0.0088428542440892,9.747377776698547,-0.0186421321238365,-0.0060541814978453,-0.0053890528835895,8.423669480242742,4.974988272641169,2.0872013410605903,1120.3838643562704,1140.6926271210543,1126.5419992868704,1143.25254697313,46.46185175699781,286.239527599163,171.59206512815533,9.770761421345473,155.86859437486092
46.605,0.0536095073291739,-1.938514803487204,-0.2949233697406129,0.0091408174390136,0.0315534947051731,-0.0087991350118502,0.0072217360932513,-0.0044301934168624,0.0638224096157702,0.9979252047209703,0.0214519849938885,0.0082363461977885,9.750438769227019,-0.018774314077404,-0.0062428445237386,-0.0054948395834987,8.423621596766774,4.97496973894539,2.087179165261291,1120.5288473045136,1141.3406861360804,1126.990673728919,1142.7689877999687,73.16471135573815,233.64053719257623,156.82897618827317,-355.36285071675604,155.86734046149368
46.6075,-0.1093527717672576,-1.908875302608136,-0.4721257691012756,0.0103217999509848,0.0278778143814192,-0.0111473596517401,0.0072379455184965,-0.0043896113632023,0.0637991400526539,0.9979267372463388,0.0192477220989084,0.007834546139529,9.753396360195836,-0.0189096210868145,-0.0064357038294246,-0.0055850841400012,8.423572159362262,4.97495014613414,2.0871586512978513,1120.7496879130492,1141.8608298070178,1127.3261441678123,1141.4757327195455,110.88206433574749,168.65302560783553,80.39436292190693,-681.1796448475262,155.86608381459942
46.61,-0.2704436448852337,-1.8120284922527727,-0.5488522331517989,0.0099736540770149,0.0245396358967489,-0.0138677319682148,0.0072551308789077,-0.0043489832472586,0.0637751899880198,0.9979283019865048,0.0171320104597248,0.0075786116108683,9.756238529975551,-0.0190465052810305,-0.0066314019727888,-0.0056630960391532,8.42352253683016,4.9749288289397695,2.087141406978571,1121.0832576261919,1142.1839512641188,1127.3926455435285,1139.363089575734,170.997967983343,80.45133813093774,-48.37190724226529,-1052.7699320519855,155.86482640335393
46.6125,-0.4124756318086887,-1.6277009414741235,-0.5135884070070411,0.0076810362553824,0.0201135191697115,-0.0167934303849768,0.0072687844129098,-0.0043122136982391,0.0637521310075809,0.9979298166756237,0.0152011391811042,0.0073867788227308,9.75896190151,-0.0191841154602446,-0.0068283293355602,-0.0057328069481686,8.42347368810695,4.974905252351263,2.0871279013297035,1121.6046777529664,1142.2630864976727,1127.084284631601,1136.2118830592829,204.30285309183557,-34.779526565971935,-172.70571131398614,-1197.2178414955365,155.86331956324247
46.615,-0.4591897685744985,-1.4135635931277044,-0.3885521530161525,0.0050496060543858,0.0160811720015778,-0.0185585119143159,0.0072758899178342,-0.0042791314443095,0.0637320927252922,0.9979311713196404,0.0134722418044434,0.0072084552761918,9.761572235565875,-0.0193222089713639,-0.00702483118766,-0.0057983720176388,8.423426008183894,4.974878831221605,2.0871166670931016,1122.1047718916516,1142.0100536312889,1126.529116986958,1133.3770003682534,200.87370639803416,-177.34638462755115,-259.53219359012974,-1101.3821673930136,155.86206748102418
46.6175,-0.4196974978985372,-1.1316317794401003,-0.1919129979406293,0.0027364249933578,0.0122932921149151,-0.0194475326207438,0.007275464485214,-0.0042483953350527,0.0637138488431509,0.9979324606795056,0.0119408919603408,0.0070312596500039,9.764083996104361,-0.0194609815525387,-0.0072196787645136,-0.0058635769279527,8.423379437965833,4.9748502579183524,2.087106156989781,1122.6090462849556,1141.3763545745355,1125.7866236636514,1130.7049722223228,207.7815312169676,-365.69265063582475,-326.5372417387667,-1062.1204412832067,155.8608211547541
46.62,-0.2889187832598105,-0.7212865196843988,0.0854441981613037,0.0008605553817826,0.008384562527547,-0.0195686295833969,0.0072722495175258,-0.0042228840260504,0.0636929018122319,0.997933925123115,0.0106910699845725,0.0069465460508653,9.766518839125185,-0.0196009453110487,-0.0074124073382085,-0.0059312911377562,8.423334037375524,4.97482145201915,2.0870957457412573,1123.1436795477355,1140.1815903781114,1124.8964307782655,1128.0663981618422,176.64476293280188,-497.8863081207873,-293.0226111457934,-834.8190488343157,155.8593341994693
46.6225,-0.1362016848897617,-0.3367346072935435,0.3196584343550435,0.0001252386468113,0.0059903050403845,-0.0190032925297879,0.0072706628432654,-0.0041995045900759,0.0636681344904675,0.9979356150487608,0.0096891893089802,0.0070447522407248,9.768905990553597,-0.0197426981680323,-0.007603114864053,-0.0060038368115417,8.423289057915577,4.974794143485329,2.087085685781644,1123.49227009962,1138.8869230339303,1124.3215106079217,1126.530876978149,117.29387790381588,-549.4096734800141,-164.2791007510892,-458.4987936898343,155.85810349331763
46.625,0.0236303443121141,0.0534607917132067,0.5208729931646173,0.0001983768832603,0.005235258760139,-0.0179105571042075,0.0072722059709832,-0.0041756459043081,0.0636412952983816,0.9979374181468356,0.0089066403959486,0.0073571647931788,9.771280602011592,-0.0198868199237773,-0.0077922942803778,-0.00608273308934,8.423243494209899,4.974769142125114,2.0870755090941686,1123.7301489372549,1137.43454201071,1124.07503527451,1125.773904193392,86.98254425552203,-623.9668804636713,-16.062482122803033,-166.9797767410882,155.8568828057426
46.6275,0.1791097243014998,0.4674180569165968,0.6841597216163768,0.0011107434489845,0.0066750330054421,-0.0158230799987692,0.0072797183103256,-0.0041521588682071,0.0636170435585032,0.9979390133593412,0.0083831239067274,0.007935404848513,9.773681204694217,-0.0200338318900188,-0.007980540663101,-0.0061684754194782,8.423197396973313,4.974745498243235,2.0870646046463275,1123.927182820897,1135.767088631615,1124.2411981973075,1125.6959780944444,68.71069332502097,-557.1728997258894,135.68191365636602,81.53323120878134,155.85543128395759
46.63,0.2508891464900428,0.7235903315399386,0.7283354501461896,0.0024403252872503,0.0095598425803311,-0.0131860373088845,0.0072938381419502,-0.0041313659851653,0.0636015805353435,0.9979399928399584,0.0081832368055555,0.0087849502818685,9.77614837455138,-0.0201841306107857,-0.0081682189727945,-0.0062607074935562,8.423151466946393,4.974722229371297,2.087052836059048,1124.07370240388,1134.648677512079,1124.753444842792,1126.181570349436,70.63624707776422,-348.31811846343413,267.2070412668742,262.95562031150627,155.85423448238987
46.6325,0.2411029008718111,0.8528941808975588,0.6556341582271993,0.0040689074889016,0.013173777298595,-0.0098235560208182,0.0073144476014655,-0.0041143071119419,0.0635974902732605,0.9979401896971508,0.0083441543853215,0.0098965233283907,9.77872271097244,-0.0203378151217936,-0.0083554774782513,-0.0063583823685353,8.42310660506618,4.974698801171735,2.087040677889169,1124.2803640562863,1134.0254980392967,1125.5772334036428,1127.0107561960026,102.69203275388708,-148.26676613542827,365.62037168306733,352.63993759663447,155.85305361376993
46.635,0.1590596755642518,0.8709268730717576,0.4860975813487731,0.0055528969916714,0.0166657994167345,-0.0066134651544778,0.0073349493116695,-0.0040981589367065,0.0635982100909768,0.9979400784733092,0.0088175195287124,0.0111372430403516,9.781443894951908,-0.0204944062954496,-0.008542328779301,-0.0064600423793985,8.423062341730189,4.974674258972887,2.087028021848955,1124.587162567649,1133.9073436814026,1126.5815467012055,1127.9447700374176,153.79915467657474,75.37902809804798,427.99963935027273,360.0582598553478,155.8518883884742
46.6375,-0.0003960952089042,0.7712350451302482,0.2263987682580637,0.0063841035563402,0.0196516714538115,-0.0047197473222637,0.0073505477450762,-0.0040798740712702,0.0635949691220593,0.997940262762612,0.0095499830258222,0.0124076011710327,9.784347613900163,-0.0206528523345857,-0.0087285161567636,-0.0065635701333627,8.423017446732798,4.974648068474073,2.08701437346979,1125.0493598296696,1134.4023931797872,1127.7172316003953,1128.8110474952803,241.0809436904077,332.54735196475207,514.3093394834166,328.24885426345224,155.85074552270527
46.64,-0.2532494625280669,0.5600282918362053,-0.1280510548856297,0.0061315398158495,0.0220532471481863,-0.0046908806666828,0.0073601821143323,-0.0040575241570453,0.063582503293811,0.9979410915874474,0.0105111663776668,0.0136775002562364,9.787463696196129,-0.0208116215948622,-0.0089134322116508,-0.006666180994608,8.422970844877263,4.97462042566937,2.086998518057205,1125.7925672861015,1135.5700804412272,1129.153093398624,1129.5860143087357,301.0610852054934,487.9309955631815,531.9914034849553,225.38157893584443,155.84940516218938
46.6425,-0.4897167235642108,0.3502775411967228,-0.4075542649649214,0.0050874468573425,0.0227311288651444,-0.0065054458446588,0.0073653110623791,-0.0040309865164581,0.0635611880970174,0.9979425287875284,0.0117050439416337,0.0149615940381711,9.7908150402534,-0.0209688898803615,-0.0090961439418314,-0.0067646140800844,8.422922719629872,4.974592084981025,2.0869801880047847,1126.5546652556957,1136.842048157601,1130.3771886178176,1129.9379553899585,326.7073139529805,518.4965174924022,490.4193751038512,78.1481835539635,155.84831842480628
46.645,-0.7235472007399654,0.155890773764595,-0.6202348074084849,0.0036254461520338,0.0223330748353883,-0.0095395911950912,0.0073684793197535,-0.0039992221226931,0.0635335174473798,0.9979443999266812,0.0131145512453694,0.0162945496803966,9.794417200307453,-0.0211226442895995,-0.0092755868371848,-0.0068555631306867,8.42287335159755,4.974563339460319,2.0869600487647535,1127.4261038558675,1138.1625630286903,1131.6051902741447,1129.9767552265057,393.9886553010896,533.7283158089574,534.9389575773322,-40.53869442139075,155.84726871095083
46.6475,-0.9688986712269224,-0.0160838936386485,-0.7712085676967497,0.0012261763450187,0.021313870723581,-0.0132035195555657,0.0073697710354353,-0.0039612977399373,0.0635029541136584,0.9979464874396228,0.0147168331723556,0.0176604343578158,9.798278506727133,-0.0212708445519595,-0.0094505629235135,-0.006935989674329,8.422822909959322,4.974534102012872,2.0869388870845884,1128.524608532202,1139.5106897366472,1133.0518834057057,1129.7352619178514,397.20175264287457,422.51952713092805,519.3453427783601,-118.7213473845247,155.84605806589903
46.65,-1.1202337340827624,-0.0905792344462866,-0.8127822019890476,-0.0016373341578048,0.0203418047833455,-0.0156722833258465,0.0073679895894035,-0.0039199595089093,0.0634726808026107,0.9979485868614756,0.0165545186904545,0.0190113821000396,9.802399678563592,-0.0214115892849476,-0.0096197859184962,-0.007003144178816,8.42277119164374,4.974504408903905,2.086916782594429,1129.41211261908,1140.2751606643433,1134.201916988034,1129.3831484895836,328.872366295368,211.93211014249823,438.4885361651444,-147.40920619398557,155.8450937643602
46.6525,-1.191141564856316,-0.0880772176749076,-0.78647993374294,-0.0053874772754731,0.0194495774379843,-0.0175444967892668,0.0073616962837457,-0.0038789087390916,0.0634441697838242,0.9979506016605793,0.0186838989066943,0.0202915575503309,9.806774198826893,-0.021543185432431,-0.0097819535115266,-0.0070547763683131,8.422718518695511,4.974473585848476,2.0868943468964605,1130.1689703636798,1140.5703502873603,1135.2443260865325,1128.998215886881,265.1827286118085,41.412957451918096,391.6315359583493,-140.9436270631165,155.84417911991366
46.655,-1.1846175391318683,-0.0272585173583665,-0.7223936781745979,-0.0095255986562764,0.0187345234176187,-0.0189759104152378,0.0073490561754483,-0.0038425130375918,0.063417491755226,0.9979525257171178,0.021169373096799,0.0214349734663196,9.811388979159048,-0.0216642700024457,-0.0099357885872488,-0.0070892111841171,8.422665655898019,4.974440495412826,2.08687243606659,1130.7380262621396,1140.4822254516027,1136.1600746678268,1128.6784303542677,166.09926558886954,-110.46400150658924,329.4805484442618,-92.27111883655405,155.8433074075252
46.6575,-1.088885395307966,0.0877807220021124,-0.6319398439791157,-0.0132637522442195,0.0184310827959093,-0.0199768768267704,0.0073264033853196,-0.0038168474876052,0.0633929278349762,0.9979543462150507,0.0241025182611974,0.0223367155674325,9.816225303383833,-0.0217739171297203,-0.0100801267765784,-0.0071053051978594,8.422613253851713,4.9744054320577975,2.086851231254152,1130.9994666916234,1140.0180302798278,1136.8917288287523,1128.5368602926987,32.925210820968886,-256.7216871807028,277.30254679672174,-0.7088552010824071,155.8424886418636
46.66,-0.8985646658983609,0.2588847387681657,-0.507668657905268,-0.0164299633711181,0.0189358672663658,-0.0209583336874337,0.0072939797124911,-0.003801432979045,0.0633693295677686,0.997956136470089,0.0274478035823413,0.0229764861904474,9.8212595174065,-0.0218714620436146,-0.0102143217680563,-0.0071025649515925,8.422561777161416,4.974369552690884,2.0868305741285904,1130.9026523162447,1139.1986170156988,1137.5465874018112,1128.6748860782623,-101.7502583255398,-316.0384687717144,206.334437524978,111.23890113680083,155.8415676556692
46.6625,-0.7062869749079134,0.4048380853361912,-0.3935758710371055,-0.0179704102488539,0.0201999317302792,-0.0217948168401345,0.0072565215206194,-0.0037897560148702,0.0633438191926132,0.9979580684418508,0.0310536799622806,0.0234307088811506,9.826464001554266,-0.02195639220584,-0.01033843013866,-0.0070810231339572,8.42251054129445,4.974333811205812,2.08680931140314,1130.4907153999955,1138.4378379359684,1137.9234010163775,1129.093054798383,-218.50050633767611,-289.6135914432667,125.56316970037692,232.2124352107787,155.8408508193854
46.665,-0.512628555918731,0.5297881433568391,-0.2649107749070789,-0.0188407122259951,0.0221165707727902,-0.0227674908545137,0.0072173860607261,-0.0037754416572711,0.0633130399641839,0.997960355143969,0.0347666096296161,0.0237509135170701,9.83180865949216,-0.0220283494642102,-0.0104530842688234,-0.0070411162710471,8.422458963530502,4.974298596195723,2.0867875025309015,1129.810149784557,1137.7505490584836,1138.1744032503125,1129.835948254315,-332.6800682396996,-259.0233884340289,98.86626079573432,391.31625480770697,155.8401848698261
46.6675,-0.3075472382033616,0.6405780608484468,-0.0889056560275061,-0.0194660192464683,0.0247422838823393,-0.0239212166771691,0.0071784377145967,-0.003754032899638,0.0632758043961021,0.9979630762873866,0.0384663991651477,0.0239602027622376,9.837261642936706,-0.0220871736314473,-0.0105592844267129,-0.0069836822623397,8.422407080051888,4.974263829262932,2.0867663187859873,1128.827315058796,1137.1427209937976,1138.4177323203567,1131.0496360724223,-364.0163401697421,-177.09755814512425,93.62054548623505,483.4434724075237,155.83944189391266
46.67,-0.1733751093067806,0.700624718429738,0.0740134147886454,-0.0196500761120143,0.026765694979763,-0.024553949547235,0.0071413761784378,-0.0037257235767425,0.063234312572985,0.9979660786918269,0.0421221202361118,0.0240767269080758,9.842789473348825,-0.0221329659977626,-0.0106582396173383,-0.0069098099460965,8.422355666519733,4.974229417998547,2.08674677527077,1127.9900680837077,1136.8650612677577,1138.642505977744,1132.253165616354,-312.20694577742705,-65.71458538120689,107.35151482059094,497.3593289801532,155.83886742735584
46.6725,-0.0868288335486455,0.7378179929469464,0.2421494609045921,-0.0195271484764035,0.0283034466251451,-0.0245221261171321,0.007106594845082,-0.0036888827109285,0.0631897053415935,0.997969291687862,0.0456639052842231,0.0241003309911284,9.848358498711407,-0.0221658621158463,-0.0107514529681502,-0.0068210019100056,8.42230450656478,4.974195097941284,2.0867290367091367,1127.2662803299104,1136.814148066892,1138.9544898944591,1133.536432717321,-270.062755139632,13.439243683926579,161.05098524336373,552.5554045138408,155.83833664627866
46.675,-0.0403286447786777,0.770920985259089,0.4263690281499138,-0.0191453946192518,0.0297165060077335,-0.0235385678805998,0.0070754455711051,-0.0036449292860601,0.0631431075928764,0.9979726267573638,0.0490819091655595,0.024051650525792,9.853934221854638,-0.0221860561335226,-0.0108406344752087,-0.0067186837639903,8.42225327292868,4.974160491494531,2.086713301300938,1126.6397543080088,1136.9322574861771,1139.4477609039611,1135.0159426389243,-181.15433036755172,58.04908470374116,193.731070443474,510.93731509510013,155.8377468948357
46.6775,-0.0448624567831268,0.7940435158121156,0.5456558042682196,-0.0187788400457954,0.0308172181554121,-0.0221400330718943,0.0070474230536069,-0.0035928752387294,0.0630965260637322,0.9979759618257819,0.0523158985546312,0.0239240046442734,9.859482580861105,-0.0221937167194349,-0.0109276071207441,-0.006604245718767,8.422201540931324,4.974125238706063,2.086699637631287,1126.360508678072,1137.1043934904108,1139.9231452466768,1136.0911192927979,-61.3471110840795,71.56633939882482,185.2669708143233,375.5060238089986,155.8372922074667
46.68,-0.0812651292596948,0.8069756622511488,0.6083348118585991,-0.018648718440664,0.0322242777301234,-0.0204340292283624,0.0070213202197281,-0.0035344348212783,0.0630528031657354,0.9979791181146932,0.055357433185515,0.0236999553751384,9.864968924483597,-0.0221890944157055,-0.0110143370992001,-0.0064785342539226,8.422149267271372,4.974089900849047,2.0866869884945314,1126.3330187525887,1137.2900891831712,1140.374095758032,1136.8934727579679,24.468708155631678,75.1631086245426,158.63828418865398,264.39468928544045,155.83687249743423
46.6825,-0.1295574583872873,0.7991254512707285,0.611789260948636,-0.0189720193846889,0.0340937958010999,-0.0185184260125534,0.0069963522399666,-0.0034718790860954,0.0630155218725214,0.99798186619888,0.0582093878868959,0.023376116448406,9.870357790319037,-0.0221725502118518,-0.0111029645933897,-0.0063417313377453,8.422097705480999,4.974054507141184,2.0866745873977255,1126.4828522188502,1137.4802090335331,1140.7163366676195,1137.4130927392239,90.3110154412836,85.50261229306845,90.98975766819312,134.55007740601496,155.83647929933522
46.685,-0.1731881039851076,0.7471774962375963,0.5349733630061941,-0.0198182059990595,0.0365011591692744,-0.0163556556276762,0.0069706976732813,-0.0034062147327491,0.0629857654522722,0.9979841472990604,0.060848410087155,0.0229367448999224,9.875613099742548,-0.0221444419789978,-0.0111959083925621,-0.0061934202610298,8.42204723977416,4.974019785695272,2.0866613789850335,1126.7845738297951,1137.7176022446367,1140.829044546373,1137.5662231449983,148.9337074380421,133.7823015039473,-17.58531614908871,-11.577233552264705,155.83611494476298
46.6875,-0.2016781669861726,0.6151552395622463,0.3512206913174283,-0.0211255656586607,0.0396566057394928,-0.0137466156885316,0.0069439524974861,-0.0033389525333182,0.0629611904575301,0.997986107572291,0.0632630077401775,0.022399509970905,9.88069717646458,-0.0221050058682946,-0.0112958593789216,-0.0060325544533003,8.421997550128689,4.9739866234851435,2.0866461640386094,1127.2275207560408,1138.1491205410532,1140.628410086874,1137.3552065714623,161.04439904398626,196.601686435221,-127.51786007527473,-129.2013104761092,155.8357072198349
46.69,-0.1999707545837391,0.444423311240045,0.1361050700906989,-0.0222121022842347,0.0420487637117549,-0.012172271724151,0.0069167441141783,-0.0032677865119679,0.0629373561877497,0.9979880310760696,0.0653681503048874,0.0218123691522403,9.885571421319165,-0.0220541947800083,-0.0114055354420066,-0.0058579165471443,8.421947627230258,4.973955196561054,2.086629163995876,1127.5897958250143,1138.700610676812,1140.1914552459973,1136.9202165926183,125.40481772228254,272.00900538609585,-213.38715807367404,-197.40408858682616,155.835389706842
46.6925,-0.1756485593533163,0.2251364555010857,-0.1090615545375579,-0.0228970491867039,0.0434557657168227,-0.0121735578218001,0.0068909801774287,-0.0031926664460248,0.0629139342844066,0.9979899263755384,0.067125782248987,0.0212490150296691,9.89019539056336,-0.0219918417746524,-0.0115271243274704,-0.0056681855506637,8.421896931519726,4.973925662121897,2.0866115352797387,1127.8545448446523,1139.5091655679844,1139.5614742965051,1136.368186128528,74.42027945704298,417.8886475281751,-289.0438712024092,-216.43063868216652,155.835093220048
46.695,-0.1335154299397043,-0.0593108641875196,-0.3884420208870896,-0.0229867197037207,0.0434385987710724,-0.0139313283669101,0.0068701426286324,-0.0031155242753418,0.0628932344303487,0.9979916176190144,0.0685402609463525,0.0208135110032644,9.894527130732264,-0.0219176709252643,-0.0116620307878056,-0.0054621911157482,8.42184574659212,4.973897515696993,2.086594297269392,1127.9618972223,1140.790053914454,1138.7462358899843,1135.8380633992067,-6.639574524621493,515.2232117900578,-283.0548757859861,-125.03618807761544,155.8347602215402
46.6975,-0.0967634830644876,-0.2858222652250057,-0.5791292829144025,-0.0226794002703111,0.0421256340363625,-0.0160554374027345,0.0068540835653184,-0.0030404335113162,0.062873185919265,0.9979932222651764,0.0696554822737414,0.0205362345506262,9.898524655220669,-0.0218312231046975,-0.0118108364931145,-0.0052391507800332,8.421793466659219,4.973869081361691,2.0865776363962043,1127.8213469720295,1142.0852816269323,1138.1461999175765,1135.7430051881404,-109.01461813126723,548.538273146452,-198.07837721263112,88.0513384614919,155.83450118747228
46.7,-0.0617358213915219,-0.4772912721631792,-0.7063411480520324,-0.022400168455129,0.0402629800446721,-0.0181893109909396,0.0068413173628867,-0.002972221358531,0.0628536658608468,0.9979947429250406,0.0705312829293181,0.020417980183404,9.902146683500328,-0.0217321337051556,-0.0119729070563664,-0.0049986963199865,8.421739615303437,4.973839148574774,2.086561507965526,1127.4168241316431,1143.5327452801876,1137.7558440039209,1136.2783200915146,-229.57324847881944,642.3287158729079,-106.52315347528209,420.12856769453145,155.8342613928951
46.7025,-0.0146269942601368,-0.6580768744459946,-0.7792802963964313,-0.0223113579426149,0.037882006430066,-0.0206195184570795,0.0068275736080644,-0.0029143992976642,0.0628361804754501,0.9979961040653236,0.0712016416376413,0.020401814741045,9.905354370284703,-0.0216203529908842,-0.0121464369370526,-0.0047410117544244,8.421684029900035,4.9738073149324045,2.086545367614334,1126.6734807296348,1145.2969252062985,1137.6135841501998,1137.843648026614,-296.9940749393545,625.3048714062745,4.47658993557932,727.8769213962987,155.83399684991696
46.705,0.0384896337241588,-0.7726107841855563,-0.7748088109160667,-0.0224979334845085,0.0357242680382805,-0.0226260277353926,0.0068074623192606,-0.0028697376907062,0.0628207737960034,0.9979973339616957,0.0716890763386777,0.0204036871176082,9.908112179642767,-0.0214964004828151,-0.0123287651723485,-0.0044668240122387,8.421626777752705,4.973773182376016,2.086528712526204,1125.931853756948,1146.659269637216,1137.7782269535987,1139.9177046984928,-288.67106738197214,490.34603393672495,117.05413715529552,949.8131413532208,155.8337969877394
46.7075,0.117086758812864,-0.8641772236748055,-0.7071958722669726,-0.0229641454555957,0.0338526567313375,-0.0246667454356408,0.0067764718138736,-0.0028433392757517,0.0628057599805431,0.9979985585945604,0.072069111150456,0.0203465375895485,9.910388315962596,-0.0213617121107224,-0.0125166280366826,-0.0041773511030972,8.421569211715822,4.973736641526968,2.086511763576872,1125.230125392724,1147.7486553759832,1138.1988548359764,1142.5927137333827,-245.6501808453248,368.9800066335396,199.63889549256936,1113.9261645012296,155.83362019129905
46.71,0.2199963732238107,-0.9502897573919822,-0.5931844167799772,-0.0234681258052271,0.0324776959707601,-0.0265658458710489,0.0067358433993325,-0.0028391001586002,0.0627863482754738,0.9980000624305488,0.0724075376566456,0.0202601606240355,9.912155897022826,-0.0212187851004112,-0.0127065204845481,-0.0038744601473391,8.421513660266095,4.973698349470641,2.086495365576078,1124.7036028527207,1148.5041696703847,1138.776421431062,1145.4873355210016,-138.48300235480423,203.92887495745885,252.280356771282,1125.309171532513,155.8334635113823
46.7125,0.3443285716950393,-1.039547654685878,-0.4349205712435574,-0.0236293534500497,0.0313056815311463,-0.0279788599824434,0.0066922425563399,-0.002852931994224,0.0627585846348576,0.9980020588747328,0.0726270097635251,0.0202819486913946,9.913395555987613,-0.0210711853296713,-0.0128947697890771,-0.003561016584218,8.421461542395614,4.973658655639811,2.0864806690096964,1124.5377103809508,1148.7682997507695,1139.4602566198319,1148.21925959104,32.65785665856277,-3.3555914184927245,303.72698026861065,1054.4607498932753,155.8333317758894
46.715,0.4911458458145832,-1.1428901281492052,-0.2139418810680727,-0.0231026267481872,0.029241226400669,-0.0290294683408307,0.0066506829391868,-0.0028812959736487,0.0627234810294083,0.9980044581964096,0.0726679219827897,0.0205054063191573,9.914096124126463,-0.0209234231094432,-0.0130775225606769,-0.0032406594642533,8.421413459354794,4.973617245276318,2.0864687809957805,1124.8668921360136,1148.4873917132923,1140.295056332406,1150.7596392704709,208.9620129486616,-192.38763109610025,293.8575492773768,743.3592241944388,155.8332027606311
46.7175,0.5817479828510219,-1.2056743095952047,-0.0206183624534305,-0.0218437174841931,0.0266187027967354,-0.029385179962098,0.0066163306290691,-0.0029206739607894,0.0626832811156844,0.9980070942068198,0.0724804776395714,0.0210171863572658,9.91425515769244,-0.0207803926212204,-0.0132511567819499,-0.0029175502512009,8.421368934795796,4.973574517858496,2.086460161693723,1125.5825204456946,1147.8063615952888,1140.9295443662195,1151.936055712014,358.80693519462403,-336.9687447991391,225.02831931699353,229.8952009481399,155.8331191651489
46.72,0.5992152762278271,-1.211321775075077,0.1611029961124976,-0.0194923221566022,0.0231170199077503,-0.0291066470563667,0.0065937742294462,-0.0029645219174877,0.0626405218493112,0.9980097969849034,0.0719633146461421,0.0218872735071343,9.913879960517459,-0.0206468445064625,-0.0134125386722791,-0.0025961784633646,8.421327251353706,4.973531087390024,2.086454828479116,1126.660926811985,1146.802547989298,1141.4201979289899,1151.9091152752103,518.069316571799,-470.6704091097301,165.5096035063315,-292.34718522060166,155.83305947072986
46.7225,0.4989617918795358,-1.1185254377145544,0.3417504776012809,-0.0158108447070492,0.0183843971177228,-0.0279829601635649,0.0065843369771664,-0.0030055915571326,0.0625984088000453,0.9980123795773692,0.071005446441477,0.0231140286021926,9.91298748164141,-0.0205269871242639,-0.0135591448003063,-0.00228096756171,8.421288380732099,4.973487129098612,2.0864528675695473,1128.1728670285547,1145.453009549739,1141.7570923837516,1150.4743197859104,556.3669394340532,-483.929671497597,71.54913196583016,-728.6854822167606,155.83301369024258
46.725,0.3065909823776571,-0.9462260587435048,0.4465748100999611,-0.0128119278525365,0.0144588807617049,-0.0264651459492973,0.0065832158873149,-0.0030399055945658,0.0625599157131302,0.9980146999788698,0.0695601720301953,0.0245643696432278,9.911603542732047,-0.0204241034721457,-0.0136891893695347,-0.0019758265323687,8.421251599513276,4.9734424112354,2.086453601033192,1129.4427615091568,1144.3828996318089,1141.7779435888192,1148.2656878641249,473.1290514795757,-380.5891128065292,-50.7818004951794,-1027.358422680688,155.83299532840175
46.7275,0.0233033662151579,-0.682803984115675,0.4942899907256622,-0.0112177127430235,0.01118651138674,-0.0246840934835102,0.0065849335815702,-0.0030644589151733,0.0625257231746196,0.9980167619070864,0.0676046314231739,0.0260867093680336,9.909761433130296,-0.0203401702431049,-0.013801832851261,-0.0016837561990044,8.42121540673943,4.9733968353237294,2.086455662422068,1130.5385122859507,1143.550063985708,1141.503183381276,1145.3375276725117,413.56396298335073,-283.87306196713354,-181.5668397203334,-1358.4598863308527,155.83299500565923
46.73,-0.3624961173017468,-0.2994359342654383,0.4872743039385658,-0.011976202653959,0.0086888711300055,-0.0227543560325651,0.0065821756476669,-0.0030824019826411,0.0624932490822709,0.998018765592882,0.0652388725425844,0.0274837032488911,9.907500029957177,-0.0202756935307679,-0.0138972965432589,-0.001406507075347,8.421178225372222,4.973351217956713,2.086457025043803,1131.5105813240743,1142.9635343219725,1140.870109390217,1141.4733884324671,290.443684748731,-137.68389503650047,-266.7382075472687,-1403.2572027460544,155.83301232305163
46.7325,-0.6721572330862216,0.0323928681888399,0.4366825890208815,-0.0145231545984667,0.0083295736831514,-0.0214654334587481,0.0065687964910093,-0.0030932897225678,0.0624593768089316,0.9980209485162927,0.0624947098524855,0.0285855622521746,9.904863654250489,-0.0202298090221516,-0.0139767748118289,-0.0011449304788912,8.421138712267604,4.973306437166273,2.086456517811638,1131.990730709695,1142.8616445105251,1140.1694923435389,1138.3212416587778,124.90825374486568,36.39912025299636,-287.66245130694887,-1169.7990689239484,155.8330390988862
46.735,-0.9233309923516984,0.3174967238050585,0.355154057581928,-0.0179975799895859,0.0101392237633255,-0.0205796812568215,0.0065451396399111,-0.003095526607633,0.0624232856654058,0.9980233640988184,0.0593889554719279,0.0293538583534391,9.901899159829636,-0.0202006482219774,-0.0140422006320427,-0.0008989999093015,8.42109560721701,4.97326297425949,2.0864540582069417,1132.1351225927983,1143.1455299232373,1139.4317971336836,1135.6243930878527,8.855732703154917,166.69337951194052,-276.87668888974645,-959.2014484033466,155.83307568370168
46.7375,-1.109483848857036,0.5269311299195079,0.2604954131745238,-0.0216738855575335,0.0132858258125796,-0.0200206196912292,0.0065153173034472,-0.003093576210179,0.0623864926281774,0.9980258742058112,0.0560609457609229,0.0298205345819459,9.89865392991994,-0.0201857871178206,-0.0140959803326964,-0.0006679846647807,8.421049532600588,4.97322112338239,2.086450612301461,1132.0350093732109,1143.6951114080853,1138.7851088990894,1133.5252344167586,-88.28704535426398,262.9600036871598,-209.64765894676208,-666.0823928078802,155.83311806173333
46.74,-1.2185921572163796,0.6269624985467444,0.1633155148524654,-0.0251467993560495,0.0166938839972621,-0.0197726305108693,0.0064828373684533,-0.0030901354554033,0.0623520647632329,0.9980282541150192,0.0526111005299208,0.0300127570825518,9.89517690228766,-0.0201826699028345,-0.0141407146291344,-0.0004511944026327,8.42100126123627,4.973180731350031,2.0864473900393947,1131.6936873660268,1144.4603299416735,1138.3835588389493,1132.2939811238116,-193.73898587959388,352.61098869177897,-95.11181067100105,-338.6068111148585,155.83316447556606
46.7425,-1.2803474321625212,0.6375321003098859,0.0566114191502152,-0.0284928070432855,0.0196081805508043,-0.019720159786612,0.0064510390665326,-0.0030843703862523,0.062322704313395,0.9980303146457922,0.0490657922914555,0.0299650977685139,9.891517735877075,-0.020188935840427,-0.0141789839277627,-0.000248187316441,8.420951499300617,4.973141054080898,2.086445140474132,1131.0663144438136,1145.4581663515423,1138.3095498457349,1131.8322003611859,-260.63977145500814,351.83731813567806,47.81787565461656,-22.80717471705685,155.8332208763466
46.745,-1.2920420767826972,0.588061242781213,-0.0179827514788799,-0.0305960135998517,0.0207533779262714,-0.0198205873037973,0.0064184067836062,-0.0030734835749484,0.0622996478017889,0.9980319957484142,0.0454022145695698,0.0296260252352235,9.887726551437186,-0.020202659305515,-0.0142131803046372,-5.8856301679196896e-05,8.420901249801913,4.9731011207511,2.086444356904676,1130.3904885087527,1146.2195165323503,1138.622648217222,1132.1799452502264,-299.1592867626257,258.90111905119227,195.0630776733672,242.9179987229539,155.83326548580538
46.7475,-1.2739015917978804,0.522110031015324,-0.0735884387346433,-0.0327008216984795,0.0210287773807505,-0.0200343290002291,0.0063839670257673,-0.0030553655114647,0.0622815930875624,0.9980333914182008,0.0416073829358751,0.0289618893305167,9.88385182667275,-0.0202224649691437,-0.0142454831411725,0.0001169382799021,8.420851329173276,4.973060530733969,2.086444932221177,1129.57051801,1146.7526719467992,1139.284865234102,1133.0467903548013,-391.5547918826448,154.64520687088495,343.92768487787777,435.5880656333784,155.83330423169136
46.75,-1.210845295440888,0.460590230210422,-0.1162493303628354,-0.0359390215746088,0.0210452589964401,-0.0204063671898143,0.0063475386310668,-0.0030307288684738,0.0622673243936887,0.9980345778136136,0.0377209256800875,0.0279592923784596,9.87993952684136,-0.0202476160814917,-0.0142777945333722,0.0002795916915402,8.420802466284579,4.973019102143986,2.08644629067718,1128.4327145493387,1146.9927425667051,1140.3422866416124,1134.3578855783944,-437.5231134462752,11.404361678443278,403.9597588423057,483.198042878924,155.83334076692643
46.7525,-1.1102705370041643,0.4351921155625315,-0.1314356272697042,-0.0391867013636167,0.0211916457285187,-0.020793897538369,0.0063086577421689,-0.0030029530012832,0.0622545784187873,0.9980356911001604,0.033830964354443,0.0266042610227117,9.876032915085732,-0.0202778806153293,-0.0143119000892458,0.0004298067708616,8.420755101515358,4.972976411010046,2.086447667174677,1127.3829024427705,1146.8096937551911,1141.304664028312,1135.4627805691937,-427.0749116675777,-150.77292092816168,370.36394619544046,410.18239034521616,155.83336118777027
46.755,-0.945247432152884,0.4324744422474091,-0.1265200927387715,-0.0425093977816267,0.0218004851339414,-0.021186292281271,0.0062662004059352,-0.0029724383319959,0.0622421927303295,0.99803681322349,0.0299629011336343,0.0248816023146731,9.872172869303261,-0.0203134206408776,-0.014349557866088,0.0005683612294131,8.4207088937434,4.97293220140845,2.086448341602889,1126.2973399909995,1146.238877962064,1142.1941063725903,1136.4087975301215,-460.1764094141264,-321.7871292693589,349.79861487891253,364.4920748625236,155.83336985293744
46.7575,-0.669907112364573,0.4363846849225117,-0.100367333307363,-0.0459783750024349,0.0232200855319558,-0.0215092631133143,0.0062178078695666,-0.0029406061509896,0.0622298365025949,0.9980379791482265,0.0261580799687444,0.0227585508072213,9.868397156581976,-0.0203546072903077,-0.0143927218049443,0.0006961365863567,8.420663147521175,4.972887196417164,2.0864478785025975,1125.0820203956987,1145.2007581088435,1143.0536571027071,1137.2852409435072,-409.171004196068,-417.30934134767926,272.74522621344,280.9983577275316,155.83336598984425
46.76,-0.3870088410446501,0.4297860247366924,-0.0643940714965935,-0.0479103229413232,0.024868736007763,-0.0216264397146198,0.0061657196557164,-0.0029133692352468,0.0622114380274358,0.9980395351430668,0.0225493873148771,0.0202953088086947,9.8647389696969,-0.0204016964752749,-0.0144439577148219,0.0008142585013838,8.420618112809962,4.972843255456429,2.0864470517401648,1124.2514849700212,1144.1523312553277,1143.5578325036563,1137.813789318758,-270.85084791060365,-427.0444462244175,157.59712540872107,182.0761004976226,155.83335098817923
46.7625,-0.075087085385255,0.4005193096209033,-0.0161153434096539,-0.0485455935962955,0.0265369550044908,-0.0216063945477775,0.0061138075417815,-0.002890426786991,0.0621821483008566,0.9980417567779356,0.019147390312185,0.0175987049147159,9.861228424522425,-0.020454917712815,-0.0145061281187946,0.0009234420563599,8.420574086272785,4.9728019453865375,2.086447137897004,1123.7277661561448,1143.0655358777203,1143.8416427297511,1138.1956214459958,-147.06269384397936,-420.5871326568408,80.45810933077041,139.38763878611243,155.83332457956055
46.765,0.2360376555962873,0.35126651704523,0.0418040155244265,-0.0481227140176048,0.0278664370122975,-0.0215459697376087,0.0060645909410557,-0.0028705592413894,0.0621427092555715,0.998044582782802,0.0159414185677802,0.0147560050868146,9.857892425320577,-0.0205144267942659,-0.0145819436721511,0.00102409231365,8.420530278138814,4.972763622859905,2.0864487626644865,1123.5161715008007,1142.0493955920424,1143.9601230503104,1138.5107275126888,-5.905634007336544,-373.55230495502246,13.183813974467906,119.7806892931292,155.83328982893943
46.7675,0.5172492157506406,0.2848354964249983,0.1117770080504056,-0.0466369052841295,0.0286971367404579,-0.0214792031849424,0.0060221672766626,-0.002852696580994,0.0620977959825574,0.9980476979902924,0.0129241424317838,0.011890318534923,9.854754088616403,-0.0205801014139323,-0.0146736061623195,0.0011165652848635,8.420486157913347,4.972727273881566,2.086451957830961,1123.6982379861083,1141.1977743529471,1143.9075617996236,1138.794524892461,161.83846561599145,-331.72208695979265,-53.99562190375001,122.86695939590652,155.83324670469608
46.77,0.7911982041014219,0.1987356477202743,0.2092261317435735,-0.043922439565223,0.0293162243226636,-0.0212835913970309,0.0059908123611595,-0.0028357665223817,0.0620513140320907,0.9980508353955788,0.0100867239068196,0.009131874488577,9.851832969151596,-0.0206513421953724,-0.0147826067138606,0.0012013047602283,8.420441002897531,4.972691589338357,2.086456268618913,1124.325363828881,1140.3907851572424,1143.6901449407917,1139.1250623096687,283.16672217364675,-266.1631476045389,-97.5031431609706,118.84976035133435,155.83318739226283
46.7725,0.9542375674723728,0.1316299376195942,0.2989542190203055,-0.0410344149593945,0.0296555199697053,-0.0209988912905637,0.0059705157169148,-0.0028154094008318,0.0620064657905617,0.9980538074627412,0.0073488771984588,0.0065324909907894,9.849145787293615,-0.0207271342112991,-0.014909477449445,0.0012787298830256,8.42039437195457,4.972655734515245,2.0864608685024355,1125.1140715969773,1139.8669586149235,1143.4200460838183,1139.388773694218,347.58261731521776,-190.08308196320291,-115.09042550229888,101.51289632594992,155.83313308675756
46.775,1.0474178798835048,0.0801657010528658,0.3898520684618659,-0.0380985491625827,0.0298174203927576,-0.0205659787439571,0.0059567791401598,-0.0027868879894063,0.0619669297656334,0.9980564254650652,0.0046161303811644,0.0040562634257632,9.8467060153294,-0.0208062281627194,-0.0150536410520252,0.0013494197099233,8.420346403026633,4.9726184486895955,2.08646578441222,1126.0632769154558,1139.4403697474274,1143.1146928132807,1139.632626791298,427.0442645758156,-172.253256021807,-129.22654689662275,106.44503344618909,155.8330752717137
46.7775,1.090125387846309,0.0474788413775098,0.4838674591869656,-0.0350233677350431,0.0298101825323072,-0.0197055878701479,0.0059460029588748,-0.0027473883337818,0.0619344440822105,0.998058611264072,0.0018319058209407,0.001680826675004,9.844522929507846,-0.0208872583699669,-0.0152135482365528,0.0014143971841198,8.4202971601655,4.9725788508367605,2.08647043062062,1127.2492929198575,1139.0056923348143,1142.773913349335,1139.920998861449,424.96199913494905,-142.78065991526972,-113.43374604192483,112.49458586729516,155.8330034562933
46.78,1.080274070112209,0.0508238757493882,0.5325289496076852,-0.0326176211561023,0.0296618406327726,-0.018525787871555,0.0059345355061263,-0.0026993280129901,0.0619102614227175,0.998060303076917,-0.0009581901230571,-0.0006271352428207,9.842601683576154,-0.0209689768968471,-0.0153868172695003,0.001475196612933,8.42024711714588,4.972536635946533,2.0864737497490635,1128.1880869111317,1138.7264664478507,1142.5475240830708,1140.1950997206347,349.12874174187806,-79.94439824899922,-75.52753004249601,127.43341315538368,155.8329426400136
46.7825,1.0360953963056532,0.0900150655051966,0.5269920205416183,-0.0301265867195388,0.0294240795882669,-0.0166945177563176,0.0059172167694669,-0.0026472493479714,0.0618938711890573,0.9980615528091492,-0.0036686506407885,-0.0029381854551015,9.84094387808687,-0.0210503965560814,-0.0155705815446286,0.0015335485811854,8.420196236984783,4.972491919278226,2.0864752549184744,1128.9949366285653,1138.6059703435697,1142.3962756991227,1140.5581659272254,313.574720043856,7.183478373550278,-54.15367378620389,187.48770804813327,155.83288193970452
46.785,0.955973677301848,0.1761437622670132,0.436411026548629,-0.0272896924016216,0.0291639539459788,-0.0138223579267097,0.0058897872646867,-0.0025944461445513,0.0618826183977888,0.998062544628612,-0.0062366483018762,-0.0053098250255994,9.839547724779024,-0.0211309327178405,-0.0157618095129222,0.0015910701163628,8.420144690675988,4.97244498178575,2.0864747116268934,1129.7559605113515,1138.7623838397185,1142.2767557141397,1141.132538260876,241.91256234809217,123.9309641513776,-41.97241369786424,230.4694736099649,155.83281035583
46.7875,0.875475309072122,0.2722020345494917,0.2881583497036167,-0.0253731896917822,0.0291287028534031,-0.0113248027640314,0.0058552080760065,-0.0025431653427357,0.061871357641501,0.9980635766724836,-0.0086095348097357,-0.0076633525183525,9.838407821795071,-0.0212105039070474,-0.0159575779252787,0.0016491940081862,8.420093442962845,4.972396532454553,2.0864734602901125,1130.2044994403063,1139.2256251643269,1142.1864136306335,1141.7105132952759,143.39242894388315,266.8466496483842,-46.78554681963468,234.7416611405922,155.8327524495326
46.79,0.7888471874851178,0.3745047057586021,0.084773415262784,-0.0239413034553969,0.0295759042913648,-0.0098722416085894,0.0058237764571309,-0.0024936637487966,0.0618541942256445,0.9980649523996444,-0.0107624614600171,-0.0097807359146823,9.837515879391136,-0.0212896147877963,-0.0161552077921899,0.0017089313592197,8.420043050437373,4.97234697401183,2.086472707821964,1130.4729226560703,1140.0966170879592,1142.0428279800417,1142.3062465665776,82.32931648381388,416.2796539178688,-74.53103783078228,220.17517191277523,155.83269705053425
46.7925,0.6982096554589434,0.4620586089045821,-0.132117361178328,-0.0226565998317663,0.0306391534718099,-0.0100241918610802,0.0058007206541675,-0.0024454515486289,0.0618288400244121,0.9980667817836888,-0.012688525253885,-0.0115494303760319,9.836862582693792,-0.0213694015343563,-0.0163522591907554,0.0017704470258093,8.41999455517574,4.972296697956915,2.086472873255514,1130.6161460227256,1141.3070234339173,1141.8137584414794,1142.8113891548403,34.59653145549104,552.9079716834884,-117.43714824363808,152.7792311873455,155.8326441439085
46.795,0.5962592040631036,0.5058933728799674,-0.3197243283923418,-0.0212347543129116,0.0324771202978491,-0.0119447211593357,0.0057878619957336,-0.0023981169280424,0.0617967413136063,0.9980689634034748,-0.0143802409517163,-0.0129300587944063,9.836437833153216,-0.0214514140361129,-0.0165466044636783,0.0018332189211461,8.419948369072541,4.972246532786872,2.0864744452486943,1130.645905313348,1142.861156946378,1141.4556422388232,1143.070142722515,-2.7014457362863156,730.9801268800866,-185.78957739945125,33.59362954364187,155.83259461551984
46.7975,0.4469863024844158,0.4826558084359739,-0.4681494843196081,-0.0193982805517041,0.0353592992578846,-0.0149701537165205,0.0057820519185194,-0.0023486611623455,0.0617619371360592,0.9980712700351848,-0.0158836847890974,-0.0139829938985147,9.836231283785793,-0.0215372673831154,-0.0167364952874132,0.0018960247430031,8.419903641496834,4.97219635597568,2.0864781057026502,1130.602638794044,1144.9619240683144,1140.884810554483,1142.9793573025584,-20.983511399152295,778.6460425686637,-226.1358237482662,-101.66291951695058,155.83253940695383
46.8,0.2912684942121002,0.3949892686243531,-0.5173666125536166,-0.017990136924816,0.0378556076350949,-0.0172230213647627,0.0057795025992474,-0.0022967341697797,0.0617278039763462,0.998073513990666,-0.0171905578346645,-0.0147887419988786,9.836232029450969,-0.0216282022478055,-0.0169206495064123,0.0019575508780711,8.419859956983498,4.972146024718394,2.086484407068974,1130.5409877563523,1146.7543871592231,1140.3249631200813,1142.56182812493,-20.55841350119266,686.0591232993685,-229.63335145979804,-221.41773758278345,155.83249703829878
46.8025,0.0990930304552218,0.25246184738496,-0.4989939113415985,-0.0170370204759563,0.0393977224016532,-0.0187974367384387,0.0057753241815538,-0.0022416339472131,0.0616964027714254,0.9980755974348244,-0.0182981166428639,-0.0154522569104915,9.83642870849389,-0.021724841832674,-0.0170982450990995,0.002016579544615,8.419816549806574,4.9720951589950575,2.086492742113151,1130.499846726538,1148.3922196848127,1139.7366437971834,1141.8722686146439,-5.537537963714874,642.9226012618918,-251.6175875185596,-333.3517536950088,155.83245844863703
46.805,-0.167528784014598,0.059642410173131,-0.4252961637469977,-0.0165858244859267,0.0393821100020864,-0.0199401108173075,0.0057616373751862,-0.002179580039779,0.06166788019355,0.9980775655683772,-0.0192656760718677,-0.0161354958835274,9.83680942842018,-0.0218270628705136,-0.017268952656255,0.0020721246931264,8.41977181289765,4.972042971896702,2.0865021127075924,1130.5133000665337,1149.96900016553,1139.0668751824896,1140.8950693564564,16.823376793233205,489.52432976333466,-231.940704000528,-358.4583977981387,155.83241633922776
46.8075,-0.4085240104761069,-0.0861854774975979,-0.341560009861703,-0.0168345503220197,0.0382586255838318,-0.0204359515097064,0.005731641614957,-0.0021099042961436,0.0616398514265696,0.9980796069118189,-0.0200889295159058,-0.0169838335099679,9.837360889081236,-0.0219340090283964,-0.0174330003432913,0.0021240441796126,8.419724667081635,4.971989853002905,2.0865112327769197,1130.5839636105043,1150.8398413336274,1138.5769402771818,1140.0799766256548,35.984120704488085,239.12096763030195,-176.49808217670463,-304.10039741875966,155.83238450744605
46.81,-0.6484649431373032,-0.1899166698204556,-0.2543083071838213,-0.0178537087815133,0.0369407010960825,-0.0206787291171184,0.0056839560116804,-0.002035728937873,0.0616136898322304,0.9980816375778429,-0.0206824117691071,-0.0180401742145461,9.838067497902925,-0.022044546640064,-0.0175909400640056,0.0021732761498687,8.4196754907462,4.971936126091085,2.0865189198312883,1130.6932206700562,1151.164605003682,1138.1843847716057,1139.3745673693616,42.44318107173615,35.98995289005848,-138.50547735648624,-256.21494853581305,155.83235563790143
46.8125,-0.8678140596181679,-0.2519355815666368,-0.1732176672104197,-0.0194926502755714,0.0357013956394226,-0.0208395723741658,0.0056220862071516,-0.0019614837353105,0.0615890924737371,0.9980836474072232,-0.0209296129863297,-0.019251446832776,9.838910942694303,-0.0221573843454852,-0.0177438963580413,0.0022215852010031,8.419624691792256,4.971882569819974,2.086524474257263,1130.796179515863,1151.0197910980778,1137.884412890399,1138.798901882975,27.19366608587479,-163.49869286338023,-94.46802701390376,-200.22186814367177,155.83232880917237
46.815,-1.0353753093748903,-0.2683656375249431,-0.1043002631732067,-0.021978754523197,0.0346280720211747,-0.0209739607754398,0.005553228743647,-0.0018917354961379,0.0615640119685733,0.998085713216237,-0.0207082019778389,-0.0204896799359873,9.839869904219864,-0.0222713069749137,-0.0178935059711689,0.0022711998878121,8.41957343903035,4.971830328266649,2.086528456065897,1130.8291890004855,1150.3471115393659,1137.7120446365363,1138.3734580286443,-18.763321750738616,-394.60630320602655,-41.13417676660616,-162.95748516455055,155.83230381585886
46.8175,-1.1427777949145084,-0.2523938126259088,-0.036648832896017,-0.0260991694844425,0.0338459090452577,-0.0210696685863518,0.0054841794387112,-0.0018295022846018,0.0615414192380999,0.9980876079814032,-0.0199290684614273,-0.0216293744013094,9.840920150107808,-0.0223855202593609,-0.0180414447763164,0.0023242988435497,8.419522913264368,4.97178007878433,2.0865319966196756,1130.702362907109,1149.0467595820467,1137.678742006566,1137.984114457152,-85.38433703306688,-533.6928030504166,19.614693748361756,-131.9469020950926,155.83227498162142
46.82,-1.136740574863816,-0.2250694488487424,0.0084016205700957,-0.0303388809392432,0.0335914933332677,-0.021046337102582,0.0054211845885977,-0.0017763354945195,0.0615248853921746,0.9980890744203916,-0.0185355428467297,-0.0225503336363725,9.842034498976052,-0.022499412987253,-0.0181893291465339,0.0023828257925275,8.419473481128476,4.971731535961529,2.086535758601534,1130.40226731532,1147.6786475241124,1137.8101181052784,1137.7137235181683,-169.6351502556987,-568.4578666992534,84.61571806318226,-104.21654390689056,155.83225110225519
46.8225,-1.0303203692251968,-0.1995061674171564,0.0443189462331763,-0.0347111389677148,0.0332610276103036,-0.0209998691299801,0.0053670292017993,-0.0017273114924916,0.0615177580072848,0.99808989902275,-0.0166061046364312,-0.0231888205258931,9.843183289551952,-0.0226123546320701,-0.0183384667745391,0.0024480928335612,8.419424794610386,4.971683096192385,2.0865392182823896,1129.8541871558316,1146.2044702485528,1138.1018205968815,1137.463031737618,-301.98024797048686,-623.073515523401,155.45311555962377,-103.84889914998128,155.83222627170915
46.825,-0.8199010304950861,-0.1847577386314037,0.0802580636376597,-0.0388113593742592,0.0324855591919317,-0.0209822913999149,0.0053228245948768,-0.0016788313255138,0.0615199441776021,0.9980900883580656,-0.0141997338500969,-0.0235122296836377,9.844334632491293,-0.0227233484488607,-0.0184898297342104,0.002521132308898,8.419376509531814,4.971633354911765,2.0865421799855586,1128.8923660754667,1144.5632799464938,1138.5873836830767,1137.1944790224184,-400.9470055478,-543.9743362723166,187.4660171610636,-83.66006768292476,155.83219392448615
46.8275,-0.6211312585907715,-0.1961357250523556,0.1055807562099412,-0.040342234622481,0.0318110471573524,-0.0209358144481102,0.0052860653320668,-0.001628728900355,0.0615272549956071,0.998089919351266,-0.0113569669194766,-0.0235578207714229,9.84545515380059,-0.0228308791928214,-0.0186441318068515,0.002602546340906,8.419328236000894,4.9715817627374,2.08654505629062,1127.8494521280916,1143.48459856719,1139.0391506826873,1137.044731399203,-459.78458959708394,-335.9277069260642,171.50193113072555,-26.43489649383485,155.83216367366884
46.83,-0.4605526651534148,-0.2480470442768574,0.1251010790396982,-0.0397936567962032,0.0313392077029055,-0.0207270325006009,0.0052493031341608,-0.0015790558496784,0.06153500475176,0.9980897184432798,-0.0080477407508129,-0.0234626812927143,9.846510753979139,-0.0229329763542567,-0.0188018403436543,0.0026925013688914,8.41927988387256,4.971529034687126,2.086548017892968,1126.5934431274832,1142.883641411865,1139.4448933387296,1137.0623045399493,-589.5003232436178,-134.0328143116263,148.84287162146055,68.24336463088149,155.83212847668452
46.8325,-0.3630325959294142,-0.3774121834428649,0.1381005825774746,-0.0380559872117341,0.0309643673037298,-0.0203287315925511,0.0052094089172561,-0.0015324557182598,0.0615397806949333,0.9980897089721962,-0.0042322627692588,-0.0232780199916364,9.847466834134838,-0.0230272808405082,-0.0189632024480662,0.0027909106352488,8.41923120052579,4.971475943585446,2.086551418334364,1124.901950511872,1142.8144344956315,1139.7833650407947,1137.3859482223577,-640.3368337635036,78.71906948430998,91.16092518888647,179.4888844981406,155.83207858595424
46.835,-0.3683257706198029,-0.552518124422569,0.1371549380985519,-0.0368899935327629,0.0306279847261391,-0.0199432147573096,0.0051671802563906,-0.0014856335240838,0.0615367561601745,0.9980901882315628,9.556337524922048e-06,-0.0229697213835062,9.848289501762736,-0.023110996066485,-0.0191284208290778,0.0028971465364033,8.419181329429055,4.971422724920557,2.086555495316815,1123.3917589586642,1143.2772367592868,1139.9006979646745,1137.9597489624405,-610.5351465963945,266.0723308174202,11.001534115313008,292.67319725594706,155.8320291098698
46.8375,-0.4347725381378054,-0.8013253415435008,0.1209045542300523,-0.0370499456745092,0.029916453156214,-0.0195430302438986,0.0051224423338167,-0.0014385255412113,0.0615227573548699,0.9980913515971052,0.0046518464183795,-0.0225266217828447,9.848946552602744,-0.0231810499711758,-0.0192974995489217,0.0030102842149996,8.419129613776153,4.9713698893495915,2.086560115957367,1121.8492747788928,1144.1447961497174,1139.8383727113714,1138.849314208636,-609.6589126728369,383.33180843395377,-50.964166462491754,397.4482029834021,155.83196948814737
46.84,-0.5117684200299782,-1.103835083514091,0.0905599444360335,-0.0386724159753031,0.0285725954537998,-0.0191642419847383,0.0050777599773893,-0.0013947205900719,0.061500972309348,0.998092980700436,0.00973527774155,-0.0218892267682509,9.849407871420217,-0.023234456658101,-0.0194698910438355,0.003129330888708,8.419076537457407,4.9713174422910145,2.08656575636524,1120.3434643952985,1145.1938958014575,1139.6458771323619,1139.9469899773585,-575.1313901405197,424.21366401714414,-100.57771019477823,465.98595527387977,155.83189990365528
46.8425,-0.5507744420647621,-1.4484987108811052,0.0431347146003679,-0.0416455937061012,0.0261019215741854,-0.0189075549657659,0.0050331882156912,-0.0013552492137048,0.0614754251401433,0.9980948225667204,0.015238894980037,-0.0210464446379705,9.849646847763804,-0.023268357787505,-0.0196446362895753,0.0032528094293578,8.419021730398162,4.9712648307503,2.0865718659967505,1118.9736178281887,1146.2658644698042,1139.3354841603973,1141.1792439850067,-544.723949799795,436.29093874563864,-153.29692380965145,539.0255127361243,155.83181631404128
46.845,-0.5112646461381628,-1.8675252885788611,-0.0315597500320152,-0.0453798813347143,0.0216142803187366,-0.0189427761221798,0.0049868259815522,-0.0013211050261178,0.0614490737179163,0.9980967019951594,0.0211308506077395,-0.0200286893162259,9.849640850344905,-0.023280158977176,-0.0198203540131061,0.0033789510390588,8.41896524037899,4.971210826820087,2.08657851784872,1117.619844646302,1147.3753504951835,1138.8793925133143,1142.6421175410367,-428.85036651874424,358.7466091779317,-173.74351237549695,512.257824875598,155.8316970946655
46.8475,-0.4004735199397562,-2.183951114586888,-0.1068279196730869,-0.0477823007170263,0.0166353815873692,-0.0192027330108287,0.0049355773504296,-0.0012943441274626,0.0614232623234382,0.9980985495001646,0.0273916981702569,-0.0188950399386266,9.849371512161552,-0.0232677475570761,-0.019995286065658,0.0035058202871104,8.418908007574084,4.9711549187187964,2.08658645105806,1116.829365995594,1148.0595975156948,1138.4667665985191,1143.740533109386,-227.95940948305704,212.86860885777992,-160.82605764200665,398.1627475573314,155.83157989410907
46.85,-0.2281319485550599,-2.421805181471311,-0.1947533991334991,-0.0490386750625694,0.0104615465153292,-0.0194416412469701,0.0048779415758582,-0.0012771007396661,0.0613973441718851,0.998100410417266,0.0339994033738644,-0.0176777867955598,9.848824799537487,-0.0232296848024322,-0.0201674519564518,0.0036314846423328,8.418850664414258,4.971096581708374,2.0865957902217724,1116.480047598886,1148.4396935394732,1138.0752622251039,1144.6329312788243,-42.38799803051042,90.69067440467795,-148.8135364884318,337.98510877635454,155.83144154388208
46.8525,0.0082160804621605,-2.5735970945722975,-0.3135530176701482,-0.0491695161557611,0.0021886956669421,-0.0197506281045812,0.0048120269659862,-0.0012790346859633,0.0613704337517313,0.9981023346013128,0.04107448178044,-0.0164310603342267,9.847990257442047,-0.0231653235741558,-0.0203348287048467,0.0037544007556036,8.418794721990102,4.971036226520135,2.086605954164563,1116.6174260054415,1148.5130508877176,1137.722698916078,1145.4304586532662,140.3231364097983,-41.966495981274775,-93.65523305109247,245.7168330465827,155.8312478742479
46.855,0.1968615084390908,-2.5686372569462588,-0.4192941058606056,-0.048217759574891,-0.0049544814230935,-0.0201726887423419,0.0047412951844586,-0.0013050013191594,0.0613391524889835,0.9981045049488082,0.0486457587987094,-0.0151029942950707,9.846861551985832,-0.0230747536234114,-0.020495668041253,0.0038732332835474,8.418740517066182,4.970975572217169,2.086616005301304,1117.1816632809355,1148.2298610595667,1137.606986059848,1145.8615154440579,305.6808324221293,-193.2872151446111,6.896795023882186,121.60807958296716,155.83106100441816
46.8575,0.3452090014997999,-2.4194187086462446,-0.520265133013459,-0.0463980388375371,-0.0119293637666227,-0.0209721016994442,0.0046718439536611,-0.0013524897998459,0.0613015539161707,0.9981070131296884,0.0565979362662712,-0.0135865313722659,9.845437072661513,-0.0229588144578927,-0.0206484536418715,0.0039866439057214,8.418687649648115,4.970916153343146,2.086625596080592,1118.1458301675527,1147.5466148119942,1137.757182891197,1146.0384990511811,493.19604841975274,-402.0375627134418,134.87243825764824,11.27210918726748,155.83084465808872
46.86,0.4598823480726265,-2.0859748529353883,-0.6141837845862907,-0.0438052614011738,-0.0193449167502298,-0.0225629650028954,0.0046049721095177,-0.0014188547737165,0.0612609146185943,0.998109655008844,0.0648060174669933,-0.0118749130610512,9.843719530679824,-0.0228190005289317,-0.0207917094338454,0.0040932126863089,8.418636574506495,4.970857640143624,2.086635415295884,1119.647643523032,1146.219673246001,1138.2813482511356,1145.917875989994,588.9265655778388,-572.0135121068126,244.39925150833236,-108.13078066388621,155.83054729552865
46.8625,0.5070990413889694,-1.7012779177022075,-0.6513053845721487,-0.0418951996695566,-0.0243137995424812,-0.0244302074805032,0.0045425815828498,-0.0015007282343727,0.0612226406862657,0.998112099368273,0.0731314121725302,-0.0099544225918754,9.841715087446675,-0.0226571134188219,-0.02092394602826,0.0041916048118475,8.418587897490633,4.970799183625903,2.08664667911898,1121.0904629954437,1144.6865472514587,1138.9791791487396,1145.4978451478617,593.684890186265,-692.5411956222529,314.47294472129494,-243.50071406430564,155.83026525986887
46.865,0.5259744134712334,-1.2415255808572683,-0.6264835430344668,-0.0403541028087626,-0.0277491949576874,-0.0266233921438151,0.0044867570777675,-0.0015899192455425,0.0611900874958563,0.9981141532245562,0.0813417662326451,-0.007806746527424,9.839433696563244,-0.0224748515492757,-0.0210437680584317,0.0042804679150187,8.418541329031806,4.970740193815779,2.086659908170987,1122.6160679739648,1142.7569672678883,1139.853712974743,1144.700372419672,606.7718217784266,-822.7097774435812,356.97515907559773,-384.8720094566805,155.82994425827877
46.8675,0.5446993774678116,-0.7489028277621668,-0.5421190084850698,-0.0390785727613715,-0.0298415231589375,-0.0288187127451292,0.0044384061797096,-0.0016770631732871,0.0611642320931176,0.9981157845324606,0.089181758154782,-0.0054393456038726,9.836888136046577,-0.0222734990123977,-0.0211499125654276,0.0043587352657092,8.418496065205394,4.9706807723154895,2.0866742143991472,1124.124322104333,1140.5729983642443,1140.764054944116,1143.57348510058,578.576633201036,-910.4215746379036,340.79816245147487,-528.1982014227908,155.82958829258445
46.87,0.5936848018962153,-0.2493015766941706,-0.3871271943869897,-0.0385291650843326,-0.0304544120903016,-0.030781795475116,0.0043975230699413,-0.0017543014867239,0.0611474976215565,0.9981168830060873,0.0964267280231898,-0.0028833991444079,9.834092689896858,-0.02205388286721,-0.0212411285457646,0.0044259339227305,8.418451145646761,4.9706207842419055,2.0866884614582095,1125.5089511399672,1138.204859394703,1141.557703786999,1142.0593814125605,557.2245040265775,-1049.7301012991188,283.2645092560512,-746.31554562332,155.8291868525847
46.8725,0.7177776707414129,0.3248805419545539,-0.1371783782279591,-0.0385227651341056,-0.0297133667458999,-0.0324223862586497,0.004362461760491,-0.001814836699035,0.0611404855832235,0.998117464064306,0.1028735829798774,-0.0002060157413451,9.831062495309602,-0.0218162039322294,-0.0213163915290997,0.0044821840488749,8.418405122556852,4.97055956403639,2.0867019027788194,1126.9104446244671,1135.3243478577463,1142.1803774903967,1139.8419073724615,459.5852026970911,-1038.0337633081726,152.8318201767561,-868.4798068052365,155.8286481420251
46.875,0.8809628045497707,0.7653038475349153,0.100188803151155,-0.0381873719204752,-0.0280056909248557,-0.0326053176893232,0.0043274086912136,-0.0018579870414656,0.0611402675641908,0.9981177725231448,0.1084374787078873,0.0024356838488314,9.827811871157492,-0.0215600771046107,-0.0213750945224343,0.0045282035363082,8.41835704039438,4.970497147929662,2.086714009246516,1127.806877153454,1133.0146905781592,1142.321862887883,1137.716982378532,301.87872625401894,-879.6782620688915,-31.0546582993366,-887.4056448732857,155.8281484206045
46.8775,1.086579740858371,1.1542255835687947,0.331915753708487,-0.0364732501743435,-0.0253774120339958,-0.031106513716233,0.0042900564610081,-0.0018879397262907,0.0611461240050059,0.99811789849549,0.113137418910472,0.0049466857120457,9.824352903138658,-0.0212851138645501,-0.0214168479491083,0.0045654036299356,8.418307402496037,4.970433720222293,2.086724017812576,1128.419838255736,1130.9259565474058,1142.0251041989004,1135.404879148099,222.70443179665992,-845.5652508354199,-221.14741415778153,-1026.8227034713823,155.8275919161814
46.88,1.33657916565804,1.5553262881442442,0.5709639006450213,-0.0328166981812058,-0.0214799506036401,-0.0283359217843364,0.0042522894135071,-0.001908130479869,0.0611555174405966,0.9981180296114732,0.1169876743692796,0.0073162993850972,9.820696478015856,-0.0209911820813384,-0.021441760415308,0.0045954046180271,8.418256741836963,4.970369510651199,2.0867314477545773,1128.920399312438,1128.78686432398,1141.2161258170936,1132.5828688611723,167.8702787228354,-710.9411108725,-351.9604859288865,-1011.6985096413651,155.82685362265016
46.8825,1.5108526631654535,1.8325640123463027,0.7294951698590437,-0.0289095988199048,-0.0176324744197783,-0.0262160099557918,0.0042205168467958,-0.0019206641408104,0.0611628555668954,0.9981185200178528,0.1199880797919193,0.0096269053896285,9.81685254596408,-0.0206786770814406,-0.0214505728623932,0.0046196721097732,8.418206089968058,4.970305349509036,2.0867371251575326,1129.2591896493507,1127.3712509930415,1140.265301769255,1130.3463865998897,150.97636390764907,-478.9743874894421,-404.89397373035433,-831.2496397975168,155.82617601918395
46.885,1.611863180819486,2.0464707632675747,0.8513828706857355,-0.0244923666292116,-0.0129977193812167,-0.0246635707424141,0.0042000999575425,-0.0019225714742762,0.061164216688265,0.9981196217939308,0.1220458309573178,0.011949242358485,9.812832505391338,-0.0203489690689297,-0.021444537391503,0.0046388043502804,8.418155708451366,4.970241903371902,2.086742950724945,1129.6752811319755,1126.391992386535,1139.1916559484437,1128.4266206621887,230.33047786222636,-321.3412888107261,-460.25510507473984,-731.8854102110784,155.82542927789123
46.8875,1.6172215322806132,2.2232091332895223,0.9643095291670118,-0.0189532276267463,-0.0066975146226508,-0.0229417820231606,0.0041908691944764,-0.0019125432013804,0.0611607067249583,0.99812127213837,0.1231041117446792,0.0142468472450932,9.808648745669569,-0.0200046034595144,-0.0214252751356487,0.0046524620403745,8.418105260865708,4.9701795819059535,2.086749915432745,1130.4108420386624,1125.764544548987,1137.96402624388,1126.6869595488324,319.23323238626875,-136.94526757455876,-414.23535985751823,-524.9379671471204,155.82444830126104
46.89,1.512473999118596,2.2998965133284446,1.0295228012587072,-0.0142828954357143,-0.0011749519394091,-0.0212214353419998,0.0041918783063199,-0.0018929250870706,0.0611571238356657,0.998123135098312,0.1231884700031678,0.0164683316868249,9.804314061794386,-0.0196493090435476,-0.0213946760933571,0.0046597265159255,8.418055654864244,4.970118253851169,2.086758600875227,1131.2714472939076,1125.707266048662,1137.120479149155,1125.8019308264516,390.7240937170088,67.75577580348704,-279.05256506694883,-230.65147632140057,155.82355711079117
46.8925,1.2932384702848627,2.3010283016523325,1.0516721315024495,-0.0097990586668969,0.004625735303134,-0.0190129023588753,0.0042016789543065,-0.0018660087120153,0.0611575938891128,0.9981248550055792,0.1223356471616326,0.0185593617736647,9.799843378014398,-0.0192878762011098,-0.0213549354283668,0.0046591728778196,8.41800809735537,4.9700578629092735,2.086769244746112,1132.3644625072457,1126.103323428004,1136.5687634185467,1125.5337021672265,459.84819387617,221.63124440733128,-165.83288647498804,-14.049001955292711,155.82258701116916
46.895,0.9910599114368276,2.240432554238294,1.022134375225689,-0.0058420266346698,0.0107871319782678,-0.0162601997397192,0.0042168659225916,-0.0018349815148394,0.0611638572043797,0.9981261427712418,0.1206113904957776,0.0204343287647106,9.795254340269661,-0.0189259712312469,-0.0213085168775987,0.0046491050564439,8.417963416285291,4.969998355400785,2.086781238967869,1133.5706882632896,1126.8154222706992,1136.2913147167797,1125.7316858166753,480.19838530379263,337.9140500258108,-48.695806474254475,165.06766100970447,155.82155056099984
46.8975,0.621057842972238,2.1146055732386024,0.9110435100875744,-0.003188817020967,0.0170368746951461,-0.0128183643884869,0.0042289344772966,-0.0018011732763286,0.061172178758702,0.998126950847082,0.1180531855798329,0.0219195782743286,9.790569101167598,-0.0185697846773496,-0.0212582024254228,0.004627564639685,8.417921935684827,4.969939783360531,2.086794050961413,1134.7654544337659,1127.792893678134,1136.325284386175,1126.3590404722754,480.7493373609584,455.54571450380126,68.27646297398886,326.96484098171544,155.8204340640093
46.9,0.158687243538862,1.918015643365944,0.6735527996299454,-0.0020820116240783,0.0235997130598333,-0.0084812841000898,0.0042327157602183,-0.0017715975491536,0.0611791536835306,0.9981270406552736,0.1148282265490883,0.0229080606476936,9.785810941857823,-0.0182258589688663,-0.0212067161518226,0.0045931471028052,8.417884545940908,4.969882203550378,2.0868074643919714,1135.9744349500922,1129.093150843216,1136.6326970316493,1127.3665100215824,378.80131281002554,473.0910366189017,134.751825981197,373.02946966064167,155.81900304577368
46.9025,-0.192836549897736,1.7501331123914916,0.4018246059920711,-0.0029565291813549,0.0276569674993406,-0.0056796705723496,0.0042263037431981,-0.0017534696943699,0.0611813588562293,0.9981263028055788,0.1111253307834952,0.023364285226104,9.781005852985023,-0.0179006660866971,-0.0211566730772255,0.0045449163526857,8.417852573172592,4.969825958507832,2.0868212808268902,1136.6594609978167,1130.1583488612296,1136.9990435160817,1128.2241878205796,186.47810537558607,401.3543389149384,135.55267039830483,305.98213307260073,155.81773646285265
46.905,-0.4582983284876195,1.6212524691377597,0.0958085236473282,-0.0054559382204836,0.0302663317089834,-0.0047229380822975,0.0042133698112436,-0.001742848212596,0.0611760716282338,0.9981253098811524,0.1069346622038278,0.0233823614335043,9.776184864639,-0.0176001398978914,-0.0211104586907695,0.0044822104311145,8.417824697667529,4.96977103071258,2.0868341621545388,1136.9068254769707,1131.0999225377918,1137.3104603836412,1128.896420686946,2.8029932854704414,377.74489649543995,84.6624657438812,222.25875061965075,155.81639650228036
46.9075,-0.6453664651304669,1.5436584303869367,-0.2424175931913428,-0.0095045550369247,0.0327774917944497,-0.0059706400677082,0.0041997850834591,-0.0017348340420867,0.0611628941281295,0.9981244898238596,0.1022412387947609,0.0231067119591569,9.771381381984746,-0.0173290568011803,-0.0210701174009637,0.004404825440435,8.417799285968723,4.969717380434801,2.086846103045866,1136.6734759642443,1132.0470733437053,1137.4223558448007,1129.3354815736768,-165.19753488297016,321.79487516716017,-24.37541258290029,91.54629910303673,155.81470915539833
46.91,-0.6947411864004952,1.5449840232035719,-0.4533613413479239,-0.0127852629134566,0.0351748367489742,-0.0086275591403795,0.0041873654358048,-0.0017214358305185,0.0611420772749029,0.9981241155695008,0.0969730428033384,0.0226122071603727,9.76663236339305,-0.0170905744343754,-0.0210373576512697,0.004312564748227,8.417774565105745,4.9696646394546145,2.0868571208243623,1136.0808378025552,1132.7088969136285,1137.1885833207264,1129.3541521824616,-298.5028958584572,252.80970544764185,-171.48974132187823,-58.40283847575588,155.81324131789003
46.9125,-0.6684983906077754,1.5922232176547568,-0.5577513918091817,-0.0151919224639098,0.0385018543719577,-0.011882030301434,0.0041762518441865,-0.0016956599759133,0.0611140170295101,0.9981243491462566,0.091080579594273,0.0219449864922963,9.761976326438434,-0.0168860048443118,-0.0210134324285421,0.0042053607313934,8.417749390628204,4.969612474848528,2.0868673154547843,1135.1809614849512,1133.311121870944,1136.5649071381908,1129.043467381298,-435.7674801682476,270.0872341050126,-352.8145509967115,-189.5412424383626,155.81171474616727
46.915,-0.6159330516640741,1.658011642342541,-0.5623062675065211,-0.0167187244425264,0.0434352064155992,-0.0150497353750191,0.0041639085859667,-0.0016524452748242,0.0610802079112328,0.9981252096997318,0.0845506572667464,0.0211006216807119,9.757452857950689,-0.0167148924353569,-0.0209990213854324,0.0040831615677543,8.417723163195772,4.969560207373688,2.0868774568906407,1133.902000401716,1134.0593330841523,1135.4245105657446,1128.4064459702706,-479.9957749069381,287.10935594857665,-461.75435830185984,-253.27850697413623,155.8098210447903
46.9175,-0.6066486907778573,1.687225180993412,-0.4906903007065914,-0.0167862887098443,0.0478699928564057,-0.0164579990613126,0.0041461373691255,-0.0015900847543502,0.0610436597617734,0.9981265633040108,0.0774320470451865,0.0200411042496838,9.75310175025848,-0.0165752090688322,-0.0209941698649993,0.0039459905001167,8.417695038958014,4.969507233449435,2.0868879917437417,1132.780982610415,1134.7466686506875,1134.2561353466804,1127.7770748464263,-440.0192163869201,286.2660128040616,-479.2059010662164,-239.9005164480196,155.80819583348128
46.92,-0.6812376619948352,1.6563053088077546,-0.3826314832306118,-0.0159461084815886,0.0524873054065925,-0.0165200870132247,0.0041181147560905,-0.0015121345879608,0.0610081048494917,0.998128186079076,0.0698707948275226,0.0187118927935285,9.748962202999648,-0.016463606176036,-0.0209983427866872,0.0037941059525781,8.417664906002246,4.969453119894784,2.0868987562691594,1131.7019043197804,1135.490663148173,1133.0284810604123,1127.20694338803,-417.9684660125694,295.78232720286525,-477.40278090234585,-196.60726094006947,155.8065268803288
46.9225,-0.8382946431151675,1.5571532513558164,-0.2711573582862678,-0.01494899093176,0.057366745481289,-0.0158061901649044,0.0040769267805612,-0.0014245054355449,0.0609759435257558,0.9981299010824594,0.0620539338111347,0.0170939605926618,9.74507281206748,-0.0163757239105028,-0.0210105793322678,0.0036281120560297,8.417632500305006,4.969397139554062,2.0869092601295622,1130.6911402803544,1136.2255802867007,1131.8691214421708,1126.794038541727,-390.5993332923848,270.30044459479353,-428.00590865777775,-110.3013726187673,155.80482547946832
46.925,-1.071274890254954,1.3664600584975148,-0.1692495590672217,-0.0149683641623675,0.0623984467947561,-0.0149972585198942,0.0040230469009974,-0.0013312923684325,0.0609454231412959,0.9981317632930404,0.0541281948561648,0.0152366982523926,9.741471731235139,-0.0163065115732667,-0.0210297582884555,0.0034489489706834,8.417597515361715,4.96933930368092,2.0869186008838585,1129.7489076533175,1136.842165371148,1130.8884515171223,1126.6554365249356,-411.16393987373954,215.1986680839663,-380.1641964792327,8.719806674339539,155.8030895393341
46.9275,-1.3597526866958471,1.045717562554126,-0.048352839922543,-0.0179465003386145,0.0674660305795597,-0.0151370660302996,0.0039607028256958,-0.0012339053713393,0.0609110777734067,0.9981340405163948,0.0461827680303958,0.0132647667028681,9.738196218144193,-0.01625069188174,-0.021054801874117,0.0032578417966807,8.417559804343629,4.9692805613400095,2.0869261896145086,1128.6353205809846,1137.3015736271211,1129.9683004597737,1126.8376375750988,-414.7313313489256,106.4083374713904,-296.2397174469936,119.01028207432228,155.80097236831884
