t,ang_acc_x,ang_acc_y,ang_acc_z,a_vel_x,a_vel_y,a_vel_z,quat_x,quat_y,quat_z,quat_w,acc_x,acc_y,acc_z,l_vel_x,l_vel_y,l_vel_z,pos_x,pos_y,pos_z,mot_1,mot_2,mot_3,mot_4,dmot_1,dmot_2,dmot_3,dmot_4,vbat
1.395,-0.1205495713136589,-0.9046369634278396,-0.3181342999357442,-0.0221481452113415,-0.0159365537659034,0.0228570783431087,-0.0065839928880748,0.0059343920918511,0.0028076934501147,-0.9999564053634326,0.0815983789552526,0.1031202923956189,9.809623489019538,-0.0027260492738443,0.0007492036279422,0.0045339475962642,4.578055169956693,-0.8720051304790005,1.2073348543306068,1131.1781632268583,1119.6676504691131,1127.5353647489776,1130.2985271575533,167.9121320159119,-75.44964959743245,256.945088342678,-46.843221754853495,152.3482838265431
1.3975,-0.0054844182773812,-0.809640738737428,-0.3904876483488017,-0.0219615667555421,-0.0179879703886472,0.0224287895965048,-0.0065500780202928,0.005966689111489,0.0027891456311667,-0.9999564788668818,0.0818107068288542,0.0996166031563919,9.810217696040624,-0.0028789080036898,0.0008979907983968,0.0046079263401133,4.578044392265133,-0.8720022430289561,1.2073485011677272,1131.607751469646,1119.550496906053,1128.4953321666724,1130.2609058591127,156.21650638535905,-39.179227508838274,558.0413702199493,-1.5385903207970486,152.34704866528278
1.4,0.0965340682052676,-0.7104445346991967,-0.4705948129193189,-0.0213663958478214,-0.0198128315594189,0.0209974213365023,-0.0065194536666497,0.0060166880166149,0.0027727158065088,-0.9999564136508478,0.0823368461861501,0.0958751438988277,9.810486971307085,-0.0030282431164701,0.0010333387643676,0.0046797578136862,4.578032999573021,-0.8719964541099763,1.2073634899524424,1131.959245758785,1119.4717543315692,1130.3255716000774,1130.2908342059493,87.60025670939993,-31.9915310559274,757.2020248567065,-0.5354516070383273,152.34550395987435
1.4025,0.1597344454626751,-0.6426715835905943,-0.512882011253958,-0.0207804961662134,-0.021006771047085,0.0192277035830605,-0.006486314551579,0.0060806124435362,0.002761509438432,-0.9999562634929776,0.0831063970261738,0.0918314972765919,9.81043342851556,-0.0031750163163893,0.0011514767439102,0.004746042715675,4.578021598765472,-0.8719878603584736,1.2073795462711483,1132.045752753193,1119.3905392507731,1132.281342290956,1130.2582286010775,-6.856349237932736,-46.78832674853865,824.9964417115455,-51.99578742399464,152.34417220385174
1.405,0.2156905342726469,-0.5874786626829646,-0.5137242024012613,-0.0202126719750344,-0.0221472613997104,0.0174073702293257,-0.0064535848051447,0.0061560009003335,0.0027544019677783,-0.9999560265793656,0.0840772338242682,0.0875995608592946,9.81006606144722,-0.0033207319085124,0.001249472859391,0.0048039635579434,4.578010863115076,-0.8719771608016667,1.2073962507012543,1131.9249640125954,1119.2378126978265,1134.450553808635,1130.030855268829,-79.09281955535502,-88.3920256094844,945.2976919363864,-161.3166353153281,152.34280314124996
1.4075,0.2965259586361069,-0.5247523011740742,-0.4606473801479521,-0.0195474902887678,-0.0236151076765441,0.0156475141562218,-0.0064261757089638,0.0062349507316466,0.002747070162106,-0.9999557321078432,0.0851034504254736,0.083337289765835,9.809402794500128,-0.0034673913312408,0.0013254849156619,0.0048513473943326,4.578001348492854,-0.8719665261103117,1.2074128968222988,1131.6502886554163,1118.948579122726,1137.0078307506378,1129.4516454245008,-97.06000072447048,-121.57187759017036,893.6562018823414,-261.2348206390435,152.3411271732582
1.41,0.3918370994910461,-0.4644351319289944,-0.373058535440941,-0.0189833617387098,-0.0248223359668312,0.0143978736404574,-0.006405397592737,0.006305692026151,0.002737757692068,-0.9999554518590495,0.085965732414119,0.0791351847950787,9.808470744864609,-0.0036172932632161,0.0013787864946634,0.0048867120244667,4.577993364940627,-0.8719570174692985,1.20742951578302,1131.439664008973,1118.6299533098756,1138.9188348180467,1128.724681165634,-46.85033215573532,-136.1363826997572,690.0502230487132,-324.1384962722729,152.3397101049785
1.4125,0.5333446631296956,-0.3820865933549381,-0.247019574643198,-0.0185018294806355,-0.0258985972179354,0.0130871482012031,-0.0063852552488601,0.0063619530570318,0.0027253215963064,-0.9999552690642975,0.0865556444090345,0.0749421554917539,9.807304556095415,-0.0037726684851736,0.0014096377685078,0.0049093213599733,4.577987125320568,-0.8719493387088925,1.2074456666179259,1131.4160369946376,1118.2678972092272,1140.4580818658815,1127.8309529431394,43.34904172378528,-144.96640539363972,545.0517149797962,-365.490437203144,152.33828016246753
1.415,0.7208406356519176,-0.2717914020657148,-0.0989686968870349,-0.0182327938020849,-0.0269698124063953,0.0119177128148341,-0.0063630671178783,0.0063995894834545,0.002712925754156,-0.9999552213247868,0.0868079350349739,0.0707716328110693,9.805941977558248,-0.0039354182327744,0.0014191229048156,0.0049190730348126,4.577981930687851,-0.8719433183487592,1.207460464476407,1131.656409217592,1117.9051212829074,1141.6440933929457,1126.8972289796184,174.82320278609595,-137.75994994439608,390.7464794792842,-357.9657173931158,152.3368456196862
1.4175,0.9591147610310264,-0.1188906625805195,0.0538157626643711,-0.017711245452756,-0.0280140148150822,0.0114649532003482,-0.0063476000411288,0.0064220977936768,0.0027032396898231,-0.9999552193686512,0.0868082784233694,0.0668594733542702,9.804419667022554,-0.0041067766613389,0.0014089953683748,0.0049163763300907,4.577977209520723,-0.8719383747408102,1.2074739622795778,1132.290153008568,1117.5790974595052,1142.4118142632778,1126.041124356174,368.216768629835,-128.77424318599245,251.9416843683356,-330.7362859444836,152.3354127098711
1.42,1.2711061791689873,0.1165194251520447,0.2037706561079466,-0.015748725295375,-0.0288261129743866,0.0123459102539781,-0.0063431665522727,0.0064347059223779,0.0026956039694298,-0.9999551994514768,0.0866774798019017,0.0633499560708251,9.80277696297724,-0.0042871755046541,0.0013813322680779,0.0049019706305239,4.577972474033547,-0.8719339141906418,1.20748682548448,1133.4974930607411,1117.2612500669775,1142.9038018147871,1125.243547549896,499.8505720019123,-102.23746404262548,118.30793431581424,-238.74301874674887,152.333704173355
1.4225,1.5113045066326731,0.3490694212517022,0.2726335664560107,-0.0124846070754842,-0.0287928550464651,0.0141981165811921,-0.0063526078733338,0.0064411194353313,0.0026878746537916,-0.9999551246247524,0.086505950645643,0.0603526307175051,9.801054054226931,-0.0044761886639677,0.0013384280478524,0.0048767475521725,4.5779665697339125,-0.8719296237491461,1.2074993745426383,1134.7894058685777,1117.067910139292,1143.0033539348567,1124.84740926244,539.7014364920199,-60.39151026729857,-16.163103766575286,-91.29310141515603,152.33229599217546
1.425,1.6728232404540895,0.6014962779556888,0.2638347021349568,-0.007492611190946,-0.0277599265895191,0.0163444017836947,-0.0063730427128137,0.0064457081114703,0.0026796397672918,-0.9999549883013092,0.0863951771578573,0.0578578656377658,9.799291595144,-0.004672542057207,0.0012826744036017,0.0048417013060735,4.577959114039809,-0.8719256706028976,1.2075113070201684,1136.1960002432013,1116.9592925156408,1142.8229862959545,1124.7870820428202,592.8899147786195,-22.00671730020123,-139.75373112826063,53.191613053605806,152.33091155571907
1.4275,1.720504697933232,0.9002558287225655,0.1701530354159141,-0.0003199905776689,-0.0253029380470019,0.01828782912267,-0.0064018029441266,0.006449648600125,0.0026722724747968,-0.9999548017986772,0.0863807340424008,0.055852093942847,9.797528624570784,-0.0048742798679561,0.0012165863039734,0.0047978100977438,4.577949814417024,-0.8719220277361845,1.207522562928621,1137.7538554424707,1116.957876552791,1142.3045852792156,1125.113367327708,512.804549225586,29.233239422911247,-239.32035870994292,178.24461637460823,152.32928624363177
1.43,1.6199632716495271,1.1269573211840027,0.0458747035865556,0.005734591930315,-0.0224407976707757,0.0190414549488504,-0.0064405506573841,0.0064498754874655,0.002665910453266,-0.9999545804724456,0.0864110479655326,0.0543977723949778,9.795800949814906,-0.0050789583922068,0.0011428475028397,0.0047459375173804,4.577938058559003,-0.8719180590081682,1.20753378184034,1138.7600229893292,1117.1054587127555,1141.6263845024048,1125.6783051246932,310.2709394196537,102.056729498779,-319.29334550808727,265.8679846252592,152.32796794363836
1.4325,1.3849052227546357,1.314317369747162,-0.0858262453791243,0.010511428146691,-0.0190925152593992,0.0187520478942185,-0.0064818031340748,0.0064413388146923,0.0026601447590819,-0.999954409557244,0.0863917014715569,0.0533690529621663,9.794143525419068,-0.0052838858752183,0.0010642046108132,0.0046868553588695,4.577923260233691,-0.8719136145654652,1.2075456955893833,1139.3052101395688,1117.4681602002847,1140.7081185516752,1126.4427072508345,121.08721144136044,220.72070744679368,-448.1582273636728,348.9405557695965,152.32669429428884
1.435,0.9942498535417084,1.4841962643881674,-0.2029051129566865,0.0138878013368856,-0.0147678003762801,0.017233647149837,-0.006517046343821,0.0064258532431771,0.0026505652202013,-0.9999543468114382,0.0863584659636766,0.0526112247978953,9.792586952782349,-0.0054863706706857,0.0009836514493191,0.0046213697282084,4.577905731696808,-0.8719100382737351,1.2075574607183923,1139.365459046536,1118.2090622499895,1139.3855933655864,1127.4230079035412,-68.56963942186813,325.2514803879491,-505.9096654787135,346.90814180795144,152.32522565528177
1.4375,0.6205740755705799,1.5778690609796804,-0.2382707134015688,0.0150279221449332,-0.0111550684044169,0.0151816308411285,-0.0065392216345159,0.0064085367320769,0.002628900235583,-0.9999544306561856,0.0864073858774443,0.0519894005013933,9.791156944938269,-0.005684103287022,0.0009044311122298,0.0045503444534741,4.5778870982285085,-0.8719092041739133,1.2075685591174738,1138.9623619424597,1119.0944176022247,1138.1785702242817,1128.177247959874,-229.39471175250708,401.9888626099232,-477.3328960911487,272.4693827277464,152.32405738411387
1.44,0.2401195106743055,1.6213089738402575,-0.1961331283982522,0.0154399365672572,-0.0076375886391531,0.0129104022016841,-0.0065468385590926,0.0063922450066467,0.0025940844544536,-0.9999546567083129,0.0865848279016585,0.0514690897736267,9.789873727877016,-0.0058754365287111,0.000829706513438,0.0044746261228255,4.577868647593248,-0.8719115842638819,1.2075796387518927,1138.2184854877735,1120.219006563039,1136.9989288851307,1128.78535481718,-327.5381820397721,473.87231719793624,-443.6853150177183,218.42563063118584,152.3229535593245
1.4425,-0.1226765562638107,1.6208077525517393,-0.1004639136915988,0.015616052250081,-0.003917226319175,0.0113002146681555,-0.0065388261261969,0.0063769922743746,0.0025495786404023,-0.9999550244405208,0.0868774935903804,0.051016178671081,9.788753091666887,-0.0060593882763818,0.0007621258270317,0.004395039512067,4.577850759271564,-0.8719166223999542,1.2075912126274673,1137.3246710322608,1121.4637791882144,1135.960143649193,1129.26937611303,-358.96364781428093,497.75119787376514,-355.7050302457273,173.79533906004835,152.3219078177721
1.445,-0.4405367190879641,1.5613659452426198,0.0244647689304618,0.0149475601324803,0.000235416562021,0.0113601536666139,-0.00652059973164,0.0063619435398172,0.0025034777435119,-0.9999554824045704,0.0872520193071883,0.0507169675117788,9.787804587638666,-0.0062355067613362,0.0007034667962188,0.0043124542031307,4.577832962793059,-0.8719223828725386,1.2076026263730708,1136.423667248702,1122.707762552408,1135.220403733902,1129.6543315124802,-355.89215979385546,504.6153387156317,-235.40961949539044,162.6162311093629,152.32093691395713
1.4475,-0.7391929641502271,1.4169738675103545,0.1536659561683635,0.012479244150414,0.0054258252885046,0.013061581580792,-0.0065021376343852,0.0063493223452255,0.0024628403643864,-0.9999559299781792,0.0877331159937562,0.0507420851051247,9.787031426548232,-0.0064037107121112,0.0006544613375873,0.0042278879227965,4.5778150921003276,-0.8719269680835225,1.2076135635088447,1135.5452102332915,1123.9868558817925,1134.783095551716,1130.0824572685767,-262.91731959000225,406.35106263476655,-82.57576931028046,158.7103746701848,152.3198634416673
1.45,-0.9008925681746492,1.2401096861836562,0.2138721669500227,0.009289561412206,0.009520523757987,0.0148762873311782,-0.0064911878421052,0.0063414258691925,0.0024321832378847,-0.9999562837071658,0.0883465423097129,0.0512147847300998,9.786432335728902,-0.0065642449326704,0.0006148102310161,0.0041424810362368,4.577796874196763,-0.8719288918720676,1.207624716297328,1135.109080650752,1124.7395178655815,1134.8075248873506,1130.4478833858311,-94.16594052008585,217.5083283518638,79.33560578958166,148.2457763696368,152.31904815029392
1.4525,-0.9660633456434116,1.0237266184380396,0.2106280659856484,0.0060234852250167,0.0126880604218075,0.0162990916499734,-0.0064950905877248,0.0063393815357574,0.0024126727141928,-0.9999564723032168,0.0890956589669506,0.0522479162141736,9.7860013023301,-0.0067176649812319,0.0005835153007402,0.0040574889034535,4.5777778258329365,-0.8719276872737987,1.2076361437635588,1135.074380530691,1125.0743975235519,1135.179773580664,1130.8236861504251,78.78151101854017,52.43741718881999,219.27755626397305,161.0979214877224,152.318317694372
1.455,-0.9492747124991942,0.755110944055617,0.1411059197049509,0.0028344068744077,0.014922922332682,0.017416410564542,-0.006510343968962,0.006342658983077,0.0024029989007573,-0.9999564978298942,0.0899531356289007,0.0537407928108798,9.785730256265005,-0.0068648589552233,0.0005592266513442,0.0039743234618397,4.577758779326438,-0.8719243609769763,1.2076464198041894,1135.5029882058448,1125.0017049515259,1135.9039126686705,1131.2533729932695,221.09592503061796,-90.1705489054185,290.80951963820263,150.06965836051089,152.3175410164741
1.4575,-0.8778841516926693,0.552250122064596,0.0440722006326382,0.0007658045017494,0.0155222512348556,0.017855652199853,-0.0065293682924784,0.0063429364561129,0.0024023801634244,-0.9999564222904151,0.0907409888722673,0.0555121305056522,9.785608693100055,-0.007007086225926,0.0005406652540329,0.0038944070870129,4.577740699175314,-0.8719200467378013,1.2076549857887968,1136.179860155844,1124.6235447790248,1136.6338211788548,1131.5740344422277,305.08807593419726,-188.4380022602312,295.0622874893333,122.6149605461186,152.316977542171
1.46,-0.7747022851747705,0.394761212764375,-0.0691504886938504,-0.0008099531806229,0.0155084073969481,0.017640934600994,-0.006550181693806,0.0063293865784712,0.0024091078948149,-0.9999562936061388,0.0912343127214345,0.0574901927917228,9.785621320579006,-0.0071458095780665,0.00052697689321,0.0038190475622151,4.577723680858265,-0.8719151973646206,1.2076616314530089,1137.0284285855157,1124.0595149402247,1137.3792241061171,1131.8664477960003,366.8773535799489,-256.8342694080852,310.39399757400327,134.18044110107675,152.31650079209828
1.4625,-0.6408647291795849,0.2637867691137361,-0.1952258453646493,-0.0019010186469601,0.0158437940308624,0.0167212756097594,-0.0065657527704495,0.0062938266069112,0.0024185259267713,-0.9999562581621734,0.0912632043712063,0.0595049059172925,9.785750636845298,-0.0072824669343351,0.0005178127716939,0.0037492907930453,4.577706855365824,-0.8719102245404051,1.2076676444635974,1138.014246923744,1123.3393734319843,1138.185791166725,1132.244936647733,323.93165148677485,-251.9713544604143,270.0080240757808,155.28842567568614,152.3160281032587
1.465,-0.5321872496831991,0.195761938496287,-0.2757884059896372,-0.0022336662674773,0.0164575038074707,0.0156879336591493,-0.0065741697558788,0.0062402443193258,0.0024257040498761,-0.9999563562489596,0.0908986283050899,0.0614874877590941,9.785974040947998,-0.0074182618078731,0.0005134258031735,0.0036859007729403,4.577689972190831,-0.87190563031453,1.207674166201672,1138.6480868429496,1122.7996581679226,1138.729264226496,1132.6428899243788,185.99799861813548,-189.62628823287963,183.23365192896225,187.64366049199853,152.3157163162452
1.4675,-0.424238070193606,0.1582867521593483,-0.3193057706638799,-0.0025043934103719,0.0169901524477242,0.0146162146756264,-0.0065704311003049,0.0061762384890995,0.0024240715310215,-0.9999566143274686,0.0902854587426071,0.063309473206019,9.78626782381852,-0.0075541547864548,0.0005146044628631,0.0036292607093249,4.577673164988281,-0.8719023535109673,1.2076815362368307,1138.9442369168344,1122.39124199082,1139.1019594263698,1133.183154950193,51.93639143703987,-136.909145673829,120.76367038157773,241.32158871685135,152.3154888414686
1.47,-0.3028949575836364,0.1381394480489386,-0.3287496335280138,-0.0033324932478537,0.0173877816850021,0.0134842262965679,-0.0065546731911087,0.0061093038475924,0.0024103189744468,-0.9999570079173192,0.0895685781550291,0.0649437037237306,9.786606544722574,-0.0076908346222052,0.0005225159601857,0.0035794226995971,4.577656564529031,-0.8719018744183143,1.207689183278201,1138.9077688001348,1122.1151124395535,1139.333082578404,1133.849497867963,-93.0549709922181,-76.25426590984878,66.6632236487672,286.8101148069916,152.31533054477748
1.4725,-0.1418909523742788,0.1305282401114806,-0.2985729510401107,-0.005059543066986,0.0177603914744084,0.0122624633522945,-0.0065277070132167,0.006041875477063,0.0023835477428029,-0.9999575278121532,0.0887958324379959,0.0663769580584235,9.786965683957169,-0.0078286792869227,0.0005383679442344,0.0035361491055539,4.577639811831136,-0.8719045164618061,1.2076974752434095,1138.4789620618735,1122.0099706612707,1139.4352755446137,1134.617205524228,-261.64242333492746,-5.63586918542556,35.84238195003226,334.58631332045246,152.31525471781475
1.475,0.1145982966235979,0.1260910237883341,-0.2267221867560602,-0.0074270662892377,0.0180987963455423,0.0108134994469636,-0.0064937513241719,0.005972960874419,0.0023476912615063,-0.9999581475876744,0.0879490787272362,0.0676639044931381,9.787321606967474,-0.007967691984299,0.0005629629283062,0.0034990374227385,4.577622386926654,-0.8719085445852358,1.2077067401806447,1137.59955668346,1122.0869330936264,1139.512294488154,1135.5224294345653,-363.6416671158174,61.2611843011095,40.135673804888015,305.4910693961958,152.3152577689962
1.4775,0.3716293111610188,0.1194295161512329,-0.1519684852379078,-0.0088605584048864,0.0182402338021004,0.0098872733727839,-0.0064632736018111,0.0059068916508858,0.002309171904072,-0.9999587566389884,0.08711525367092,0.0689836315874528,9.78765058976437,-0.0081074498545867,0.0005964218993733,0.0034677822701322,4.577603607165837,-0.8719119852554714,1.207715933187336,1136.6607537262944,1122.3162765827763,1139.635953913638,1136.1446608712088,-394.7923620231534,122.22960219928868,84.06071428767241,197.05730908495264,152.31533768301338
1.48,0.6296820128581434,0.1000653129802695,-0.0880052885007823,-0.0083959028330051,0.018405164382362,0.0099408361460243,-0.0064404466113756,0.0058476375624513,0.0022739418993581,-0.9999592858395628,0.0863757215430866,0.0703944064241086,9.787933645782497,-0.008247249566853,0.0006380570194333,0.0034421666497957,4.577582677703444,-0.8719141483284031,1.207723639974765,1135.6255948733444,1122.6980811046228,1139.9325980595925,1136.50771597999,-459.8926435784149,194.28640866622527,184.8485021724667,86.08963106621742,152.31549661405055
1.4825,0.8613689963418236,0.0484914935010643,-0.0552030021286104,-0.0044915397254557,0.0188460521315742,0.0112908302471625,-0.0064274116868733,0.0057979694507449,0.0022435065149087,-0.9999596981975952,0.0857900231303267,0.0719176363139672,9.788156298543727,-0.0083863245694417,0.0006865800279812,0.0034219434696022,4.5775593122927125,-0.871914613958162,1.2077295467363338,1134.3612905084024,1123.2877086261071,1140.5601964245004,1136.57510902654,-463.6201146981314,227.69139131182257,272.3472825049094,-32.85907525296276,152.31577663091355
1.485,0.9368406259022728,-0.0273894850350141,-0.0759004107364954,0.0006966219523449,0.0192721712746346,0.0126889587716348,-0.0064241716538484,0.0057634973105975,0.0022166948654403,-0.9999599627284792,0.0854746053661355,0.0735363830428227,9.788308912396728,-0.00852410458916,0.0007402819277084,0.0034066727599261,4.57753433206955,-0.8719133496349674,1.2077334097554584,1133.3074942998535,1123.836538061182,1141.294334472117,1136.3434206037252,-425.4790950325871,213.70658273035093,315.25385483154605,-130.53500186396985,152.31608220702768
1.4875,0.8653070598299564,-0.1436570616548001,-0.1361984829599005,0.0054615893224569,0.019516790378497,0.0133082765741759,-0.0064316645580862,0.005753179357981,0.0021969513848949,-0.9999600141237792,0.0856115443971394,0.075255782580572,9.788386491806015,-0.0086604625340577,0.0007971738019188,0.0033954588961343,4.577509469973249,-0.8719100602464894,1.207736481085084,1132.2338950332392,1124.3562415397591,1142.136465698658,1135.9224340172202,-481.74460867195313,195.91043448349828,351.03719117774585,-187.83520563024868,152.3164592480339
1.49,0.6396759032439349,-0.3282034527719421,-0.2171704329420075,0.0091332598446663,0.019437991708952,0.0126832239080225,-0.0064502227955322,0.0057680799031422,0.0021860847757487,-0.9999598401316399,0.0862294547061466,0.0770724074113433,9.788390901565194,-0.0087958492989718,0.0008553478604056,0.0033865606401521,4.57748557323491,-0.871904758109352,1.2077400399331366,1130.898771256494,1124.8160902335994,1143.0495204280055,1135.404244575574,-494.0440915046671,121.73071608908944,281.7383801326347,-160.11940580224632,152.3169891150422
1.4925,0.3842135786800653,-0.5116568238208524,-0.2592333403022937,0.0102430943236724,0.0190029498164115,0.0109815634483672,-0.0064749442451424,0.0057986355976394,0.0021831340217036,-0.9999595248614443,0.0871503896724705,0.0788832966854204,9.788332912256209,-0.008931195847867,0.000913250408153,0.0033773196519326,4.57746257541041,-0.8718980339362571,1.2077455503423102,1129.763674575716,1124.9648951202043,1143.545157599321,1135.1218369882088,-443.5314319753968,-7.434033934941738,106.79154492181377,-53.52317225669925,152.31749063827
1.495,0.1263071693854727,-0.7079112294483989,-0.2464458850033503,0.0095774087594176,0.0180844922782535,0.0087388125063774,-0.0065055985377729,0.0058410273123433,0.0021842182499179,-0.9999590925153374,0.0883099491824921,0.0806801208576811,9.788227678496419,-0.0090676151535876,0.0009699949219439,0.0033646130825667,4.577440263117097,-0.8718906550884064,1.2077540473589023,1128.6811140966167,1124.7789200639247,1143.5834781526148,1135.1366287142905,-407.2177710382581,-135.2003150799615,-74.49418656037606,61.96626378768853,152.3180480872624
1.4975,-0.0911051713746041,-0.894479544660238,-0.1839468762301149,0.0080909757917562,0.0164075391710964,0.0070082425836248,-0.006542722944041,0.0058938119543064,0.0021829354815446,-0.9999585566529682,0.0896912687893367,0.0824719725578327,9.78809585543619,-0.0092062351965416,0.0010254680068699,0.0033451671341786,4.577419314943831,-0.8718838613152226,1.207765137699878,1127.7275857205248,1124.2888935448048,1143.1726866665194,1135.4316683071474,-330.2929479162756,-260.60853467088793,-268.8550261183594,171.60987493962605,152.3186465253889
1.5,-0.2293245406296962,-1.0392892080866412,-0.077604732333402,0.0062937818541576,0.013473821965883,0.0065593643652769,-0.006587422024768,0.0059512942109889,0.00217502296571,-0.9999579500210964,0.0911941105525187,0.0842805204308458,9.787963652330616,-0.0093480297446257,0.0010802288948185,0.0033158529936786,4.577399852538528,-0.8718786900975356,1.2077780617579537,1127.0296493570356,1123.4758773905703,1142.239203022023,1135.9946780889886,-231.9213318741781,-400.3726400584668,-503.5519551929263,266.6848755471676,152.31928708779702
1.5025,-0.2929352148157,-1.1308769325202923,0.0680783679451145,0.0044256630985463,0.0090363631322915,0.0072940231543014,-0.006635532073956,0.0060049037615342,0.0021572174075441,-0.9999573567112208,0.0926616937446037,0.0860252639227295,9.78786321790397,-0.009493545901898,0.0011353045276734,0.0032740779556485,4.577380899912076,-0.8718761755682499,1.2077927865580311,1126.567979061154,1122.2870303445125,1140.6549268905549,1136.7650926848833,-104.19998430129212,-436.3975126707728,-627.3782837808395,256.487508167987,152.32009468011762
1.505,-0.2692427394717568,-1.1260653701417127,0.184204632299487,0.0033531302511217,0.0053020660988085,0.0083333370349331,-0.0066828394461395,0.0060463712047907,0.0021289958358791,-0.9999568558387621,0.0939416408353839,0.0876254543369612,9.787829086663768,-0.0096426964190138,0.001191851705276,0.0032181291907329,4.577360459224748,-0.8718764215068264,1.2078084457506688,1126.5086494355292,1121.2938898272164,1139.1023116031188,1137.2771156298284,37.87992575239426,-350.9926014907624,-629.3648474829151,129.26591471804997,152.32079359413763
1.5075,-0.187070913117892,-1.0399073735660989,0.2821810433935738,0.0025776656862093,0.0022108435978951,0.0090312132950816,-0.0067305119759153,0.0060712467412377,0.0020909272459029,-0.9999564654596604,0.0949541564429774,0.089106378237503,9.787894007309966,-0.0097947458750571,0.0012508095878744,0.0031474569169196,4.57733767173083,-0.8718781022793443,1.2078244017725397,1126.7573786899159,1120.5320673370586,1137.5081026531402,1137.4114222584735,169.13229429688178,-235.2448999383846,-669.9736303423067,-65.3423985257646,152.32151282749376
1.51,-0.0521889081314417,-0.8621090519606096,0.3732593161448228,0.0017604639160235,-0.0006629814074682,0.0095320050153167,-0.0067745104591494,0.0060794016454315,0.0020465153572247,-0.9999562050779682,0.09570127379277,0.0903921168312569,9.788089844034394,-0.0099485154756977,0.0013124611976839,0.0030628376509784,4.577313322687209,-0.8718801007690364,1.20783953226351,1127.3543109070135,1120.1176653275245,1135.752443451407,1136.9504036371995,261.50116061108395,-48.43820698247431,-594.4935178897266,-279.3958635509685,152.3223932694332
1.5125,0.063115207047297,-0.6706712662078549,0.4212567698209673,0.0015557607381523,-0.0025358108347861,0.0104370400465267,-0.0068127360924294,0.0060752233003645,0.0020000546775686,-0.99995605381813,0.0962701790856959,0.0914455807121114,9.788443136157316,-0.010102605246431,0.0013763566141452,0.0029663553388683,4.577288236387424,-0.8718811659459755,1.2078528428213815,1128.0648844929713,1120.2898763021462,1134.5356350636916,1136.0144429407187,324.7420190492828,177.62551352547734,-417.6603904941106,-472.27844352995635,152.32313796486844
1.515,0.1440000256903442,-0.4577533034742404,0.4298445356465894,0.0025081825034615,-0.0040144320377515,0.0122203030431895,-0.0068448548056252,0.0060632827228298,0.0019558312551668,-0.9999559809709256,0.0967481901417615,0.0922650555506243,9.788973659808399,-0.0102555535287931,0.001441357670282,0.0028611605194122,4.577262547018492,-0.8718793355298727,1.2078642312193126,1128.97802100226,1121.005792895152,1133.6641414989367,1134.58901141955,450.44311945379246,411.41280950845567,-293.84530539791064,-699.2183631298142,152.32389110363903
1.5175,0.1634724843232248,-0.2064480181573767,0.3901190281143874,0.005028940372791,-0.0050912783131855,0.0144870413829778,-0.0068687662293611,0.0060438662326677,0.0019154427547473,-0.9999560008309204,0.0971357387669633,0.0928149805235376,9.789694442020766,-0.0104059240063614,0.0015059328271932,0.0027511401400111,4.577235608390237,-0.8718741333381314,1.2078734870021612,1130.3171000902403,1122.3469403496883,1133.066408536702,1132.5183511250696,534.5011847354385,533.184370929041,-143.37427566615895,-782.8943274937667,152.3248026708287
1.52,0.1046183439983934,-0.023600580299675,0.3238381810548141,0.0075667048444922,-0.0049609857772438,0.0157806713106907,-0.0068840749780783,0.0060177861852497,0.0018799232570343,-0.9999561143361984,0.0974400723486224,0.0930941055126914,9.790608805125517,-0.0105523810318542,0.0015685624701878,0.0026407191545883,4.57720688377442,-0.8718662148682235,1.2078802361659335,1131.6505269259371,1123.671714749797,1132.947270120606,1130.6745397820812,578.9019691501504,514.5227856021047,26.552283894625926,-718.4989006301447,152.32556832800836
1.5225,-0.0117407302779721,0.1066919173227766,0.2445163213624439,0.009111523131358,-0.0038370700079309,0.0162767155424708,-0.0068818216008355,0.0059839577919848,0.0018514269013459,-0.9999563864166728,0.0976281041349896,0.0929341340415876,9.791713274524941,-0.010693883755784,0.0016280724961534,0.0025345185189354,4.577176391422884,-0.8718568596450017,1.2078842282199715,1133.2116099359907,1124.919554277699,1133.1991699561752,1128.925856621919,656.6856990176196,442.80445321400174,155.13153077081012,-654.4867820213616,152.32634027733536
1.525,-0.1371030035293733,0.1833090866554755,0.172439685375941,0.0088700375952932,-0.0024756489277321,0.0162917150205775,-0.0068576834068047,0.0059470363635681,0.0018329522327988,-0.9999568108598054,0.0977759193111314,0.0922581056815025,9.79299229164052,-0.0108298460610352,0.0016839907913563,0.0024371109947397,4.577145721513944,-0.8718477607121919,1.2078853461433294,1134.9339554210253,1125.885737015867,1133.72292777446,1127.4021058719743,711.5847387069441,278.7876215073929,262.1046304566729,-528.1651217448476,152.3271173238564
1.5275,-0.2166167031212569,0.1981404062103621,0.1259406916992986,0.0064432145118047,-0.001309428564629,0.015878859990852,-0.0068149841005905,0.0059109504223268,0.0018203382213776,-0.999957345205174,0.0979440078504033,0.0911385714499354,9.794418705589903,-0.0109602280556271,0.0017367805481934,0.0023524870871428,4.577116385411582,-0.8718409904017561,1.2078843902625376,1136.7695336295255,1126.313492385236,1134.5096931084584,1126.2850310131946,801.0824944775492,41.21340785377558,385.4043667455326,-377.8454902373677,152.32789989622535
1.53,-0.2083948509776007,0.1646681637482715,0.1089649223375496,0.0026313093799208,-0.0003788555119961,0.015357358508673,-0.0067619904045307,0.0058783415824887,0.001808688855503,-0.9999579233882144,0.098165733372154,0.089744444318974,9.795955945885288,-0.0110854282512773,0.0017874764933068,0.0022837149926779,4.577089041663483,-0.8718368616710115,1.2078823452167495,1138.9393678934127,1126.091804055136,1135.6499496081876,1125.5128784207875,760.5101484311197,-196.97279887068785,432.4394057008341,-186.62537333630496,152.32884395071414
1.5325,-0.1111236254188257,0.1160655644604512,0.123506552131494,0.0004450534298245,-2.3567272217618848e-05,0.0153842521260812,-0.0067016504323556,0.0058479204147675,0.0017969380386586,-0.9999585326213966,0.0983955452029546,0.0881397545026076,9.797563299277815,-0.0112060243725034,0.0018371599336147,0.0022327159750729,4.577063337583256,-0.8718347288740161,1.2078809389001839,1140.5720843716813,1125.3286283908826,1136.6718901369627,1125.351904146513,580.8334623142721,-394.876304787922,400.6189693981376,24.75509247128627,152.3296333177874
1.535,0.0475041029618699,0.075056444415943,0.1554383015461938,0.0003257681248006,-7.486512658689869e-05,0.0159822447863585,-0.00663721681059,0.0058193135403007,0.0017872168237481,-0.9999591492463688,0.0986042779998977,0.0863938707653844,9.799195482214797,-0.0113224427079024,0.0018866351106593,0.0022003357152495,4.577037857343722,-0.8718334318857055,1.2078805389964955,1141.8435352049844,1124.1174225311963,1137.6530444551784,1125.636653883144,443.14015262429047,-586.3258151419678,396.908080090261,205.3311635082489,152.33042313446623
1.5375,0.2516136598293457,0.0655396196514776,0.1995998222103602,0.0017318677423741,-0.0005533741991671,0.0168439129211362,-0.0065790792614659,0.0057949316341017,0.0017787194970638,-0.999959690109495,0.0988169937001389,0.0847154416488964,9.800802534132707,-0.0114347417280943,0.0019363593804561,0.002186480247273,4.57701163723872,-0.8718322087583681,1.2078806049576158,1142.7877851348028,1122.3969993151727,1138.656430537414,1126.3785599640544,236.21566420802583,-638.0596876703885,323.0076736185379,320.1992297348238,152.33136807911853
1.54,0.3968826485745867,0.1073626302160868,0.2348233886072206,0.0033085859587312,-0.0012447027044374,0.0174166749017816,-0.0065346890822503,0.0057755852052832,0.0017701442392182,-0.9999601028798356,0.0990273418438406,0.0832550482895905,9.80233577852767,-0.0115426196198438,0.0019862556360957,0.0021901801210912,4.576984242565104,-0.8718302038739041,1.2078812271809367,1143.0246135260245,1120.9271240928445,1139.268082823271,1127.237650031818,-19.754525738836005,-558.1076087623052,184.17268630969767,374.12202339288234,152.33215029321016
1.5425,0.4871309695082985,0.2085127177222629,0.2637796619374686,0.005141467567071,-0.0020939415865975,0.0179319658564099,-0.0065087380723743,0.0057644447209201,0.001763034601315,-0.9999603366228836,0.0992750175785707,0.0821090977820069,9.803749328582409,-0.0116455023897107,0.0020356754267739,0.0022097753437566,4.576955623179544,-0.8718267070980296,1.2078824366830443,1142.6890125061086,1119.6064612713612,1139.5772939689623,1128.2491700810187,-262.3879352381265,-516.4934645432933,58.95829571663978,462.732404251902,152.3329234996583
1.545,0.5149043718424582,0.3850102888639824,0.2858234462342105,0.0078030895940083,-0.0026420906639525,0.0187615762067165,-0.0065057155345612,0.0057585437744922,0.0017582709814753,-0.999960379223188,0.0994801667743027,0.0813697110808535,9.805002449947395,-0.0117427105296171,0.0020836436891378,0.0022427878190656,4.576925550041569,-0.8718212051892325,1.207883704262904,1141.712673849834,1118.344656770128,1139.5628743018542,1129.5513120530775,-431.97886911706433,-395.8971456359813,-67.80107369158785,480.97377990073966,152.33383742168385
1.5475,0.4712444185465518,0.5512768250321297,0.2893523580457169,0.010032237254776,-0.0017052219792581,0.0195821809172128,-0.0065226489444465,0.0057493237173758,0.0017567176365695,-0.9999602995571312,0.0994547780295104,0.0809824325242325,9.806063300624473,-0.0118336352988974,0.0021290565120334,0.002286004864283,4.57689358532127,-0.8718137474438228,1.2078852863405,1140.5291181605232,1117.6269755431813,1139.2382886005043,1130.6540389805225,-519.2762159642251,-212.19155832113267,-184.4639406900072,429.3870307866556,152.3345854486766
1.55,0.3757868778671079,0.694531652351206,0.2738559852027056,0.0115505208619009,0.0010355489858599,0.0204284260306614,-0.0065528108431873,0.0057286082273519,0.0017585856459634,-0.9999601927816684,0.0990206127992349,0.0808189741390996,9.80690831088817,-0.011917932598166,0.0021709922923233,0.0023356431448356,4.576859719612156,-0.8718044609515078,1.2078884280415683,1139.1162927700127,1117.2836989785224,1138.640554598404,1131.6982472070108,-579.7458769901947,-77.55276646776275,-271.2529876800603,393.1619235063037,152.33531773989804
1.5525,0.2606000434814172,0.7924801478640248,0.2417742218959998,0.0121939141312266,0.0043332050464275,0.0212553905333721,-0.0065841219768988,0.0056872994748561,0.0017610969136483,-0.9999601991167432,0.0979850500487221,0.0806455795397902,9.807523701432714,-0.0119957661024186,0.0022090275541653,0.0023874758416454,4.576824510314008,-0.8717940577800626,1.2078948988322156,1137.6303887755723,1117.2392117108425,1137.8820236621043,1132.619848598054,-587.3362525446862,45.138200247994114,-321.04674131874845,318.46737277028967,152.33603627747382
1.555,0.1525396918411953,0.8245959054437155,0.1916245604785614,0.0118753361565,0.0070489918665389,0.0219745672408405,-0.0066106900836115,0.0056286427296832,0.0017612192542431,-0.9999603402846632,0.0964015130817376,0.0803496650170753,9.807900660084627,-0.0120679642088903,0.0022434279230575,0.0024374462555105,4.576788451067194,-0.8717838572528502,1.2079045107032165,1136.179611507289,1117.5093899797623,1137.0353208918104,1133.2905840708622,-606.8003942199854,174.02966070812508,-362.5492253800901,215.12084313425888,152.3367380104676
1.5575,0.0610906614766429,0.7942390236628253,0.117101017580837,0.0109509159681074,0.0093106598659415,0.0226432429747661,-0.0066290535790951,0.005563985480901,0.00175365394709,-0.9999605806979271,0.094487809464103,0.0798657704070385,9.808037009451231,-0.0121361484586492,0.0022752328907326,0.0024820369804978,4.5767530291786604,-0.8717753779705709,1.2079162307537743,1134.5963868044723,1118.1093600143831,1136.0692775352038,1133.6954528137253,-544.0961033965197,250.09977207918715,-325.5230052660333,76.27531422130964,152.33756118075715
1.56,0.025734355435937,0.7217755932240373,0.0505862128506235,0.0103330240814033,0.0109749739384381,0.0230420123273892,-0.0066367084577362,0.0055032015582279,0.0017334923742449,-0.9999608909261573,0.092438759987759,0.0791462863382956,9.807938397097693,-0.0122027638470922,0.0023060338214881,0.0025184200858331,4.576719479479827,-0.8717694033180565,1.2079284389949811,1133.4591309903067,1118.7598888401583,1135.4077058654802,1133.6719606419688,-411.4912492337768,269.8821271284999,-218.7652738251519,-71.84921708353767,152.33823234785322
1.5625,0.0288128674074274,0.6106088098006581,-0.0083320756475119,0.0101216262490509,0.0126688152164802,0.0232568151252717,-0.006638912289909,0.0054530362831328,0.0017004157641399,-0.999961200607504,0.0903934442341271,0.0782949662847688,9.807615476140784,-0.0122709011907298,0.0023375866406626,0.0025445737650836,4.5766879074394975,-0.871765901811873,1.2079403895503151,1132.5389305583035,1119.4587706500256,1134.975451166078,1133.3362067283076,-351.1458763142475,290.60572012390986,-134.76346919287894,-182.31144021383832,152.33888975801787
1.565,0.0617919314260778,0.4438419718979799,-0.0523459508142656,0.0102079168763382,0.0141444915052881,0.0230985340374836,-0.006641360568974,0.0054253730094103,0.0016583478037422,-0.999961402588398,0.0885980006712911,0.0774237047818722,9.80708363023995,-0.0123439426826859,0.0023713995445679,0.0025595392152245,4.57665844055504,-0.8717646020543374,1.2079517647523803,1131.7034016087355,1120.2129174407778,1134.7338885195159,1132.7604034408996,-257.5157566156062,240.34715088859585,-52.52465665580409,-203.7263510637284,152.33966441491452
1.5675,0.1004740621578266,0.2858573339313437,-0.0528700598262867,0.0104858865138493,0.0148224189636194,0.0225163214953594,-0.0066495380586229,0.0054258503990566,0.0016132833061455,-0.9999614235795397,0.0871825922209961,0.0766398348507934,9.806362960898328,-0.0124252689931326,0.0024084187679759,0.0025630857527193,4.576631037784065,-0.8717641397549352,1.2079629245342742,1131.2513517752254,1120.6605064044686,1134.712827882799,1132.3175749729887,-121.93290490431257,115.97603016934688,5.913861447879617,-127.93304904125466,152.34029885040945
1.57,0.1357197048136545,0.1166837165203015,-0.0035111918226178,0.0111550615903077,0.0154554438558472,0.0216697825799328,-0.0066655995538566,0.0054473262672511,0.0015688828811038,-0.9999612819769568,0.0860334653253027,0.0759854370423283,9.805478121430642,-0.0125179320651594,0.0024488799264641,0.0025555047729017,4.576604928931851,-0.8717634131484728,1.2079746109302023,1131.093737084214,1120.7927975916243,1134.7634578267553,1132.120738195693,10.197690176528557,-35.19295901583139,7.329407598308691,1.2830296383527002,152.34092205919947
1.5725,0.1616087583068999,-0.0895528938300821,0.114770404866352,0.0120488775759627,0.0162408065265779,0.0208778333324981,-0.0066919344951427,0.0054872696447057,0.0015227737694633,-0.9999609784652324,0.0851335721304531,0.0755087110234101,9.804453637300332,-0.0126242644192371,0.0024923551047662,0.0025380210921566,4.576579113019378,-0.8717618016292705,1.2079856240157532,1131.302340226108,1120.4845416093895,1134.7494749207904,1132.3239901211807,148.77493880649445,-192.7845570392533,-36.339534317904366,152.60221499334287,152.34165654008183
1.575,0.1660127971210116,-0.2512714864231428,0.2525845533173625,0.0122778863286679,0.0162999160858433,0.0206975541706551,-0.0067301869029083,0.0055409101705014,0.00147329261197,-0.9999605324231016,0.0844258639074024,0.0752454698752681,9.803313636332183,-0.0127457796805599,0.0025376482722122,0.0025125972965304,4.576553217241875,-0.8717587270525976,1.2079950982770207,1131.8376117782464,1119.8288748064283,1134.5817601551655,1132.88374927066,288.3861113183163,-325.40954081504583,-109.23012236366706,289.24548391309384,152.34225668481633
1.5775,0.1503921483742702,-0.3781571019329934,0.4077182743605834,0.0120217388342926,0.0152050682893257,0.0212320464669391,-0.0067731936457705,0.0055966708441383,0.0014237486754403,-0.9999600468006709,0.0837218068313469,0.0750616914133159,9.80208354887796,-0.0128831527800261,0.0025828090914771,0.0024816820171687,4.57652676366614,-0.8717536503623088,1.2080014112420931,1132.7442707826997,1118.857493905314,1134.2033243089722,1133.7702175407462,415.381422308646,-409.34402949432257,-180.9050516293113,385.0504835465383,152.34284293033807
1.58,0.1118506677804949,-0.4566939466903462,0.5540514497630556,0.0119930192024669,0.0131378605292872,0.0224379403159352,-0.0068171719874846,0.0056468761190912,0.0013783833089043,-0.999959575545012,0.0829099166073578,0.0748933126805037,9.800784860768642,-0.013036159086987,0.0026255339977522,0.0024480524930171,4.576498857572769,-0.8717466718808923,1.2080034115215863,1133.9145188897896,1117.7821546589566,1133.6772348970192,1134.8090016883928,510.4117391459676,-402.823763728938,-224.37031114619023,417.212775697644,152.34341606871396
1.5825,0.0309479751140937,-0.4640580094438688,0.6603665412264106,0.0126903354280513,0.0104808771807112,0.0243864931331865,-0.0068550800740379,0.0056802617883016,0.0013387308179818,-0.9999592172500128,0.0818079074349088,0.0746160551300504,9.799437624814752,-0.0132037991837752,0.0026634964188903,0.002414113542876,4.576469267036758,-0.8717380358977435,1.2080021141688897,1135.2963294784295,1116.8433750866695,1133.081472753241,1135.8562814192344,620.082705784775,-311.176095347498,-239.6649592090904,419.5885608509432,152.3439710151802
1.585,-0.1312607149465969,-0.4000355870204835,0.7097442967552274,0.0139730764756002,0.0080491979996891,0.0272317927095989,-0.0068838462214385,0.0056897985812604,0.0013019403017584,-0.9999590248729814,0.0803144659442504,0.0741872642010144,9.798057850414292,-0.0133844347969178,0.0026946809208377,0.0023815127498484,4.576437702898069,-0.8717281300963486,1.2079991156033507,1137.0149324187134,1116.2262741822192,1132.4789101009735,1136.9069444926474,611.7510112422992,-99.75625524420816,-175.82525754873635,325.50888653540073,152.34461249001527
1.5875,-0.3204333244529871,-0.3107342754622582,0.6709768870292225,0.0147103892402627,0.0073787142341158,0.0297222869434686,-0.0069048666567806,0.0056723882431632,0.0012641780978422,-0.9999590013241688,0.0784012868865913,0.0736551314318376,9.796658070958733,-0.0135760324173176,0.0027175054514834,0.0023507768185865,4.576404095692255,-0.8717173663114539,1.20799697929029,1138.355084534641,1116.3445938104485,1132.2023464654976,1137.4838258519114,488.167794754088,204.3992741295777,-45.8429599008003,148.304456961838,152.3451240101068
1.59,-0.5450394313290571,-0.2204156772327235,0.544803084992801,0.0142304418725947,0.0076680510358579,0.0321176787951649,-0.0069164135768972,0.0056313232344325,0.0012249573743463,-0.9999591306379638,0.0761596020216203,0.0730091166147331,9.795250144075634,-0.0137763975355054,0.0027308192113289,0.0023213760746855,4.576369977858024,-0.8717063501813187,1.2079973076361925,1139.455771392484,1117.248270552867,1132.2496953014695,1137.6484667774566,407.72434907599705,569.9388119176214,91.86248732521759,-34.02051474772706,152.34560826442595
1.5925,-0.8127122154921466,-0.1415645343307834,0.3061494517358291,0.0118219780590419,0.0081793965758474,0.0346517281572376,-0.0069160511380518,0.0055704419784652,0.0011854351109966,-0.9999593996578364,0.0736848730097176,0.0722261200163236,9.793846107155359,-0.0139832993858443,0.0027340348783712,0.0022918122017417,4.576336619661045,-0.871695549026166,1.2080009966756047,1140.3937062800208,1119.1942878700363,1132.6616589021237,1137.3137232781728,273.47713023605723,823.7936998366142,191.44987943764545,-211.642680171376,152.3461537367266
1.595,-1.0017747184394856,-0.1105552319897678,0.05900757553182,0.0086495161706517,0.0083658222764033,0.0360605803816695,-0.0069049560811575,0.005493444040957,0.00114771529766,-0.999959774283608,0.0710627533156088,0.0713539050499443,9.792457797504888,-0.0141943891732069,0.0027271712430124,0.0022600271299864,4.576303842337795,-0.8716853432619625,1.2080084171807952,1140.823157043664,1121.36723905205,1133.206944698658,1136.5902533765995,99.27150838247825,918.9588848631288,224.756467266838,-372.7668227004329,152.34657545210754
1.5975,-1.1287237979482412,-0.116407455579185,-0.1923280078851231,0.0053620911423646,0.0079596444766093,0.035804779127942,-0.006887937958272,0.0054072158302742,0.0011114379344616,-0.9999601863215049,0.0684343831015798,0.0705103435291982,9.791097063460745,-0.0144070058294286,0.002710896612632,0.00222403636365,4.576270467066383,-0.8716759012890462,1.2080183287675008,1140.8900638219332,1123.7890822943523,1133.785441238458,1135.4498891646704,-46.95759133373832,1033.7457163077704,217.429909440802,-577.4887451571298,152.34695913443784
1.6,-1.1964076867862803,-0.1632452394407303,-0.436869899187591,0.0019457654624659,0.0073892896677734,0.0330966827927058,-0.0068739826706786,0.005319525214482,0.0010752905651911,-0.9999605423615509,0.0659509868785955,0.0698927014045745,9.789776014859536,-0.014618130316125,0.0026864076891002,0.0021823487607935,4.576234692255337,-0.8716665224570849,1.2080296621682949,1140.5883690869955,1126.535967633589,1134.294094245862,1133.702809650814,-166.446188999047,919.9188044853341,129.89091214226667,-683.1554873480545,152.34737077972258
1.6025,-1.1783226855624649,-0.2355082598485604,-0.5591816688033981,-0.000850486194244,0.0072745501483787,0.0297293673309525,-0.0068661000758438,0.005243232827622,0.0010391695899861,-0.9999607689458268,0.0638566254391115,0.069577686866143,9.788509297688778,-0.014824524286499,0.0026552676748954,0.0021344616185268,4.576195642059497,-0.8716575294841306,1.2080402979208575,1140.057832876938,1128.3886763167789,1134.4348957991692,1132.0341117279304,-258.4071854430986,598.569123972733,-14.468791763465868,-682.9218796432688,152.34766951361044
1.605,-1.0783072055110932,-0.340820231285748,-0.587495477285052,-0.0040047080077074,0.0071843636769149,0.0267147391455671,-0.0068643985140853,0.0051867798588489,0.0010035595910825,-0.999960849969644,0.0623027157993399,0.0695804901836499,9.787313484807054,-0.0150230986190395,0.0026193902891385,0.0020806357413821,4.576154031549305,-0.8716496861111978,1.2080485193150456,1139.29633315978,1129.5288132534527,1134.2217502870446,1130.2882002525976,-332.0413882899245,321.16713159026176,-134.77078006358457,-688.8502249807664,152.34791771045428
1.6075,-0.9092382950602927,-0.4667270297849248,-0.5551387059393372,-0.0074762022278272,0.006540551941673,0.0246336687696407,-0.006869315039103,0.0051531090041186,0.0009687093340473,-0.999960816686514,0.0613282138430673,0.0699172417016821,9.786205606434692,-0.0152112684493003,0.0025809715669715,0.0020216424412848,4.57611066593392,-0.8716428930986684,1.2080543641212391,1138.3976259354883,1129.99451197473,1133.761041898851,1128.5898606030266,-377.55847117886367,32.46500891200337,-211.8937393839084,-643.6199493323635,152.34812046078548
1.61,-0.6673564841436789,-0.6026293381952876,-0.4882557653913812,-0.0108521407275083,0.0050756707253031,0.0237820250685131,-0.0068800015318792,0.0051434192757842,0.0009350709195552,-0.999960742554791,0.0609347199118827,0.0705729179115062,9.785202764850595,-0.0153872142357832,0.0025423234700577,0.0019585635111061,4.576065232235261,-0.871636780561513,1.2080589591913944,1137.4085408038857,1129.6911382980127,1133.162281590125,1127.070100505936,-436.8164469021749,-268.7118652834608,-238.81001452545564,-604.3765847858,152.34826395850473
1.6125,-0.332059726207626,-0.7574756117086074,-0.4196978861747054,-0.0134080147547646,0.0028689617382021,0.0236010203953723,-0.0068896947021295,0.0051541422912697,0.0009045116717979,-0.999960753096996,0.0610291013364292,0.0714103509191928,9.784323193914355,-0.0155501374699754,0.0025056959714767,0.0018924832789647,4.57601761969666,-0.871631223516876,1.2080641458442243,1136.2135437009777,1128.6509526483128,1132.566991826224,1125.5679776790976,-427.077507666454,-448.7744697398834,-157.64272372898967,-488.7417636783188,152.3483616886101
1.615,-0.0609633430606517,-0.8680020221919108,-0.4006616166120234,-0.0134521704623887,0.0008931960389939,0.0235253848857933,-0.0068924622805526,0.0051812151431511,0.0008783670016274,-0.9999608474096688,0.0615092985298224,0.0723024321336891,9.783583954286334,-0.0157004710440241,0.0024732800160434,0.0018245307323786,4.575969363936268,-0.8716260423342752,1.2080690933614575,1135.2731532655534,1127.4472659493133,1132.37406797148,1124.6263916875444,-352.8000162503833,-493.5147693170725,17.18357579652584,-313.0548017286922,152.34837656570213
1.6175,0.1428126755011414,-0.947748877079199,-0.4395195528142882,-0.0115265566438963,-0.0013230214088613,0.0231469303053774,-0.0068876220987156,0.0052233943920463,0.0008577314477461,-0.9999609624124622,0.0623310549394422,0.0732188379817658,9.782999413770451,-0.0158399925941683,0.0024471520759879,0.0017559850854041,4.575922855734093,-0.8716214444157137,1.2080729234780592,1134.4495436197255,1126.1833788017275,1132.6529097052066,1124.002703670454,-326.42716883941983,-512.4827309072198,236.39611622465415,-213.09040080922804,152.3483167852702
1.62,0.2650345185791569,-0.9956414199188188,-0.5582133993457045,-0.0085375669736399,-0.004517473594268,0.0224197074930764,-0.0068783572467176,0.0052779674964248,0.0008433364191769,-0.9999610398389732,0.0634258475416348,0.0741993287649251,9.782581890075678,-0.0159716935658136,0.0024292076637712,0.0016880810227622,4.5758798206162,-0.8716171576518676,1.2080753531882111,1133.6410174213563,1124.8848522947771,1133.5560485526034,1123.560939683498,-263.9311460274196,-409.75304795319033,407.4246126315208,-123.65359679206163,152.3481520492356
1.6225,0.2591340018513128,-0.9895193952465487,-0.7125600345431228,-0.0064924785312586,-0.0076372407228682,0.0216714404464108,-0.0068667922086362,0.0053368044022242,0.0008339910405201,-0.9999610771661888,0.0646253860563411,0.075258147086957,9.782343451195274,-0.0160993556469806,0.0024211345956168,0.0016217450944283,4.575840127726501,-0.871613174571997,1.2080764313306616,1133.1298878895886,1124.1346135619615,1134.6900327683643,1123.3844356864938,-173.04271232915568,-210.51128043937288,491.1851296253749,-45.88206570401879,152.34793232601695
1.625,0.1628193523781311,-0.9373052967818772,-0.9080128652888588,-0.0055939488453313,-0.0106960156129071,0.0205990734255455,-0.0068538007977073,0.0053929397293612,0.0008295838551886,-0.9999610870451178,0.0657908811939503,0.0763812454352123,9.782295861657799,-0.0162269929896022,0.0024242701758248,0.0015576214734873,4.575802907144872,-0.8716096918236678,1.2080765521452637,1132.7758038597103,1123.8322958925803,1136.0119742007303,1123.331529354978,-121.33374015234298,-41.01628264179541,521.9680833624464,-9.44631089068955,152.34762162340164
1.6275,0.0196174354461921,-0.8576309169286986,-1.1152626628037243,-0.0056892589966053,-0.0130296455045381,0.0189574592411511,-0.006837046943675,0.0054490275638988,0.0008298441089631,-0.9999610584845016,0.0669789645847753,0.0774892987188921,9.782450875552477,-0.0163583260859651,0.0024395678815354,0.0014961988550306,4.575767502721581,-0.8716073099518774,1.2080755275070902,1132.5232191888267,1123.9295321487523,1137.2998731851765,1123.3372041320404,-87.39275646539478,131.9343886890662,464.3873589281504,9.643259857557272,152.34723217461425
1.63,-0.1455537183768476,-0.7647758815972635,-1.2976993089620708,-0.0064947830885879,-0.0142736906039923,0.0162051842828506,-0.0068132259281564,0.0055057340853607,0.000835090668996,-0.9999610029318377,0.0682141272341689,0.078482633233766,9.782820792124237,-0.0164964433632084,0.0024674563821277,0.0014372974066801,4.575732933350172,-0.8716057401153267,1.2080743825139748,1132.3388400773836,1124.4919678360257,1138.333910995371,1123.379745654266,-81.72605153308534,338.37675857065864,358.28937286372894,22.48497130358321,152.34674475356135
1.6325,-0.3345975434119176,-0.6580054165234,-1.4298213530826178,-0.0078731897625782,-0.0152676672986503,0.0112950769386335,-0.006783551559449,0.0055622231945353,0.0008443153928656,-0.9999609143698563,0.06949759708926,0.0793500364423195,9.783417169637529,-0.0166435378625321,0.0025077711755524,0.0013799997238664,4.575698067379701,-0.8716047904656518,1.2080744232142573,1132.1145889311615,1125.6214159416058,1139.0913200494952,1123.4496289885583,-93.82504220343635,468.71525865159214,186.33706093096805,27.195313841457967,152.34604393683213
1.635,-0.4678735341530099,-0.576465211815603,-1.430046762265033,-0.0092047906271135,-0.0164110342282306,0.0060985204767237,-0.0067509308113991,0.0056149251656332,0.0008551949859058,-0.9999607951747542,0.0707820428986332,0.0801148515060846,9.784251869578856,-0.0168008029894202,0.0025596311363032,0.0013227273071324,4.575662618457884,-0.8716036785779018,1.2080766667323957,1131.8697148663664,1126.8355441292836,1139.265596300026,1123.5157222234732,-118.58002640178964,506.972572887218,-17.164596424709455,27.84509124117053,152.34536229928392
1.6375,-0.5643242001365024,-0.496646686962038,-1.2933525043215552,-0.0106313441454986,-0.0178441114083462,0.0007484732453119,-0.0067205440848326,0.0056596885245671,0.0008659889060175,-0.999960638645183,0.0720118178230064,0.080847635734399,9.785336615177519,-0.0169684317786083,0.0026213434697788,0.0012635846045018,4.575626289455998,-0.87160112840906,1.2080817824067747,1131.5216887991523,1128.1562788060419,1139.0054970673716,1123.588854444764,-177.41766585590585,555.792438542754,-183.1360027070744,36.25903224328711,152.34457917056042
1.64,-0.630035863562937,-0.3939405791971171,-0.9853889034240724,-0.0123230517597491,-0.0193979117122959,-0.0046103380048278,-0.0066998312158092,0.0056947499675746,0.0008766711411401,-0.9999604114711552,0.0731791999198015,0.0816670686539242,9.786682286394097,-0.0171456676714414,0.0026904771984792,0.0012008575847483,4.57558849829026,-0.8715960552548897,1.2080893964878172,1130.9826265370868,1129.6145063219972,1138.3499162864905,1123.6970173846896,-210.82883660123537,476.0932947892688,-263.60617179488446,47.35314227273084,152.3435232503866
1.6425,-0.6388193490301615,-0.2988197266149822,-0.6463085147694765,-0.0137333761791531,-0.0203711192012319,-0.0073526102261244,-0.0066928819800632,0.0057183018808943,0.0008872534227331,-0.9999601077760512,0.074275468746553,0.0826310255850458,9.788299955382733,-0.0173309285127827,0.0027641838098314,0.0011333866291394,4.575547995709285,-0.8715880243608022,1.2080989492958911,1130.4675446161464,1130.5367452799883,1137.6874662083972,1123.8256201561276,-202.975156984671,269.93055717253475,-242.09351520999525,66.87666212014989,152.3425482629683
1.645,-0.5937108078739113,-0.1924268302732208,-0.2870126343559917,-0.015395555429314,-0.0209080308401755,-0.0076497239579824,-0.0066963861136512,0.0057336553068129,0.0008952842060167,-0.99995974904276,0.0753909461839623,0.0836578480701056,9.79020055174739,-0.0175220315362406,0.002839669159246,0.0010611199345339,4.575504420585128,-0.8715771564700726,1.20810839233889,1129.9677507521635,1130.96415910786,1137.1394487104403,1124.0314006952904,-189.0305631783617,47.32558711798548,-163.7393254683537,116.10799575232951,152.341477770407
1.6475,-0.4711401143837977,-0.05119825431574,0.0920976320982472,-0.017522863636921,-0.0211289000507325,-0.0059336491069275,-0.0067025310510915,0.0057462712925668,0.000898658462041,-0.9999593839081548,0.0766551314971621,0.0845828943034348,9.792393008357209,-0.0177165636433694,0.0029145112924127,0.0009851675610995,4.575459026725137,-0.8715647188197287,1.2081164441882895,1129.5223918002544,1130.7733732155782,1136.8687695810554,1124.4061601348894,-115.69127091915747,-189.6228015920271,-8.427773771563611,160.19752630777103,152.34008778618747
1.65,-0.3123370144705361,0.0792337311703863,0.3268900808935352,-0.0189983380166779,-0.0211286249258118,-0.0038459733394685,-0.0067061603824496,0.0057587335677099,0.0008978176976313,-0.9999590714383362,0.078136719441269,0.0852982241607046,9.794881257227143,-0.0179121966019337,0.0029868935357667,0.0009075241736317,4.575412915402033,-0.8715519649822207,1.208123037109518,1129.3892943975677,1130.0160450998999,1137.0973098415827,1124.8323883268292,18.414411395496728,-408.1114737854383,197.7909121005677,188.08518798281983,152.3388462016754
1.6525,-0.1036507639508265,0.2253875704897458,0.4599230706741466,-0.0198635601310373,-0.0210306206465152,-0.0018596720007233,-0.0067049177300343,0.0057729018791565,0.0008930112705761,-0.999958874926048,0.0798854305670249,0.0857549845934545,9.79766271111042,-0.0181068002603634,0.0030558182064939,0.0008309560614885,4.575366680870106,-0.8715397266974515,1.2081277105068076,1129.614463857232,1128.7328158466507,1137.8577241415583,1125.3465860748036,158.48087935760643,-572.4077676860937,386.52159886852047,210.13489170964473,152.33752470844274
1.655,0.1340010785016854,0.3847835760061475,0.5124130675983624,-0.0202649533514121,-0.0208091585929916,-0.0001431518469341,-0.0066980405350901,0.0057875157390002,0.0008878015281312,-0.9999588589229048,0.0818839549542549,0.0859390324650555,9.80072784378764,-0.0182984793341639,0.0031209417068078,0.0007586807902861,4.575319925876013,-0.8715280898003688,1.2081300122850112,1130.1816987943555,1127.1540062614695,1139.0299178359253,1125.8830627853774,306.46492148440046,-659.4252368635492,546.8512182636122,204.35151733304767,152.33614262288373
1.6575,0.385545206175684,0.554589359826766,0.4845235882898261,-0.0199198014423923,-0.0202639105501156,0.0012574543487341,-0.0066836927034563,0.0058008009672209,0.0008841081732986,-0.9999590043612974,0.0840996063771912,0.0858180763833249,9.804060087552417,-0.0184855306397749,0.0031826283937854,0.0006941705546609,4.575272107297804,-0.8715179088212776,1.2081296187261794,1131.146788464654,1125.4356896623333,1140.5919802328763,1126.3683436614688,493.76246150299033,-731.3026750466464,738.9440236896291,184.6271354363992,152.33469531589043
1.66,0.6696620406307641,0.752610439844872,0.386643599704601,-0.0182052651629503,-0.0188977658519508,0.0025983851098833,-0.0066594107665525,0.0058127547584986,0.0008794779795099,-0.9999592757751034,0.0865295001205735,0.0853497253733304,9.807635189407025,-0.018666458050593,0.0032418548472768,0.0006408767711268,4.575224066186054,-0.8715100827604668,1.2081266289126202,1132.6505111018707,1123.497492886236,1142.7246379543735,1126.8061984625595,580.6047852455188,-653.5821577072816,793.3985866931652,131.3490055806111,152.33289453500657
1.6625,0.8661513819467167,0.892728065085266,0.2741105745700875,-0.0157830651491971,-0.0169067310037388,0.003304683164802,-0.006627087771808,0.0058245974232066,0.0008728468407785,-0.9999596187968935,0.0891888393657012,0.0845786615461447,9.811419909379705,-0.0188400271408872,0.0032996924139133,0.0006018100336686,4.575176365725447,-0.8715043160911213,1.208121610338618,1134.0498123908817,1122.1677788737968,1144.558973166342,1127.0250886893718,549.2594134808886,-439.8139127361085,708.2969144560744,62.86472380688927,152.33134963653595
1.665,0.9970087553922709,0.9799494473145208,0.1560870466919864,-0.0127938363263256,-0.0138749007136506,0.0032580002645153,-0.006585445739353,0.0058334721538707,0.0008628487980802,-0.9999600378751398,0.0920075171195149,0.0834886400041686,9.815375492149473,-0.019005192674895,0.0033570058270238,0.0005790687168402,4.575129240959493,-0.8714999647707762,1.2081159008959117,1135.3968081692751,1121.2984233225557,1146.2661225266538,1127.120522081594,537.4727508043294,-253.71558941638423,683.1410902342359,30.747120889646535,152.32976983914403
1.6675,1.0647995134121808,1.0010231409272872,0.0320374744685208,-0.0090328653190021,-0.0094120004105581,0.0025768498180674,-0.0065419809150909,0.0058339446425204,0.0008508713890199,-0.9999605005610084,0.0948589578335039,0.0822369216864415,9.819454928656416,-0.019160998954955,0.0034140633630559,0.0005736353731139,4.575081793965215,-0.8714958626146763,1.2081115195858387,1136.7371761449033,1120.899200926715,1147.9746786175133,1127.17882429382,425.5308087260437,-33.29906653612014,546.089747270719,25.43972295384319,152.3278459276774
1.67,1.0471181567271994,0.9476680376677912,-0.0487845370564209,-0.0059533019668303,-0.0058119890182916,0.0020027875107285,-0.006511140218177,0.0058298558924118,0.0008400152088121,-0.9999608778664332,0.0977934951107366,0.0811190867220184,9.823603161932372,-0.0193064797359215,0.0034704276188485,0.0005858884306407,4.575033990399166,-0.8714910065233364,1.2081090122303149,1137.5244622129053,1121.131927989875,1148.9965712630071,1127.247720696363,242.48931815704404,204.82002624430132,302.1910567759208,40.62894596763633,152.32622761582303
1.6725,0.962787356131506,0.8411514160286976,-0.1081184281561329,-0.0032336185597775,-0.0032219894456375,0.0017784243663291,-0.0065085217685576,0.0058243004718443,0.0008326320788555,-0.9999610446846374,0.1008427150484598,0.0804552169005889,9.827761170601752,-0.0194406368447226,0.0035250652290449,0.0006154954592226,4.574985421967108,-0.871484297536804,1.2081088875540336,1137.9496227356883,1121.9233010579364,1149.4856339013927,1127.3819690236583,122.5974209167788,455.09223688667447,71.00772619364598,69.17415037105297,152.3246031452697
1.675,0.8058088647172837,0.6936677737953776,-0.1628366492693658,-0.000609581341793,-0.0015015337164796,0.0019721089103009,-0.0065384025944999,0.0058220274478034,0.0008305642987061,-0.9999609422988076,0.1040673277956547,0.0803447088904129,9.83187032269378,-0.0195624608984539,0.0035765132506215,0.0006618992284878,4.57493630226562,-0.8714750562534407,1.2081100015872497,1138.1374493174892,1123.4073891743085,1149.3516098939756,1127.5935914482184,39.351473533316415,607.2273170167721,-179.37534857351622,72.0172876967369,152.32265693233694
1.6775,0.6467681390281488,0.5853393634829168,-0.1975373941090689,0.0011776929875877,-0.0010149356561292,0.0023462995992152,-0.0065956288310954,0.005825490477195,0.0008369552883548,-0.9999605885444844,0.1074797968049847,0.0807028253090786,9.835873330016947,-0.0196709916862929,0.003623116468396,0.0007244053144583,4.5748865354989805,-0.8714634539828424,1.2081113197850573,1138.146380103355,1124.9594376430202,1148.5887571585251,1127.742055462142,4.204162537689716,646.3408138815931,-440.7310464080732,29.477210305868255,152.3210447458633
1.68,0.4810042003735346,0.5168435321215518,-0.2135759502222724,0.0025730341568108,-0.0010336036270715,0.0022320326594435,-0.0066702198463332,0.0058326269613261,0.0008524087366472,-0.9999600649705248,0.1110017986964384,0.081350403488494,9.839714321158116,-0.0197653531203773,0.0036635233293408,0.0008021695388111,4.5748352981034905,-0.8714502249643574,1.208113045640468,1138.1584701301776,1126.6390932437164,1147.1479546619353,1127.7409774997475,24.15803724497836,659.968518648596,-675.5255374060497,-42.70992844735603,152.31945043119816
1.6825,0.3271887306223811,0.4851811877677179,-0.2008932276982119,0.0034143834937106,-0.0010015934329174,0.0010109675073235,-0.0067514129780811,0.0058390375378354,0.0008735060456522,-0.9999594786907932,0.114507975783482,0.0820926495612267,9.843338397224082,-0.0198448681512796,0.0036970291709406,0.000894286210032,4.5747821366006,-0.871436529726331,1.2081152025845108,1138.26717028958,1128.2592802362633,1145.211129471495,1127.5285058199051,78.36595727990063,595.8414377418966,-858.6330983695718,-146.62064869566737,152.317876397878
1.685,0.208253575308158,0.4838679606181146,-0.1403951361568698,0.0034546609352591,-0.0003398159698821,-0.0010644835194666,-0.0068307536758815,0.0058358776257974,0.0008989695257559,-0.9999589437709214,0.1177842411262576,0.0827795374279354,9.846692033911852,-0.0199093309508016,0.0037234849465872,0.0009997164907657,4.574726842144388,-0.871422912802923,1.208117982070433,1138.5502999165772,1129.618300432426,1142.854789170087,1127.0078742562691,164.0724035019992,499.8724989546296,-1067.6371726329987,-290.7513988605904,152.3163329494551
1.6875,0.1246975162682863,0.484029816227523,-0.0198810292802123,0.0027631807678998,0.0014011063517676,-0.0028156512214631,-0.0068967938180958,0.005826318284211,0.0009269741165292,-0.9999585160388526,0.1208535192305773,0.083200937609449,9.849722540398432,-0.0199592164778142,0.0037434193444517,0.0011180147633212,4.574670891556462,-0.8714100734869196,1.20812021346132,1139.08753230709,1130.7586427310364,1139.87294360833,1126.0747488256022,220.26718671841553,321.90449590453454,-1065.444285639728,-368.7571082955934,152.31452348674156
1.69,0.1072075278214959,0.4599798992494399,0.0945107218497891,0.0020258959223554,0.0035423119397228,-0.0027617223955118,-0.0069410745840446,0.0058133174266494,0.0009534053896553,-0.9999582327956495,0.1237363118597159,0.0832034707490445,9.852378955861786,-0.0199958415188069,0.0037580353498714,0.0012487608397213,4.574616892885113,-0.8713984912329253,1.2081216123425302,1139.6516358501692,1131.2278229119484,1137.5275677418888,1125.1640887147914,233.35050721866,88.63874691405523,-853.4406955239577,-348.8837097738643,152.31305607483367
1.6925,0.1306796946434797,0.3913944537033057,0.1817349160559282,0.0016904641503617,0.0060801579566915,-0.0010008143404898,-0.0069611636673613,0.0057973485747134,0.0009757230107709,-0.9999581050116418,0.1264060893934879,0.082750181626277,9.854612349147077,-0.0200212840587018,0.0037688973066356,0.0013913113665932,4.574566007438678,-0.8713887460312867,1.2081225527948223,1140.2542848431833,1131.2018364656067,1135.6057401307103,1124.3303302767329,255.9147434411384,-105.32903423117872,-707.981630017759,-299.23273651979105,152.31163603331763
1.695,0.1739373554518659,0.2618624566562983,0.2214244359689787,0.0021018275579093,0.0086389123279567,0.0019756274517314,-0.0069561154032264,0.0057787587583517,0.0009916604016036,-0.9999581359500984,0.1288366577731147,0.0818308547582041,9.856377589303488,-0.0200379921213643,0.0037777337710972,0.0015447858194593,4.574518371362413,-0.8713809138965337,1.2081237143228052,1140.9312095673747,1130.7011777407927,1133.9876595918,1123.6679250321924,230.579124279216,-238.51014085676576,-470.27394413363345,-161.57376976061985,152.3099923434305
1.6975,0.1945663696860532,0.1380621560068176,0.2000361798993546,0.003174246030953,0.0094697923430416,0.003711921278824,-0.0069324654908347,0.0057529156309071,0.0010040569545275,-0.999958297887122,0.1309059712021286,0.0805804897480183,9.857633478119386,-0.0200483632151688,0.003785987117536,0.0017077513543543,4.5744725954741146,-0.8713739799624755,1.2081254138722857,1141.4071804645791,1130.0092857613229,1133.254370410042,1123.5224614279296,164.21201711027956,-302.17044815409014,-177.2476591014803,33.5004728043721,152.30867657720114
1.7,0.1710817988897181,0.0400389621290001,0.1488363612935764,0.0047740625704956,0.008756381780533,0.0037615652817171,-0.0068973947116072,0.0057213370430832,0.0010162521716328,-0.9999585240004556,0.1326165386016913,0.0791445781299836,9.858343535902547,-0.0200542854740486,0.003794776114106,0.0018786980085645,4.5744275246969,-0.8713674156617123,1.2081268673390504,1141.7522696529263,1129.1903255000223,1133.1014212962923,1123.8354273962143,115.33374473010288,-354.7491780433038,36.7118308111904,223.1238584087299,152.30742074584947
1.7025,0.0782353815075711,-0.0047053833112633,0.0929689752936851,0.0065213978283749,0.0072225349402015,0.0025819789151392,-0.0068568159944892,0.0056844936206362,0.0010292879009081,-0.9999587724339152,0.1339538916351205,0.0776412041381091,9.858478872984499,-0.0200569311647419,0.0038048859295407,0.0020557222547354,4.574381741501895,-0.871361300985596,1.208128359248088,1141.98384918823,1128.2355398711063,1133.437929564098,1124.6380807199735,50.49192644973911,-324.56026739904854,185.62281629737777,337.6276818569672,152.30598698157252
1.705,-0.0466236173518132,0.0345494610773264,0.0686578389560374,0.0071992087470502,0.0060925925828719,0.0016066363180012,-0.0068187333321997,0.0056421292047872,0.0010429427560954,-0.9999590037356614,0.1348923628093169,0.0762276903953254,9.858018033709405,-0.0200567576425438,0.0038166708724155,0.0022364463328583,4.5743344674314566,-0.8713552486862925,1.2081302058365688,1142.004729285175,1127.5675241630267,1134.0295353777794,1125.5235658054992,-32.3984146278242,-224.47096376386548,277.43962635291285,361.6211949915928,152.30485569449564
1.7075,-0.1981971261673231,0.151393742235044,0.0677703243234562,0.0070177614004452,0.0053944671532908,0.0012474234166006,-0.0067886302054106,0.0055938804830291,0.0010580515716736,-0.9999592099199872,0.1354067422774052,0.0750103179042336,9.856948931320801,-0.0200536694485346,0.0038299167371431,0.0024180450765956,4.574286109293526,-0.8713481261937314,1.2081329139869437,1141.8218571150908,1127.113185052287,1134.8251276958626,1126.4461866949312,-110.69632951194087,-142.10222340834963,340.7541265304717,349.62848367741407,152.30379285070026
1.71,-0.3499875063889175,0.3179578112660275,0.0754601688272088,0.0061863241891215,0.0053424424426488,0.0014645987308377,-0.00677292839079,0.0055453963271033,0.0010763821828205,-0.9999593603241124,0.1355926369880803,0.0741130667492903,9.855267110925514,-0.0200471723974066,0.0038439477088727,0.0025974991149811,4.574236897635475,-0.8713385915953678,1.2081375332573374,1141.451247637615,1126.8570130459852,1135.7333060104315,1127.2717082238862,-196.5510826045784,-60.06940237989372,383.8299017832835,282.0252070480754,152.3027883066877
1.7125,-0.4761049752698449,0.5154417865399193,0.0767624662396682,0.0045573363972455,0.0063766002506219,0.0022811104700977,-0.0067791681437999,0.0055073530102665,0.0010976445871017,-0.9999594114216234,0.1356472907719116,0.0736811762756926,9.85297624013019,-0.0200365099356048,0.0038580053223908,0.002771690040879,4.574186177717819,-0.8713264341675175,1.2081441171850562,1140.8391017020679,1126.8128380403875,1136.744277204779,1127.8563127301716,-324.3783282795828,10.3806610080935,465.2676239901559,178.09061129195968,152.30185552752127
1.715,-0.5728636253401599,0.7460127555094429,0.0567908560087094,0.0021469331807652,0.0086596129618531,0.0035771224194639,-0.0068094825216977,0.0054832083076406,0.0011174503513175,-0.9999593872223206,0.1356286800782684,0.0737523018469905,9.850092575565379,-0.0200209172675106,0.0038716491518694,0.0029371833564287,4.57413256995175,-0.8713127770433932,1.2081533017550456,1139.8293559962171,1126.9089163510257,1138.0596441303824,1128.162161280346,-410.74864108464647,39.490142708565074,497.508092250802,36.0008360020864,152.30082054076033
1.7175,-0.5996440367233348,0.9051063513980986,0.0228631051470654,0.0002973807723605,0.0112916688480213,0.0043849233167892,-0.0068566782514303,0.0054742952302849,0.0011330752553647,-0.9999592759166838,0.1355556298846221,0.0741803268930148,9.84664471317859,-0.0199999741516341,0.003884789847693,0.0030907385095979,4.574076777521963,-0.8712991394329356,1.2081639797452115,1138.7853584966447,1127.0102887539304,1139.231817666033,1128.0363169101822,-447.52742550364064,17.376111411113385,479.3591452159592,-130.37507049721447,152.30002898725616
1.72,-0.5705819094049583,1.0060882500375443,-0.0146269921646925,-0.0010000390964782,0.0147344908517723,0.004255134329944,-0.0069110481611069,0.0054802293247896,0.0011426001341897,-0.9999590846140344,0.1354164626986009,0.0747698677204254,9.84267111072468,-0.0199739576868376,0.0038978597915322,0.0032295044902983,4.57402070834857,-0.8712869943778347,1.20817483647432,1137.5917188686992,1126.9957969080813,1140.4564398564623,1127.51028592786,-540.1202982651159,-61.02649710369265,537.4683993355906,-306.2566406640983,152.29931140709883
1.7225,-0.4748763409493802,1.0519486320306095,-0.0410872470648446,-0.0020430872079001,0.0191264689877009,0.0033959597266814,-0.0069634909657178,0.0054936301434963,0.0011458469671628,-0.9999588737867384,0.1350657220576852,0.0753379695714334,9.838219568740817,-0.0199440818677893,0.0039116808814022,0.003350866538287,4.573965513242207,-0.8712770798951192,1.208185301621059,1136.084757005319,1126.7051562684119,1141.919159662711,1126.5050337068617,-548.3751741558409,-164.47812148685063,519.7998250379321,-404.30529348317555,152.2985356708822
1.725,-0.3436119635764551,1.038124131138212,-0.036750699468701,-0.0028742078314691,0.0223267785035377,0.0027178537441105,-0.0070060901573051,0.0055077399577481,0.0011425181894635,-0.9999587117314236,0.1343753779452802,0.0757257474341734,9.833344415779875,-0.019912417318362,0.0039272693841369,0.0034527037949734,4.573911818851251,-0.8712696268302615,1.2081959317984847,1134.84984299792,1126.173406300647,1143.055438981652,1125.488759460444,-468.95296279572995,-274.0786329526658,414.067824188223,-399.419563420642,152.29795974673272
1.7275,-0.15322497085155,0.9990150171972204,-0.0023256023442488,-0.0039399466714004,0.0246717181953091,0.0024505533944837,-0.0070354925702092,0.0055152497102306,0.0011340631025619,-0.9999586500870274,0.1332120759065408,0.0758653274802033,9.828104566686317,-0.0198817514756577,0.0039454363512163,0.003533276508767,4.573859613468068,-0.8712639609882012,1.2082078106460132,1133.7399921913404,1125.3347631036484,1143.989498783652,1124.5079358897583,-436.5327873392382,-423.9500898530513,335.8359982722576,-368.48540222459513,152.2974555108964
1.73,0.1466152107233279,0.9627061624346658,0.0684319471680482,-0.0053090857400967,0.0265299057079734,0.0025564029222451,-0.0070485124003447,0.0055177039251115,0.0011221546289537,-0.999958698387378,0.131622734753879,0.0756937944048462,9.8225614742123,-0.0198552833485046,0.0039664994212474,0.0035916881665903,4.5738094822608595,-0.871259706422627,1.2082200802216543,1132.6671790612238,1124.0536558513816,1144.7346189730133,1123.646332449321,-335.76873249677,-495.2329220959306,193.27588000574409,-231.3673327712017,152.2969305065423
1.7325,0.4468258881677383,0.9642778696958192,0.1466043978061523,-0.0059883296601593,0.0275850359447164,0.0026908277467676,-0.0070415986216173,0.0055169950115455,0.0011079168768615,-0.9999588747559434,0.1296672801028258,0.07514302559643,9.816779758264051,-0.0198363965343583,0.0039900578623238,0.0036276249758343,4.57376204647214,-0.8712559608590489,1.2082321459752987,1132.0611485288566,1122.8585984931688,1144.9558781836809,1123.3510992259023,-170.23942308332667,-475.9168178687905,-5.946581844000184,-12.518959030148544,152.2965570022612
1.735,0.767731427140449,1.0093308989822924,0.2375531688644569,-0.0053615529208117,0.0287898258711941,0.002575450559093,-0.0070231463388754,0.0055178421576078,0.0010905992156892,-0.9999590970873417,0.1274668878298835,0.0743817944178437,9.810821973510468,-0.0198282811385226,0.0040149903545248,0.0036413364991467,4.573716946088361,-0.8712513439803319,1.2082425607738059,1131.8159819458072,1121.6740717620376,1144.7048860637933,1123.5837376541704,-34.20573238713508,-451.30692734291057,-178.28905485689162,175.32856671873157,152.2962458516701
1.7375,1.0680852155744258,1.0832457118117755,0.3297085788910978,-0.0032353733620615,0.030514111151878,0.0025939699786825,-0.0070044280497207,0.0055178733416341,0.0010705759814716,-0.99995929972437,0.1250084176836852,0.0736377030277511,9.804751962822271,-0.0198336620869466,0.004039299150653,0.0036331582654697,4.573673610898911,-0.8712440878885687,1.2082513398683417,1131.8901198669207,1120.6020638564544,1144.0644329093964,1124.2277420594962,103.26111457170776,-381.3301826194301,-338.9383339147643,330.61298890844023,152.29598275613668
1.74,1.2915431828018076,1.1689323120754107,0.4029060802448881,0.0006397510755545,0.0330813270798235,0.0033384290013413,-0.0069950994530225,0.0055138867536277,0.0010511728490448,-0.9999594341862582,0.1222663968292599,0.0731093250283999,9.798633685173202,-0.0198544630699819,0.0040602658947277,0.0036035631274955,4.573631005037831,-0.8712327915250098,1.208259803799966,1132.3322875186657,1119.7674208489407,1143.0101943942195,1125.2368025987123,264.07203178228536,-296.1909728479049,-535.160290121587,480.70926986352896,152.2957724533272
1.7425,1.414713475096334,1.2479976531303387,0.4355655802297228,0.0066377266829619,0.0372236462463426,0.0053863193917543,-0.0070035438642887,0.0055043984736438,0.001034884736394,-0.9999594565495198,0.1192522246401573,0.0729725473063386,9.792529603423912,-0.0198915706154703,0.0040750874018798,0.0035531116633066,4.573587926990118,-0.8712175095837948,1.2082688464974722,1133.2104800258323,1119.1211089922149,1141.3886314587885,1126.6312884088138,361.7823168391085,-175.20299590386963,-631.6129368423699,506.2703859012682,152.29557355291655
1.745,1.3752644614658316,1.2700235421398263,0.3965007992071227,0.0119149140368077,0.0412462494011784,0.0078812409028208,-0.0070328676036892,0.005483005354336,0.0010219842295966,-0.9999593875384516,0.1158829991167004,0.073301457259075,9.786502056592226,-0.0199448529189898,0.0040814837684339,0.0034822308264931,4.573542465512904,-0.8711994540922303,1.2082786865494912,1134.1411991028613,1118.8914058694213,1139.8521297100076,1127.7681545282187,386.8301851853541,-37.09263441410172,-622.9247423739108,414.00186626173263,152.295446303053
1.7475,1.193810860520494,1.2311836524604327,0.2827791027997481,0.0162690621842375,0.0449988677895261,0.0103120714967964,-0.0070791775080631,0.0054548546181853,0.0010140219166267,-0.9999592241094476,0.1123021253293311,0.0740345839181021,9.780610034344,-0.020013266871186,0.0040780455809435,0.0033919776802998,4.573494329498438,-0.8711810954860209,1.2082878316895267,1135.1446309517592,1118.9356458201444,1138.2740077469189,1128.7012977401223,424.5366190158256,57.47225447185096,-666.9360824960364,333.8338385706791,152.29535137010777
1.75,0.852130570191785,1.1151701482981773,0.0857805800312789,0.0196098150680733,0.0486089981890754,0.0117673759870778,-0.0071372946014491,0.0054283574259225,0.0010109592983679,-0.9999589562576944,0.1087156224103462,0.0750853811995669,9.774908669712259,-0.0200952312222408,0.0040646198068508,0.0032836889450432,4.573444960295816,-0.8711641430441978,1.2082954668991048,1136.2638821979403,1119.1787671417803,1136.5174492975275,1129.4373237210723,371.80386042437806,96.51409957341664,-595.9274044139092,192.09018967485872,152.29526546414618
1.7525,0.5047821556482184,0.9681670000394412,-0.0932320921234729,0.0209582197514292,0.0509538037761727,0.011406892767468,-0.0071997930379443,0.0054023295731452,0.0010091828911471,-0.9999586461748968,0.1051399469329879,0.0763218080029278,9.769451039441687,-0.0201889594496721,0.0040423213574753,0.0031583728671019,4.573395544544193,-0.8711492694496104,1.2083027287497112,1137.003650253881,1119.4182163180114,1135.2943707248492,1129.6617486884968,229.3975899242416,75.45218950444729,-417.180606801357,4.040029778525329,152.2952100856002
1.755,0.1408629037805751,0.7782316783987704,-0.2419525234265483,0.0212161894718406,0.0529292683681317,0.0099507956955553,-0.0072555243123224,0.0053672485262326,0.0010039596440534,-0.9999584297049136,0.1014260138535561,0.0775364511204363,9.76428760221827,-0.0202925538570944,0.0040131815266193,0.003016687932494,4.573345761969539,-0.8711369310019219,1.2083107879369928,1137.4108701475616,1119.5560280893028,1134.4315462635207,1129.4575238699647,78.72341489896645,16.871654116402688,-287.56581637984954,-175.9157523045319,152.29516264676835
1.7575,-0.2670654118152772,0.5090601511918273,-0.3471095831056384,0.0206089682176409,0.0550933095945689,0.0077215248689726,-0.0072979267167215,0.0053131923720208,0.000994199602688,-0.9999584089156056,0.0974132289208016,0.0786079946526178,9.759462014234861,-0.0204040178694797,0.0039796775178369,0.0028592718617691,4.573293895651857,-0.8711264863565003,1.2083204142600659,1137.3972673283758,1119.5025745885935,1133.85654164295,1128.782169926974,-98.73870690239738,-57.327335726769284,-140.78006832924376,-296.8074764712191,152.29510412060696
1.76,-0.5538853884152473,0.2577324446027632,-0.3610398296505921,0.0194570803738393,0.0565430676280772,0.0057811088972267,-0.0073217630693687,0.0052396870604722,0.0009805814733143,-0.9999586234898836,0.0931216921046848,0.0794363795339928,9.755010297543885,-0.0205213276482167,0.0039444701758982,0.0026873855117072,4.573239963973188,-0.8711172117226053,1.2083304236942438,1136.9171766130496,1119.2693914106687,1133.7276459218745,1127.9734864876089,-290.561798196274,-115.88437594951093,-0.8609873946170593,-337.27679026220164,152.29504584110475
1.7625,-0.7555534678113341,-0.0065633092945528,-0.3020808897979318,0.0174314691176543,0.0569215833846733,0.0043094276722546,-0.0073257690984851,0.005149150468213,0.0009657522354415,-0.999959068513985,0.0886238563920183,0.0799935755309844,9.75096083641523,-0.0206427265143546,0.0039101771421611,0.002502829838593,4.573184852500101,-0.8711085890504887,1.208339827971418,1135.9444583373945,1118.923152708846,1133.852236705977,1127.0957859756631,-462.6422789846295,-133.59016541366745,68.35148634886379,-333.87065026458134,152.2949675995046
1.765,-0.8680023625568747,-0.2662620058998148,-0.1968110029290298,0.0143815885212862,0.0561462781618136,0.0035956009790323,-0.0073195569110429,0.0050496694542161,0.0009520383441813,-0.999959627153818,0.0840990920767084,0.0804577167964147,9.747331892629779,-0.0207668965351561,0.0038793515168489,0.0023080689066855,4.573129469250208,-0.8711005921005501,1.208347660260614,1134.6039652181264,1118.6014405836006,1134.0694033536188,1126.304133236286,-603.879310757961,-87.23070288333273,78.80357970802653,-270.77970343456684,152.29486530089653
1.7675,-0.862422988090961,-0.504634539862748,-0.0586300441152131,0.0104841381118841,0.0546151349575124,0.003756269719785,-0.0073120888824579,0.0049466712810383,0.000938438713788,-0.9999602051340568,0.0796724052500215,0.0809881038163797,9.744135913650355,-0.0208930564069446,0.0038544421079256,0.0021058893513064,4.573074321602512,-0.8710931325370669,1.2083533057215032,1132.9250617836046,1118.4869991944292,1134.2462546045172,1125.7418874584903,-777.8003734228771,41.25684173363968,35.29881907484271,-183.93968289843025,152.29472578378807
1.77,-0.735189296493496,-0.7561225938215173,0.119787330775612,0.0063073698454775,0.0526591441829771,0.0044526863733019,-0.0073079172301148,0.0048389379926024,0.0009247433015955,-0.9999607740494278,0.0753370091196968,0.0816525746816711,9.741380983618074,-0.0210209783120023,0.0038375216590673,0.0018990579918414,4.573019114514622,-0.8710865294252526,1.2083570740683596,1130.714963351012,1118.8077247922688,1134.2458974489928,1125.3844348217935,-808.9341286956086,216.75281477828784,-51.33187260535233,-87.86143217785326,152.2945062422731
1.7725,-0.5641546069814303,-0.9345803420669544,0.2672351530384111,0.0041480407321072,0.0510211752408272,0.0050837827250877,-0.0073047024622644,0.0047318853062204,0.0009120116979581,-0.9999613198333314,0.0712137939625789,0.0823803734548265,9.739070526861289,-0.0211508818114342,0.0038301603229888,0.0016906521061543,4.572963656716863,-0.871081160413504,1.2083582475222359,1128.8803911401267,1119.5707632683207,1133.9895952414904,1125.302580297601,-691.5167373563531,416.14387153166666,-161.5030743713268,-13.602248239749,152.29427432096705
1.775,-0.3858012247978622,-1.075979375621233,0.4052221810899172,0.0036325707926581,0.0491115594695344,0.0054425979372924,-0.0072990281949549,0.004627831928144,0.0009009561846708,-0.999961852856302,0.0673623627352278,0.0830764404164869,9.7372032439375,-0.0212834297995578,0.0038333693422449,0.0014833428686927,4.572908630211355,-0.8710765157002873,1.2083574081361808,1127.2573796642303,1120.8884441499272,1133.4383820771363,1125.316423580595,-626.8097426169189,687.1684075412145,-300.23467744094194,-3.8919784599328535,152.2939862676815
1.7775,-0.2328970344743001,-1.1883636602203687,0.5474250245002785,0.0044698110936461,0.0460375252948423,0.005733688078674,-0.007291440320242,0.0045309929550097,0.0008903688509414,-0.9999623506449196,0.0638789343971677,0.083720922074652,9.735771989634545,-0.0214196212745081,0.0038475429797319,0.0012793096536627,4.572854906572263,-0.8710719526805019,1.208355552677596,1125.746342427042,1123.0066053060268,1132.4884218542857,1125.2831204053011,-464.68591676849513,832.2950295286951,-379.0711756389636,-34.881337633670064,152.29357120472258
1.78,-0.1928850910174345,-1.2191233183074817,0.6277266874404211,0.0057751068129306,0.0426106515407717,0.0066216442683189,-0.0072846865836676,0.004444241899272,0.0008763707496249,-0.9999627873443158,0.0608336695434655,0.0843361893830627,9.734765547281624,-0.0215606090859133,0.0038724143431478,0.0010799565917784,4.57280324857195,-0.871066907438983,1.2083531245372998,1124.9339500803878,1125.0499192975703,1131.5430261989416,1125.1420168924267,-229.39842497335607,821.3732063456692,-382.0115067164433,-79.35066198747505,152.29316528972203
1.7825,-0.2598886343274494,-1.169973522809428,0.6342842120961663,0.0069888985517573,0.0385496495104975,0.008991000779128,-0.0072862582349486,0.0043685056724929,0.0008561170431311,-0.9999631134631292,0.0582582695737451,0.0850375948027884,9.734168933836356,-0.0217074277387901,0.0039069275914359,0.0008858083512329,4.5727531631598595,-0.8710603509249144,1.20835050142309,1124.5993503021753,1127.113471337755,1130.5783643207035,1124.886367095364,-53.718010338478635,849.867866549883,-392.0265458646464,-117.73805950910813,152.2926957316863
1.785,-0.445447862019176,-1.0201641405734927,0.5213065985368758,0.0074067275811303,0.0340548080252521,0.0128669869555041,-0.007295318454206,0.0043035863345851,0.000833023904094,-0.999963338763484,0.0561610759905064,0.0857800578217558,9.733968298884106,-0.0218607104631534,0.0039491288251991,0.0006966501690589,4.572703820765892,-0.8710518022128448,1.2083474720801355,1124.6653600286954,1129.29925863032,1129.5828934696183,1124.5533265948811,80.40351941017248,717.3936820906708,-311.4102466415189,-104.3016203344881,152.29205861934665
1.7875,-0.6535815159058999,-0.8372258686429584,0.3195098985721895,0.0063020589993263,0.0313358992937322,0.0157931513290323,-0.0073033948488384,0.0042427082981257,0.0008122999399423,-0.9999635545116372,0.0544210239894849,0.0863726064369573,9.734151968696755,-0.0220204291226146,0.0039966208710525,0.0005113149651785,4.572654202221432,-0.8710408141305162,1.2083451912359207,1125.001367899226,1130.7004397482085,1129.0213130874959,1124.3648589936915,162.52578483254527,450.5635823171911,-142.38430387440835,-33.779534990572564,152.291467076318
1.79,-0.8653961971578487,-0.6283973429009837,0.0289915394871805,0.0036048018244428,0.0298771462978382,0.0173449839516733,-0.0073070869704219,0.004181667137748,0.0007933803522473,-0.9999638072049112,0.0529660697179426,0.0867269545217598,9.734706805352914,-0.0221857204491569,0.0040472400182222,0.0003280872201988,4.572603442921262,-0.8710275878472002,1.2083446636460706,1125.477988952858,1131.552076541906,1128.8709719502463,1124.3844289199283,192.5004426961136,248.6007312352338,20.628061818297724,50.173534033866574,152.2908143854564
1.7925,-1.0451482492131108,-0.4257103067626052,-0.2982781892505245,9.326167362255617e-05,0.0292203169517125,0.017399512900853,-0.0073023433051554,0.0041164083996057,0.0007709655894849,-0.9999641504926998,0.0517252672201869,0.0867465382893374,9.735620457069858,-0.0223549359588531,0.004099331470569,0.0001449067902772,4.572551169089151,-0.871013691700096,1.2083470393384912,1125.9638701127067,1131.9434434043847,1129.1244533965871,1124.6157266638609,176.0281449506275,60.936925450916014,202.30406566357007,136.93618571328736,152.2901129604309
1.795,-1.1595898928586623,-0.2572084684064073,-0.6140949218281204,-0.003425040950557,0.0291618472703061,0.0155730111677397,-0.0072924735162657,0.0040507345892231,0.0007413376987417,-0.9999645430079,0.0507770576114381,0.0864826683550865,9.736878567835454,-0.0225258241651183,0.0041516790496316,-3.992824171920879e-05,4.5724971696898145,-0.8709999564205386,1.2083523065562225,1126.3581296776113,1131.8567611691603,1129.882492278564,1125.0691098484947,136.126961549277,-115.1839992786309,441.0899158188284,224.31021108163287,152.28935594851117
1.7975,-1.2073032024643746,-0.1157362344678652,-0.9129129900229728,-0.0069567012420407,0.0294167821690252,0.0115835118441794,-0.0072751281105175,0.0039864944221089,0.0007047232344906,-0.999964986970454,0.0501576256155458,0.0858808071712088,9.738468752036647,-0.0226957413137203,0.0042034267513387,-0.0002275974395681,4.572441378513991,-0.8709868563468303,1.2083588763940636,1126.644504920453,1131.3675234079915,1131.3299029756815,1125.737277719269,71.15666577683277,-215.23124456798044,607.0230501078955,239.96665934986953,152.28838839235578
1.8,-1.1688999247724459,-0.0542148575717485,-1.0618574626591146,-0.0095964291965896,0.029722434988173,0.0075194931041662,-0.0072497716180966,0.0039245569511666,0.0006641749279901,-0.9999654764394788,0.0498797405393465,0.0849260779121942,9.740377420746901,-0.0228618520663566,0.0042540495008391,-0.0004183905536844,4.5723832214330296,-0.8709751261711525,1.208365618167714,1126.7139130064954,1130.7806049463206,1132.9176075291036,1126.268943145244,0.5099153753690298,-240.37019753355307,694.5308002874448,179.83054314350213,152.2875372790597
1.8025,-1.044363374958944,-0.0484289647754099,-1.094241217562249,-0.0124043916809306,0.0299925916225861,0.0037643932994055,-0.0072207416252025,0.0038705514890717,0.0006232336965797,-0.9999659524412092,0.0500450806451149,0.0837030086396578,9.742587554882068,-0.0230213760572974,0.0043032733919022,-0.0006112756840271,4.572322447050296,-0.8709653731181651,1.2083713380678411,1126.64705449733,1130.1656724203235,1134.8025569771187,1126.6364304349863,-40.56791051084561,-249.96244395152263,871.4768531572374,105.04361571425076,152.28664584476812
1.805,-0.7894840103058428,-0.0932454042577171,-1.0140130896375508,-0.0159178673704217,0.030171420185104,9.819467421886451e-05,-0.0071931048173783,0.0038257039491363,0.0005843854919536,-0.9999663701075618,0.0506665077539641,0.0823147999867764,9.745079192222034,-0.0231718928833469,0.004350872411104,-0.0008042695361226,4.572258624559689,-0.8709573279402604,1.2083749455808788,1126.5110734539412,1129.530792726563,1137.2749917948895,1126.7941612238153,-40.62562382282428,-205.57717884675617,918.0363787628056,7.267552282109879,152.28553750319494
1.8075,-0.4912853793154541,-0.1596147547707864,-0.8712509179300016,-0.0186617528100518,0.0301246762885782,-0.0023103822693766,-0.0071733991631591,0.0037893901468482,0.0005515193057866,-0.9999666827033636,0.0517181074480822,0.0808978406379367,9.747828067664884,-0.0233117233844048,0.0043962648657721,-0.0009944811373641,4.572192910751819,-0.870949945833775,1.2083763425894387,1126.4439263782156,1129.13778652609,1139.3927388709328,1126.672768196397,3.4236619743750567,-131.0729309628611,823.902040989041,-96.31868147980417,152.2845873843311
1.81,-0.1224270669319402,-0.2347201318428374,-0.6829694640730765,-0.0206886920827549,0.0297676421471948,-0.0041615783800867,-0.0071611543946689,0.0037603486664861,0.0005294716159989,-0.9999668967117346,0.0531599166479207,0.0794565275704343,9.750807270098168,-0.0234402150825896,0.0044383555002752,-0.0011782352652598,4.572127900321108,-0.8709421464729807,1.2083749158359736,1126.528191763813,1128.8754280717487,1141.394501999835,1126.3125678164163,87.54390417634755,-104.4857268818782,806.5073460970495,-203.64692912999524,152.28361579351798
1.8125,0.3543719038184861,-0.3064031981861556,-0.4445704867659758,-0.0212109581763504,0.0288468440523811,-0.005537221171193,-0.0071542028213802,0.0037363980567692,0.0005219717547273,-0.999967036995508,0.0549336445620227,0.0779667787277616,9.753985275754783,-0.023557753758862,0.0044755918895959,-0.0013514536168783,4.572065459290965,-0.870932620221517,1.2083703756579796,1126.8816458990975,1128.6153578916803,1143.425275601418,1125.6545335507471,174.55263471756925,-106.69494997314585,648.7782716648464,-271.8213571279706,152.28243105702123
1.815,0.7311321783913785,-0.3299569141392993,-0.2635385065217626,-0.019415325503798,0.0276093370652156,-0.0057231044741176,-0.0071547548958772,0.0037183278927753,0.000532793253463,-0.9999670849490788,0.057039283514345,0.076494465027567,9.757324155059962,-0.0236655170122816,0.0045060370592435,-0.0015099167253057,4.572005375432485,-0.8709207083830957,1.2083625285773618,1127.400954937401,1128.341953321883,1144.6383933581592,1124.9534610307765,247.95089763442203,-143.6798632931153,354.9286258529637,-304.9381071635637,152.28143179979156
1.8175,1.0267310340322124,-0.2962077127569965,-0.1269186937043042,-0.015583097359759,0.0259684211650132,-0.0051744992307789,-0.0071614380376919,0.0037020172736217,0.000561632704877,-0.9999670653763844,0.0593827484706631,0.0750398491492493,9.760782983462564,-0.0237650264310209,0.0045278668060813,-0.001649995731103,4.571946529164907,-0.8709064759204095,1.2083519503035556,1128.1214003872697,1127.8969585752147,1145.1999187306828,1124.1298430149293,311.2954231404657,-215.03884575572056,105.99007588875548,-343.94140083544806,152.28042376172553
1.82,1.223553462310538,-0.2084919549579022,-0.0363507377787884,-0.0110350024408768,0.0242890107742291,-0.0045084754133085,-0.0071753072482161,0.0036858437556495,0.0006033828998263,-0.9999669789270365,0.061920831009128,0.0736543312635329,9.76431701639619,-0.0238578423897653,0.0045397252795714,-0.0017687685987727,4.571888471682941,-0.8708906416817044,1.2083389264042657,1128.9574320531033,1127.2667590931044,1145.1683437376028,1123.2337540265992,347.1439370164336,-290.9725059095825,-150.37985892918508,-365.2361106424983,152.27941058896303
1.8225,1.2900124636464023,-0.0626228923931646,0.0015310659045216,-0.0067184819972775,0.0231783238376959,-0.0039886617001546,-0.0071931891985598,0.0036707517552164,0.0006512689957899,-0.9999668499640224,0.0646623378357386,0.0723096437771224,9.767881228095852,-0.0239453921142215,0.0045408708604143,-0.0018643106687504,4.571830857381427,-0.8708750197700971,1.2083238194170538,1129.8571200723516,1126.442096045667,1144.4480194360367,1122.3036624617168,391.9877114299281,-379.3534813480245,-448.80546199343416,-396.9536452256846,152.2783931251692
1.825,1.234775311530928,0.1529824989302442,0.0030631654870797,-0.0024223662558572,0.0230458314727814,-0.0038551918710128,-0.0072104473483061,0.0036547166047823,0.0007003193049278,-0.9999667253455694,0.0675593111410825,0.0709507332417902,9.771431923041812,-0.0240288496529558,0.0045310935205415,-0.0019362833057091,4.571773573730723,-0.8708607367762388,1.2083076043688015,1130.9173706102529,1125.3699916863643,1142.9243164276359,1121.2489858004708,374.51161206417106,-375.947205339426,-638.1722428411956,-359.05172968290645,152.2771689303129
1.8275,1.1007741484175588,0.3399413891113076,-0.0153055048408943,0.000301912202695,0.0239823364016608,-0.0041940612323884,-0.0072292803586438,0.0036327482852078,0.0007501043551909,-0.9999666100903593,0.0705061088380348,0.0696570102805145,9.77492679259271,-0.0241090644136073,0.0045104560912061,-0.0019862126698774,4.571716487905422,-0.8708467960166756,1.2082914199103223,1131.7296781326727,1124.56236001897,1141.2571582218309,1120.5084038133023,301.1124025460434,-268.02468346103814,-707.5779543485913,-249.0614208245858,152.2761471367886
1.83,0.9084969456259764,0.5042437160848565,-0.0358195477154176,0.0022945248685812,0.0256579798518863,-0.004678122767741,-0.0072486222101561,0.0035976036179412,0.0008030132046204,-0.9999665388108252,0.0733529754478422,0.0684441451206664,9.778329893753508,-0.0241864726721932,0.0044793036416058,-0.0020174045898472,4.571659611720065,-0.8708327357864203,1.2082775173884144,1132.4229326229831,1124.029868269059,1139.3864266558928,1120.0036786963478,272.75443030139866,-143.11600851793023,-822.0822486775152,-156.269135716551,152.27512498810165
1.8325,0.6437793198384356,0.6508298301321,-0.0496808341599487,0.0040369454587692,0.0279159838495365,-0.0053095274102691,-0.0072701096226146,0.0035506699669074,0.0008575990663758,-0.9999664956258156,0.0761188463215738,0.0673798100864846,9.781610924488765,-0.0242610158830959,0.004438535557178,-0.0020342697410513,4.571602935927112,-0.8708191408657822,1.2082673928500995,1133.0934502841797,1123.8467799763803,1137.1467469784432,1119.7270581347195,219.0179421907989,11.226947565228569,-788.4687063536317,-47.602037410934926,152.27389967249815
1.835,0.4136196174445586,0.7211163413584205,-0.0485351429115064,0.0051293276285289,0.0298196100224574,-0.0059961349879483,-0.007294012037941,0.0034932982059417,0.0009042497072932,-0.9999664807674234,0.078821617235551,0.0665028316550236,9.78474825054492,-0.0243320108049084,0.0043898072982958,-0.0020422373579024,4.57154601813901,-0.8708068009620699,1.208261796183569,1133.518022333937,1124.0860030068852,1135.4440831241247,1119.7656685092932,144.8142314135078,156.52347835689037,-614.58962355849,59.78996135918213,152.2728809335366
1.8375,0.1908818437105979,0.7324518267158316,-0.0379962795209282,0.0060603126116103,0.0318163095347815,-0.0065316004730767,-0.0073229885666913,0.0034252644863998,0.0009347324275545,-0.999966482729894,0.0814458172227094,0.0658959370071858,9.787728672111928,-0.024398210525271,0.0043349505184963,-0.0020472214318297,4.571487975262282,-0.8707957515425481,1.2082608048273786,1133.8175214412472,1124.6293973681647,1134.0737988606509,1120.0260079415154,106.97987536977713,261.5053748212116,-497.68299566461553,144.21737213178525,152.27186630283063
1.84,-0.0472897451871707,0.6777522703186076,-0.0292193052580885,0.0066486380285485,0.0344285319753104,-0.0063228764433145,-0.0073524488792306,0.0033518427330759,0.0009483995862702,-0.9999665134434572,0.0840797059619798,0.0654968449390275,9.790549008900504,-0.0244579544323078,0.0042755454218528,-0.0020544957492666,4.571428710823963,-0.8707863805618762,1.2082631478341719,1134.052921710786,1125.3935298809913,1132.9556681458016,1120.486755369952,67.57318079894647,256.10348812838856,-310.1749605371035,177.55144506909724,152.27065556036092
1.8425,-0.2025258696414894,0.580390346010011,-0.0371018645439348,0.0062607298553318,0.036640934303591,-0.005511403573578,-0.0073775768793408,0.0032754633911534,0.0009494318259685,-0.9999665919487644,0.0867516204847064,0.0652351020171645,9.793214017436835,-0.0245092511021146,0.0042128217669693,-0.0020685532836691,4.571368000451481,-0.8707782127480556,1.208267769315368,1134.155387345242,1125.9099148088067,1132.5229240579652,1120.913765166861,21.471686841278373,135.41790457188944,-68.99824156435135,167.61947778868847,152.26965388812894
1.845,-0.2883764898116096,0.4452254736129891,-0.0654730443590889,0.0047540377096893,0.0383185780311214,-0.0048078062869086,-0.0073993014993643,0.0032007380493304,0.0009418009483791,-0.9999666898116472,0.0895283713128638,0.0651486849168126,9.795732569512728,-0.0245499295431792,0.0041477036964154,-0.0020924724233353,4.571306222296454,-0.8707701126340617,1.2082731280606651,1134.1602801449924,1126.0706194038507,1132.6106769379799,1121.3248527588955,-16.10058950827769,-15.162994646925304,109.39218629859826,162.2120245391178,152.26866179937088
1.8475,-0.3040958781390067,0.2980598938849358,-0.1036045706316159,0.0027791495998981,0.0392473512226519,-0.0045418575777367,-0.0074176503497129,0.0031300427843628,0.0009270504242759,-0.999966797099095,0.0924289441590782,0.0652534310647751,9.79811758608955,-0.0245777746528775,0.0040808808389612,-0.0021278255002142,4.571243462628289,-0.8707611445789017,1.2082788156971604,1134.0748843977003,1125.834099835572,1133.0698849894584,1121.7248252895563,-59.570819112785536,-188.4872656307336,243.70056773549896,169.67156704499365,152.2676792622763
1.85,-0.2362087998390188,0.1635196125558379,-0.1350547622690283,0.0011200233932402,0.039441228221036,-0.0049296964147356,-0.0074373222747868,0.0030662268851265,0.000906764350489,-0.9999668689251288,0.0954772999658771,0.0656521977128255,9.800381650392183,-0.0245907124982452,0.0040127490984818,-0.0021744967939236,4.5711795402908635,-0.8707505033587041,1.208283552577468,1133.8624260494284,1125.128183075697,1133.8291797766572,1122.1732105941203,-126.99794418086,-381.6504275692832,351.592136057214,232.3037713185435,152.26671029799385
1.8525,-0.0812239792418532,0.0481061860402542,-0.1385098407501154,-8.714738078266211e-05,0.039142265700928,-0.0062212845245977,-0.007455289982802,0.00300980324458,0.0008841575885507,-0.9999669227922668,0.098647816143504,0.0662917919825925,9.802537900779646,-0.0245869692461562,0.0039435861971814,-0.0022307775761182,4.571114559463154,-0.8707390834403623,1.2082853625477064,1133.4398946767963,1123.9258476977257,1134.8278456697444,1122.8863441461492,-183.54354590301617,-454.35326628918176,339.77248897914063,306.5428876438611,152.26556603654467
1.855,0.080865981493437,0.0074259075503764,-0.0994214993460265,-0.0003769458026047,0.0384680903639307,-0.0075937581262631,-0.0074662370327224,0.0029594063836148,0.0008645523333542,-0.9999669999240672,0.1018748120813957,0.0670693205484593,9.804596106637753,-0.0245652402443357,0.0038736974101155,-0.0022936745264475,4.571048797577801,-0.8707279239512987,1.2082833520826528,1132.9447083199132,1122.8564167442512,1135.528042221553,1123.7059250323396,-223.81572932782117,-380.20310725265426,210.52279467922284,383.2565301349487,152.2646300554926
1.8575,0.2360588214948223,0.0344368708559608,-0.0160771000526149,0.000142099043761,0.0374301152455402,-0.0084185586611632,-0.0074712038932771,0.0029131854162035,0.0008500534187912,-0.9999670999376068,0.1050813223866777,0.0680010932358928,9.80655811655096,-0.0245248025772073,0.0038037099251195,-0.0023593937397541,4.570982291420336,-0.8707170986864142,1.2082773695650264,1132.3208160301572,1122.0248321614624,1135.8804596431405,1124.802626796824,-293.00460042831446,-250.23175895971113,46.639327209185296,537.5566549554027,152.26371502155598
1.86,0.3652964172015087,0.1374387790703059,0.1174416531652021,0.001810270628685,0.0361466490258782,-0.0083477827576575,-0.0074728439947598,0.0028636288545766,0.0008413033756575,-0.9999672275264624,0.1080786660077985,0.0691294056885969,9.808418340377342,-0.02446564372265,0.0037344922561059,-0.0024241106536718,4.570914723549706,-0.8707064801375384,1.2082685368710488,1131.4796853177716,1121.6052579494526,1135.7612388575988,1126.3937083071169,-312.4376250380847,-30.33428575927176,-134.87525167192558,610.624340515355,152.26264451842226
1.8625,0.3953006293153757,0.2599029299870387,0.238545590871993,0.004113248345473,0.0357188772929605,-0.0077440135034781,-0.0074778098706014,0.0028119879178867,0.0008379907114013,-0.9999673289189044,0.1108505780698889,0.0705693779376275,9.810159974311135,-0.0243886797162805,0.0036671000924373,-0.002483765708227,4.57084717384088,-0.8706960026709065,1.2082582033051368,1130.7586279049667,1121.873160732666,1135.2060833847809,1127.8557484994008,-278.37864448816293,242.0400619724712,-292.5441810838555,583.2706202866699,152.261777923661
1.865,0.3259878281881575,0.3760000272534935,0.3495805092794839,0.0070390215527026,0.0366959112491699,-0.0069693623132709,-0.0074865664691848,0.0027619366137818,0.0008364045300932,-0.9999673922711166,0.1134307326487351,0.0723085053691103,9.811758291137672,-0.0242957789427013,0.003602935595286,-0.0025346260703699,4.570782321224509,-0.8706857079636376,1.2082468807160636,1130.0877920953308,1122.8154582593147,1134.2985179521795,1129.31006140855,-269.53490813644413,547.7215824278236,-427.05474297964423,604.1124551141949,152.26094094030947
1.8675,0.1427590867184675,0.4496525899283093,0.450389408078982,0.0098554004922052,0.0394737182968571,-0.0055400723305303,-0.0074964073265863,0.0027148228442615,0.0008351374824481,-0.9999674381022658,0.1158099685657636,0.0742661609603878,9.813181046149555,-0.0241895938008557,0.003543453614716,-0.0025737333548713,4.570721740181126,-0.8706753988783109,1.2082345582408645,1129.4109533642843,1124.6117686448051,1133.0708096698827,1130.8763107749717,-218.7020100973263,737.9176486616245,-425.8973098369908,524.4102317194908,152.25997437850504
1.87,-0.0554272775119075,0.4246023025257837,0.494282853617624,0.0105283057003958,0.0423856577858122,-0.0038740466564905,-0.0075079046958391,0.0026718244407879,0.0008348972299473,-0.9999674647569669,0.1179793437048317,0.0764202744370429,9.814387353930494,-0.0240731007658058,0.003490156390888,-0.0025989775852612,4.570664947132356,-0.8706646464122868,1.2082223068416542,1128.9942820448443,1126.5050465026231,1132.1690314029947,1131.9321125671477,-127.70305662329224,792.2733731795505,-284.00170225099174,353.8713442388061,152.25920284350127
1.8725,-0.2363186369331843,0.2987625665865672,0.4873817074627971,0.0091006126819489,0.0447345264654708,-0.0021748021043127,-0.0075191269004016,0.0026259340510708,0.0008361432017419,-0.9999675102565364,0.1197737173737141,0.0786936519861305,9.81533215057169,-0.0239490007402713,0.0034447910668235,-0.0026094807835228,4.570609803637671,-0.870653563171989,1.2082117476635723,1128.772438081168,1128.5731355107027,1131.6508011586277,1132.6456674961655,-50.12866736428912,818.9950383669104,-119.31828043266503,221.7716208968388,152.25846915429236
1.875,-0.3567517862586278,0.1023040809261003,0.4381859560369865,0.0064123783427366,0.0461940452192633,-0.0006886184100679,-0.007532020476146,0.0025742456337608,0.0008382057917779,-0.9999675708093576,0.1211131795467706,0.0810796871309075,9.815964005539335,-0.0238194108469546,0.0034094318508672,-0.0026049208777178,4.5705547013253724,-0.8706427541752272,1.2082025278165407,1128.743638708023,1130.6000216944576,1131.5724400008314,1133.0409706716318,43.236201230548446,758.8646444720487,77.59164588205914,80.11484365652164,152.25776861639875
1.8775,-0.371560745511701,-0.145075902720457,0.3446074481222342,0.0030987392952434,0.0464287024518239,0.0005126541238181,-0.0075416968987883,0.0025193799872803,0.0008375404402536,-0.9999676799229512,0.1220315534379641,0.0834324281742239,9.816229838934586,-0.0236857577023957,0.0033866176106245,-0.0025851922361173,4.570498923424079,-0.8706343378754776,1.2081934513067882,1128.9886190873208,1132.3674587330631,1132.038759388038,1133.0462417144483,181.5584472005825,672.4068522325368,300.17252302063054,-80.13097987531907,152.25710996212828
1.88,-0.26857497944683,-0.4453146464295129,0.1957531765598139,6.830569164139824e-06,0.0450716789686625,0.0016917911591177,-0.0075459244540259,0.002465678578997,0.0008308650928775,-0.999967848342746,0.1226009490512624,0.085654202801574,9.816075006697996,-0.0235488610738044,0.0033789559180868,-0.0025505544323418,4.5704421301337845,-0.8706287751648821,1.2081830699110356,1129.6514309440258,1133.9620559556204,1133.0733026159346,1132.6403157722552,310.4658883732028,472.77175772313785,417.8036970933948,-206.4417567178632,152.2563701778421
1.8825,-0.1129764977083376,-0.6587532620618871,0.0562879124271269,-0.0007647824388033,0.0426967444114729,0.0024487778003561,-0.0075462025240717,0.0024113830055699,0.0008185780683822,-0.9999680723348237,0.1227774256261373,0.0877184034132308,9.815446618189732,-0.0234090951874055,0.003388582542314,-0.0025020843277082,4.570383918988141,-0.8706258738403307,1.2081712723844789,1130.5409485291868,1134.7313175216789,1134.127777873505,1132.014032930859,427.7341391204209,175.033702284467,405.88545633200687,-295.0100921002167,152.25579725561647
1.885,0.0607508474172444,-0.7995371906661471,-0.0748055072389784,0.0003693177919769,0.0397044478301847,0.002756049436638,-0.0075425704446795,0.0023546326264778,0.0008032617870003,-0.999968360025726,0.1225188462608822,0.0895691370573386,9.814296254424274,-0.023266649370448,0.0034168528351627,-0.0024415373042017,4.570324219371848,-0.8706247394875042,1.208159370194906,1131.790101639628,1134.8372244670427,1135.1027298975944,1131.165265311754,624.6182704493682,-109.03787776301448,355.96404916978673,-410.3386241450695,152.25527098675173
1.8875,0.2363523468748988,-0.8687743799793921,-0.1860388287835005,0.0024854500818616,0.0362308024353071,0.00220019129335,-0.0075383317037117,0.0022935891631077,0.0007855094545508,-0.999968697458042,0.1217878589758532,0.0912153224040457,9.812580741721677,-0.0231217769798196,0.0034641725058185,-0.0023714974973749,4.570263034090962,-0.8706244418765055,1.2081480501120376,1133.6640398814336,1134.1861281328638,1135.907598119354,1129.9623398101337,735.6782229298746,-358.54160340617534,211.9898711415268,-464.70297681047504,152.25469476233033
1.89,0.3342349693399673,-0.8468618467138667,-0.2123694960786061,0.0041788635574531,0.0337026652559023,0.0008823987968898,-0.007535298738415,0.002226728002268,0.0007656674221929,-0.9999690790953508,0.1205575115971364,0.0926396943775932,9.810265673505805,-0.0229750851306351,0.0035297308562727,-0.002295328519277,4.57020112335605,-0.8706237037855857,1.208137618125558,1135.4684927542771,1133.0445164500115,1136.1626792533023,1128.8417504277015,747.2165905154097,-556.9707448747394,16.68635260102708,-467.3086428486732,152.25426145305437
1.8925,0.3771439333546285,-0.7578328725405196,-0.1447433228935285,0.0056251130338211,0.0316771465501796,-0.0010389559118108,-0.007538855904885,0.0021634284694486,0.0007436861137739,-0.999969437179206,0.1190190924998033,0.0939004355487702,9.807323838942336,-0.0228277913374823,0.0036114435255298,-0.0022166414838227,4.570139777116672,-0.8706212991105641,1.2081286344659514,1137.4001228340107,1131.40127440849,1135.991029882359,1127.6257965958903,843.1815919377821,-800.6698743157074,-141.82680487893168,-552.622712513733,152.25387751859057
1.895,0.3767222867404088,-0.5976344782967831,0.0494784902474318,0.0067747849394066,0.029923585958292,-0.0032387569155504,-0.0075515657207628,0.0021115280390554,0.0007193218352804,-0.9999697207149896,0.1173379145078598,0.0950075608055889,9.803741200359212,-0.0226817220502833,0.0037061043192004,-0.0021396863622403,4.570080537808251,-0.870616505836096,1.2081211275716663,1139.684400713966,1129.041167078433,1135.4535452289076,1126.0786368651331,803.6031174908828,-899.1045797159323,-217.18637992212743,-579.2965370129547,152.25347441958644
1.8975,0.3460972550040577,-0.4369546452179093,0.2863045092770657,0.0072677464372151,0.0289668496674038,-0.0042156033889557,-0.0075724091220347,0.0020742664962502,0.0006949854826336,-0.9999699044128229,0.1155929241700791,0.0959101879521428,9.79951887993638,-0.0225391770747808,0.0038095386254812,-0.0020692977303869,4.570024279826992,-0.8706085956483436,1.2081148562264792,1141.418138421465,1126.9057515099105,1134.9050979827484,1124.7293139108256,625.7704458091977,-851.9092132164391,-199.08485745263073,-548.6151320859209,152.2531867251876
1.9,0.2966356061654965,-0.2647319976231337,0.5526376816957905,0.0073523597402562,0.0284504843212444,-0.0033542437410485,-0.0075964686667313,0.0020534846151219,0.0006711028907893,-0.9999699834339962,0.1138401685315558,0.0964912301995792,9.794673354492494,-0.0224025909393636,0.0039172063661429,-0.0020105550674544,4.569971136097217,-0.8705972579464156,1.208110698291534,1142.8132529430122,1124.781621012351,1134.4581209416444,1123.3355612047035,481.4164311183847,-820.6484846292179,-139.9496002994478,-560.0561024526412,152.2529491003052
1.9025,0.2345603967439165,-0.0916019632761782,0.7970803816267265,0.0072847777346948,0.028267983322316,-0.0009348514670343,-0.007611737466703,0.0020426504960355,0.0006437876562728,-0.9999700030777906,0.1119764082326642,0.0965056270884637,9.789238735729375,-0.022274093026777,0.0040247670977236,-0.0019688207733315,4.569919960643987,-0.870583322222611,1.20810959167935,1143.825220577057,1122.8025090867643,1134.2053499812512,1121.9290333985623,295.33072971021915,-726.1176048281113,-43.39685854743131,-554.0286982679509,152.25275284165036
1.905,0.1505174446436423,0.0764330305105052,0.964165159408486,0.0075790681510926,0.028370256999118,0.0027294587947575,-0.0076137415174587,0.0020348407333381,0.0006088490980168,-0.9999699481062756,0.1098943119411138,0.0958678966655693,9.783260085080531,-0.0221552466277172,0.0041282588508479,-0.0019491234793993,4.569869316068798,-0.8705678971342787,1.208111822997298,1144.2899065915633,1121.1510329882103,1134.2411366489073,1120.5654177133636,67.97324376461947,-619.5737541578313,77.26288387643926,-566.1036695603464,152.2526060563335
1.9075,0.0077251802567189,0.2675528821289617,1.0336114722474583,0.0084553262451859,0.0287747688958662,0.0076818901335571,-0.0076015550012453,0.002029831285173,0.000564004836882,-0.9999698678807843,0.1076201393313345,0.0945739479722835,9.77679252277916,-0.0220469354503172,0.0042243016578671,-0.0019553791336799,4.569818904003779,-0.870552469416811,1.2081155484472603,1144.16508679588,1119.7046403159752,1134.5916644006331,1119.0985150507606,-157.62111170069693,-429.4765478718901,165.36354461922727,-487.879881362676,152.25248609880316
1.91,-0.1556073425889493,0.4148488114650124,0.9749782431109408,0.0093612946909817,0.0294665005648934,0.0115718618353909,-0.007575266452664,0.0020265095413073,0.0005128836261456,-0.9999698288397236,0.1051636157498632,0.0926509993884834,9.76990189543467,-0.0219493376647368,0.0043100196887398,-0.0019903726825772,4.5697686511721445,-0.8705379157579746,1.2081189631373277,1143.5018010330596,1119.003650248851,1135.0679543720034,1118.1260183065503,-369.01129913234456,-180.80268665366512,204.19640798022084,-311.57011032563975,152.2524317169848
1.9125,-0.3627540319929384,0.5443573704957761,0.8135673532697957,0.010009433079378,0.0306188474671157,0.0144925171731931,-0.0075357393189602,0.0020165516954672,0.0004600022864824,-0.9999698879808414,0.1023946775218038,0.0901510704886479,9.76266401998917,-0.0218618820188475,0.0043831776853397,-0.0020559319214813,4.5697174701583165,-0.8705245587448176,1.2081207900592164,1142.3200303002184,1118.8006268827069,1135.6126464405345,1117.5406644991324,-615.3671899496334,-4.784432262113216,224.80386538864448,-146.89441645983007,152.25242253712563
1.915,-0.634845913907166,0.6718140788941677,0.5459778924657159,0.009576141142754,0.0324218060579656,0.0163505201720224,-0.0074857353424522,0.0019898736988842,0.0004094553637174,-0.9999700786478734,0.0991499642805977,0.0871714584602003,9.755161480569516,-0.0217833693460486,0.0044420484014496,-0.0021528117474436,4.569663787951719,-0.870512446002707,1.2081204613341467,1140.4249650833117,1118.9797280875405,1136.1919736989466,1117.3915462242512,-752.4586388254806,102.40840347046506,180.8746153853956,42.52614068150342,152.2524605275104
1.9175,-0.8465321613505621,0.7496302958432562,0.2991387163004178,0.0077601336635811,0.0341140459363633,0.0166024155702726,-0.0074345306508247,0.0019458512600675,0.0003627730565186,-0.9999703501440188,0.0954515912793535,0.0839430036553639,9.747478822586665,-0.0217122892637779,0.0044852762580694,-0.0022804986326156,4.569607171163237,-0.870500696433637,1.2081178178777807,1138.557737106091,1119.3126689000592,1136.5170195174614,1117.75329520254,-778.97967768078,128.75035124202716,82.99838656225978,235.33700728303805,152.25253012209916
1.92,-0.9949934652230465,0.792365038771662,0.0651624712794248,0.0046030949402562,0.0359249040072642,0.0160943380842359,-0.0073836324583517,0.0018888046521771,0.0003219530439151,-0.9999706864630838,0.0914178563046582,0.080550036032217,9.739706049240556,-0.0216472613747686,0.0045116601221793,-0.0024375863915496,4.569548178117456,-0.8704884078787563,1.2081127581687892,1136.5300666949079,1119.6234798437506,1136.606965631758,1118.5682312606664,-897.1582247410672,94.42197413700124,-17.633083938835217,430.8713347118911,152.25263500136458
1.9225,-1.0555387121504123,0.7962933328256138,-0.1748699985609549,-1.00113815827967e-06,0.0382735177889224,0.0154045259939051,-0.0073384711558985,0.0018287609620517,0.0002918009710265,-0.9999710243802296,0.0872772791732608,0.0771570558279002,9.731933602358897,-0.021587488440319,0.0045199919331096,-0.0026221608859496,4.569488288989712,-0.8704746446278117,1.2081055424517588,1134.0719459823856,1119.784778770744,1136.4288540977673,1119.9076518760994,-881.7351040296921,11.112567705140208,-107.7785699949775,518.35339783405,152.25279610886753
1.925,-0.9918000963743424,0.755291070416455,-0.3316059593868544,-0.0040883024328709,0.0402895835077079,0.014978142546442,-0.0073055225301409,0.0017769233173237,0.0002732492878958,-0.9999712904549676,0.0832812662454762,0.0739501158150032,9.724252706921616,-0.0215329493268133,0.0045094779719695,-0.0028322658739986,4.569429378538656,-0.870459769148739,1.2080964618488619,1132.1213911747593,1119.6790426822763,1136.068072781783,1121.1599982498367,-730.57971503096,-89.77396262839838,-179.6052560444916,489.4249299297476,152.25295522479905
1.9275,-0.8154722533194354,0.6643502053803059,-0.434594723483846,-0.0079315618545231,0.042112380335558,0.0143489254137126,-0.0072865131947824,0.0017337871672213,0.0002644623930594,-0.9999714633752828,0.0794731608082803,0.0710225108103117,9.716757073591284,-0.0214843682173015,0.0044798894914875,-0.0030666034023032,4.569372431371325,-0.8704445231509662,1.2080858366990523,1130.419047407231,1119.3359089576022,1135.5308278175448,1122.354776525748,-618.136794289389,-164.70300988908443,-239.53299852783456,446.6767322203036,152.25313455177212
1.93,-0.5710747087270333,0.5308421251156903,-0.4836486697541766,-0.0108603024012556,0.0437572875773523,0.0131740144024033,-0.007283395509177,0.0016952569591888,0.0002675336980083,-0.9999715286717964,0.0758071838694819,0.0684704512369942,9.709539463262743,-0.0214431064284889,0.0044313727503735,-0.0033244779609113,4.569317687065249,-0.8704289872195405,1.208075278120243,1129.0307072033124,1118.855527632831,1134.8704077891439,1123.393381910938,-457.28799143165674,-204.33577782100184,-292.02846018405813,368.1214255764559,152.25332656924417
1.9325,-0.2971178949044388,0.3472893164185062,-0.4549550038432291,-0.0117178534002824,0.0453124766494079,0.0110711123924703,-0.0072906749894636,0.0016542205651871,0.0002834919845219,-0.9999715312584432,0.0721801769797535,0.066241930410652,9.702692539953702,-0.021410822435364,0.0043647880796343,-0.0036056778516111,4.569265062797771,-0.8704133832297842,1.2080658741131132,1128.1326074500723,1118.3142300684972,1134.0706855166245,1124.1953836536304,-263.62500252347974,-224.31101065857936,-383.1096027965398,306.77104817959133,152.25352916114463
1.935,-0.0108119585687158,0.0782947572422893,-0.3256156304738945,-0.0104085999457132,0.0469327510723404,0.0080809291298489,-0.0073046150070552,0.0016096528143835,0.0003093402105198,-0.9999714925000917,0.0686084616612549,0.064313885295331,9.696304662582216,-0.0213891760391922,0.0042818404700536,-0.0039099986771003,4.569215421121092,-0.8703974190147651,1.2080576184364484,1127.712582190695,1117.733972579538,1132.9548597751611,1124.927237151836,-42.500039353763896,-183.6975511754684,-431.89313414819486,246.77266835188288,152.25377863437265
1.9375,0.1479261389385553,-0.1701573191862489,-0.1529554963698472,-0.0083582464165868,0.0475315298369671,0.0062541766495142,-0.0073201336489285,0.0015607069444218,0.0003388476632401,-0.9999714467581416,0.0651123226805132,0.062630388949229,9.690460444044275,-0.0213794240346603,0.0041851179523388,-0.0042372100242735,4.569168310996751,-0.8703820692293461,1.2080496657111874,1127.9201072533035,1117.3957423126199,1131.9112198458836,1125.4292469953898,183.93658750251623,-89.70808583626612,-430.767604324874,201.77562450012803,152.25398773168664
1.94,0.198968863197631,-0.4116858941554146,0.0468160790130821,-0.0064678196768766,0.0467945120092364,0.0060392928738009,-0.0073349390414983,0.0015062812476264,0.0003649100085828,-0.9999714141306992,0.0617065687723718,0.0611815404363581,9.685238669866804,-0.0213820523907081,0.0040779549724553,-0.0045868918443841,4.569121952546108,-0.8703684342893656,1.2080410416408995,1128.6322651282076,1117.2854321503567,1130.8010217535368,1125.9361152743368,390.5540248466787,15.90534239267035,-483.26372386694646,243.66455414601097,152.25419339595743
1.9425,0.1421940525585421,-0.6495502529128209,0.2573943769651717,-0.0050172165153142,0.0441763231088217,0.0076684534807174,-0.0073456912743156,0.0014442737634505,0.0003808600731566,-0.999971429131136,0.0583850990608375,0.0599279073883724,9.68071213112684,-0.0213965374985574,0.0039642770080659,-0.0049583191166223,4.569075165798065,-0.8703564322318099,1.2080320088808982,1129.8728773775372,1117.4752690245832,1129.4949012265488,1126.64756976612,478.44489402331226,129.5291115702609,-455.91237656834744,282.67112653569967,152.25443105623629
1.945,0.0170755992480734,-0.77894396633793,0.3707302344726091,-0.0046553872029925,0.0408102193863315,0.0099425658281205,-0.0073425783783208,0.0013731607543906,0.0003887247709117,-0.9999715683017272,0.0551496977395574,0.0586950496072468,9.6769474939048,-0.0214213920276353,0.0038481045764359,-0.0053502858114556,4.5690265528210965,-0.8703461389287018,1.2080224052916149,1131.024489598324,1117.933077708208,1128.521459870695,1127.3494709070153,429.206402449845,251.07325874842525,-343.90368797881644,297.8585589466611,152.2546179085462
1.9475,-0.1565361869850308,-0.8281150471166125,0.395637514588776,-0.0048750818518749,0.0371738070100927,0.0120605526903363,-0.0073226273754807,0.0013000075560021,0.000392118928688,-0.999971838620838,0.0521648048777848,0.0574306945801996,9.674000151459207,-0.0214543561667455,0.0037335034236543,-0.0057608010943632,4.56897564986547,-0.8703382880552649,1.2080122512484583,1132.0189093897864,1118.7306353183253,1127.7753827866547,1128.1368625608532,330.65881505422817,377.6130623824509,-249.0202398779328,320.1798913617563,152.25478931793543
