t,ang_acc_x,ang_acc_y,ang_acc_z,a_vel_x,a_vel_y,a_vel_z,quat_x,quat_y,quat_z,quat_w,acc_x,acc_y,acc_z,l_vel_x,l_vel_y,l_vel_z,pos_x,pos_y,pos_z,mot_1,mot_2,mot_3,mot_4,dmot_1,dmot_2,dmot_3,dmot_4,vbat
34.0925,-1.8736822149688517,0.2576549924641644,-0.1463203363346085,-0.064167675778204,-0.1501636872394186,-0.0503266152174977,0.0248838933999798,-0.0009091615015982,0.232421433849173,0.972296164711471,0.0430733699504943,0.0015234884078844,9.856281805987328,0.1221251332123746,-0.0055743483553502,-0.0058365089711646,4.561745187767587,-0.9812915815563764,1.7004132859897167,1136.02803809887,1138.459155463261,1149.1087018093383,1144.1135178417119,36.57103546560081,-39.74211460439596,349.84095761660666,815.2649800054089,154.07477093690434
34.095,-1.9042279666588449,0.2358497375909495,-0.0520271683884515,-0.0689267277422709,-0.148765641811695,-0.0504588205256195,0.0248773679721673,-0.0011265766108825,0.2323671226306159,0.972309089670236,0.0447823139333547,0.0007630596997053,9.854998773661352,0.1221029592678361,-0.0066225481296203,-0.0057076753490672,4.562022297098291,-0.981170844914106,1.7004069448776071,1136.2190005018508,1138.078673431946,1149.951076100328,1145.878440163236,107.1968384116096,-254.3098609603539,346.27209381415486,610.3679337649796,154.07436912453474
34.097500000000004,-1.8689882023250537,0.2152437579538489,0.0357248053865073,-0.0742200569314399,-0.1478126481892681,-0.0505151015716971,0.0248594862453509,-0.0013363739843027,0.2323142050657233,0.9723219167098528,0.0463385641153953,0.0003050028155671,9.853515725801556,0.1220789495312236,-0.0076640890452697,-0.0055889165853594,4.562301415739509,-0.9810542149527404,1.700401251604238,1136.5640222909285,1137.1876061584585,1150.84006227841,1147.1653575105383,171.70223640687564,-486.11379280021225,380.8756715847137,413.94895301502146,154.07394147012536
34.1,-1.7482326208093937,0.2205998397378734,0.1301393518567853,-0.0805893897234342,-0.1472880371068606,-0.0505143499272075,0.0248322137307004,-0.0015441463860496,0.2322654914610652,0.972333915666768,0.0478441133036741,0.0001541757010058,9.851873186691783,0.1220527849577157,-0.0086970477659696,-0.0054829298129914,4.562581986139673,-0.9809408376572238,1.7003952351071707,1137.0775116838856,1135.6481044679435,1151.8554544582523,1147.9481849283122,192.6369951529456,-619.5210603808569,344.7887085475893,152.47677054531093,154.07339252095267
34.1025,-1.593001819977058,0.2736141428339572,0.1955336276475074,-0.0851369964839473,-0.1473639447766726,-0.0504121061763864,0.0247980477091993,-0.0017548028854179,0.2322217550724199,0.9723448318394796,0.0493897675053073,0.0003216375493028,9.85011527046315,0.1220235992068016,-0.0097197689510738,-0.0053915049195374,4.562864161972368,-0.9808299186170536,1.700388673017721,1137.5272072666924,1134.090000856557,1152.5640058211463,1147.9277413632642,168.4868805992257,-649.7780757368078,233.1384139707724,-132.22719218945315,154.07290075533228
34.105000000000004,-1.406720052184889,0.3987150157283833,0.2379948028525172,-0.0884359652037071,-0.147742429985356,-0.0500822749368063,0.0247647369283474,-0.0019718259012191,0.2321786164493198,0.9723555098467248,0.0510640247976045,0.0009199616689247,9.848287420487502,0.1219901103069666,-0.0107302311401168,-0.0053156195859223,4.563148979688991,-0.9807194544982906,1.7003813799369265,1137.919946086882,1132.399214089258,1153.021146528107,1147.2870489673646,133.74369608366104,-675.5414517496047,129.22815390714032,-332.6964710297151,154.07236810923663
34.1075,-1.2160301160956009,0.5885269550150664,0.2514780092296096,-0.09084751992395,-0.1482700736540167,-0.0494330212793068,0.0247397365513731,-0.0021948915763129,0.2321319125766344,0.9723667586522816,0.052880541991128,0.0020682332164627,9.846436568471292,0.1219507920569228,-0.0117272692698663,-0.0052547196586461,4.563436659007242,-0.9806082009785708,1.7003737658721547,1138.195925747111,1130.7122935978073,1153.2101465906824,1146.2642590081148,63.21209191343152,-648.7489930533673,5.68391471402327,-458.2943703696022,154.0717979821819
34.11,-1.0380838745673415,0.8402390136499842,0.2170713951796267,-0.0925939914690997,-0.148198879819909,-0.0482609176168975,0.0247242328435428,-0.0024242711214084,0.232082022204637,0.9723784626142248,0.0548337997726543,0.0037579530323454,9.844609926896576,0.1219041035056506,-0.0127113995881358,-0.0052076965512516,4.563726661639116,-0.9804959272677298,1.7003657362493247,1138.236006546449,1129.155469123994,1153.049566101677,1144.9955771155187,-59.969116309966886,-629.4397044418288,-143.879090585864,-555.3792165167173,154.07117883769976
34.1125,-0.8458061352842604,1.1602925416826433,0.1109889400611301,-0.0945207021277246,-0.1459078065692072,-0.0466267645758663,0.0247174365267135,-0.0026552229349583,0.2320317969726077,0.9723899807071807,0.0568120281526963,0.0059622130435192,9.842854315498013,0.121848969674983,-0.0136840089587797,-0.0051718456986922,4.564018281430188,-0.9803828709054204,1.7003567169974392,1137.8960801655614,1127.5650950756008,1152.490751137754,1143.4873629255335,-200.29384103503372,-526.5818311000692,-250.017171050294,-509.5016582402089,154.0703749155813
34.115,-0.6967679907173298,1.3876880720551419,-0.0269897305262807,-0.096338732674605,-0.1418418054299687,-0.0458707486436974,0.0247160222580925,-0.0028813673824677,0.2319836943442325,0.9724008399488774,0.0586600179837096,0.0086105688965422,9.841214527891994,0.1217851479051932,-0.0146462909265393,-0.0051438597985497,4.564310613838141,-0.9802705954390176,1.7003463333559707,1137.2345373412732,1126.5225599684925,1151.7994802464248,1142.4480688243164,-343.0862336969376,-359.44644768528434,-295.13651929563275,-329.6851207053483,154.06965154078364
34.1175,-0.5457108534466305,1.514370148900967,-0.1975379998079482,-0.0982570651724171,-0.1363011985428745,-0.0461736888919448,0.0247165310806529,-0.0030945726169985,0.2319410947385828,0.9724103603160054,0.0601871326395801,0.0116358765489792,9.839732112655565,0.1217133584792441,-0.0155993254656951,-0.0051200780041745,4.5646030115946425,-0.9801609840984636,1.7003355000391782,1136.1806489970759,1125.7678628371737,1151.015068541275,1141.838937322006,-533.5523388170109,-282.7119242935466,-330.22401230298806,-138.09620043429103,154.06887010008293
34.12,-0.3504444115747898,1.5133714414343855,-0.4113319056753151,-0.0999351135121232,-0.1292409867174588,-0.0472848561217388,0.0247072541139473,-0.0032853559527376,0.2319078466849449,0.9724179583093164,0.061137779548285,0.0148173862439391,9.838446486916313,0.1216352607818424,-0.0165437742070186,-0.0050965392227581,4.564894518345801,-0.9800557616286806,1.7003247956254492,1134.5667756471908,1125.109000347026,1150.1483601849116,1141.7575878221455,-622.3063754700433,-218.5281289964924,-281.91934294572224,85.05777244008837,154.0678629458741
34.1225,-0.173055019267265,1.3890003237226385,-0.5778595221037764,-0.1005900454012139,-0.1240366175124475,-0.0485156702662279,0.0246873330312717,-0.0034513789488058,0.2318787915196346,0.9724248859437256,0.0614438667276527,0.0181089661918608,9.837388036941581,0.1215533692546315,-0.0174778167064753,-0.0050716687946229,4.565183855878567,-0.9799555378353738,1.7003137156907944,1133.069117119724,1124.6752221921906,1149.6054718265457,1142.2642261842068,-589.730310937892,-168.70019260632495,-159.64185594953975,308.4914016448024,154.06696462321338
34.125,0.0202977964121369,1.1747263426131407,-0.7116741608528296,-0.1006632355151474,-0.1202467913983342,-0.0500348169093164,0.024659171302937,-0.0035956207838744,0.2318494429625236,0.9724321333347348,0.0611521372718891,0.0215009328090211,9.836579683061972,0.1214703121973628,-0.0183996428785228,-0.0050455464529147,4.565470383119504,-0.9798604484435948,1.7003021170975627,1131.6181240924996,1124.265499383994,1149.3501509051634,1143.3000448303703,-542.2304144944903,-167.18519986572315,-45.999506618496525,477.41175754620366,154.06600441276535
34.1275,0.2278453064687059,0.930818035471888,-0.803191004435086,-0.1003951059050989,-0.1177361856030096,-0.0519305698559352,0.0246291839760009,-0.0037279738104272,0.2318155944430813,0.9724404992869,0.0604588241184535,0.0250272376665937,9.836035940093272,0.121388186200824,-0.0193075185071046,-0.005020326237023,4.565755049883505,-0.9797688270835184,1.7002912206940983,1130.357965047254,1123.8392961928628,1149.3754742934534,1144.6512849719356,-429.4783336929035,-172.67578227406636,79.6607502630697,574.7474031544486,154.06499313842997
34.13,0.4542355135939109,0.7108261926786718,-0.8259075391881517,-0.0998074159446663,-0.1168064361315124,-0.0544340564493453,0.024601446785256,-0.0038576901514306,0.2317717710401351,0.9724511496832672,0.0595375923224807,0.02867871408275,9.835766043254834,0.1213081558666079,-0.0201993742474075,-0.0049982251615304,4.566039931917393,-0.9796794831360436,1.70028169871741,1129.470732424034,1123.4021204726232,1149.7484546564788,1146.173781846144,-285.1503629021314,-182.48474552555973,236.55177939296385,651.3789749676413,154.06392151036192
34.1325,0.7470834690428682,0.5397709416534368,-0.7575252978928606,-0.0986745668271176,-0.117182993998115,-0.0579834127869354,0.0245745902399101,-0.0039907393489323,0.2317143316721892,0.9724649632267716,0.0584753419767996,0.0323555702133637,9.835775158749508,0.1212300848490795,-0.0210735327019912,-0.0049806740696857,4.5663266546957955,-0.9795917878222054,1.7002741167714774,1128.9322132327427,1122.9268724652345,1150.5582331904188,1147.9081798467755,-110.83293545781164,-153.5645044606131,344.3012066516933,583.5191324597267,154.06256852830177
34.135,1.0030215254509052,0.5021468961063918,-0.6204866558569946,-0.0971243456184824,-0.1179194950942374,-0.060782843519283,0.0245517685570847,-0.0041370813364021,0.2316457308690274,0.9724812330029952,0.0574573776150011,0.0360249507795164,9.836059755197905,0.121152250590404,-0.0219298792130297,-0.0049700091297865,4.56661622590322,-0.9795048976143308,1.7002685774339583,1128.9165677467456,1122.6342979503208,1151.469960689736,1149.09137750844,65.87497426372734,-81.23648783121487,390.5374340812434,390.5703142661698,154.06138803294135
34.1375,1.2559073413713624,0.5740555978438381,-0.4183431326640026,-0.0947074626036817,-0.1181581044664422,-0.0624608779166998,0.0245345094501444,-0.004303974814215,0.2315740297108963,0.9724979689828152,0.0566131465018781,0.03963440584214,9.836610196716823,0.1210716591163359,-0.022769625284829,-0.00496743414124,4.566909168595333,-0.9794189663518184,1.7002643532712987,1129.2615881040615,1122.5206900260782,1152.510920360826,1149.8610314181071,199.0799028223028,3.5479993882727325,453.76637777116656,236.44585261815064,154.06015691482827
34.14,1.5291459702878845,0.7504093727010753,-0.1380222654299183,-0.0908523113399157,-0.1171514733988236,-0.0630424287619501,0.0245232350504947,-0.0044929581809183,0.231507037004507,0.9725132967294218,0.055963648442765,0.0431368630413341,9.837410650282209,0.1209847063046754,-0.0235938448777408,-0.0049720835521194,4.567206003666482,-0.9793346265464348,1.7002607683310231,1129.9119672608576,1122.6520379472622,1153.738792578593,1150.2736067715311,246.49424652284003,97.50000710109589,420.6462436778753,77.1350612718626,154.05862742873447
34.1425,1.7090410385941333,0.9296745847515095,0.0978925175910172,-0.0868501304591503,-0.1149472519935464,-0.0627871345521038,0.0245180474573046,-0.004701003709312,0.2314519871308116,0.9725255107813146,0.0554479415796435,0.04650114033599,9.838437981234552,0.1208876311483671,-0.0244034971848055,-0.0049811805837305,4.56750666798469,-0.979252153841459,1.700256215439241,1130.4940593366744,1123.0081900615833,1154.6141515792135,1150.2467067244663,205.8038795386294,193.53926607535968,291.94521247312485,-64.62972521800441,154.0573148768485
34.145,1.8125642267622892,1.08733844187392,0.3060417995799566,-0.0820188883563068,-0.1113911762579489,-0.061980642272013,0.0245152730358112,-0.004915893247901,0.231411047226312,0.9725342495264644,0.0548201446261446,0.0496681036657736,9.839663303937607,0.120777248527658,-0.0251984321755774,-0.0049889194843206,4.5678099207103,-0.9791720817756732,1.7002504853596871,1130.9409866585513,1123.6197342776395,1155.1985186409593,1149.9504581454412,137.53164297051865,282.02796977179,170.02198756208995,-146.11772081731743,154.05596990868193
34.1475,1.8371494756603493,1.193816856623949,0.4726469366894554,-0.0769495911172832,-0.1072387844701415,-0.0604347738081813,0.0245090841388977,-0.0051254178843723,0.2313817157886896,0.9725403187616344,0.0538325279207653,0.0525406777731435,9.841049341440929,0.1206511816919095,-0.0259777506410774,-0.0049889189218427,4.568114089769268,-0.9790951299320592,1.7002430421559098,1131.1817175515275,1124.4183299104427,1155.4642615170244,1149.5161181203791,39.207035268636176,353.3284177106028,18.6391144187552,-193.8408491299868,154.0546030199762
34.15,1.7573414787595512,1.2178369689607702,0.5742251910009007,-0.0724443237122533,-0.1032259584576232,-0.0579342278017737,0.0244986143622544,-0.0053233091640057,0.231361696009773,0.9725443206306206,0.0523799671318451,0.0550938680748501,9.842547266867824,0.1205076463062914,-0.0267413028685462,-0.0049759278666126,4.5684179833621075,-0.979020753200013,1.70023353384153,1131.1370218348943,1125.3863763661907,1155.2917142130527,1148.981253899792,-73.18797221647294,448.15654907360835,-179.73012240909057,-253.2866322522364,154.05321508073803
34.1525,1.5372270171306819,1.149456471556404,0.6207045245879067,-0.0678922597215735,-0.0990072133756341,-0.0547796118913344,0.024477087586993,-0.0055076113179795,0.231347813742119,0.9725471891705784,0.0504189354464149,0.0571753346077993,9.844101018014,0.1203454492378251,-0.0274894315762052,-0.0049456714162323,4.568720683526112,-0.9789491097335146,1.700221166259592,1130.8157776904447,1126.659112655812,1154.5656109049785,1148.2496849591175,-139.77234172923215,474.7712070631068,-345.7110993979364,-285.7517533448929,154.05153137997272
34.155,1.2475512701289064,1.0228414521165183,0.613741321393729,-0.0642660385420393,-0.0959631486016412,-0.052746183164042,0.0244455021629351,-0.0056804556855945,0.2313333198034856,0.9725504873648704,0.048025368432892,0.0587699159529782,9.845644533304963,0.1201638999293028,-0.028222476124952,-0.0048952562483604,4.56902251595658,-0.978878784525184,1.7002057656091762,1130.4381601262476,1127.7602324015077,1153.5631587160624,1147.5524951330667,-137.4286055471543,441.63128516824287,-464.65156971900313,-303.05060293076446,154.0501170826612
34.1575,0.844968943378076,0.8467028041964894,0.594553045645327,-0.0606167570598239,-0.0934545508088736,-0.0516075530244463,0.0244059863926383,-0.0058465415224451,0.2313152675554679,0.9725548325812556,0.0453330180047391,0.0598800018172456,9.847105941089792,0.1199622345860188,-0.0289424582316358,-0.0048231369896798,4.569324883823024,-0.9788083211263164,1.7001892091919184,1130.1286346627098,1128.867269081651,1152.2423530563856,1146.734431944465,-76.66823624686627,485.05504946336,-621.8250258272749,-393.0503614520866,154.0486951734518
34.160000000000004,0.2436651612838255,0.6120495826141502,0.6007796729659278,-0.0570031168402536,-0.0913231837626537,-0.0510837353825048,0.0243616408826029,-0.0060074202615016,0.2312914872492769,0.9725606546345872,0.0424229705397653,0.0605497582458956,9.848411095509656,0.1197398207641019,-0.0296521174131585,-0.0047280593413907,4.569627846180266,-0.9787377416909526,1.7001724581603608,1130.0548189450133,1130.1855076488257,1150.4540335869244,1145.5872433258055,48.73169633185407,478.11020491834006,-661.513288818176,-448.8466369205048,154.04698392486122
34.1625,-0.3264903774768675,0.4240898948466657,0.652732282988343,-0.0555810919115397,-0.0903128677932398,-0.0510164012938396,0.0243172689834256,-0.0061651606464753,0.2312611104481434,0.972568030230564,0.0393960782683861,0.0608630636630294,9.849485297117232,0.119496209138788,-0.0303548153079123,-0.0046101203854539,4.569931170938992,-0.9786675664162484,1.7001559065244267,1130.3722931443692,1131.2578201062443,1148.934786612293,1144.4901987598614,223.2492469586061,411.6116059812717,-580.8921129058316,-465.02707893697783,154.04555602179295
34.165,-0.906737409594756,0.2742640795800357,0.759345943042317,-0.0571184084131083,-0.0899355932108311,-0.0507780337397834,0.0242734220335475,-0.0063215034680412,0.2312263572473007,0.97257640966654,0.0363282131300355,0.0608334746995885,9.850258228158015,0.1192311702593757,-0.0310546880986584,-0.0044706194063575,4.5702346454802125,-0.97859811602291,1.7001404766633492,1131.1710651798053,1132.24356567873,1147.549573022398,1143.2621079311227,398.6535647176204,363.43555205566696,-511.638990452104,-507.7324635467579,154.0441283978898
34.167500000000004,-1.4390927003586824,0.1744543847596697,0.8975510390056876,-0.0615133725381407,-0.0899124203799497,-0.049882530633775,0.0242340016797736,-0.0064754045472718,0.2311887269264645,0.9725853476340524,0.0332574203411285,0.0605611310171533,9.850664993391458,0.1189450205984838,-0.0317555701164863,-0.0043114132015047,4.5705377328472245,-0.9785294162306206,1.7001264268771314,1132.3655609679583,1133.0749978665235,1146.3765916600312,1141.9515364421263,553.6626347640217,269.50723050172047,-402.5081845406235,-533.0428769083939,154.0427024492545
34.17,-1.8583272780956048,0.1498594452897253,1.0380282208445883,-0.0680781678613299,-0.0901109517459073,-0.0476193805633439,0.0241989411445332,-0.0066229756784181,0.2311502074790519,0.9725944001549977,0.0301480902945538,0.0600920849310097,9.850651136629056,0.1186385867890327,-0.0324610335098854,-0.0041348070686367,4.570839469170584,-0.9784621794914462,1.7001142161412368,1133.9393783536268,1133.5911018312395,1145.5370320996935,1140.5968935465792,733.9282128434969,123.86394560187352,-285.82984297016606,-584.5163636160437,154.0412800879549
34.1725,-2.2018603074029484,0.2156996624015369,1.1531140003760079,-0.0761683187355233,-0.0903473844322418,-0.0433247441679936,0.024167045489541,-0.0067626594015818,0.2311118444038505,0.9726033606209672,0.0270023913130992,0.0594481919563844,9.850173388074195,0.1183131547555837,-0.0331738974189056,-0.0039446528343949,4.571139421768828,-0.978396979906974,1.7001044463977468,1136.0352020321725,1133.6943175945323,1144.9474424451817,1139.0289546240488,759.489269520848,-59.9001667400592,-150.95876734082148,-544.7458773671711,154.03957920775417
34.175000000000004,-2.3656446880325768,0.3476845085973382,1.1698616571894258,-0.0824345140510912,-0.0903404241943523,-0.0390181028224134,0.0241346237381116,-0.0068973943452915,0.2310720934750448,0.9726126692024006,0.023895029792416,0.0585896859493112,9.8492019139397,0.1179703722852812,-0.0338956789293773,-0.0037466674780633,4.57143754480528,-0.9783344745544352,1.7000959593266782,1137.7368247012328,1133.291600997539,1144.7822382629893,1137.873164159742,618.1221672424747,-256.0090472128704,-11.14059007531408,-404.84722509351946,154.03816793409672
34.1775,-2.437351109005365,0.5462920182805051,1.0842113871455323,-0.088164570892545,-0.0898388690029815,-0.0350829360486536,0.0240987279079255,-0.0070284289619564,0.2310292202124845,0.9726228038530738,0.0208683353392546,0.0575039504284391,9.84772198971011,0.1176118877031038,-0.0346270911631285,-0.0035466545177449,4.571734668721695,-0.9782745727902404,1.700089179071748,1139.1258128683864,1132.414272358467,1144.891739494805,1137.00471849858,490.70929268936254,-459.53297633242033,93.52035155806652,-291.6065573500342,154.0367642359988
34.18,-2.4659729373195933,0.8330825170872255,0.8688654521409472,-0.0943550035451352,-0.0882974259792951,-0.0315940864838852,0.024059615834323,-0.0071604945179965,0.2309844000076707,0.9726334444558272,0.0180415507358204,0.0562276473004294,9.845733480487933,0.1172388595563263,-0.0353687921027979,-0.003351523901041,4.572032143895155,-0.9782164650277526,1.7000846732185748,1140.1903711646776,1130.993936115879,1145.2498400207792,1136.4151313729933,272.33234772026873,-541.0364818473599,157.2998148225518,-132.74755976761548,154.03508975594988
34.1825,-2.472358416461366,1.084963886626634,0.612550029076195,-0.0990359892884048,-0.0860011891981744,-0.0297672325783171,0.0240134379658673,-0.0072950408719444,0.2309380091652619,0.9726445854815235,0.0154482357586196,0.054735591528534,9.843254316492146,0.1168522261219917,-0.036120389569748,-0.0031675152725859,4.572330783591537,-0.9781605485362904,1.7000826030551575,1140.4874746069863,1129.7090899492327,1145.678238568917,1136.3409806997427,0.1616660474154824,-480.34330332045994,189.22863805364028,52.09322089974257,154.0337034050203
34.185,-2.4802621963155604,1.3147770254741191,0.3013893964937924,-0.1037940132467552,-0.082614733554143,-0.0288611262622615,0.0239556834553472,-0.0074317727923769,0.2308909810583671,0.9726561190684616,0.0130809776594675,0.0529982430128339,9.84031876454628,0.1164526874789932,-0.0368808356791574,-0.0030002584182278,4.5726311244690185,-0.978107574451776,1.7000826006147811,1140.1911794949146,1128.5922195992755,1146.1959832110479,1136.675597477492,-197.95811400371224,-383.49291357220346,219.6100287322465,188.2730388746896,154.03232734255647
34.1875,-2.4887728971932006,1.5028355058460967,-0.0374136428021277,-0.1090077526003256,-0.0785431706200925,-0.0285640897388753,0.0238835395252044,-0.0075713069185636,0.230847722497274,0.9726670635935752,0.0109523079620925,0.0510135443038305,9.836975291836005,0.1160406298815238,-0.0376492900467012,-0.0028550888920116,4.572933940024098,-0.9780580284309652,1.700083997960088,1139.4976840369675,1127.7916253813707,1146.776288712579,1137.2823458941164,-339.57643290758784,-218.89716853599464,247.70963354821808,285.1031317996195,154.03096063882083
34.19,-2.4826272588554534,1.6214063981491753,-0.3896281697877246,-0.1147213234130303,-0.0741054059022157,-0.0289455405725567,0.023795625440366,-0.0077083743788358,0.2308099321340911,0.9726770877209988,0.0089644018296354,0.048831108706287,9.833285850347346,0.1156168611135694,-0.0384238714526028,-0.0027351996380157,4.5732390460184735,-0.9780127106363732,1.7000872178651711,1138.4932973303783,1127.4977337565963,1147.4345313787878,1138.1011131364887,-471.10448135880233,-10.236991639789485,305.9588309661448,378.3228153129923,154.0296064803494
34.1925,-2.42965291167041,1.6724251452129757,-0.800805023425839,-0.1221051954399247,-0.0688652251547541,-0.0303244805429455,0.0236889334589296,-0.0078404518252994,0.2307786957584445,0.97268602415707,0.0070600115032458,0.0464534970040714,9.82932323613937,0.1151826140542555,-0.0392025600186446,-0.0026435770219695,4.573545341015222,-0.9779718907254908,1.700091907924376,1137.1421616301723,1127.740440423172,1148.3060828674104,1139.1739599706823,-497.2505630065101,168.36224799013078,326.3892112731504,389.6149735872594,154.02799796040176
34.195,-2.3268053421438233,1.6386462699166096,-1.111032501102184,-0.1286127484970688,-0.0646509778775023,-0.0324437201082435,0.0235638408224059,-0.0079664873989288,0.2307552181073088,0.972693584475094,0.0052206217764356,0.0439373283713166,9.825167189855309,0.114739599763702,-0.039983775447341,-0.002582348122054,4.573850898512504,-0.9779348062900536,1.7000981547396399,1136.0070445153444,1128.3395449965476,1149.0664774351544,1140.0491880044262,-445.0764728443074,281.4687871868332,296.36608714390275,331.34764140716595,154.0266729360953
34.1975,-2.147485715986909,1.5308260074057507,-1.3568703207245831,-0.1349827875670472,-0.060748550327249,-0.0357596022339884,0.0234278076278157,-0.0080903387390119,0.2307366274694552,0.9727002348406733,0.0035497876027885,0.0414475182202551,9.82090004291627,0.1142902517113719,-0.0407656809669455,-0.0025533014812801,4.574154053997924,-0.977900857246012,1.7001044394207203,1134.9167792659528,1129.147784359105,1149.7879133031283,1140.8306981777168,-475.54528288931806,352.58513257217754,289.87696781340395,316.40366263302167,154.02536621641912
34.2,-1.845418899182192,1.325605270531824,-1.5439640456731063,-0.1418021968509476,-0.0565815532879105,-0.0408811131239056,0.0232915605964049,-0.0082144655689635,0.2307166134217975,0.972707189984434,0.0021352780929185,0.0392124007831537,9.816605401215613,0.113837493097048,-0.0415463678443897,-0.0025563000297888,4.574454569074131,-0.9778688305200834,1.7001096577813268,1133.6293181008966,1130.1024706594092,1150.515862274222,1141.631206317592,-480.2870808655642,318.3216358447416,236.25468625706807,275.1934414247855,154.0238223829942
34.2025,-1.536170488622332,1.0995312413894327,-1.593480313055606,-0.1462402351768715,-0.0533599055463375,-0.0454692294727416,0.0231609950010099,-0.0083418512046966,0.2306924269928684,0.9727149332145932,0.0010482718870904,0.0373605921116835,9.812366636508136,0.113383834069376,-0.0423253603723209,-0.0025899793955332,4.574753729037944,-0.9778371464909617,1.700114120614139,1132.5153438616237,1130.7393925383294,1150.9691867344145,1142.2066653848415,-467.4749224738821,204.36122103124433,151.92427818051505,228.11606070388564,154.02255854253647
34.205,-1.195461769846497,0.8287350708845079,-1.5266315357598113,-0.1489142814445474,-0.0504403742157743,-0.0497993800667323,0.0230384523255768,-0.0084768292872619,0.2306620908793685,0.9727238420349452,0.0003663367494978,0.0359414408563539,9.808263227248839,0.1129314026723196,-0.0431026965348402,-0.0026520990869127,4.5750521958744494,-0.9778052825533208,1.7001173426942149,1131.2919434885291,1131.1242767645647,1151.275483665124,1142.7717866211103,-511.12493322945056,112.1601656459342,107.26454164095198,244.39497276822524,154.02132137392908
34.2075,-0.8491018613029175,0.53577832050626,-1.3679898357126128,-0.1505379160793116,-0.0482035710231018,-0.0538699843530998,0.0229249741896767,-0.008620442271483,0.2306228786649647,0.9727345342671864,9.644765298223724e-05,0.0349887005468496,9.8043679623176,0.1124820964678681,-0.0438782214872957,-0.0027385604293308,4.575349493984006,-0.9777740328072296,1.7001186148591751,1129.9597191954751,1131.3001933665591,1151.5055094426195,1143.4286402486832,-551.5005834336896,31.524075433146454,86.97163472998098,311.8813418043597,154.02010845150454
34.21,-0.5100413577882458,0.2431351358390252,-1.1135244552390673,-0.151712756136621,-0.0473439318963688,-0.0576036075267101,0.0228186846306297,-0.0087708666367559,0.2305759553864765,0.9727468007985464,0.0001762783289786,0.0344876646741296,9.800745042082205,0.1120371686058073,-0.0446523373536128,-0.002843799414688,4.575645230641936,-0.9777444945227748,1.7001169273506247,1128.5344405713595,1131.2818971417305,1151.710341838774,1144.3311933301331,-625.0361141668918,-31.35971575609925,95.95464440771681,479.02822019325777,154.01892687412095
34.2125,-0.1176320114305436,-0.0683325679582436,-0.730171639892052,-0.1525126938640997,-0.0479791586194242,-0.0612233871165405,0.0227223141646683,-0.0089219445216735,0.2305257853273601,0.972759576750728,0.0004819333141729,0.0345246180059065,9.79744692257836,0.1115971558842707,-0.0454256553003018,-0.0029605548596238,4.57593895349778,-0.977717381606016,1.7001111406745817,1126.8345386246435,1131.143394787779,1151.9852826646577,1145.823781349647,-599.1823052777481,-55.87618165561123,107.46958155194947,617.6905977716183,154.01754733531027
34.215,0.1964016749367081,-0.2717229315756712,-0.3809253022224362,-0.1523206574348043,-0.0493665922274216,-0.0630936191121674,0.0226290323316154,-0.009070195827451,0.2304769881645121,0.972771954524178,0.000899854254632,0.0349837130971443,9.794516029364008,0.1111618910628888,-0.0461980999513714,-0.0030825673717395,4.576230927555633,-0.9776932349969704,1.700101103891783,1125.5385290449692,1131.0025162334523,1152.2476897465342,1147.4196463189928,-468.26595746605255,-53.76537383892333,106.87013155224112,688.1420343355447,154.0164307932315
34.2175,0.4975452001968314,-0.4040636800194989,-0.0535807926438904,-0.1514098457321894,-0.0510547709966785,-0.0631976691740192,0.022534782430212,-0.0092177098971486,0.2304317523639929,0.9727834866893188,0.0014396926131172,0.0357681861602933,9.791981408208596,0.1107304474063381,-0.0469683429489557,-0.0032054237099971,4.576522677907295,-0.9776712785312284,1.700088158031414,1124.493208837312,1130.8745679185843,1152.5196333224192,1149.2644915213268,-382.50743516530974,-60.18040934523941,111.31424794444801,812.3613586256055,154.0153493993808
34.22,0.8464586284886169,-0.4856515261281399,0.2517252819177099,-0.1497044039734963,-0.0528529180485628,-0.0610971635112312,0.0224356300415022,-0.0093639343089454,0.2303886413204624,0.9727946098315976,0.0020673334461459,0.0367859011741039,9.789860970042781,0.1103012041288371,-0.0477335058611953,-0.0033251719233963,4.576816311887345,-0.9776515344328937,1.7000742483999969,1123.6259918691444,1130.7016141867264,1152.804260986256,1151.4814531121172,-248.34752480465824,-79.56878044438349,89.15618343671653,761.0113301471044,154.01409267699114
34.222500000000004,1.127559176009794,-0.5020272339176544,0.4013470037881246,-0.147792591045663,-0.0538794855954831,-0.0581339640981438,0.022330931515575,-0.0095048150479098,0.2303402357198537,0.9728071354660384,0.0027043801812627,0.0380127075060768,9.788161974841156,0.1098722306734399,-0.048488732051332,-0.0034382435887408,4.5771128399486045,-0.9776335230785878,1.7000612155969996,1123.251471213288,1130.476724016362,1152.9654142396028,1153.0695481720643,-83.134331324439,-121.90419088936451,38.514306869436346,522.4674950317932,154.01307935121278
34.225,1.394221182481286,-0.4823013496696343,0.4355066100280317,-0.1454198001426922,-0.0547992322629336,-0.0553041596115378,0.0222226974216149,-0.0096394395082088,0.230283484299684,0.9728217493565456,0.0033506647565154,0.0394511171954225,9.786881822902435,0.1094405716121271,-0.0492296993542593,-0.0035429396905281,4.57741276068529,-0.9776173947222888,1.7000502034027831,1123.210320212522,1130.0920932322792,1152.9968325206032,1154.0937905872775,26.214311104037016,-183.8959813833152,-17.99608636940138,286.1095611477013,154.0121006450775
34.2275,1.6388296917625078,-0.4430887467848446,0.394604499062335,-0.1426438443799947,-0.0560141028710495,-0.0533457660829371,0.0221120548015563,-0.0097668856008474,0.2302181870334686,0.9728384828394678,0.0040088436565371,0.0410771359589504,9.786010931480444,0.1090028554152662,-0.0499524040088214,-0.0036385930503644,4.5777155579713185,-0.9776043489122404,1.7000411973485918,1123.3825427688082,1129.5572441094464,1152.875433807756,1154.5000959778015,96.61564886473175,-239.9000091373319,-99.25977645097569,3.81280536671316,154.0111500583971
34.230000000000004,1.8331685990329756,-0.3919195367055715,0.3093212078525073,-0.1388327917165518,-0.0574780861079631,-0.0527098284641841,0.0220060409851563,-0.0098926086987175,0.2301446420756317,0.972857047914281,0.0048368561153116,0.0429413578587533,9.785531833123517,0.1085558654475558,-0.0506529455619455,-0.0037264381238709,4.578020126877822,-0.9775951636970656,1.7000325853065124,1123.693398456846,1128.892593186592,1152.500533638348,1154.112854614111,132.4913376097588,-295.55529803831973,-242.9209421321169,-329.5074559037081,154.01023261647168
34.2325,1.9666548190622684,-0.3374889913768055,0.2210242485357941,-0.1322497945709018,-0.0586574202728556,-0.0532636912206732,0.0219067250389908,-0.0100208947276814,0.2300668674011134,0.9728764004357744,0.0059537979211847,0.0449973203812979,9.785424309859339,0.1080965477980929,-0.0513284814918443,-0.0038080819647974,4.578326032170927,-0.977589611055034,1.700023966548112,1124.044999456857,1128.079467619254,1151.6608290970948,1152.852558698282,99.96117577802576,-279.33646537551726,-384.09034480058295,-554.4388905799265,154.00916896563047
34.235,1.968439450309202,-0.3172841801669919,0.197518748097927,-0.1255119587659115,-0.0587825789085386,-0.0543352077155313,0.0218123180089186,-0.0101495761282921,0.2299881178352022,0.9728958303402586,0.0073437703223237,0.0471477135004123,9.785667136310142,0.1076226619399694,-0.0519765476247068,-0.0038841799290298,4.578632674126308,-0.977587830500396,1.7000158569436588,1124.1932043357356,1127.4959108597157,1150.5800819143467,1151.340660161214,7.727023938010147,-196.28811682395244,-514.9158856802482,-637.6528568124662,154.00831286383604
34.237500000000004,1.8500844459828345,-0.341755286311025,0.2490651869309606,-0.1193095399516716,-0.0586764357719432,-0.0550880041496686,0.0217212359400529,-0.0102756721536348,0.2299122343221539,0.9729144953801658,0.0089796232222792,0.0492987287536253,9.786237368867136,0.1071326531826936,-0.052595725690652,-0.0039554725127732,4.578939689800304,-0.9775900916212396,1.7000093262536906,1124.0836345765474,1127.0980270351336,1149.0862496686923,1149.664294414218,-113.98944450555597,-128.23751239191358,-737.2990606148371,-704.1728168671888,154.00748720376828
34.24,1.6000626564136748,-0.4280118404033952,0.3940335989861831,-0.1139181167854553,-0.0591174969457909,-0.0549417781024468,0.0216348470241981,-0.0103966667480707,0.2298427165209741,0.9729315648528924,0.0108576446086372,0.0514091910646586,9.787110098913063,0.1066257493460978,-0.0531857666176609,-0.0040227329065033,4.579247207243769,-0.9775953244796256,1.700005067021141,1123.6232571132075,1126.8547232977555,1146.8935866112708,1147.819796076876,-213.33411240685868,-58.1882475278764,-844.2357851583386,-610.4964387603654,154.006530425133
34.2425,1.3382838700442197,-0.5409924204048542,0.567863923222681,-0.111233338316528,-0.060032069713596,-0.0541808117039121,0.021554699453186,-0.0105126956901666,0.2297792229832034,0.972947084870408,0.013024777787397,0.0534304900622769,9.78825918550248,0.1061023552349746,-0.0537470592565275,-0.0040871126181413,4.5795545323893005,-0.9776023416085105,1.7000023803698818,1123.016964014514,1126.8070857974947,1144.8650707429044,1146.611812220419,-260.445772477406,-5.251228216962091,-807.0228503072548,-395.54224733673936,154.005760565583
34.245,1.060053074672394,-0.6824804996628113,0.7690593001522079,-0.1099349929295158,-0.0611053877881318,-0.0528756256428796,0.0214811964611801,-0.0106236914689936,0.2297193771065842,0.9729616111230104,0.0155154317113703,0.0552974373912888,9.789658005291269,0.1055639550876113,-0.0542811072336308,-0.0041492306724102,4.579860311411199,-0.9776097984601456,1.700000419275013,1122.3210282508217,1126.8284671566707,1142.8584723597382,1145.8420848401943,-263.91404985120204,3.6001514909439494,-759.9244191475212,-240.02217872799972,154.0050180186941
34.2475,0.782494777222485,-0.8331428717725822,0.967902577294033,-0.1091790818486706,-0.0621487643873462,-0.0508878006882136,0.0214094106981994,-0.0107334252084723,0.2296611607497528,0.972975691077424,0.0184068494478932,0.0568334742318189,9.791279866201876,0.1050128359218232,-0.0547909027858324,-0.0042101471621964,4.580164222153315,-0.9776162650836812,1.6999980217178503,1121.6973937652574,1126.8250865549492,1141.0654486471649,1145.4117013267785,-194.43850993069705,-24.597829964374036,-624.0923122102222,-112.1071244985041,154.00429698397747
34.25,0.4999861302366846,-0.968594269624674,1.1308740972564488,-0.1083379380565847,-0.063855831523672,-0.0479654387244377,0.0213354590307352,-0.0108460107518165,0.2296039179611186,0.9729895255878444,0.0217787354631485,0.0578905697960866,9.793096288604566,0.104452002763913,-0.055280817239102,-0.0042701666385609,4.580466184319209,-0.9776212732577518,1.6999937906232807,1121.3488357011677,1126.705478006849,1139.7380107986855,1145.2815492177015,-50.0006312462574,-91.27188048995892,-442.97064394758576,-22.775017225851816,154.00360011404527
34.2525,0.127654444238434,-1.0681473678720415,1.2462051016334432,-0.1069020932810765,-0.0675301385415881,-0.0435441851136976,0.0212544354766798,-0.0109608071871056,0.2295500888491202,0.973002661241932,0.0256044434784709,0.058335001003715,9.795077938644216,0.1038850458853652,-0.0557564612263513,-0.0043279465096678,4.580765653518288,-0.97762600357673,1.6999870673995228,1121.4473906090263,1126.3687271525,1138.8505954274287,1145.297826240649,138.46935692015188,-153.09970622057688,-203.36261975597665,12.47366426236384,154.00278900017176
34.255,-0.2321494448728473,-1.06671857117808,1.255880883249108,-0.1057000715782733,-0.0715748593449885,-0.0394895899932779,0.0211652800459825,-0.0110784487941675,0.229502910438237,0.9730143599819971,0.0298862792376974,0.058114378168164,9.797191996670183,0.1033162682404361,-0.056223790785748,-0.0043819078394873,4.581062267977674,-0.9776318002636148,1.699978238936096,1122.0411824857688,1125.9399794757455,1138.7211976999051,1145.343917539013,343.26165029388625,-185.35454057227597,55.650197433050096,8.929101590451843,154.00213159995337
34.2575,-0.6546605835602614,-0.9575615978233876,1.1684816243314804,-0.1053986639010968,-0.0756128654970367,-0.035769502910506,0.0210742244702235,-0.0111996322534733,0.229463437989803,0.9730242349788732,0.0346468707266916,0.0573296288895987,9.799401121588717,0.1027508485866338,-0.0566881890276288,-0.0044300574339566,4.581355598487469,-0.97763992610587,1.6999679083758907,1123.1636988604967,1125.441954449638,1139.1288464145944,1145.3424717486016,591.4426979846136,-204.0883034085292,257.8334474838883,-15.808299419691874,154.00149012081923
34.26,-1.2186316678602256,-0.7116301289384592,0.9626990699733372,-0.1065565084824036,-0.0794806127266743,-0.0322802311594685,0.0209824210846895,-0.0113214327123636,0.2294332229081453,0.9730319293454704,0.0398021808208389,0.0560162098378088,9.801667929091492,0.1021942677590006,-0.0571547816533331,-0.0044701455076639,4.5816453611705406,-0.9776511260491194,1.699957046209138,1124.9983959756892,1124.919537958704,1140.0103649373234,1145.2648760419147,724.1119854082558,-155.3919234304545,349.22486639389126,-36.43430070672321,154.00073437159148
34.2625,-1.7056978557565696,-0.4380098084635228,0.7236324658867245,-0.109013157088303,-0.0814854088382044,-0.0303304648383126,0.0208983883088563,-0.0114415527934653,0.2294120500895995,0.9730373312541528,0.0452987589232437,0.0543620998819368,9.803951008971625,0.1016520802963064,-0.0576280035036802,-0.0044999783503987,4.581931902035604,-0.9776645482667518,1.699947152127622,1126.7842587875396,1124.6649948324855,1140.8749707465647,1145.160300245068,725.0082894048246,-42.73137747920915,332.2253425770788,-40.33773920130199,154.00011271935537
34.265,-2.15526712567298,-0.1404651225100556,0.4360299271295756,-0.1136139028213096,-0.0816220636729665,-0.0292298025964499,0.020822367937577,-0.0115601098015773,0.2293945725365247,0.9730416884133852,0.0510785530876048,0.0524004303547064,9.806209717066173,0.1011298954846596,-0.0581107296617967,-0.0045187812075036,4.582215336769637,-0.9776794751947374,1.6999383831278068,1128.6234374227151,1124.7058810713079,1141.6714916502096,1145.0631873459083,712.6645041941744,72.93845896153738,289.68635849477295,-31.272476861460085,153.99949505584067
34.2675,-2.525072151382169,0.1403291420456261,0.1220987415791176,-0.1201647132163582,-0.0801970130893056,-0.0286621226634389,0.0207486880576684,-0.0116793447988973,0.2293749653251013,0.9730464663528,0.0570849602852258,0.0500549169220228,9.80840403036164,0.1006324869704908,-0.058605133988347,-0.0045268338432223,4.5824962924126,-0.9776955088032416,1.6999297777063391,1130.3475813085074,1125.0296871272928,1142.3234025390373,1145.0039378607607,630.5887510447476,195.21367559917977,224.47567340693575,-12.882037940055628,153.9988777788576
34.27,-2.746932533456404,0.3718786035094723,-0.2097558310469231,-0.1283354127238497,-0.0778274965922121,-0.0286163855197404,0.0206714083700878,-0.0118038865651894,0.2293543400453765,0.9730514737059722,0.0632944850907645,0.0472449618387173,9.810493405320825,0.1001626262628864,-0.0591140691460794,-0.0045250252157755,4.582776457595568,-0.9777125572848748,1.69992061623433,1131.7763811779405,1125.6819494493043,1142.793870017245,1144.998777156208,536.3888896980353,346.12614822099687,184.4581901528693,2.4283216090212902,153.99825854640972
34.2725,-2.804122857136462,0.587067185588971,-0.6100080831630776,-0.1385815036560121,-0.0753655058016297,-0.0292116397764277,0.0205789301655735,-0.0119321150521075,0.2293375301075077,0.9730558354845888,0.0695302331675052,0.0438192482753754,9.812441175420368,0.0997214416218265,-0.0596401723024488,-0.0045133509987917,4.583057388582814,-0.97773152215621,1.6999107152057327,1133.0295257569987,1126.7603178683987,1143.245693489802,1145.0160794688059,378.6139495917984,423.9022760253409,168.95764643451818,-0.1666399929037348,153.99751158810068
34.275,-2.676131066557156,0.7286656749229623,-0.926812991178171,-0.1467764081609237,-0.0740907451282675,-0.030432499942809,0.0204678338317789,-0.0120604929911858,0.2293265759979198,0.973059181752927,0.0756103490517979,0.0397983108260945,9.8142107195619,0.0993091846638765,-0.0601846401002609,-0.0044910672563696,4.583338920604377,-0.9777529850388736,1.6998998999105783,1133.6694509258975,1127.801460829429,1143.6386582494167,1144.9979439562435,180.91011000769709,412.9906364991418,184.6870064282904,-24.884889893370204,153.99688579785587
34.2775,-2.393493267663405,0.8534803742422616,-1.1951829706984176,-0.1539404391737728,-0.0734015901589335,-0.0327236702379785,0.0203369455312088,-0.0121876248580505,0.229323787831487,0.9730610055469368,0.0814014258878941,0.0352409599993872,9.81576734217373,0.0989249151292342,-0.0607479645267517,-0.0044580783044642,4.58362065666068,-0.9777770764504528,1.6998885291789623,1133.934076307038,1128.8252710508955,1144.169128521944,1144.8916550193387,50.06954309939996,402.3243431655589,278.7140235176987,-69.52414928833686,153.9962577405902
34.28,-1.9365050674592,0.9938419104786352,-1.4161043458911955,-0.1602502894699937,-0.0722633530532623,-0.0369624351558669,0.0201882725291097,-0.0123103957513475,0.2293223823474904,0.973062895714953,0.0867532091959779,0.0302776295880101,9.817080220604483,0.0985677592758428,-0.0613281989590815,-0.0044141611077714,4.583902443054991,-0.9778036296801036,1.6998769422991356,1133.919798641395,1129.8130825452579,1145.032228367006,1144.6503232098016,-44.50493050507658,290.8724118185463,351.77301832586795,-100.0230889393606,153.99550446249515
34.2825,-1.5102850417314415,1.09240296355303,-1.4837424760225055,-0.1632778488740726,-0.0700952635376611,-0.0415634400562822,0.0200285552230611,-0.0124310413632772,0.2293124537588303,0.9730670122432302,0.0916430084082304,0.0251064092733622,9.818121301635987,0.0982361288907283,-0.0619223628034753,-0.0043604337140095,4.584184865142415,-0.9778318014801124,1.6998642651807636,1133.7115516545127,1130.279633109987,1145.9279936135715,1144.3915395746424,-109.01253702676392,83.81685249110238,380.60387531999,-96.76674007950673,153.99488033663988
34.285000000000004,-1.0905269544746083,1.145673449478431,-1.4049279437688356,-0.1647244083894165,-0.0664146071528419,-0.0464721203341466,0.0198670562503195,-0.0125520213813935,0.2292858785552984,0.9730750447544712,0.0960697439535332,0.0199718534968235,9.818868585104807,0.0979272460945224,-0.0625274812039558,-0.0042984418369546,4.584469442641679,-0.9778601089704064,1.6998515766712143,1133.3747359562608,1130.2321668077136,1146.9352477436069,1144.1664895094038,-149.62854798774592,-114.3573597438132,407.0007565509705,-65.61778122023779,153.9942649417914
34.2875,-0.6988695489488425,1.1451281207901343,-1.2016122805110234,-0.1657829275333025,-0.0623526272013637,-0.0510839099095519,0.0197131494610749,-0.01267378096224,0.2292355345513051,0.9730884740983536,0.1000025106771676,0.0151270920140368,9.819308672901075,0.0976375232369621,-0.0631403841812841,-0.0042299346044892,4.584756693623891,-0.9778879323532368,1.6998400862029717,1132.9634089145736,1129.7078463112675,1147.9629973963276,1144.0634506685412,-179.73388855428283,-318.5380596327091,400.9360656531962,11.79093126448769,153.9936607289421
34.29,-0.3478207213679869,1.0772966917874902,-0.8668299838041424,-0.1669564665564271,-0.05888327630033,-0.0550218995685813,0.0195703821388557,-0.0127946049396082,0.2291620817205189,0.9731070942289244,0.1033515231829155,0.010718936706083,9.819439256492815,0.0973621178898644,-0.0637589415027379,-0.0041572211709434,4.585046649663084,-0.9779163126814368,1.6998307835443756,1132.47606651349,1128.6394765095515,1148.939928071871,1144.2254441657262,-231.0557880860597,-562.8563877458722,405.5383920752973,156.7574178573175,153.99307444725267
34.292500000000004,0.0278623810127753,0.9354840579809274,-0.3662433764144359,-0.1682793240390314,-0.0556783260845455,-0.0583602900822384,0.019439645320104,-0.0129147706759245,0.2290718001764327,0.9731294051817142,0.1060631162958521,0.0068283474678494,9.81926740144386,0.0970955963138904,-0.0643816051670844,-0.0040836678010462,4.585339279342295,-0.977946645288406,1.6998240395583972,1131.8081299741427,1126.8935643725367,1149.9906893567052,1144.8472377578282,-257.25254430749857,-677.2208156771004,359.1850457147738,307.9158861135755,153.99239689993135
34.295,0.2989592793524053,0.7872448775370354,0.0746064906213976,-0.1686668960804717,-0.0538824013854922,-0.0591129474215161,0.0193159575630847,-0.0130312275053334,0.2289735637771861,0.9731534601219138,0.1080047119733031,0.0034320441661311,9.818812127814455,0.0968327513194162,-0.065006871913456,-0.0040125237628913,4.58563346722439,-0.9779809570320526,1.6998192110311512,1131.189803791952,1125.2533724311643,1150.7358533004456,1145.765023596295,-255.14258453522885,-633.6695202648422,262.66806818713366,446.0194653704966,153.99185742710324
34.2975,0.5091379499897483,0.6316613601963657,0.4562924340789619,-0.1673341763184423,-0.0529641703222765,-0.0569827487677775,0.0191944411337863,-0.0131387846574775,0.2288760612376485,0.9731773844831724,0.1090153164753369,0.0005110881395453,9.818102342581092,0.0965691309609372,-0.065633057286749,-0.003946427843338,4.5859275823523085,-0.9780202701827632,1.6998160100403847,1130.5324170514675,1123.7252167712154,1151.3040296976396,1147.0773350846787,-288.6361815391298,-572.8761754005769,192.83268178082065,645.1217824674469,153.99134781578425
34.300000000000004,0.6665846065781457,0.4529606111333713,0.760911091706105,-0.1640004404153474,-0.0522496971852023,-0.0518779112305304,0.0190746662175624,-0.0132382088938563,0.2287877106285214,0.9731991985237884,0.1090799998170913,-0.0019024924005355,9.817172387213414,0.0963008844850972,-0.0662587141512377,-0.0038885418023373,4.586220394200374,-0.978064111636028,1.699813990249739,1129.7466228842557,1122.38899155416,1151.7000167093504,1148.9906325086336,-279.95207000525846,-362.0346763630517,81.87079209119835,730.2068194182442,153.99077465065017
34.3025,0.7132888061716957,0.3122066079464533,0.8552196062161264,-0.1610667721162502,-0.051473216623215,-0.0471752600338749,0.0189571660629317,-0.0133296944690153,0.2287093698668828,0.9732186882207332,0.1081906056846505,-0.0037622393075844,9.8160640103172,0.0960255518290583,-0.0668815001841893,-0.0038412328753938,4.586511429051601,-0.978111737636556,1.6998119733645072,1129.1326567014407,1121.9150433893992,1151.7133836580958,1150.7283691817715,-230.80942556755943,-25.80089208479494,-78.23974773062058,682.7859711307908,153.99033145520937
34.305,0.6881760205109355,0.1743357170581646,0.7932788600602431,-0.1590380771258581,-0.05058860677648,-0.0438099916523529,0.0188408663019054,-0.0134164046597173,0.2286400793514474,0.9732360588012434,0.1064006938476526,-0.0050721736448711,9.81482434365636,0.0957409120794349,-0.067499540404162,-0.0038069491836492,4.586800820574773,-0.9781618074358132,1.69980912689672,1128.592575756419,1122.259987093736,1151.3088179706976,1152.4045623642846,-203.45732223427464,273.67149693738946,-238.64871859935977,625.3937435638594,153.98992655731428
34.3075,0.6263178709293834,0.0353454007722357,0.6360778718900989,-0.1578062828805115,-0.0500151648233619,-0.0419786226366642,0.0187285521936545,-0.0135070139210506,0.2285800264169116,0.973251093574099,0.103897827350904,-0.0057932496925725,9.813502345682775,0.0954442390769364,-0.068112118292923,-0.0037883248943853,4.587090180560878,-0.978212366843922,1.6998059744657543,1128.1153700902703,1123.2834008740847,1150.5201400651,1153.8553378995882,-181.5095003665628,542.2831080228616,-404.05768283810414,485.10201946762857,153.989555025012
34.31,0.5477290154351592,-0.1046213885626125,0.4169458412988775,-0.1572853393928232,-0.0500354525459327,-0.0415893026320341,0.0186203899667052,-0.0136057739498261,0.228527104216515,0.973264224818098,0.1007848479353219,-0.0059218735358149,9.812151946632154,0.0951327865608267,-0.068718843017436,-0.0037866885787648,4.587380246091612,-0.9782620158412318,1.6998024869461312,1127.6850282545856,1124.9714026338515,1149.288529556506,1154.830072461624,-190.3693935839264,825.9335043431158,-618.2148914281718,276.0867895507951,153.98922531419123
34.3125,0.4567769510289521,-0.269554785806606,0.141922082439726,-0.156997782827016,-0.0503666060005781,-0.0417544556911101,0.0185130594900066,-0.0137154532089762,0.2284818717493133,0.9732753462745254,0.0971308421684564,-0.0055194686136944,9.810829348507516,0.0948032244942659,-0.0693203836790821,-0.0038028502436628,4.5876714713406255,-0.9783098153623682,1.6997988147591203,1127.16352312235,1127.4130683958026,1147.4290656079577,1155.235771847343,-199.15279501365072,901.8184134327856,-711.6160619126382,3.0623009349283734,153.98887960764873
34.315,0.3870751258540548,-0.3996328210504723,-0.0658051505318946,-0.1565597084806645,-0.0507264382854625,-0.0421480713727988,0.018407612735035,-0.0138373347583923,0.2284464873529921,0.973283912751758,0.0930059776846431,-0.0045620121852597,9.809589523588855,0.0944521031466863,-0.0699179434891482,-0.0038364580131771,4.587963851249728,-0.978355952518162,1.6997954679775316,1126.6892642795183,1129.4804947010116,1145.730449246946,1154.8453839662986,-198.5113356229143,761.0783183605889,-657.603103378442,-307.96185360898266,153.98863398157934
34.3175,0.3144633227587986,-0.5112212015001109,-0.225076159706593,-0.1556642880516399,-0.051470321787131,-0.0431870565162495,0.0183037300631224,-0.0139696521880651,0.22842147402271,0.9732898319015528,0.0884256176387301,-0.0030428658155153,9.8084859735858,0.0940767154873129,-0.0705122124245932,-0.0038862061930457,4.588256557597034,-0.9784021966000088,1.6997922778393784,1126.170966444235,1131.2184599876075,1144.1410500910636,1153.6959625792972,-225.8744480575596,624.9912292080339,-609.8263519008533,-651.7826350733989,153.9884330506116
34.32,0.2077205480100149,-0.6029181851225849,-0.3427462346926777,-0.154274043873163,-0.0531918328759334,-0.0450833294477362,0.0182029168888765,-0.0141108664432677,0.2284087264880315,0.9732926532909252,0.0834257848100563,-0.0009269301881047,9.807567162326874,0.0936749186472099,-0.0711036897162385,-0.0039502069716401,4.588548898910468,-0.9784495995943528,1.6997894749429407,1125.55989203923,1132.6054508470531,1142.6813174874403,1151.58647079093,-206.32953757736357,368.1587008656772,-423.290314794461,-855.7553908332973,153.98824384165715
34.3225,0.0948157681895259,-0.6270447203685235,-0.3780980935751277,-0.1530972213541519,-0.0554075848548142,-0.0467404390280043,0.0181071555280642,-0.0142580249490809,0.2284095210422266,0.9732920843428668,0.0780250519629228,0.0018302332934794,9.80687557222612,0.0932455460685883,-0.0716921258503099,-0.0040257168422772,4.588840037538037,-0.9784989366655747,1.6997869508583199,1125.1393187563492,1133.0592534919342,1142.0245985170934,1149.4171856251346,-128.42993628157978,37.45545406575632,-126.24654087879117,-891.3527455216341,153.9881292781938
34.325,-0.0406881400851251,-0.5836033168342196,-0.3608228641167676,-0.1522816780928851,-0.0581023358237909,-0.0479517425452388,0.0180134265570218,-0.0144075697484364,0.2284178630323341,0.9732896393187264,0.0722152651457122,0.0051728948968769,9.80644702493945,0.0927893319750373,-0.0722751548534392,-0.0041098256139721,4.58912907396049,-0.978551429919311,1.699783878193042,1124.9177423578217,1132.7927281173822,1142.050084783046,1147.1297070633195,-43.11402313376288,-204.42703667302797,115.94412677853576,-883.6753018729296,153.98805893517732
34.3275,-0.1832471305266424,-0.4864282657425642,-0.3166227739261242,-0.152124761781571,-0.0604506063423085,-0.0486450263889613,0.0179173455889666,-0.0145601592330977,0.2284253382357228,0.9732873644473646,0.066067969346479,0.008991701471038,9.806307448105647,0.0923079376456539,-0.0728492936449839,-0.0042001302837838,4.589415481200676,-0.978607858085886,1.6997792045479243,1124.9237486406803,1132.0371183085683,1142.6043191509864,1144.9988091157677,61.715215365540395,-377.7760941809699,315.98594553981087,-756.7995932926867,153.98802472210625
34.33,-0.311316060361692,-0.3444344459435421,-0.2616547061147672,-0.1530081128658506,-0.0613555290598535,-0.0488017774184052,0.0178192440036668,-0.0147136268958599,0.2284226149178503,0.973287476980967,0.0596260510598135,0.0132701853633317,9.806472700660937,0.0918034337812895,-0.0734103623897384,-0.0042927210054059,4.589699744400111,-0.9786678599771504,1.6997732392860376,1125.226318434649,1130.903847646479,1143.6300145107436,1143.3457090968595,189.6842835178116,-526.1242974681445,499.03910905451926,-559.6826774541433,153.98803343409105
34.3325,-0.4180036607129994,-0.156057918184918,-0.2041906916846394,-0.1547070901816399,-0.0605740279456257,-0.048711585362844,0.0177235369700893,-0.0148667099703431,0.2284010305294565,0.973291947959635,0.052971259174372,0.0180550854980973,9.80694701910251,0.0912776370274404,-0.0739539233230496,-0.0043831751722278,4.589982789106183,-0.9787299719327728,1.6997653742905892,1125.8721700582698,1129.4064968212265,1145.0995146962603,1142.2003957284956,263.90469694356534,-534.9658966548751,530.9966764223658,-258.35743253842764,153.98809274477907
34.335,-0.4515018906925609,0.0009029779232136,-0.1703120183865921,-0.15616775481228,-0.0591835999391826,-0.0487485341073184,0.0176275778958405,-0.0150147248968643,0.2283585505269028,0.9733013703477824,0.0460907100337199,0.0232628237349561,9.807726424847376,0.0907309977521763,-0.0744763865992133,-0.0044669482000167,4.590264994507452,-0.97879434148589,1.699755607109992,1126.5458419193676,1128.2290181632031,1146.2849978928568,1142.0539219341667,267.24218786500137,-428.9007501356344,418.2707596655002,106.00353895284206,153.98818236749244
34.3375,-0.4162924881467329,0.1642323966167726,-0.1502549674521477,-0.1576095724831456,-0.0583846207767109,-0.0490221742282243,0.017530102694962,-0.0151565425672052,0.2282986159683348,0.9733149732571534,0.039048220660393,0.0288095375560842,9.80879560126642,0.0901625388665105,-0.0749748760053478,-0.0045402612131723,4.590546940195284,-0.9788614304781114,1.6997445806751115,1127.2083809975936,1127.2619930705503,1147.1908684945859,1142.7304134232593,257.17132451568915,-368.7914777563879,301.87052271719966,448.45697208361133,153.98831315050967
34.34,-0.2904911053465488,0.3978966431077511,-0.1356824167581384,-0.1592555143033843,-0.0586444703030045,-0.0494106712535742,0.0174320037157872,-0.0152949911049688,0.2282243600192068,0.9733319607276308,0.0319960626767067,0.0346237566663359,9.810128708455418,0.0895706777619643,-0.0754462488289466,-0.0046003274302015,4.590829615337377,-0.978931219716922,1.6997319469019947,1127.8316985419467,1126.3850607744205,1147.7943505064436,1144.296206794586,185.09868249643284,-282.8862664053221,137.28995966205073,653.756503214465,153.98851708819137
34.3425,-0.1195308724093521,0.6439461030310198,-0.1258044599969165,-0.1603087841278494,-0.0594384718530932,-0.049693754486929,0.0173344420398668,-0.0154264723643984,0.2281382983321552,0.97335177803254,0.0249678586784451,0.0406572423370806,9.811693137246126,0.0889534675568931,-0.075887198762681,-0.0046435634872702,4.59111349315201,-0.9790030721563248,1.6997181177769087,1128.1338744100763,1125.8475617385227,1147.8773182928965,1145.9991959393333,70.54586217315823,-198.7600413601729,-35.548223601822926,701.8063493674633,153.9887258161431
34.345,0.1070974591043702,0.9424020787248412,-0.1111592164379156,-0.1605751165995349,-0.0596931178248986,-0.0499115562529181,0.0172388455501094,-0.0155493782000992,0.2280449650978944,0.9733733638714452,0.0180386731222944,0.046848584899891,9.813449340380563,0.0883082801759264,-0.0762949493217029,-0.0046675346443665,4.59139868213274,-0.9790758069894352,1.6997036208747924,1128.184427852812,1125.3912605676203,1147.6166093884347,1147.80523854142,-17.0125967253993,-193.17954322004087,-136.47622616438022,697.4431768456341,153.98897436023947
34.347500000000004,0.3649471034682312,1.2571738134671384,-0.0866637544616521,-0.1599801488491364,-0.058177795960339,-0.0500929387811176,0.0171435581437238,-0.0156635185963309,0.2279468605176439,0.9733961704403792,0.0112984760969416,0.0530625596940447,9.815353916305224,0.0876327469614942,-0.0766666099948503,-0.0046713551507699,4.591685266613209,-0.9791497477465498,1.6996887793746107,1128.0488114264492,1124.8816640224222,1147.1949371620742,1149.4864118235632,-86.510378535287,-245.55428926652155,-175.7269129486314,605.1890786646342,153.98925549151264
34.35,0.6408310746769483,1.5343413585202217,-0.0422272184914282,-0.1585147197760782,-0.0537114336552259,-0.0502636240732773,0.0170405466064971,-0.0157681643483842,0.227846760770456,0.9734197082519384,0.0047986012716682,0.0590380891337835,9.817363123033443,0.0869247799209733,-0.0769996717023068,-0.0046557351111843,4.591972860896975,-0.9792258166811496,1.6996736844241205,1127.7518759601355,1124.1634891212873,1146.737974823691,1150.8311839347448,-146.41201545414006,-388.50768422497686,-180.00347447871718,486.7995153407599,153.98957508586477
34.3525,0.9705982475227686,1.7524088962025979,0.0448534122792789,-0.1561676687165384,-0.0460862691486933,-0.050482120654785,0.0169303579883576,-0.0158637628562171,0.2277512660681657,0.973442419332278,-0.0013501021482703,0.0646696890336314,9.819430601852623,0.0861822984899619,-0.0772929042817706,-0.0046217232959364,4.592261180228808,-0.9793044401692432,1.6996593441338137,1127.3167513491792,1122.939125601299,1146.2949197896814,1151.9204094002648,-155.00972083679045,-510.3630623771669,-137.27064932215652,306.15673115514966,153.9900015485487
34.355000000000004,1.2300441635284727,1.811965237883587,0.1519636026210072,-0.1537917982024244,-0.0394878747267711,-0.0506624934608301,0.0168154708810325,-0.0159479344706027,0.2276654587715351,0.9734631133354598,-0.0070855964713988,0.06990026466929,9.821511475903362,0.0854043619318069,-0.0775455799572527,-0.0045705854497893,4.592549475851708,-0.9793866897630474,1.699646506035553,1126.9768273559512,1121.6116738094,1146.05162157708,1152.361967590521,-109.260268845163,-571.8342384729825,-77.22909365289212,85.87697338457627,153.990391299411
34.3575,1.4548045803124912,1.753309466442163,0.297640747529936,-0.1508960165137121,-0.0339521370507361,-0.0507608942671213,0.0167041296657946,-0.0160223950788884,0.2275889641435486,0.9734817089214938,-0.0122477730217641,0.0747657481401948,9.823562122103203,0.0845918626112525,-0.0777571470627314,-0.0045046250037197,4.592837202268292,-0.9794720521657104,1.6996361435325311,1126.770450004953,1120.0799544089327,1145.9087743214168,1152.349794267188,-35.519027432324506,-668.4201322145494,-56.39849405666281,-92.8779600509123,153.99081463982873
34.36,1.6565179855385777,1.594546487456266,0.5089129337505728,-0.1468929806591986,-0.0290357951865674,-0.050578983629105,0.0165966786486557,-0.0160911567048791,0.2275215423489727,0.9734981927561666,-0.0166766232508013,0.0791463671597785,9.825546054128093,0.0837467357549723,-0.0779284432270375,-0.0044280011479042,4.593123579588126,-0.9795588664021344,1.6996290072522364,1126.7992322187897,1118.2695731483304,1145.7696291067969,1151.8975777902672,71.1171624407234,-611.3297508238758,-56.77413032701048,-223.08944157227825,153.9913585857458
34.362500000000004,1.7422850781056125,1.43340890327066,0.699010587931042,-0.143143455049997,-0.0260940075992605,-0.0499442582272025,0.016486513637716,-0.0161578661344456,0.2274597705863726,0.9735134218962536,-0.0202617084298021,0.0827994648939144,9.827435054777569,0.0828725648822821,-0.0780612809235906,-0.0043457232734466,4.593407473013957,-0.979646164616194,1.6996243374642799,1127.126035817157,1117.0233056548116,1145.6249036697816,1151.234347059326,202.7943490369452,-388.6759834647194,-68.85087389765546,-305.3217821049004,153.99183938946902
34.365,1.7060326108428172,1.2902831852615875,0.8706492425052507,-0.1384961407982594,-0.023816401813916,-0.0484584788062592,0.0163727232360731,-0.0162262725495389,0.227403627697768,0.9735273575285378,-0.022878960454061,0.0856046268517448,9.829205473987503,0.0819735331286578,-0.0781596193842197,-0.0042618768462691,4.593688698587132,-0.9797343088186538,1.6996216112459106,1127.8132039639747,1116.3261932310058,1145.4253747373084,1150.370968879742,332.8275324413724,-156.42763845781377,-83.71247049193127,-363.4311024753183,153.99234550109435
34.3675,1.5418713422320847,1.187543582370597,0.9943718932181574,-0.1331483878463561,-0.0219238827907988,-0.0460209196441348,0.0162500808724954,-0.0162965936434992,0.2273543759945784,0.9735397892420338,-0.0245074072865407,0.0873914154086172,9.830841379917793,0.0810547558040159,-0.0782289706372749,-0.0041797430961196,4.5939666312436795,-0.9798229373104062,1.6996206763104846,1128.7901734793622,1116.2411674625234,1145.2063413173223,1149.417191546951,446.38347160411865,131.16375121847443,-74.83153761907018,-383.5569043584051,153.99287003428535
34.37,1.2061045445641718,1.1484539608810727,1.0195797719293702,-0.1277886440291188,-0.0202912250159179,-0.0423522542411691,0.0161247069924995,-0.0163671958011793,0.2273088437686195,0.9735513759180981,-0.025129415326278,0.0882332524198792,9.832328734799594,0.080123069704098,-0.0782753655438824,-0.0041001157234928,4.594239851972733,-0.9799115651813148,1.699620841031775,1130.0451213219935,1116.9820119870976,1145.0512170492132,1148.4531843579516,584.3603003744386,509.8296124957535,-21.41910834728874,-401.23413102598926,153.99341368813998
34.3725,0.61801546452878,1.1723275280385044,0.8991584519806197,-0.1224122537689966,-0.0181258312486244,-0.0371224769455418,0.0160037585591845,-0.0164358706439504,0.2272647487594817,0.9735625620529575,-0.0247535007752931,0.0882482520415183,9.833657860753233,0.0791859533328852,-0.0783059247821143,-0.004022517089621,4.594507625906817,-0.9800004729383738,1.6996211061827624,1131.711974981236,1118.7903155250035,1145.0992457755858,1147.41102089182,608.2247931672625,791.330851584057,80.36012401458247,-347.69816216672046,153.99408422940402
34.375,0.0144083311110439,1.234078311945707,0.6699529499228601,-0.1197976988475083,-0.0157625698538485,-0.0331856885442414,0.0158907057766405,-0.01650148372924,0.2272237397291419,0.9735729196734207,-0.0234043681268883,0.0875039476187069,9.834824110203384,0.0782506787428476,-0.0783289711441127,-0.0039459853376986,4.594769729812263,-0.9800895141100664,1.6996203784863815,1133.0862452878312,1120.93866624502,1145.4530176692865,1146.7146935471171,509.90219659471205,946.435238196906,224.990498472539,-231.03985859077605,153.99465529607644
34.3775,-0.624222099490768,1.306509959302844,0.3375233574609778,-0.1203706492605097,-0.0125608406620061,-0.0310852470361039,0.0157831953373124,-0.0165636175662339,0.2271854712434776,0.9735825713992105,-0.0211398059598411,0.0859771506482801,9.835827793554666,0.0773248474533071,-0.0783526692677213,-0.0038693859934526,4.595025906895011,-0.9801784455122128,1.6996170193586235,1134.2614859642072,1123.5224917159835,1146.2241982679475,1146.2558215988672,435.78119267477166,1176.8014197214488,433.8723798675855,-142.34846546848524,153.99523574936947
34.38,-1.3141775447529187,1.3642989476166827,-0.1143037354931234,-0.125248938550017,-0.0076677729303603,-0.0313826016029002,0.0156737821442356,-0.0166233130647435,0.2271472394752439,0.9735922493711416,-0.0180325181178492,0.0835644875341526,9.836673137973309,0.076415995123158,-0.0783845977009716,-0.0037917679964637,4.595276846943785,-0.9802671352374528,1.6996101320781567,1135.2651512512064,1126.82267334363,1147.6223795686255,1146.0029512197743,284.3646374043511,1203.0974048248693,571.39569036838,-45.06575205757567,153.9959392872325
34.3825,-1.7511487885114552,1.365359942032312,-0.4837426666669455,-0.1320100315377929,-0.0031479589993493,-0.0336311291908564,0.0155565303898189,-0.0166845919692814,0.2271082669426548,0.9736021617886468,-0.0141095853291105,0.0802022819922099,9.837365450962496,0.0755304868827472,-0.0784320762158537,-0.0037123189375106,4.595524214457724,-0.980355425523984,1.6995994754918806,1135.6833091512297,1129.5379787401112,1149.0811767197908,1146.0304928385792,76.11008235446762,1043.5732538505758,600.4461452918808,53.33683364220026,153.99652860824662
34.385,-1.9977184015187393,1.3083084513004215,-0.8027433322020142,-0.1396396352194176,0.0004964200632447,-0.0367240665723812,0.0154279563677145,-0.0167492342213268,0.2270681057746812,0.9736124400844888,-0.0094463114075105,0.0759057319147652,9.837911032449572,0.0746735701430806,-0.0785015592262617,-0.0036298641462295,4.59576909766824,-0.980443963267748,1.699585470642944,1135.6457016629784,1132.0405396128783,1150.6246102950822,1146.269635387985,-83.81078500324551,951.2019090697005,588.9165480383497,123.39208833107531,153.9971177746904
34.3875,-2.0907627340535275,1.2075300277693073,-1.0674366802982376,-0.1466169513770934,0.0031055718549663,-0.0396133694594708,0.0152869759055542,-0.0168169423560488,0.2270293379097715,0.9736225072035056,-0.0041604471240243,0.0707652175020388,9.83831762704028,0.073848823476706,-0.0785988144339697,-0.003543457918915,4.5960118822737215,-0.9805335067544988,1.6995701572986839,1135.2642552262132,1134.293988285462,1152.025759459984,1146.647453280235,-219.32762847025208,836.7858477219481,474.74521650709266,175.22458385356134,153.9977042684804
34.39,-2.0434069231133027,1.0598396218262112,-1.2681236333451769,-0.151731007072311,0.0052885337955691,-0.0418908550662251,0.0151377314173456,-0.0168881488524147,0.2269981785703586,0.9736308421066509,0.0016573036508374,0.0649846796404031,9.838594121961425,0.0730579816260485,-0.0787289015368692,-0.0034529175418271,4.596253032950416,-0.9806243066388411,1.699556028817511,1134.5490635206263,1136.2244688514902,1152.998336377619,1147.1457583072531,-367.4212501512261,779.086293294021,279.73513768463795,236.44832871735744,153.99828416215416
34.3925,-1.9015091560406163,0.826577415405288,-1.4366543960027478,-0.155708575428145,0.0082694015747018,-0.0446345518965545,0.0149856932112397,-0.016960495986517,0.2269748792650465,0.9736373394128112,0.007861228611352,0.0588166209753234,9.838753117636765,0.072302498693866,-0.0788946708376364,-0.0033587417501536,4.596492657520329,-0.9807164269042884,1.6995447297235824,1133.4271489754587,1138.1894197519287,1153.424435148406,1147.8296949238206,-438.2737667114757,666.5126584456858,18.76606071486044,259.21504730086247,153.99896756997015
34.395,-1.7595359702224656,0.5820765215241072,-1.5071681280800746,-0.1580703414948229,0.0110467730140979,-0.0480649118813979,0.0148335398043302,-0.0170354460255903,0.2269567046971166,0.9736425675634812,0.0143628537780939,0.0524504345219519,9.838812110888686,0.071583011589988,-0.0790972413351062,-0.0032635153047071,4.596730626844333,-0.9808098038625168,1.6995364048371555,1132.357694687068,1139.5570321437203,1153.0921666811932,1148.4418335437583,-438.87798007426966,491.23794248778154,-261.04033003712465,249.19785216612564,153.99952281965383
34.3975,-1.6195028212118938,0.2922329830736748,-1.484433315598332,-0.1605128307452493,0.0132444564442246,-0.0531047719279677,0.0146856759127261,-0.0171161506548571,0.2269397798556483,0.973647305731352,0.0211140698396836,0.0461047164889473,9.838792589332739,0.0708990814341679,-0.0793362993699475,-0.0031705530963825,4.5969674750725185,-0.9809039704192716,1.6995315962157636,1131.2327590750863,1140.6456094643688,1152.1192334982195,1149.075684184652,-494.2854875546748,402.73919692881714,-524.3265821451809,282.1168962988687,154.00005824590204
34.4,-1.4457951019278508,-0.0766661555274615,-1.3398254597836114,-0.1640403160866852,0.0141753819841113,-0.0593099437473037,0.0145413656968601,-0.0172032003373823,0.2269174526730276,0.973653103416506,0.0279984280796196,0.0399100479116448,9.838722460521328,0.0702495453482401,-0.079609798166694,-0.0030835362620071,4.597203934574873,-0.9809992127676568,1.6995299748394033,1129.886267249297,1141.5707281283624,1150.4705337704695,1149.8524180252512,-487.49715367027943,259.24559302289174,-632.2686268163073,288.44005333502326,154.00067149103884
34.4025,-1.2739432712823648,-0.3667719177778707,-1.1376750047945507,-0.1673942465925188,0.0133624283886244,-0.0633309259723788,0.014400771335299,-0.0172991238250215,0.2268819472571255,0.9736617259526018,0.0349476019625294,0.0340007724641327,9.838633113373092,0.0696323432920433,-0.079914225618291,-0.0030060966254504,4.597441353528017,-0.9810954474631308,1.6995307663609556,1128.7952733067336,1141.941837429484,1148.9578903641363,1150.5178844513275,-427.6849564354592,41.83030170618301,-567.8075271279164,272.8911900702737,154.0011531629744
34.405,-1.0418477428276285,-0.595739670170445,-0.8938540906484616,-0.1709665951307104,0.0110199778323716,-0.0657146236552314,0.0142605372949779,-0.0174036254793017,0.2268315169059493,0.97367363711148,0.0418330102522274,0.0284486305132824,9.838560331614593,0.0690436325129716,-0.0802456464895184,-0.0029411117922198,4.597680806021572,-0.981192723225936,1.6995335115946868,1127.7478424671183,1141.7798796368936,1147.6314961348287,1151.2168739756034,-412.3996612756968,-167.16729297874477,-457.57669046211737,286.83278546803814,154.00159802806235
34.4075,-0.7409015551160647,-0.7504473507175967,-0.6548527141271094,-0.1745027847571959,0.0078736684517163,-0.0667214960772389,0.0141195242419229,-0.0175120465295536,0.2267665784646207,0.9736888446852822,0.0484638303463999,0.0233748752149271,9.838541938393208,0.0684788002169133,-0.0805992669209267,-0.0028894743347814,4.5979224800341525,-0.9812920412023483,1.6995372254666277,1126.733275000357,1141.1060009645907,1146.670006911828,1151.9520483786666,-399.1895073306527,-396.33865679595783,-265.2383262910924,301.30320902692847,154.00200753463153
34.410000000000004,-0.3509462056329942,-0.8076958565328229,-0.4623118381183031,-0.1774794045681405,0.0048118360391221,-0.066349687547904,0.0139807816634507,-0.0176220335106393,0.2266884516191138,0.9737070452379792,0.0547250911497937,0.0189548086705438,9.838614400284847,0.0679330179412877,-0.0809694924691737,-0.0028508003508034,4.598165902294781,-0.9813945276961608,1.6995408140986616,1125.7518949304642,1139.7981863529128,1146.3053045033723,1152.7233900207389,-422.98851185447535,-703.3114230731866,-14.497282321819371,339.8440131572523,154.00236882835273
34.4125,0.1970353140912235,-0.7799423808694671,-0.3110872833821823,-0.1791245590282194,0.0020517830529409,-0.0652258457169312,0.0138394393771391,-0.0177295110473362,0.2266044716027404,0.9737266739688868,0.060447237047877,0.0152016083311424,9.838814521184455,0.0674007246909249,-0.0813509320488808,-0.0028242011731761,4.598410287758118,-0.9815005467238492,1.699543573898664,1124.6183324410836,1137.5894438492232,1146.5975205002187,1153.6512684444535,-404.0805221411156,-887.5865642662462,211.137289990903,331.6773404826851,154.0027399480597
34.415,0.6830513262133756,-0.699372502736644,-0.2453104347665423,-0.1780072570939143,0.0005868488482521,-0.0647243351637403,0.0136950582876012,-0.0178313695707605,0.2265197748583109,0.973746592052245,0.0655133362715566,0.0121880956534694,9.839173905991217,0.066877152636963,-0.0817376821301414,-0.0028073138668615,4.598655016834188,-0.9816093768461056,1.6995446995126424,1123.7314923197605,1135.3602535315856,1147.360990953326,1154.3817767231508,-334.60102576669834,-926.2307744952333,371.01727988778407,272.18353599077716,154.00299266987273
34.417500000000004,1.1460085440767716,-0.5869279050551806,-0.2089011824270772,-0.1746411980644268,-0.0002409953873044,-0.0654031328384139,0.0135449787618721,-0.0179266816672937,0.2264418432902093,0.9737651083002338,0.0698526754121453,0.0099133104809941,9.839718262604164,0.066357637127889,-0.0821242774431396,-0.0027975154036483,4.598899650056688,-0.9817211943453836,1.699544022255675,1122.9453273122492,1132.9582899767447,1148.4526068996588,1155.0121861244083,-291.70612733372394,-952.3242232066552,451.4291783484587,229.15274183826213,154.00318174328896
34.42,1.557045518139576,-0.4625284779628628,-0.16459226413978,-0.1703842258478914,-0.0007939014502308,-0.0667725804576983,0.0133899777015205,-0.0180144730165446,0.2263780944417598,0.9737805035062588,0.0734230145725866,0.0084202972401571,9.840465094832846,0.0658380553495384,-0.0825056433214703,-0.0027910824985334,4.599143590559718,-0.9818359560107356,1.699542132777603,1122.2729616830911,1130.59863241555,1149.6181368450696,1155.5275404323427,-237.76697970864717,-894.2694419097226,436.92765456643144,174.83945147730523,154.00331465640213
34.4225,1.8823398405023513,-0.3303199443348749,-0.0797000810434376,-0.1655962290601715,-0.0012962762437035,-0.0682727257525917,0.0132369238263826,-0.0180975035108812,0.2263298900573452,0.973792315683433,0.0762945226425064,0.0078300872706725,9.84142094300724,0.0653157570808486,-0.0828765305623432,-0.0027837231004836,4.5993858891155615,-0.9819529960042078,1.6995380625772483,1121.756492413707,1128.4869427672,1150.6372451724887,1155.886383381794,-193.0799321262306,-837.8314190543994,364.80458648311,122.6394988640832,154.0033761501994
34.425000000000004,2.16000474288102,-0.1601241476415288,0.0876243173167117,-0.1591493293230248,-0.0020702353122963,-0.0696195548080073,0.013094980813686,-0.0181807670511576,0.2262910283957399,0.9738017700266912,0.0786033264946511,0.0082765795150344,9.842581868239034,0.0647897173341192,-0.0832314532300288,-0.00277107705778,4.599625989406952,-0.9820708555092776,1.6995311827897914,1121.3075620224595,1126.4094753202755,1151.442159777486,1156.1407379266634,-141.41878042893987,-676.6883264828441,201.12821100036567,67.551419916128,154.0033631101352
34.4275,2.2958327966061183,-0.0041104969128207,0.2784255913953959,-0.1532876555768213,-0.0028679986321652,-0.0701174381596993,0.0129690990283996,-0.0182664189982365,0.2262576812811562,0.97380965081198,0.0804239801770116,0.0098065187408135,9.843936151157418,0.0642587328054776,-0.0835659573403185,-0.0027490693117812,4.599864493826812,-0.9821881785022912,1.699521794785791,1121.049398511562,1125.1035011347842,1151.642886227491,1156.224140481375,-87.02513762899528,-440.9646388938117,-30.594840409849525,12.220100443130123,154.00327723727784
34.43,2.3393215854885487,0.1666068769465972,0.5014888519293529,-0.1474793148030831,-0.003554949224989,-0.069747199813241,0.0128549087009409,-0.0183493603380404,0.226225626106798,0.9738170925969866,0.0816609541741641,0.0123024977065562,9.845467229395322,0.0637218375659049,-0.0838760095966904,-0.0027143355752967,4.600102189292879,-0.9823054930186116,1.6995105888388102,1120.872436334315,1124.2046521258087,1151.2891855754367,1156.201838428879,-65.19681620244701,-322.2289347760327,-281.04858389659154,-29.387497770339348,154.00311112769378
34.4325,2.300829206194578,0.3727503105004656,0.7660704946159497,-0.141138848632921,-0.003463494486564,-0.0680571409323373,0.0127444355810693,-0.0184227575834203,0.2261916609611177,0.973825074326996,0.0821787652647946,0.0155698603153896,9.847151881695002,0.0631780467191673,-0.0841579929600341,-0.002664740677363,4.600339632149817,-0.9824242218023296,1.6994993024730096,1120.72341443055,1123.4923564609055,1150.2376433080096,1156.077202992523,-43.42988018163448,-215.67651193170485,-477.9005776991027,-60.18788802927351,154.0028173420204
34.435,2.204521215769791,0.5235643551139058,0.9495407686690356,-0.1362641221255194,-0.0019924563265517,-0.0654886240813243,0.0126309436799567,-0.0184830589364533,0.2261566958253452,0.9738335417461512,0.081918727177175,0.0194095469674777,9.848958906698527,0.062625850119406,-0.0844090649857551,-0.00259968462193,4.60057688355283,-0.9825455352558172,1.6994895906415464,1120.6552869334066,1123.1262695661496,1148.89968268694,1155.9008989887325,-6.5087469143657835,-111.11239034461276,-606.312238682639,-83.68672016281644,154.00249328591235
34.4375,2.0480277324385385,0.6248772094667068,1.0572302438851344,-0.1314689770155877,0.0006321362601228,-0.0618450582796918,0.0125103446293302,-0.0185260235743094,0.2261216204327223,0.973842424203598,0.0808280631955151,0.0236648935522886,9.85085126545284,0.0620639912207926,-0.0846267431759939,-0.0025191827971286,4.600813212987103,-0.9826701397831517,1.699482741404094,1120.6908706959782,1122.936794509182,1147.206082114595,1155.658769391709,44.183870965565966,-49.6011494237333,-711.6823317665527,-104.6423484885096,154.0020872074325
34.44,1.8410784644211855,0.6742860125801609,1.0848315533506223,-0.1267057631553556,0.0033811519906952,-0.057840674083633,0.0123831309862308,-0.0185514856394714,0.2260861426626143,0.9738517885349934,0.0789588604516965,0.0282400485959055,9.852785523230857,0.06149158227068,-0.0848090099388008,-0.0024240433410489,4.60104752306724,-0.9827976553018842,1.6994789185327484,1120.8762062882342,1122.8782638190312,1145.3412710281107,1155.3776872462904,129.3934579752906,8.280681090123235,-752.9843073775523,-115.09544232161284,154.0016139084133
34.4425,1.57112576091931,0.6662998247836888,1.0152292345213907,-0.1220765466912,0.0054885843535595,-0.0543693207827042,0.0122537164370757,-0.018563414983903,0.2260513600375892,0.9738612485087312,0.0764653797031599,0.0330900635019756,9.854713241950288,0.060907498876485,-0.0849548482914073,-0.0023155014489479,4.6012793024715055,-0.9829263838970744,1.6994777948163566,1121.337837985855,1122.9781979146328,1143.4411605777052,1155.0832921801007,288.4394386362035,80.11005447061046,-800.7983596397476,-122.63122016555008,154.00106128394847
34.445,1.1785019118882996,0.612878720728475,0.8415134433292476,-0.1172901168550191,0.0070029336923236,-0.0514319167874257,0.0121220173820385,-0.0185626127761287,0.2260170867989314,0.973870831832527,0.0734251942656961,0.0380944525018251,9.856586426021527,0.0603106973378228,-0.0850639302166492,-0.0021948122942866,4.60150936185144,-0.9830556076463824,1.6994790085904212,1122.318403481416,1123.2788140913844,1141.3372792299099,1154.7645311454623,438.0152276001245,137.17700100941073,-714.7939571331924,-105.75721499499718,154.00030963841056
34.4475,0.806149216671284,0.5497551417140006,0.6460366459282079,-0.1145753382339203,0.0079822739397398,-0.049972746363415,0.0119842661492007,-0.0185510346108284,0.2259811956834198,0.9738810423972956,0.0699246127112819,0.0430562169221497,9.858357302400252,0.0597002096407144,-0.0851364851849181,-0.0020635035699541,4.60173936502632,-0.9831844446355874,1.6994807014569608,1123.5279141238536,1123.6640829196792,1139.8671907920425,1154.554506105126,558.4002936457052,175.66479565348453,-505.2180395278045,-71.93009433536604,153.99961240065088
34.45,0.4097299111672249,0.4826431045495828,0.4257795501922485,-0.1133216838079665,0.009258841341068,-0.0492630855949264,0.0118379773568033,-0.0185323921816206,0.2259420141990436,0.9738922316393473,0.0660913444206675,0.0477974911911293,9.859977841574356,0.0590748487659018,-0.0851735214208325,-0.0019226079740291,4.601970345101382,-0.9833123684911794,1.6994815852049503,1125.110404949646,1124.1571380696523,1138.8111890322696,1154.404880673785,752.0337807373171,236.53327161638748,-354.83374189793756,-60.328648553573714,153.99884502604732
34.4525,-0.0658047364030954,0.4112784461978418,0.1555517915671334,-0.1130737695374111,0.010633514242826,-0.0489346845594726,0.0116841178234691,-0.0185104788522428,0.2258972138977787,0.9739048614543314,0.062070680823,0.0522112574396011,9.861400440005234,0.0584337325339572,-0.085176609261335,-0.0017721777651074,4.602201698193403,-0.9834401817583758,1.6994802248842804,1127.288083027542,1124.8467492777615,1138.093022082552,1154.252862862358,809.740064637808,271.3560878585407,-172.7323898416423,-61.158186706699006,153.9978465576274
34.455,-0.4441009661863975,0.3704711675995392,-0.0649998785399772,-0.1137056029160053,0.0109726094439376,-0.0489280886974779,0.0115313574992933,-0.0184889884309856,0.2258470791837798,0.9739186930146096,0.0580398718827347,0.056346721235844,9.862577521650067,0.0577760604209569,-0.0851482307255669,-0.0016109384682285,4.602432227769069,-0.9835679018528352,1.6994759579676504,1129.1591052728313,1125.5139185089436,1137.947527083062,1154.099089740252,710.1748565038638,299.2985877157768,20.59946536759381,-77.33422883443971,153.99695198381735
34.4575,-0.7847282845451362,0.3578181969079139,-0.274007367114915,-0.1151389027377178,0.0105492698639113,-0.0491378929382185,0.0113832763609539,-0.0184725917628488,0.225796112827412,0.9739325492234396,0.054170619766034,0.0601612025460321,9.863466192654057,0.0571010245344819,-0.0850918909255773,-0.0014386597301719,4.602661457485795,-0.9836956195328111,1.6994699882219226,1130.8389573100633,1126.3432422163414,1138.19601940939,1153.8661917181855,604.4364413428502,374.94735222011434,144.6358156379744,-107.3383671396092,153.99599467610537
34.46,-1.0799332761619709,0.3635414937421433,-0.4680991793033472,-0.1171832747855461,0.0103374460685853,-0.0495891119033389,0.0112426568629522,-0.0184685867937697,0.2257448602689701,0.9739461316861856,0.0506774834519595,0.0635961479465646,9.864028071871488,0.056409351694547,-0.0850110963839085,-0.001256232698314,4.602889150898162,-0.9838238511459324,1.69946376585118,1132.181287479547,1127.388655270045,1138.6707061612524,1153.5623979045536,424.4146887181837,489.70057962113935,215.99165688232097,-127.14860993953803,153.9949866397455
34.4625,-1.3014302381155547,0.3677230256363362,-0.6328740368154182,-0.1200904344004423,0.0112899961407207,-0.050509446333886,0.0111090715698489,-0.0184824461823113,0.225694192445204,0.9739591415603788,0.0477203760468002,0.0665525786677432,9.864232459574914,0.0557026126680801,-0.0849098234316049,-0.0010655353424334,4.603114116922951,-0.9839528279943682,1.699458492532294,1132.9610307536523,1128.791745114445,1139.2759776938003,1153.2304486684886,198.70010680136892,710.4342982245729,265.0017585379382,-122.9624056077508,153.99391861691663
34.465,-1.456626410734691,0.3319642426435366,-0.7738120824080859,-0.1250665780223073,0.013567089590822,-0.0524285099762749,0.0109860093065542,-0.0185154083464356,0.2256436037843955,0.9739716357118168,0.0453883254861846,0.0690396698941007,9.864055869057669,0.0549834644709389,-0.084792274888692,-0.000868122684827,4.603334743203213,-0.9840821301581264,1.6994549457269923,1133.1747880135545,1130.94082676117,1139.9957149539428,1152.9475858765147,-30.477527533896914,854.6874338388254,248.5224138972264,-58.22631072721128,153.99256871173623
34.4675,-1.4813142786542688,0.247908715402157,-0.8235103975616983,-0.1303889265679362,0.0156896579906122,-0.0548244461815184,0.0108746591283769,-0.018568575176768,0.2255881908001177,0.9739847173846115,0.0437489247049405,0.0710372354355308,9.863484390367306,0.054255902152344,-0.0846624214680078,-0.0006666068180422,4.603550703804054,-0.9842117791127516,1.6994527042566134,1132.8086431159827,1133.0651822836412,1140.5185897632873,1152.9393171148524,-221.3683125754609,880.2052619290228,188.35383586896415,69.72178782140847,153.99138758624045
34.47,-1.4046002230575412,0.1044252433134587,-0.7818276163927051,-0.135428080556881,0.0172602166987879,-0.0578575709946687,0.0107682858618812,-0.0186338889060405,0.225526244419944,0.973999006418954,0.0426502181740261,0.0724291235309074,9.862518360157726,0.0535236127770378,-0.0845246580428179,-0.0004639579149734,4.603762532850736,-0.9843416244353568,1.6994526407852963,1132.067946450678,1135.341853070811,1140.9374841332867,1153.2961948156214,-347.25065035323007,965.1948290325955,167.8670891705729,251.535099733072,153.99014973301303
34.472500000000004,-1.2392357810286632,-0.1126950713986183,-0.6187024677357406,-0.1394552465240501,0.0177931789855982,-0.0614248616862954,0.0106626354047504,-0.018705105630335,0.2254553828646695,0.9740152168157948,0.0419772175475053,0.0731536557208694,9.861167674068188,0.0527903090443733,-0.0843831551394484,-0.0002634710176811,4.6039716982105165,-0.9844707084280878,1.69945432542341,1131.0723898642157,1137.8911564288067,1141.3579252091406,1154.1969926135184,-331.8034195113463,844.3960538874989,152.0115974895948,398.2404999286937,153.98860220247064
34.475,-1.0848377999911036,-0.3022874184141368,-0.4001081073485066,-0.141068961136346,0.0170607357204301,-0.0636801390348578,0.0105537993890435,-0.0187773744378915,0.2253747462404502,0.9740336833254752,0.0416347928085046,0.0731641834126563,9.859453028801807,0.052059193640619,-0.0842418762353731,-6.877044679019059e-05,4.60417894531787,-0.9845992581309224,1.6994571335213924,1130.4089293531204,1139.5638333402508,1141.697542120735,1155.287397315266,-181.04904598324637,511.9546290295711,151.1962389201937,473.5180842845907,153.9872644808454
34.4775,-0.9575915392893314,-0.4649646208981588,-0.1288651667238286,-0.1417524865950597,0.0155606587766089,-0.0646287933915879,0.0104432341083057,-0.0188455802939034,0.2252852102807114,0.9740542862504086,0.0415386648064605,0.0725318931208005,9.85740460255002,0.0513329380872345,-0.0841043808391573,0.0001172843594918,4.60438375246323,-0.9847276586526283,1.6994607828588792,1130.1671446343003,1140.450929573952,1142.1139064037409,1156.5645830349392,-7.013531567641671,194.47881404734343,192.9707925717516,507.5636231219637,153.98588248334332
34.480000000000004,-0.8678390992518157,-0.5834695540768243,0.1522530008954625,-0.1423730517365205,0.0137154523467659,-0.06433974346071,0.0103307380298458,-0.01890889439944,0.2251935875080769,0.9740754653377448,0.0416731002387473,0.0712899287918713,9.855063113015987,0.0506129379589382,-0.0839741137755171,0.0002910942427887,4.604586041774035,-0.984856579609058,1.69946535194182,1130.3738616952824,1140.536227410488,1142.6623960835943,1157.825215430877,187.02118718178536,-166.15236469238565,264.44354897357806,457.9411104389168,153.98446898859694
34.4825,-0.8160852699136462,-0.6313409302690189,0.4040729248266079,-0.143554765861197,0.0113205947824018,-0.0628948751866424,0.0102148459706984,-0.0189627350705184,0.2251051076517609,0.9740961131411008,0.0419379744033785,0.0694739024100808,9.85248034425997,0.0499005663005897,-0.0838534964701076,0.000449533305214,4.604785369445778,-0.9849873241353148,1.6994708017593163,1131.1022505702097,1139.6201677504898,1143.4361241486095,1158.8542885871348,403.15012452956864,-605.1450905654339,398.3620050591056,356.7803655678806,153.98302503114854
34.485,-0.765961559891182,-0.6001951725105186,0.6301842027313386,-0.1460327494078997,0.008202576135635,-0.0603090071854472,0.0100939474563184,-0.0190059176262064,0.2250236223166336,0.9741153792238956,0.0422924008663193,0.0671099168030343,9.84971610293134,0.0491969514655123,-0.0837439898324592,0.0005892106840104,4.604981507943164,-0.9851204003893536,1.6994773512458223,1132.3896123179284,1137.5105019576636,1144.654206108888,1159.6091172587148,497.0796539897677,-897.3239516310924,487.5218248061408,181.27743495729007,153.98126829383392
34.487500000000004,-0.7062400732396296,-0.5100535447924384,0.7362114563532057,-0.1488407727331481,0.0062580416776259,-0.0577197154814585,0.0099699424433343,-0.0190398636849694,0.224951380174202,0.9741326979293652,0.0427570916328786,0.0642864839632659,9.846835411747104,0.0485027772252706,-0.0836461786635581,0.0007072441502353,4.605175450967581,-0.9852550961556604,1.6994865761521487,1133.5876488401595,1135.133547992332,1145.8737332726414,1159.760675761922,447.5481767765343,-1008.8545299459224,507.68797858069274,-34.95520092608816,153.97979331952538
34.49,-0.6049053186332332,-0.3792843867505881,0.7498707759036684,-0.1515739523734956,0.0056380590474201,-0.0551252448747581,0.0098441383456586,-0.0190642335138552,0.2248868334169889,0.9741484215359664,0.0433135013663348,0.0610930798172522,9.843908508105438,0.0478184439345777,-0.0835596989457525,0.0008015147989851,4.60536780584551,-0.9853913226461216,1.6994984899473031,1134.627353201812,1132.4662293079311,1147.1926460017928,1159.4343412540843,363.88774440307674,-1153.460358278065,566.4072534308765,-225.4819067849216,153.97831740054625
34.4925,-0.431946426640124,-0.207102437699228,0.6703365756684218,-0.1538017479738627,0.0061114734505106,-0.0524916453183685,0.0097207379209189,-0.0190852308597712,0.224825956283586,0.9741633150227652,0.0440804710523652,0.0576489984549067,9.841005610269923,0.0471437659606194,-0.0834835305973525,0.0008704188302741,4.605560252768457,-0.9855288743737514,1.6995114777634184,1135.4070875621735,1129.3662462009468,1148.7057695397932,1158.6332662279983,181.20216605191777,-1062.9884710203105,515.4099332162472,-330.5632175557826,153.9765564339948
34.495,-0.2552968396018204,-0.0629690726683196,0.5412024936014252,-0.154791011766459,0.0066696847112856,-0.0509601449840551,0.0095987535175594,-0.0191090259932801,0.2247670229858194,0.9741776643577033,0.0451542868805571,0.0539768485419041,9.83819779159196,0.0464772285487063,-0.0834166614995264,0.0009128706195181,4.605754287033353,-0.9856669724708826,1.6995241337726468,1135.5333640320707,1127.1512869528347,1149.7696956678717,1157.781525166307,-67.56304591623302,-759.4101530449942,357.4170540400691,-338.05071523853246,153.97510493386866
34.4975,-0.0635494321800341,0.0844605173718002,0.3716878562037577,-0.155287570360542,0.0064154447518158,-0.0501506334275837,0.0094770954499362,-0.0191366241189037,0.2247081956874822,0.974191884836623,0.0465335565132985,0.0501214692741552,9.835553452014707,0.0458167241483984,-0.0833580265638523,0.0009296909481748,4.6059499678082805,-0.985805201935538,1.6995355051431436,1135.069272332592,1125.56919543572,1150.4928548099945,1156.9430126518048,-274.0615735532136,-507.5019242886033,220.70481400871887,-306.55585207821565,153.9736782066404
34.5,0.1249357483269951,0.2412875474307691,0.1861367732248449,-0.1554555899338844,0.0056992300806821,-0.0498428318361791,0.0093550277099414,-0.0191650349688449,0.2246482197288078,0.9742063336669348,0.0481445619398414,0.0461526994372824,9.833135135026096,0.0451598658694607,-0.0833067459210752,0.0009233502576867,4.606146371849642,-0.9859429342989638,1.699545266734144,1134.163056164304,1124.6137773313903,1150.8732197379159,1156.248745905915,-441.7344718769452,-228.9384471441089,68.31889235961017,-221.46095318487048,153.9722775612212
34.5025,0.2877787233409725,0.407204915475316,-0.0026694365182495,-0.1548200314938611,0.0055098296233966,-0.0499937167718017,0.0092326018951192,-0.0191914116976332,0.2245904610333611,0.9742202922720012,0.0499232961637025,0.0421552705396568,9.830995913267545,0.0445037120215387,-0.0832625763932674,0.0008972762360823,4.606342376970666,-0.986080466872368,1.699553734581802,1132.8605999732094,1124.4245032000003,1150.8344492717922,1155.8357078858814,-616.7123594463675,68.11017649939612,-97.75682578756006,-105.73671233350116,153.9709143685854
34.505,0.4250177298734795,0.5936357309307269,-0.2194957673004297,-0.1529464428121957,0.0068039844485685,-0.0505287531274096,0.0091131138941148,-0.0192126259890116,0.2245350032988833,0.9742337740255144,0.0518167664323062,0.0382760635305581,9.829176504105432,0.0438464175267717,-0.0832251683083291,0.0008560065739936,4.606537300632037,-0.9862190813973865,1.6995617349675267,1131.0794943670708,1124.9543282138875,1150.3844356089778,1155.7200623442473,-651.107726207814,283.29576905356646,-210.0568904932805,17.423409272705793,153.9693287072826
34.5075,0.4760112492356036,0.7136725507609938,-0.3860255344940226,-0.1508861020167238,0.0091621925574997,-0.0511344164002757,0.0089995873983901,-0.0192289001395559,0.2244794705858087,0.974247297297146,0.0538365480594353,0.0346404249807052,9.827703500285695,0.0431872044506688,-0.083194211646145,0.0008041246466569,4.606730515415361,-0.9863592111307498,1.6995698642111015,1129.6050613421687,1125.8409820452691,1149.7841648193253,1155.922824932245,-545.827219620647,388.1845974827576,-254.16556029258953,128.33392830578154,153.96805351373584
34.51,0.4578061474383629,0.7732729757819494,-0.5312562971995395,-0.1489163134540624,0.0120799271395379,-0.0517967347557838,0.0088965468682671,-0.0192480736148626,0.2244221746236137,0.9742610569019182,0.0561477310037417,0.0313674093918523,9.826586308040497,0.0425258192029025,-0.0831698064478461,0.0007460111171526,4.606921984630893,-0.9864999676678162,1.6995776817805135,1128.35035826897,1126.8952512012995,1149.113607807516,1156.3617319857756,-465.56909789645766,432.0788300086924,-275.0266049039013,221.65706657658603,153.9668307528553
34.5125,0.3715207693394639,0.767756391716265,-0.6673207872609319,-0.1468778810694456,0.0153166546605355,-0.0530040505619529,0.0088069847296641,-0.0192775080583669,0.2243576972992764,0.9742761296033274,0.0588987158401351,0.0285464442694398,9.82581870314287,0.0418632394661965,-0.0831521030644817,0.0006863888258496,4.607111684898632,-0.9866402323915516,1.699583566905143,1127.2772158526852,1128.0013761953137,1148.409031794805,1157.0311102651283,-306.70702614463835,338.5659932359063,-221.8693679822765,247.17609309042103,153.965428334581
34.515,0.2683561262874812,0.7076901384717366,-0.7325245454070246,-0.1458003333359851,0.0175419428062049,-0.0546703825172639,0.0087273639371988,-0.0193205612995937,0.2242870450525593,0.974292248539674,0.06213153895925,0.0261578694236844,9.82538051833408,0.041199929413844,-0.0831420935211414,0.0006298989904403,4.607299400047494,-0.9867794098623136,1.6995866076413002,1126.816823138246,1128.58808116748,1148.004260967604,1157.5976124512283,-89.71155170760515,138.95958481483737,-111.38256327363833,201.4679709215684,153.96431624292765
34.5175,0.167902569149466,0.6113519888976852,-0.724424663956418,-0.1456571377186381,0.0191146043506161,-0.057006526934821,0.0086497819283171,-0.0193744211653673,0.2242149918315261,0.9743084411259924,0.0657482755093816,0.0241226235535569,9.825238071001552,0.040536339305441,-0.0831411109312176,0.0005812929636189,4.607484905955832,-0.9869171679086004,1.6995870755406688,1126.8286580941476,1128.6961741193873,1147.8521189784371,1158.0384501197354,78.17468176322657,-39.43797718468687,-16.82342608281991,136.6633900451444,153.9632651693454
34.52,0.0959643127342568,0.5040444608670419,-0.6413427025767184,-0.1461429808070336,0.0202030635604248,-0.0596080685189284,0.0085631789394332,-0.0194328068974798,0.2241474329506554,0.9743235748666532,0.0695665857440942,0.0223119333116402,9.825344519745101,0.0398733870092681,-0.0831502851842236,0.0005448530239027,4.607667601558868,-0.9870542110038464,1.6995853467113926,1127.2076965470624,1128.3908912815564,1147.92014383719,1158.2809294014544,226.7959239965625,-211.87160508637209,77.2146821663287,29.91816782349194,153.96226586527516
34.5225,0.0811480150613536,0.4046825284844313,-0.4625382789826329,-0.1470403526333106,0.0208969923587157,-0.0623403746941952,0.0084636932560421,-0.019490182602173,0.2240884967184662,0.9743368444383615,0.0734446822430253,0.0207253881596078,9.825638231030045,0.0392129359797466,-0.0831699737904236,0.0005250230211241,4.607846896848883,-0.9871912350476458,1.6995820588374388,1127.962637714131,1127.6368160939548,1148.2381923892692,1158.1880409588528,393.6458550863732,-412.08661307292647,189.36698712740449,-135.47178750612645,153.96132976215878
34.525,0.1395711588451605,0.3154417746738016,-0.1544995760083077,-0.1478489641553113,0.0214860566531079,-0.065233889350447,0.0083503597035818,-0.0195449049984755,0.224043510018301,0.97434706590739,0.0773222091629674,0.019393503799931,9.826045451446712,0.0385571166578381,-0.0831997626411401,0.0005251829070588,4.60802290967588,-0.9873288862139185,1.6995772260123276,1129.1759258224924,1126.3304582161936,1148.866978772826,1157.6035704639244,471.77619791126256,-523.9421348311728,262.42752845933165,-296.88210753791554,153.9602796937484
34.5275,0.2447207576764413,0.2759175968194206,0.1454546412273986,-0.1479228154844246,0.0218287453293382,-0.0661894826657059,0.0082244988679997,-0.0195899997170449,0.224015237058653,0.974353731016302,0.0810401137077636,0.0184047095509261,9.826485958285087,0.0379087314696824,-0.0832379722539158,0.0005483776854842,4.608195117124131,-0.9874685662654862,1.6995714333563803,1130.3215187036883,1125.0171054197976,1149.5503300315663,1156.7036304211626,451.33079225274395,-541.8922344579597,290.2341653699175,-436.13108404961594,153.9594652743702
34.53,0.3879569439642764,0.2780955206658788,0.4273684756304139,-0.1471088475927482,0.0220570323821176,-0.0643341595963582,0.008088629046205,-0.0196213276378305,0.2240038138162073,0.9743568699647857,0.0844923924083984,0.0178470503806825,9.826874446393887,0.0372709141106057,-0.0832816214505423,0.0005960670230298,4.608363833638254,-0.9876113347661568,1.6995656491765487,1131.432579783757,1123.6209970439024,1150.3181495996764,1155.4229150436752,437.98259511871765,-595.7818631076368,331.4428354946644,-621.6824723872576,153.9587128627022
34.5325,0.5750741004771615,0.326860855709429,0.6746891211084908,-0.1453074964088995,0.0225391367136947,-0.0597681699710794,0.0079492956982485,-0.0196408658050549,0.2240025178389325,0.9743579312490444,0.0877015264358987,0.0178463421670069,9.82712224952124,0.0366474641426754,-0.0833262057973909,0.0006681376473156,4.60853085477796,-0.9877565556769252,1.6995614723311112,1132.51143167928,1122.038196104262,1151.2075442090384,1153.5952180592292,326.085878942346,-538.8737205441402,298.36486118695774,-687.295983929392,153.9578802230151
34.535000000000004,0.7256054446432372,0.3991536460702716,0.779832700879938,-0.1434919928494738,0.023387086298408,-0.0556508277642791,0.0078081889605274,-0.0196534329872566,0.2239997314194821,0.9743594706866876,0.0907177179624685,0.0184096209894043,9.827143801569248,0.0360422127646936,-0.0833660842702073,0.0007621216448476,4.608697357984169,-0.9879039297688929,1.699559023659078,1133.0630091784699,1120.9266284411804,1151.809973905612,1151.9864351240265,129.5445290617655,-378.0126723781335,185.20893476438303,-620.0370304306955,153.9572436489177
34.5375,0.8543576218702686,0.4934965505923272,0.7916384139189023,-0.1416676803104429,0.0247093280888229,-0.0525258505267504,0.0076649971454952,-0.01966638375005,0.2239894287369235,0.9743627242502952,0.0936279028178367,0.0194811193159023,9.826859338501622,0.0354571671719285,-0.0833955004468298,0.0008739037482381,4.608864240530614,-0.9880540597211283,1.6995575137463075,1133.1591543245893,1120.1481327423703,1152.1335888828607,1150.495032907074,-37.048751902954834,-247.70046941248228,66.27357517656154,-549.2715670942737,153.95666480483243
34.54,0.9544738781667425,0.5994229510620315,0.7584561546157566,-0.1397911630742164,0.0262006639256541,-0.0506074700506567,0.0075175574576246,-0.0196823087148335,0.2239718947258451,0.9743675887549448,0.0964182001280835,0.0209769900700528,9.826200222773094,0.0348924483833091,-0.0834089191374347,0.0009987069454979,4.609032210921193,-0.988207512797772,1.6995577689386214,1132.8777654189553,1119.688126094119,1152.1413417814945,1149.2400772885576,-185.816126743744,-109.75900030747493,-85.99409095804879,-420.9330323327442,153.95613235681796
34.542500000000004,1.0046149264712267,0.7145722094428401,0.7200792863285737,-0.1375896069243341,0.0277757504411732,-0.0501179084488184,0.0073656137930532,-0.0197011549698962,0.2239503979466048,0.9743733158494806,0.0990324810347896,0.0228481074993517,9.825110088965513,0.0343469898789628,-0.0834011966410197,0.0011315613229753,4.609200981551933,-0.9883643961060125,1.6995600025956978,1132.23007369087,1119.5993377408329,1151.7036184280703,1148.390367745409,-330.71987794738925,29.299287497527548,-300.23171011997067,-265.0768769186933,153.95565385409077
34.545,0.9829922363423856,0.8589677478091605,0.717486895658236,-0.1343029469779473,0.0298756130357664,-0.0503500573911795,0.007211345038149,-0.0197188542893623,0.2239260811272847,0.9743797092321536,0.1013495638580953,0.0250970616248477,9.823547228343795,0.0338195328238959,-0.0833677135982154,0.0012677318316148,4.609369607334662,-0.9885242539306142,1.6995648410589883,1131.2241660292175,1119.8346225316068,1150.6401832308939,1147.9146929039634,-374.52004541594255,123.83342238651842,-474.5714656003425,-84.6495701498358,153.95513915950718
34.5475,0.8806543696274813,0.9802957334126046,0.7647978952344248,-0.1311256585061185,0.0319229261188815,-0.0503524461602689,0.0070570773663507,-0.0197332943826391,0.2239011974979953,0.9743862777474483,0.1032896406840853,0.0277098796614494,9.821484626553904,0.0333081209909843,-0.0833050757067517,0.001402067244008,4.609537146857678,-0.9886859115877076,1.6995723473212512,1130.357473463792,1120.218504852765,1149.3307611000707,1147.9671198946603,-319.37800285497394,167.24124232837852,-597.7999887018211,100.4862918943613,153.9547575983794
34.550000000000004,0.6823340032846718,1.0954152314858547,0.8479314412795198,-0.1280443903549015,0.0344194415852555,-0.0493865857465118,0.0069092144889193,-0.0197414896177776,0.2238751830053556,0.9743931649847736,0.1047783978682208,0.0307457420318088,9.81891046990787,0.0328107798525908,-0.0832111129332823,0.0015302099063141,4.609703319851382,-0.9888472856528276,1.6995824498860839,1129.6272760149416,1120.670828743249,1147.6511832873832,1148.4171243634355,-267.17802423750044,189.47067297357847,-801.494107052985,263.07917138906487,153.95442253615943
34.5525,0.3463783044713634,1.2165308510901796,0.9418727341382322,-0.1254043593545981,0.0378053011659131,-0.0468745119597695,0.0067711222503931,-0.0197408392675239,0.2238488264654103,0.9744002187765506,0.1057417992228722,0.0341977618578558,9.815829602771572,0.0323247844887494,-0.0830852452022317,0.0016477772302775,4.609867955375508,-0.9890068300193426,1.699594556152236,1129.021583342604,1121.1658582176333,1145.3232905648035,1149.2825157516063,-173.276772341181,161.25320018951356,-884.9535243740182,349.26926868770283,153.95407137128723
34.555,0.009783102377993,1.2965237711573687,0.9735138617965116,-0.1245347827960583,0.0408250942772647,-0.0436978315789703,0.0066445298944461,-0.0197331586410934,0.2238214995730754,0.9744075359324724,0.1061901626056088,0.0380046220318995,9.81226127918904,0.0318472220343806,-0.0829281040735114,0.0017504460080487,4.610031233704343,-0.9891636417291318,1.6996075394771688,1128.7608921532367,1121.477094744196,1143.2264156655172,1150.1634707068724,-62.288507018695135,99.60341312676029,-842.0687792446115,361.9459064840266,153.95381925175914
34.5575,-0.344314888518255,1.347370285804864,0.9140893874045278,-0.1250265303703005,0.0440017315446299,-0.039867520894814,0.0065248278520299,-0.0197208013915698,0.2237909221266251,0.9744156265211684,0.1061240113799434,0.0419802921547739,9.808240791628032,0.0313751572492523,-0.0827411965771895,0.0018338226067786,4.610193392810288,-0.9893178793221388,1.69962012847412,1128.7101408075107,1121.6638752832666,1141.1129466685843,1151.092245284025,1.639041908719335,60.622693620476554,-822.741293572187,367.7241059385716,153.95360711706
34.56,-0.6795467576796087,1.3687174881510769,0.7623871282807082,-0.1266298452153098,0.0470350499623039,-0.0362183788905723,0.0064043849354295,-0.0197047051544295,0.223757148930838,0.9744245134005388,0.105512570573779,0.0458886712817004,9.80381782033132,0.0309051473879099,-0.082526768361248,0.0018941326304605,4.610354269994584,-0.9894698833402752,1.6996312820324724,1128.7690873627803,1121.7802082122985,1139.112709197654,1152.0020912365662,31.768690444170833,47.94139365915092,-738.9321468643942,354.736298480248,153.9534267462568
34.5625,-0.9554560402249994,1.3462880521522744,0.5035563566163578,-0.1296748956207403,0.0498713687435334,-0.0333854915651528,0.0062825602538648,-0.0196871203651517,0.2237229910064694,0.9744335082901356,0.1043903318999149,0.0496250751669014,9.799050695690102,0.0304333983745918,-0.0822874290356103,0.0019292656827192,4.610514415025552,-0.9896198192516212,1.6996413472344163,1128.8689842597316,1121.9035822515625,1137.4182859342607,1152.8659267764272,31.23449429284049,87.55451987016161,-631.9533104845796,373.7112672069304,153.95328317862504
34.565,-1.1861140750276369,1.2517142138095338,0.1032634813678088,-0.1345134195947519,0.0534488142956437,-0.0313624358737432,0.0061566105079289,-0.0196666122007509,0.2236877918202434,0.974442805088748,0.1027203051752332,0.0530658124158234,9.794008661078712,0.0299569568006998,-0.0820255171223715,0.0019376896127139,4.6106740035052045,-0.9897690650061736,1.6996509218847669,1128.9252598342443,1122.2179808116489,1135.952942645234,1153.8706475725992,-3.390135185280172,166.43106093238782,-417.4055137340612,369.3912323916194,153.9531517453737
34.5675,-1.289453426135092,1.1000848613604515,-0.2637824602572236,-0.1386614622094363,0.0568580773249025,-0.0311318227455183,0.0060258245907065,-0.0196411261007547,0.2236492928947941,0.9744529651388066,0.1004706672542116,0.0561351259441367,9.788767415367776,0.02947358139307,-0.081743078982638,0.0019186181702625,4.610832995908544,-0.9899188952806748,1.6996606424872402,1128.8520335838052,1122.7357375562249,1135.3312583655893,1154.7128829383862,-65.90741653891466,281.3509537916541,-109.72065080253584,341.82798950142364,153.95307518911673
34.57,-1.3168541126865918,0.8569495631556991,-0.6052222956590428,-0.1421655734343769,0.0605936880085373,-0.0326069632298008,0.0058867839993972,-0.0196114619259705,0.223606472401284,0.9744642251200436,0.0976602454076401,0.0587006385358002,9.783407309499692,0.0289813572486376,-0.0814421151900665,0.0018709646035608,4.610990752382256,-0.990069990561171,1.6996708589121248,1128.5957227515496,1123.6247355806079,1135.4043393912211,1155.5797875201072,-162.10356876687192,485.49389387515976,181.23746466388295,379.72755274252427,153.9530317859206
34.5725,-1.297492250144034,0.4620722486261198,-0.9157627286453236,-0.1455313339814359,0.064353544889134,-0.0363142799583974,0.0057383601215243,-0.0195779551131551,0.2235568490946155,0.9744771523890784,0.0943155411886064,0.0606841294289102,9.778010583383406,0.0284791679839367,-0.0811245413288935,0.001794443177082,4.611146864962809,-0.9902218578262972,1.699682217255048,1128.0415157399716,1125.1632070255985,1136.2374456889079,1156.611520702097,-244.45156206985527,635.3371376450856,401.04196542617905,362.86904767129806,153.95301704689513
34.575,-1.264005839068374,0.0701593083286502,-1.0529376102492407,-0.1477065468138291,0.0659330765295501,-0.0407207427135617,0.0055796474025289,-0.019544302043167,0.2235009634666664,0.9744915524321128,0.0905346878992496,0.0620061711785723,9.772658645596223,0.0279658935077596,-0.0807926216583373,0.0016890690523569,4.611301785721364,-0.9903739985601908,1.699694074567004,1127.3734649411997,1126.8014212688347,1137.409549218353,1157.3941327584644,-304.88372267662135,704.035944275578,516.9842693342246,275.57070051729625,153.95303533877535
34.5775,-1.2330959196026636,-0.338837295350617,-1.0456988167205918,-0.1492405396455166,0.0653764839610271,-0.0457944736130496,0.005409147940543,-0.019513094183067,0.223442178393259,0.9745066097604248,0.0863977086105155,0.0625907642645066,9.767431551007784,0.0274404051528342,-0.0804490388356292,0.0015555981656169,4.611454884154852,-0.9905260290488695,1.6997055308881115,1126.5170971265875,1128.683386746978,1138.8223670355803,1157.9893742046843,-367.8716803349452,764.1762219739704,564.3683641496085,193.70753696138647,153.9530849173426
34.58,-1.2051061922843056,-0.7207717978923809,-0.9340407230906206,-0.150865464374416,0.0631218668132323,-0.0502447252681187,0.0052336246256153,-0.019487097992424,0.2233831584421752,0.9745216179793535,0.0820277303370722,0.0625285318413937,9.76240267122028,0.0269021490062804,-0.0800966819390574,0.0013967158496798,4.611604626440383,-0.9906777278148012,1.6997153710079465,1125.5341065395266,1130.6223023787013,1140.2313910390983,1158.3626704432706,-417.67739788116626,746.8283810261527,525.3099516342031,90.58871742426986,153.95316025750103
34.5825,-1.1608190050448444,-1.029556187514087,-0.749831424992951,-0.1535468779448237,0.0594597883732032,-0.0523133054021057,0.0050626221489772,-0.0194690125868203,0.2233270329099918,0.9745357511850596,0.0775617294096261,0.0619733652255928,9.75763881240658,0.0263507827369126,-0.0797386784404895,0.0012161605924198,4.611750589920807,-0.9908291584815672,1.6997229519096864,1124.4287101371808,1132.4175286521108,1141.4489167937527,1158.4423177918059,-510.6465136204067,700.6596419265005,471.1908412571437,-21.03639014743582,153.95326662485655
34.585,-1.0503741269787739,-1.2890935055145727,-0.5321870059229062,-0.1577701496394143,0.054604496261745,-0.0520758305016033,0.0048995869557931,-0.0194605861489295,0.2232742584595092,0.9745488488394082,0.0730934666402289,0.0609770201509721,9.753201855484305,0.0257864037860604,-0.0793781286077775,0.0010173018650146,4.611893688504905,-0.9909803721981792,1.6997287998862238,1122.9808739714233,1134.1256005883356,1142.5873452453854,1158.2574884925334,-549.4520844836638,515.977416191814,370.70566109784573,-93.53387641476141,153.9534303195759
34.5875,-0.8877650970159153,-1.4134622361082319,-0.4051906294112283,-0.1611407823526587,0.0507810015923301,-0.050818815739698,0.0047441297137827,-0.019462902452254,0.2232216338002424,0.9745616234638697,0.0686880083776126,0.0595306269136493,9.749146613069104,0.0252094743697458,-0.0790179354706352,0.0008032223588195,4.612034088500926,-0.9911312880330724,1.6997331195757355,1121.6814497147648,1134.9974157330676,1143.3024450992402,1157.9746484097325,-534.315424096621,203.9964352677864,265.1040014675808,-105.93676748257204,153.9535970296961
34.59,-0.6409001297669509,-1.4588199932748187,-0.3607220542434018,-0.1635683830821293,0.0473956975776605,-0.0495800315817139,0.0045982615630656,-0.0194746083775138,0.2231667599409891,0.9745746409606256,0.0643758342210768,0.0576906970802103,9.745518267348212,0.0246199575206517,-0.0786609337214025,0.000577603217419,4.612172737338802,-0.9912809854225524,1.6997365953256032,1120.3092968509388,1135.145582764675,1143.912865252724,1157.7278046551203,-607.9402398892471,-115.98590930319438,285.0365225098264,-60.70903904893917,153.95379514855568
34.5925,-0.2520119253336853,-1.4465601350278268,-0.3845981112069468,-0.1652865692534655,0.0438478565765078,-0.0490362900549663,0.0044587815045842,-0.0194968723544538,0.223109267450951,0.9745879776885048,0.0602138325376227,0.0554121439413995,9.742352945750016,0.0240170730640766,-0.0783098463692971,0.0003431202500393,4.612310566664826,-0.9914287478245544,1.6997393970480619,1118.6417485153172,1134.4174861865513,1144.72762771179,1157.6711032144876,-601.9059563557238,-414.27082510414425,337.08554795056176,39.985033431403274,153.95406797052465
34.595,0.1389350212635403,-1.3944716107002453,-0.430674080100233,-0.1656797406072991,0.0410733625411918,-0.0500553682902866,0.0043212523162633,-0.0195315925397406,0.2230495528686705,0.9746015290555496,0.056267625094963,0.0526306155753009,9.739676631743517,0.0233996671139402,-0.0779670314215815,0.0001021239304544,4.6124483688190345,-0.991574551533121,1.6997410769088288,1117.2997670691627,1133.0742286391562,1145.5982929924753,1157.9277298222771,-511.5025730471754,-672.8879582494042,401.8382279770539,173.39023552986188,153.95432274690413
34.597500000000004,0.5823513789119431,-1.3052937100965047,-0.4476746914292614,-0.1649068634049258,0.0379534218901115,-0.0528848756405261,0.0041848119139975,-0.0195781819393689,0.2229902627312799,0.97461471178339,0.052571067645528,0.0493667289835408,9.737504480506049,0.0227662877066017,-0.0776343790805025,-0.0001424810227185,4.612586296213524,-0.9917186907014856,1.6997413000776556,1116.08423565008,1131.0530463953023,1146.7368188516764,1158.5380543921372,-457.35675073500965,-900.2166856771905,495.31149675546783,293.64341847880024,153.95460275164305
34.6,1.054488937345827,-1.185009858334838,-0.4089260518739498,-0.1632836553839956,0.0347125111742697,-0.056225779183074,0.0040505345448517,-0.0196344090516908,0.2229374888490906,0.974626181428899,0.0491345170248975,0.0456900027755254,9.735841485702442,0.0221153561147416,-0.0773132474532386,-0.0003876676659832,4.612724554039781,-0.9918618714976508,1.6997399558143076,1115.0129833154867,1128.573145210768,1148.074850476254,1159.3959469146719,-390.6913995354359,-1068.4452069136737,561.1243681961797,376.80291477747846,153.9549004521871
34.6025,1.540175371212221,-1.02764486870494,-0.2955551978438296,-0.1605740783873668,0.0318581822132559,-0.0585131130758484,0.0039231186600224,-0.0196954232297226,0.2228944109688166,0.9746352990574796,0.0459310833259959,0.041752914855808,9.734682890949918,0.0214465329591924,-0.0770041305967588,-0.0006301479928124,4.612862053952895,-0.9920055703942894,1.6997378986552363,1114.1307786524046,1125.710820360739,1149.5424406926547,1160.422068966023,-346.8719739968536,-1292.3383497269451,633.3020319358582,447.6036077743613,153.9552146094705
34.605000000000004,2.104232389881734,-0.8010616042242457,-0.0998072034540592,-0.1555893904837745,0.0290811414835671,-0.0593060853647463,0.0038060335528194,-0.0197569731874421,0.2228630693596098,0.974641682166416,0.0429361099738571,0.0376835089443597,9.734015687356878,0.0207606143699734,-0.0767068325896817,-0.0008673887087629,4.6129966569692975,-0.9921513457742857,1.6997360062473703,1113.2786234455016,1122.11145346213,1151.2413606359348,1161.6339649535448,-281.05346813498903,-1301.2402004979483,578.5091281305308,411.3296910287487,153.95560306793865
34.6075,2.528870208560356,-0.5869197347245385,0.082136434859822,-0.1498137520788815,0.0272511412749544,-0.058538366208644,0.003705627096663,-0.0198177973771006,0.2228427763948997,0.9746454974837596,0.0401890579562688,0.0336514861983211,9.733817952603783,0.0200597030378013,-0.0764205759125162,-0.0010971666288587,4.613127502137422,-0.9922995272124606,1.6997340853391307,1112.7255113117287,1119.204619358246,1152.4349863333089,1162.4787174211679,-188.9294100713768,-1089.7043429989842,395.043466899092,278.6341035487827,153.95593002161868
34.61,2.871392376515374,-0.3560104461465365,0.252225224901625,-0.1428046051251041,0.0259540067965253,-0.0568820496866453,0.0036157848081468,-0.0198713535089048,0.2228315661234796,0.9746473489746712,0.0375695900694773,0.029612012463099,9.734065317084866,0.0193466445533021,-0.0761442475923164,-0.0013189920049456,4.613254318160994,-0.9924496092871872,1.699731957702994,1112.3339763951456,1116.66293174714,1153.2165779704285,1163.0271354712875,-126.50342894310492,-984.1648868457437,219.35556918799796,163.18167548666517,153.9562526776041
34.612500000000004,3.1552026116944925,-0.074078855120151,0.4279422338996403,-0.1334135866942243,0.0253537975273418,-0.0549219835293393,0.0035353749140152,-0.0199114695342414,0.2228242464876371,0.9746485491922164,0.0349795836499367,0.0256111160547325,9.734726022423056,0.0186249534435217,-0.0758764865663514,-0.0015319965826162,4.613376854808082,-0.9926008106620284,1.699730535701052,1112.092994167013,1114.2837949240147,1153.5317641792494,1163.2946257986016,-37.877953645310015,-738.5503984211342,2.077408020021568,38.82875749511928,153.95662708304363
34.615,3.269867690808809,0.1530107581633729,0.5546628770936433,-0.1247862676780448,0.025758842825469,-0.0535926080406991,0.0034656959938658,-0.0199395406133882,0.2228149336152161,0.974650406081853,0.0324690883177223,0.0217057576070227,9.735761186010526,0.0178979803958746,-0.0756158492923393,-0.00173562563147,4.613496312055648,-0.9927526832429762,1.699730174045465,1112.144586626919,1112.9701797550324,1153.2269650105286,1163.2212792587632,91.52205486761113,-380.2213059502994,-235.3296371798345,-72.7943467641333,153.95692362821114
34.6175,3.2521548479594986,0.3606934437887544,0.6739928613884789,-0.1158474145336664,0.0267203841144532,-0.0524323003055674,0.0034025261817514,-0.0199594035290553,0.222799076338982,0.9746538937778756,0.0301050939083766,0.0178351445720868,9.737128493706756,0.0171683213528082,-0.0753608647712993,-0.0019301219536009,4.613614480457418,-0.992904945957057,1.6997301792347193,1112.5506044413507,1112.3826883942647,1152.355115993351,1162.9306540647813,233.85767667690183,-123.78862141260812,-427.6634740035458,-135.58376344989082,153.9571994494462
34.62,3.1332492313677727,0.5480447060102093,0.7964056388671201,-0.1073544220729943,0.0278397217549778,-0.0513575167855715,0.003343532836458,-0.0199740728174687,0.2227766575628247,0.9746589604714144,0.0279426101679839,0.0139760342160688,9.738781778505098,0.0164373007499516,-0.075110183548141,-0.0021150690737467,4.613732586273829,-0.9930576492715288,1.6997292553669017,1113.3138750103024,1112.35123664797,1151.0886476405128,1162.5433604415143,400.19401132765313,98.08925042093037,-572.4869668511728,-162.21642880019203,153.9574553825996
34.6225,2.9174130090948145,0.7085281757175057,0.9259796538058184,-0.1001570228817183,0.0291347566178493,-0.0502382411207913,0.0032831934352353,-0.0199851732800857,0.2227504628831943,0.9746649536170726,0.0259918699175881,0.0100487437930201,9.740672953212703,0.0157053822993239,-0.0748625855853856,-0.0022900439196987,4.613850879281495,-0.9932112572038422,1.699726436064828,1114.55157449799,1112.8731346463699,1149.492681159094,1162.11957192078,651.614073333652,320.68735161380533,-734.3930783432249,-187.99319561093785,153.9576850216634
34.625,2.5854316166580835,0.8649213818076918,1.077702625922132,-0.0932859839175195,0.031198258936508,-0.0484560991813761,0.0032214990395408,-0.0199916885183211,0.2227234656543455,0.974671212919321,0.0242322721310613,0.0060878597303529,9.742751229590162,0.014972827014611,-0.0746170925842353,-0.0024534856730364,4.613968870455716,-0.9933653222124628,1.6997213295410603,1116.5719453769723,1113.9546734060395,1147.4166822487948,1161.6033944634592,815.5264836105885,446.75092082011065,-756.7150893908608,-197.13797659005388,153.95792842130967
34.6275,2.269962438414052,0.9584766512377456,1.1788026557512383,-0.0886318398014088,0.0335942197035204,-0.0462823807215394,0.0031622058063324,-0.0199918380546419,0.2226969343655915,0.9746774715211836,0.0226406690101996,0.0022012622366856,9.744964245415508,0.0142401792531621,-0.0743730883860209,-0.0026033250875518,4.614085680822515,-0.9935198485601736,1.6997143038516602,1118.6292069160393,1115.1068892504684,1145.7091057121431,1161.1338820378303,867.7282035673323,488.8898162948635,-647.3548255735622,-213.57826832479972,153.95810402317767
34.63,1.9228478682926735,1.0063501813854347,1.2150992693412233,-0.0842183383704989,0.0365594404426804,-0.0429024090098851,0.0031077395672804,-0.0199814767579057,0.2226706939893578,0.9746838461893184,0.0211394930961533,-0.0015188793945669,9.747260478571752,0.0135083508877219,-0.0741304354246552,-0.0027378529362174,4.614200104261924,-0.9936751414652792,1.6997059176190856,1120.9105863948112,1116.3991224875151,1144.1799081209251,1160.5355031218346,1002.0414236751424,583.144372525905,-608.941799952852,-314.9029854460631,153.95825165896363
34.6325,1.461219423537875,1.0109608781058308,1.1392112214888674,-0.0787389563361013,0.040018671037183,-0.0375842090515448,0.0030610141269256,-0.0199595350668331,0.2226435417179009,0.9746906249231224,0.0197087355928606,-0.0049842785024385,9.749589119863453,0.0127785143784233,-0.0738895560669989,-0.0028559754938283,4.614311585520723,-0.9938309724916052,1.699697499003088,1123.6394140344175,1118.0226111130994,1142.6643967123773,1159.5593671105992,955.3868246584035,600.6371244747703,-497.6033201839051,-409.9677214206712,153.95839729523854
34.635,1.0323858239003945,0.9783596436670718,0.9590805561748528,-0.0745184025677523,0.0423466713764463,-0.0331699736278753,0.0030255022692734,-0.0199284460880852,0.2226128204777787,0.9746983556179092,0.0183950407146109,-0.008110311932372,9.75190134471744,0.0120520439987831,-0.0736514289915617,-0.0029572600315802,4.614420349625111,-0.9939866258333904,1.699688781132562,1125.6875205180988,1119.4023081098865,1141.691891520008,1158.4856645147331,724.1974600214622,555.6098850433841,-337.80083837565144,-479.76512492617087,153.95849312790082
34.6375,0.5643242072117965,0.9204624764165606,0.6664568771765491,-0.071770111605345,0.0442303041238024,-0.0300926149231834,0.0030010010489747,-0.0198913501607548,0.2225757814628528,0.9747076054454404,0.0172411292653791,-0.0108834957351725,9.754152862071194,0.011330205716468,-0.0734175399148318,-0.0030423244405963,4.614526851856198,-0.9941416273351488,1.6996792920529595,1127.2604013345267,1120.8006605383175,1140.975392520498,1157.160541485967,523.9795838493185,564.8212751357571,-259.75596005423887,-557.4568887452973,153.95856351981027
34.64,0.0819724635715402,0.848356671384609,0.3068288460497436,-0.0705727647894521,0.045984352341179,-0.0283861146466928,0.0029830702915965,-0.019851274031652,0.2225329555560227,0.974718209286533,0.0162689277529233,-0.0133675942907686,9.756305385675779,0.0106136121831216,-0.073189816141741,-0.0031128819097823,4.6146309425638,-0.9942955713312268,1.6996689560821199,1128.3074184373468,1122.2264144855667,1140.3931117197362,1155.6983800710052,278.0032021070183,582.939983579111,-223.1534943623712,-590.9141488293616,153.9586137365608
34.6425,-0.3858878777417848,0.7615733310353943,-0.0890340688802857,-0.0712039599949526,0.0476690773423564,-0.0282091974784549,0.0029654699152685,-0.0198062558514545,0.222486652978817,0.9747297047023248,0.0153978193935964,-0.0156362909382033,9.75832833286879,0.0099024876503842,-0.0729704003070888,-0.003171221934629,4.61473182369487,-0.9944485107328176,1.6996584543469555,1128.6504173450603,1123.7153604562106,1139.8596250486871,1154.2059707418232,-4.905856120646822,678.7516904639854,-246.5268130353355,-625.0452154414673,153.95864089798408
