t,ang_acc_x,ang_acc_y,ang_acc_z,a_vel_x,a_vel_y,a_vel_z,quat_x,quat_y,quat_z,quat_w,acc_x,acc_y,acc_z,l_vel_x,l_vel_y,l_vel_z,pos_x,pos_y,pos_z,mot_1,mot_2,mot_3,mot_4,dmot_1,dmot_2,dmot_3,dmot_4,vbat
49.075,1.9867784694160195,0.4839413458405971,-0.0565297164582692,-0.0019488421362036,0.0014466478181286,-0.021623957073509,0.0071107395240957,-0.0051702051900729,-0.3038455940323906,0.9526805380930986,0.0403420129480006,0.0023741964375167,9.857825013979475,-0.0114526239996546,0.0026360212166234,-0.0086776861577511,6.4853800282083,-3.394463582875523,2.0654665494030846,1134.9286228216263,1128.0294205865566,1150.5026473655091,1144.2450179090458,-146.944907475215,-433.1499587418479,-129.6925107910984,459.4292034360856,153.80494496982618
49.0775,1.9813527299347795,0.5618855320753839,0.0362264803206707,0.0040564905405254,0.002568779258259,-0.022023256632976,0.0071270879223468,-0.0051667418304976,-0.3038641870272453,0.9526745046548428,0.0397662823238389,0.0031111777676207,9.857277280470154,-0.0114870449954505,0.0024686531575096,-0.0085430941263874,6.485364516769166,-3.3944457928401146,2.065449641262337,1134.5841689900788,1127.0406036528725,1149.9447102914803,1145.2124676751323,-115.9982361259299,-410.6253334712716,-355.5690431915587,311.1189603870217,153.80256909233378
49.08,1.8266722812206933,0.6399838240824643,0.2037815423267406,0.0108822337285273,0.0041932290027383,-0.0221500429728427,0.0071420283585438,-0.0051658477084435,-0.3038833653186511,0.952668281834581,0.0391870876531476,0.0039609109733184,9.85657830432152,-0.0115324014947656,0.0023058846931464,-0.0084235813161595,6.485347523395083,-3.394427977967392,2.065432523520156,1134.3486316409972,1125.976293919202,1148.7248021495532,1145.8006127109795,-41.19228771521814,-379.5156459530394,-531.9564776004888,112.6249195189636,153.7997614159455
49.0825,1.592002589970808,0.6805885511402562,0.386310524705289,0.015669756507217,0.0060030370961534,-0.0218924687724206,0.0071572765458029,-0.0051667554242825,-0.3039048053476046,0.9526613269035547,0.0385960384219132,0.0049305601372255,9.855788248762126,-0.0115860991757872,0.0021486890903442,-0.0083189615616566,6.485328767220338,-3.3944093837695,2.0654154399937394,1134.3782075515028,1125.1430254231063,1147.2849279034767,1145.7755922727274,69.52320761052842,-321.3309244482564,-645.6487668186463,-106.13857598713392,153.79746290113636
49.085,1.283786110965512,0.6832393153150793,0.6019407964931915,0.0191096752477475,0.0082081929341278,-0.0212942991677184,0.0071754966518622,-0.0051671526527504,-0.3039284277452279,0.9526536568814036,0.0379454823693866,0.0060334988089763,9.854966094688002,-0.0116449562359582,0.0019978399709582,-0.0082284563372216,6.48530787994871,-3.394389537124699,2.065398486516724,1134.69624767905,1124.36963929696,1145.4965583154583,1145.2699198310436,206.99745274888028,-307.0164444794109,-836.558095693396,-299.2023711709855,153.79521278422845
49.0875,0.8784924915095749,0.6365848327981714,0.8749019636277916,0.0218471756059224,0.0108378643842833,-0.0199838931466125,0.0071975018460687,-0.0051664694496788,-0.3039509815823978,0.9526463042751288,0.0372262704338269,0.0072570623789736,9.854167685649411,-0.0117055724392564,0.0018539808260492,-0.0081506284607199,6.485284995905493,-3.3943688239099523,2.065381401143745,1135.4131948152462,1123.6079432007107,1143.1021374250136,1144.2795804168738,311.6948625478696,-228.6245842170696,-893.0806078587899,-392.45743848244206,153.79257457259837
49.09,0.5455523565268328,0.5602241152149916,1.087736361352132,0.0231917370236757,0.0127124714568064,-0.0181214662916033,0.0072217324931709,-0.0051644047543378,-0.3039692460284233,0.9526403090637546,0.0364427216675876,0.0085448259500719,9.853444317849684,-0.0117646450228631,0.0017175638696999,-0.0080834451398067,6.485260416960761,-3.3943477349475866,2.0653639540825326,1136.25472199179,1123.226516375874,1141.031155276162,1143.3076326386304,372.83176043014487,-70.88721647947762,-812.681434854715,-376.0252907868912,153.7904316808384
49.0925,0.2526581976752078,0.4586069344211248,1.2445150158020164,0.0236218748430891,0.0141481451040905,-0.0151363310215344,0.0072485430748843,-0.0051626757486727,-0.3039825570682114,0.9526358718147055,0.0356198203003465,0.0098884721883229,9.852840214685875,-0.0118192517799561,0.0015886835165176,-0.0080243620808383,6.485234403804235,-3.394326281753837,2.06534509811055,1137.277353617398,1123.253507118313,1139.038730250738,1142.3994539629384,471.08429678389354,131.53753674667453,-827.229072618663,-346.2837047345568,153.7883509001366
49.095,-0.0212669241496248,0.3303064288017758,1.3178497800706137,0.0229111801417289,0.0151063338032985,-0.0102303094293696,0.007275566751519,-0.0051602553260823,-0.3039920935312596,0.9526326404358424,0.0347422675737324,0.011213008000567,9.85239293166812,-0.0118670096163472,0.0014671495210379,-0.007970538438521,6.4852072276750174,-3.394304395059478,2.065324627512326,1138.6101434757074,1123.8842040596069,1136.8950099130725,1141.5762141149592,490.6994826804512,338.7836236439484,-726.9109951149321,-244.66697659096317,153.7859303538841
49.0975,-0.1715785751833296,0.2353390798605232,1.2553171865747494,0.0212913690711285,0.0152426852823588,-0.005416617518153,0.0073015717206491,-0.0051553417865713,-0.3039995051505998,0.9526301066844128,0.0337695421343984,0.0124617208202714,9.852131541045889,-0.0119062602110708,0.0013524302030143,-0.0079190750734807,6.485179266824932,-3.394282145651548,2.0653029598835406,1139.7308510308014,1124.9474252365335,1135.4041752751612,1141.1761190799828,434.2908580176351,531.2464597412155,-517.6420084154951,-107.57036376625318,153.78397991347939
49.1,-0.2439840312824883,0.167463018039003,1.0541061149682402,0.0189742213802079,0.0147662436728069,-0.0007678346874394,0.0073257511285904,-0.0051474832025084,-0.3040056198933283,0.952628013977483,0.0326815487964947,0.0135962806943699,9.85207601344108,-0.0119362364487164,0.0012436918455257,-0.007867189996593,6.485151271293381,-3.3942598523251495,2.065280641985225,1140.7815977657967,1126.5404363583143,1134.3067998709937,1141.0383622961276,434.60270160001943,799.3939142266748,-373.76182824848337,-31.79821840743152,153.782101920649
49.1025,-0.2780226639718152,0.1186307910935457,0.6784588479258049,0.0166155434817357,0.0141308344561624,0.0032474364091925,0.0073474468934923,-0.0051353584787589,-0.3040112584602674,0.9526261125177496,0.0314402092264675,0.0145789550128963,9.852237538680873,-0.0119570852362436,0.0011398227683701,-0.0078124238946478,6.485123803070488,-3.394237873508216,2.0652583495804646,1141.9038645387996,1128.9443948076635,1133.5353661339207,1141.017127987946,385.949726383008,937.1510494037219,-180.42387993150305,-14.59902237765326,153.77993537787236
49.105,-0.3117345496118709,0.0932129341108094,0.294945207304084,0.0161179118067495,0.0143142468192998,0.0045519526416355,0.0073679472146181,-0.005120233914751,-0.304018513570447,0.9526237187347532,0.0300452104326106,0.0154276297948961,9.852617930378125,-0.0119698660298093,0.0010394046891204,-0.0077526580602584,6.4850971454916495,-3.3942162024834905,2.0652359928008472,1142.7113463977128,1131.226191605335,1133.4046804713355,1140.9653671842393,299.6091392452231,932.6434627841312,60.94209958006624,-59.62762203963981,153.7782045709972
49.1075,-0.4193951095083282,0.0615166636934842,-0.1010399593312863,0.0173732279104166,0.0153108517062807,0.0039159021219754,0.007384497466448,-0.0051022450720971,-0.3040297850557416,0.952620088050304,0.0285018169288663,0.0160814489351912,9.853211922632237,-0.0119764026257889,0.0009409089181909,-0.0076861679365346,6.485071748601057,-3.3941947815328515,2.0652141028294535,1143.4019102350264,1133.6076121215865,1133.8400766318211,1140.7189898777476,261.6789248164984,938.7797398079225,263.5734670543239,-142.34509673068928,153.77655341170055
49.11,-0.6262425130115024,0.0121371083363991,-0.4659707464461111,0.0190400199999203,0.0163025072349022,0.0022557036360236,0.0073935690394941,-0.005082688031272,-0.3040456072115186,0.9526150700307444,0.026845957761994,0.0164760475725747,9.854006973451881,-0.011979134795034,0.0008427872497713,-0.007611596218843,6.485047833485344,-3.3941735983135666,2.065192889337504,1144.019741021794,1135.9200903043707,1134.722547806606,1140.2536417005865,234.91052875512457,872.666937008361,440.4371528337399,-232.95168407350408,153.77496966869015
49.1125,-0.9608027688565908,-0.061005959199724,-0.7572950799462447,0.0198669408576935,0.0166523090236104,-0.000253968807723,0.0073920815814584,-0.0050639033633685,-0.3040648338385357,0.9526090416423432,0.0251359469746448,0.0165658294986128,9.854983955995529,-0.0119809149093117,0.0007435768989242,-0.0075279155458713,6.485025438582217,-3.394152779414161,2.0651721710034283,1144.5764628788027,1137.9709468066303,1136.0422623959907,1139.5542314573795,232.15324672507396,800.6648188861615,638.5854933219805,-332.1612710095116,153.77346857728406
49.115,-1.4657837554994255,-0.1672546827152529,-0.9950845541815972,0.0187613028406991,0.0160930514218717,-0.004054182923236,0.0073802646192735,-0.0050465026111143,-0.3040864122707309,0.9526023340545956,0.0233839860284562,0.0163609417189523,9.856117944339388,-0.0119847397639393,0.0006419586572576,-0.0074344599856162,6.485004468758822,-3.3941325980471935,2.0651517633534104,1145.18050725542,1139.9234143988035,1137.9154752732177,1138.592835345538,205.26443680346824,606.7287900639774,696.6072891446371,-342.08194613278647,153.77176420069105
49.1175,-1.907528988963176,-0.2631284016828179,-1.0952496320810607,0.0153822670646633,0.0150320824901457,-0.0076759314848457,0.0073637860302475,-0.0050321862680038,-0.3041100379744431,0.9525949923272444,0.0215967016235314,0.0159838117735652,9.857378441517657,-0.0119935548611951,0.0005368078687233,-0.0073308552842934,6.484984532918242,-3.394113011909969,2.065130992789783,1145.602785062819,1141.0045907569477,1139.5252988417108,1137.8438217267171,136.7147613117805,300.48171417836875,609.4881555176081,-252.62209143134703,153.77042540569508
49.12,-2.2720600866729295,-0.3632977126185318,-1.1062105966104767,0.0089877469601635,0.014068299810883,-0.0110834262045342,0.0073457999464122,-0.005019635987974,-0.3041353518622479,0.9525871136140494,0.0197457566132226,0.0154946969949529,9.858732659150911,-0.012010025679684,0.0004274200371562,-0.0072170732520989,6.484964957013249,-3.394094029885097,2.0651104688837485,1145.8640810619793,1141.425822969696,1140.9629160508073,1137.3297248883807,51.52181964960711,30.754422755974428,555.0258064283641,-144.4992671065563,153.76917170863535
49.1225,-2.514152450583542,-0.4924107996298161,-1.0505852738655928,-0.0014934263224451,0.0134979634979367,-0.0140424221839865,0.0073259170079031,-0.0050078748621242,-0.3041617736807917,0.95257889028142,0.017836798617856,0.0148918598304581,9.860146369838505,-0.0120364447402028,0.0003135379126335,-0.0070933825402614,6.484945166329729,-3.3940756903341107,2.065090927269889,1145.8603941610672,1141.1583628707276,1142.3004278738542,1137.121325391184,-74.74702716760908,-212.1169173560812,413.08075103421567,-3.697303511720472,153.76776544113835
49.125,-2.5066672711983564,-0.607814838473032,-0.976512092937908,-0.0108996973498669,0.0128903189930715,-0.0155981673697373,0.0073029726610452,-0.0049959133862348,-0.3041885278421485,0.9525705835776556,0.0158855264946918,0.0141607865781321,9.861584410267959,-0.0120746366322078,0.0001952846785966,-0.006960332574207,6.4849248667292505,-3.394058106515955,2.065072707907935,1145.4903459261416,1140.3652383829167,1143.0283198059765,1137.311238370822,-242.89150086319103,-399.9102061934536,214.0304318978124,139.22217348102933,153.76667461256247
49.1275,-2.2804493669576797,-0.721443210813971,-0.9006382086192544,-0.0187307711717227,0.011293069237299,-0.0168813753390322,0.0072755053527142,-0.0049838018683941,-0.3042144479431015,0.9525625771873933,0.0139336317081353,0.0132888656228523,9.863011411014192,-0.0121259345308226,7.308418371081848e-05,-0.0068186147758052,6.484903962300532,-3.394041548730188,2.0650554260353533,1144.6459366567524,1139.158811839762,1143.3705800333423,1137.8174362585885,-485.69355305242135,-571.3735303244708,81.87715963358998,268.5919974504931,153.7656663310596
49.13,-1.8123517559568287,-0.8373209383912805,-0.819771040437731,-0.0253006005547148,0.0082923677699563,-0.018576832118557,0.0072455220011853,-0.004975259057195,-0.3042389169959012,0.952555034363818,0.0120743401520199,0.0123513771587636,9.86439160209282,-0.0121911703620807,-5.2530852666227874e-05,-0.0066689223948757,6.484882509860089,-3.394025840142367,2.065037777549539,1143.0618781608782,1137.5083707312929,1143.4377056041446,1138.6541983580753,-663.4377173732689,-598.9677635427262,-13.638839006755305,325.1656569843973,153.7645490989085
49.1325,-1.318403820707443,-0.907999287711612,-0.7587173128631862,-0.0285188483832281,0.0054970909120289,-0.0201276683260251,0.0072139133207709,-0.0049696508330341,-0.3042628731079367,0.9525476518090228,0.0103277613922302,0.0113767276608067,9.865691404483604,-0.0122705596187842,-0.0001809644444419,-0.0065121001593192,6.484860598469387,-3.394010612131217,2.06501984979544,1141.3287480698843,1136.163973022047,1143.3023858383085,1139.4432645435113,-745.234316354795,-494.1571873802279,-74.09867509616022,319.3111510845204,153.76369275941315
49.135,-0.7879272805383793,-0.9527784127437856,-0.6936047963553145,-0.0300929688385288,0.003062245070186,-0.021878349932315,0.0071813338045259,-0.0049651841914568,-0.3042875347401607,0.9525400434617146,0.008694251005291,0.0103817624836617,9.866879473635834,-0.0123637215382461,-0.0003116329613009,-0.0063491624903484,6.484838174841225,-3.3939955764633716,2.0650022278121822,1139.3357065791076,1135.037584794394,1143.067212228664,1140.2507541134964,-804.2509409295667,-398.85665563622354,-100.35022743467702,322.4066521749761,153.76291019907973
49.1375,-0.2714661172770992,-0.9830228670657124,-0.6149611937688738,-0.0307534771249944,0.0010260514377794,-0.0238302374450447,0.0071491285769865,-0.0049603589127252,-0.3043135244784205,0.9525320076552988,0.007174731708608,0.0093976588120662,9.867926871440627,-0.0124696983584754,-0.0004440005330003,-0.0061813162806885,6.484814946552332,-3.3939804838789818,2.064985634588347,1137.3074933652344,1134.1696897438649,1142.8006347011349,1141.055297804387,-770.186018574274,-281.95508028297024,-105.11288068854888,322.11744958974015,153.76218551930367
49.14,0.1861882723845715,-1.0037840228916948,-0.5108826534077133,-0.0303864441653616,-0.0007884948538707,-0.0258410223071241,0.007117920516343,-0.0049543709433745,-0.304340378394929,0.9525236933565596,0.0057854094058215,0.0084456521272425,9.86880772643203,-0.0125870078745875,-0.0005775686039505,-0.0060098973663526,6.484790657637403,-3.3939652689312534,2.0649707855362207,1135.4847764862343,1133.6278093929784,1142.5416478252212,1141.861341361446,-694.0107011000637,-175.63094351264735,-99.15289291679906,354.43698715844624,153.7615261537491
49.1425,0.6235004876631473,-1.019781615643076,-0.3555332182158339,-0.0286395784922717,-0.0031876586464538,-0.0277786653587226,0.0070910774511642,-0.0049497572151358,-0.3043679759251459,0.9525151031415126,0.0045853442288996,0.0076180092054688,9.869498568744694,-0.0127137430167557,-0.0007119796756747,-0.0058361877336612,6.484765024643465,-3.3939496916580314,2.064957353866644,1133.8374398597373,1133.2915350263024,1142.304870236551,1142.8274827401776,-479.84638992796147,-87.04763459568406,-61.6041978601655,348.16321892904324,153.7608047382202
49.145,0.868903346262674,-1.0203696966129436,-0.2088073939792394,-0.0259890537614011,-0.0056136021867257,-0.0287225996338405,0.0070669332012393,-0.0049478289541708,-0.3043971860441871,0.9525059650447972,0.0036362490008487,0.0069042875357397,9.869980476052769,-0.0128476728281159,-0.0008469485692375,-0.0056613032707129,6.484737812808337,-3.393933531507,2.064945119431518,1133.0855445365933,1133.1925712199995,1142.23362683592,1143.602157456092,-150.483964096716,-22.757019066409335,16.581938728896304,289.0420632073869,153.76025804430682
49.1475,0.971407694596714,-0.9978767869357664,-0.0608175534465585,-0.022161854801065,-0.0083675543838016,-0.0289422490479281,0.007042657217203,-0.0049504923582634,-0.3044277966424626,0.9524963551454992,0.0030128046927841,0.0062750880252635,9.870238101990033,-0.0129864245679724,-0.0009822787789088,-0.0054860449978556,6.484709072782085,-3.3939166666325753,2.0649332891032603,1133.085020039253,1133.1777499309703,1142.3877799301958,1144.2726930562153,168.27300468177623,-6.731333365366237,141.9781510528009,249.5012712146031,153.7597640881716
49.15,0.9332466162650512,-0.9363224202201684,0.0970642633900534,-0.0169682847270276,-0.0115266112731528,-0.028572880987518,0.007017138341948,-0.0049595338488552,-0.3044588381758233,0.9524865794305712,0.0027713327835284,0.0057320250104874,9.87025908061236,-0.0131276590263689,-0.0011179037954054,-0.0053108829397586,6.484679212254702,-3.393899375305772,2.064921039638328,1133.9269095600011,1133.1589145531727,1142.9435175911835,1144.849663812164,425.1608498516461,-15.376550803458803,277.943183506926,160.85269356891288,153.7592286406376
49.1525,0.7957937086420384,-0.8551963085474181,0.1992042900133897,-0.0132692581240258,-0.0139000774319736,-0.0279145057360458,0.0069892059445609,-0.0049745803823154,-0.3044897336501534,0.9524768319100791,0.0029218013720038,0.0052620085902627,9.870034456195384,-0.0132692128671835,-0.0012538894958849,-0.0051360576100007,6.48464867223508,-3.3938820817315998,2.0649081677471286,1135.2108242885126,1133.1008671769528,1143.7774958477312,1145.0769565240603,586.5986764705393,-33.00104153429987,416.8997269330389,33.63915135512896,153.75882801017917
49.155,0.6132575545129507,-0.7465414203346882,0.2601360602114497,-0.0115508134508301,-0.0160546692220407,-0.027014723142749,0.0069610174528092,-0.0049949494581294,-0.3045211557032631,0.952466885906514,0.0034422008057274,0.0049120179767545,9.869557787127047,-0.013409189625041,-0.001390497403066,-0.0049616954737589,6.484617774144293,-3.39386467019848,2.0648943379462894,1136.8599029423556,1132.9939093455012,1145.0280162258496,1145.0178595689397,741.3217806323166,-50.76570426867944,638.514047363959,-80.55519759089344,153.75847269160573
49.1575,0.434166567035214,-0.5934657721170824,0.2801383323035376,-0.0118567529444701,-0.0181655023555782,-0.025902184117412,0.0069344299779879,-0.005017547662898,-0.3045548204562614,0.952456196751988,0.0042610723010057,0.0047081793350223,9.868826070881171,-0.013545977495303,-0.0015281168118954,-0.0047880228839691,6.48458676208565,-3.3938467355781654,2.0648802127722887,1138.9174331916709,1132.8470386556098,1146.970066084548,1144.674180536106,718.4107562231892,-50.22269498747096,766.7820753613964,-153.87414457133076,153.75809713554952
49.16,0.3750985741129297,-0.4566221678328489,0.2528758012229718,-0.0131405236116769,-0.0193605976111378,-0.0249631672087744,0.0069134277237094,-0.0050407948935215,-0.304591543158273,0.952444483418162,0.0053171996756143,0.0047249109687488,9.867839025393268,-0.0136782929722387,-0.0016671752563931,-0.0046154277238581,6.484555748149993,-3.3938281880628254,2.06486661277196,1140.4519567234731,1132.742795870564,1148.8619266026587,1144.2484888460826,531.0278503422535,-34.12859098946756,774.6934369976444,-174.3805501320384,153.75782584499217
49.1625,0.4458326084319008,-0.3223575463148439,0.1851888296045527,-0.0144541196087891,-0.0199974872033635,-0.0238980630342786,0.0069015457882414,-0.0050652431191803,-0.3046296254266836,0.9524322595645872,0.0065873085235061,0.0050399979114927,9.866599677842313,-0.0138051987248741,-0.0018079542648143,-0.0044444804182907,6.484524919927344,-3.3938094748641134,2.0648538125866778,1141.5725724433835,1132.6763957006624,1150.8435332695383,1143.8022777854455,361.8010212799271,-22.01869590669232,769.254752069691,-166.01226170015795,153.7575973270637
49.165,0.6229053669278926,-0.1973322359606751,0.0929673961526526,-0.015350356266603,-0.0202740046771508,-0.0229719035468656,0.0068989107066811,-0.005090294326012,-0.3046667153097382,0.952420279674322,0.0080426226745865,0.0056588292176179,9.865115388449555,-0.0139260444800483,-0.0019505027524695,-0.0042759771057544,6.484494266403572,-3.393791243478628,2.064842178382509,1142.2609618298711,1132.6327023910303,1152.7082003630037,1143.4184275375826,171.88977072233075,-18.429499511821295,668.5854513086488,-128.26102062297454,153.75740406578
49.1675,0.8930995988537901,-0.0872669126481356,-0.0095820201473747,-0.0148701459636041,-0.0202472092764458,-0.0226870677424647,0.0069039877750917,-0.0051168538055796,-0.3047016465996002,0.9524089244096527,0.0096887266603761,0.0065627601465787,9.863397420479949,-0.0140403973950129,-0.0020946650874356,-0.0041107985236335,6.48446341474821,-3.3937736413933393,2.0648313878637534,1142.4320212969956,1132.5842482031032,1154.1864605260832,1143.1609726823303,-19.55162961252336,-33.409576042214404,507.3287501109595,-85.3614824382039,153.75725322497664
49.17,1.2469427515517713,0.0294866627782384,-0.1127098109715339,-0.011764055295091,-0.0199980422621699,-0.0233452721148553,0.0069123365089572,-0.0051433706460425,-0.3047350031595874,0.9523980485959608,0.0114991892255929,0.0076615085191601,9.861461698693647,-0.0141479201065375,-0.0022400880350556,-0.0039499288045925,6.48443217891819,-3.393756345259453,2.064821415646944,1142.1632036818087,1132.4656545108191,1155.2448441135596,1142.9916201253911,-149.19186785432356,-61.6676758868031,243.93832106088115,-49.019344224188,153.75712134437074
49.1725,1.5004783653129905,0.1198680172176683,-0.160252522465956,-0.0069850635722945,-0.0196830398055804,-0.0245978389054921,0.0069214465955514,-0.0051683636268324,-0.3047669872970697,0.9523876132584648,0.0134346706358003,0.0088988251520182,9.859327718780385,-0.014248336506937,-0.0023862249985837,-0.0037943425086996,6.484400634142134,-3.39373897729188,2.0648120325276156,1141.6860619577246,1132.2759098236695,1155.4061521313863,1142.9158759612096,-208.54476764701087,-101.87096956237174,-92.3061004841639,-34.68481887865027,153.75705259750805
49.175,1.64575346312411,0.2135578737092084,-0.1530989145885892,-0.0008696127108696,-0.0193440050878608,-0.0260132697434354,0.0069283814984648,-0.0051921034099202,-0.30479541273301,0.95237833712974,0.0154893650342891,0.0102178918272861,9.857018840906719,-0.0143414442715868,-0.0025322512174311,-0.0036449009862825,6.484368858981365,-3.39372181335148,2.0648028890639614,1141.120479843573,1131.9562996630073,1154.7833136111387,1142.818196030998,-240.80650863412717,-171.52941248000707,-434.54649911337174,-67.94076194211064,153.75702700063266
49.1775,1.6597758588674307,0.3427005665514679,-0.084627867139499,0.006168631683938,-0.0190501977437083,-0.0270717448259308,0.0069297368710117,-0.0052139881528863,-0.3048185915045064,0.95237078846037,0.0176423000186838,0.0115443046400789,9.85456251486225,-0.0144270684113897,-0.0026771301421695,-0.0035024188101512,6.484336559539539,-3.3937053477997887,2.064793924484522,1140.4820294145532,1131.418262761269,1153.2334196358183,1142.576172151499,-219.78652052304804,-216.68895474632944,-669.9575448927317,-118.9057057035542,153.75704689943723
49.18,1.5421213949225043,0.4702664359829997,0.0084777054383615,0.011199344248857,-0.0188714399431115,-0.027110019581404,0.0069281810835681,-0.0052338498209831,-0.3048372819117631,0.9523647067826336,0.0198429399727633,0.0129163614603564,9.851988695562039,-0.0145050232689868,-0.0028197533450876,-0.0033676770827902,6.484303368744747,-3.3936894359519725,2.06478448512421,1140.0215472409589,1130.8728548892764,1151.433525886678,1142.2236675024808,-175.587971465394,-223.43544916186536,-772.3543954905067,-174.76461960391288,153.7571063431044
49.1825,1.321179554445978,0.6157969981332179,0.1181814663092717,0.0153271605233387,-0.0182895064096221,-0.0263158665906912,0.0069262691831477,-0.0052491780881525,-0.3048529454696458,0.9523596200376496,0.0219968793654644,0.0143520122976198,9.849331223686681,-0.0145751202681607,-0.0029589160731162,-0.0032415472938288,6.484269132925498,-3.3936738728997886,2.064775059340648,1139.604089557226,1130.3010855154591,1149.371647658364,1141.7023490534789,-191.9300186654182,-238.4108099406748,-896.792005050243,-261.0694247747716,153.7572112672422
49.185,0.9930048633304136,0.7924085218101157,0.2522223450694826,0.0188677913367797,-0.0165377598389537,-0.0249318036684727,0.006926888304675,-0.0052590327705569,-0.304866510362575,0.9523552149512384,0.0240372019122855,0.015880658597467,9.846627009229907,-0.0146372483979768,-0.0030933775233467,-0.0031249480860016,6.484233830445271,-3.3936584596501818,2.0647662535895246,1139.0618971476313,1129.6808008395726,1146.9495658614246,1140.9183203786063,-217.72236064668297,-207.73732664257088,-829.9893295654146,-304.1809987497838,153.7573911302981
49.1875,0.7145439173729551,0.9208967383067388,0.3632453374486758,0.0202812824673187,-0.0139852869196914,-0.0239027532754638,0.0069338061947696,-0.0052642408821633,-0.304877155068657,0.9523517222078748,0.0259254566782876,0.0175546667175533,9.843915477433862,-0.0146914582103027,-0.0032218991024318,-0.0030188387100685,6.484197715969585,-3.393643340384628,2.0647583353957355,1138.5154777539935,1129.2623988822472,1145.2217010105408,1140.1814440597311,-241.39314040666375,-148.60996257216232,-586.7829215920999,-298.5334117775879,153.75758712828508
49.19,0.4835450691223136,1.0083914124676314,0.4790343028463123,0.0199717114589711,-0.0105123023553352,-0.0231508946040851,0.0069466369645946,-0.0052656680755958,-0.3048846238495567,0.952349222548148,0.0276497632794786,0.019344837462483,9.84123932422801,-0.0147380102969011,-0.0033433433391768,-0.0029241846774249,6.484161304059024,-3.3936288624246087,2.0647515710679945,1137.854931445599,1128.9377510267125,1144.0156512534668,1139.4256533197197,-273.36033326555133,-124.92011494171469,-381.1058549193928,-295.28595881559687,153.75783253643854
49.1925,0.317125385134021,1.0558878591977239,0.6036114360588568,0.0188963307889949,-0.0069294401707249,-0.0223959741111538,0.0069647035504248,-0.0052659244916475,-0.3048906233576953,0.9523471624612164,0.0292339290356093,0.021223587933388,9.83864285186878,-0.0147773707025444,-0.0034567991747445,-0.0028418091538055,6.484125098072882,-3.393614932792688,2.0647455039943337,1137.148676087665,1128.6377983075383,1143.3161717359428,1138.7050142656526,-268.2347433616534,-133.4043294370758,-165.90746724046463,-268.4843414176603,153.7581202039635
49.195,0.2308900027417249,1.0649620905158397,0.7387999300562178,0.0180098015921545,-0.0040315960437832,-0.0214022000666534,0.0069839748770317,-0.0052653843894385,-0.3048971097148213,0.952344945192576,0.0306817819587554,0.0230842521983399,9.836172399972458,-0.0148101479254509,-0.0035615351126082,-0.0027724012668466,6.484089009728107,-3.3936013329070214,2.0647401532901632,1136.51375772879,1128.2707293795268,1143.186113917264,1138.0832316126307,-223.32498024368152,-200.52385846793237,33.901098419877506,-238.94644903183593,153.75846054238457
49.1975,0.1891115401231469,1.0576930684205423,0.9020728430361796,0.018050471869042,-0.0015790924700082,-0.0197637312696734,0.0070018816458807,-0.0052658381725945,-0.3049053661747606,0.9523421682767846,0.032017227736645,0.0248539655047008,9.83387388013402,-0.0148370448561728,-0.0036570060118404,-0.0027163384673819,6.48405265697445,-3.3935879813504495,2.064735231384608,1136.0320511864477,1127.6351790151996,1143.485677228042,1137.5102820204943,-105.56542979528842,-275.29453559449854,142.29522901989182,-176.17452212957767,153.7589322492516
49.2,0.1691894041224269,1.0548023466019163,1.02226567856843,0.0189646543942291,-0.0001093361024523,-0.0178123230053452,0.0070189858149005,-0.0052682022649113,-0.3049153125120614,0.9523388463147308,0.0332317723567711,0.0265119378977955,9.83179163284371,-0.0148588171518388,-0.0037428402825401,-0.0026736976419324,6.484015964073324,-3.393575064437234,2.064730530227216,1135.9859305798132,1126.8942567015536,1143.8975900623639,1137.2023590019824,69.25168704775483,-337.5187913993251,143.8718111071185,-87.91014282824156,153.75937998670523
49.2025,0.1215721147465545,1.0641050251230375,1.0983782071858137,0.0202176391301513,0.001336271034258,-0.0150276003184792,0.0070353239274208,-0.0052701857088729,-0.3049254159493152,0.9523354820319376,0.0342631280322016,0.0280078348052524,9.82996839754376,-0.0148762610997519,-0.0038188451884467,-0.0026442804083132,6.483978948030766,-3.393562756323644,2.0647263599915133,1136.3783096216866,1125.947585058202,1144.205036283578,1137.070731306353,266.97537153951725,-440.14266695238814,61.53280385411703,-24.01950889736692,153.7598868773173
49.205,-0.0030105023189738,1.07746177791612,1.105998224902286,0.0215826016733978,0.0037234663033876,-0.0108642360849494,0.0070530123021755,-0.0052702346562257,-0.3049347591034567,0.9523323637912656,0.035053535622154,0.0293352685778959,9.8284428739386,-0.0148901999986063,-0.0038851480074745,-0.0026274508134217,6.483941755338719,-3.393550924155865,2.0647227396984342,1137.3208074375095,1124.6935433667936,1144.205254081634,1137.0822614574956,405.986889475727,-449.9369459380404,-80.50668484470835,25.54847663080693,153.76056655748673
49.2075,-0.1755299840625657,1.0701733499199215,1.0263075083697455,0.0224171162093508,0.0065791014947927,-0.007302141070673,0.0070695965986873,-0.005266330525327,-0.3049447359598284,0.9523290753570494,0.035567109378698,0.0304011940126815,9.8272500988426,-0.0149014533820939,-0.0039422655380046,-0.0026220912162225,6.483904483377933,-3.3935390657223685,2.064719550212419,1138.4082440690663,1123.6979003285107,1143.8025028593543,1137.1984736895072,466.89800652910645,-345.4392707767108,-243.7319915634479,62.075655449975855,153.76119480825653
49.21,-0.4174566178227718,1.0174661930856164,0.853317186301453,0.0226760037206289,0.010221401338634,-0.004384634847028,0.0070817976658811,-0.0052594870864614,-0.3049560718883931,0.952325400960666,0.0358332555344567,0.0311180290659994,9.82641878814642,-0.01491086726915,-0.0039910458579568,-0.0026264462703843,6.483867067130711,-3.39352658494718,2.0647157456268275,1139.6552974701565,1122.9663470129092,1142.9865941238163,1137.3926397347457,546.9245889922121,-215.2573512080519,-425.63584523770766,100.61421875020696,153.76189020837887
49.2125,-0.7646268075622213,0.8864679423791324,0.5510327875657784,0.0218689786704538,0.0144995517373198,-0.0017828898484486,0.0070881936796775,-0.0052516389350027,-0.3049665694569537,0.95232204145245,0.0358913870100567,0.0314421605460863,9.825969877312566,-0.0149193516535266,-0.0040325608209411,-0.0026382170106697,6.48382975202515,-3.3935136194085342,2.0647105551315854,1141.142867014025,1122.6216135724715,1141.6743236331677,1137.7015447832575,517.9922029473424,-15.399328048071164,-502.9125896409979,126.1615587124916,153.7628059362895
49.215,-1.0722300430373275,0.7270243772219162,0.2380339339593912,0.0201027898178938,0.0172120363199184,-0.0004502838107414,0.0070876051886562,-0.0052422485128333,-0.3049738235282065,0.9523197775932262,0.0357368502579087,0.0313244451211035,9.825916435930731,-0.014927880019663,-0.0040681032975335,-0.0026548011842993,6.483792888116848,-3.3935008942449043,2.064704185102413,1142.2452584848943,1122.8893503726688,1140.47203117561,1138.0234475283085,387.5306816518168,228.844619542698,-458.5336557180127,141.5403421403156,153.76363951383607
49.2175,-1.3548667920727155,0.5400442708116757,-0.1102292010838216,0.0172670193000724,0.0187156978741717,-0.0001164130670343,0.0070825124411191,-0.0052299267634998,-0.3049776789744964,0.9523186485265922,0.0353304754126889,0.0307848782952804,9.826261846159706,-0.0149374430463626,-0.004099236687244,-0.0026734309571184,6.48375653601104,-3.3934889304324853,2.0646968805871144,1143.0805204222847,1123.7658366701855,1139.3816553545764,1138.4092464939597,277.6744719081559,440.22901292286423,-387.9652024345322,160.9318243967763,153.76454968226847
49.22,-1.5807738498001924,0.3541390578325218,-0.4630920643724942,0.0134166643538247,0.0192945705957759,-0.0006543820918805,0.0070754402156029,-0.0052118979230201,-0.3049801439078294,0.9523180090211134,0.0346101370281666,0.0298425309127949,9.827000211104703,-0.014948954429717,-0.0041277751496732,-0.0026913382005431,6.483720591082291,-3.3934774917781008,2.064689267054866,1143.633630844434,1125.090495437281,1138.5322051634391,1138.8281066502916,148.34625898135215,607.4917437100414,-257.64295464346566,164.60911107456687,153.7655260092851
49.2225,-1.6971699571374699,0.1947449958224668,-0.7893111301006854,0.0081436175686182,0.0190282016848084,-0.0022643075271709,0.0070699522403811,-0.0051884947593754,-0.3049838560945243,0.9523169870263226,0.0335689520176872,0.0285617392016968,9.828115193392355,-0.014963177012055,-0.0041557680776385,-0.0027057093398009,6.483684791690938,-3.393465984293964,2.064681448169048,1143.822251717192,1126.8032953887373,1138.0934405813584,1139.2322920493327,5.063239153239149,791.5691110861686,-85.30396614446728,155.28686789745066,153.76658508198392
49.225,-1.6751795938721983,0.0524247114317669,-1.1084492793998892,0.0009004700905659,0.0182127942697203,-0.0053836918778417,0.007067317725868,-0.0051622733714803,-0.3049920994290611,0.9523145069534736,0.0322585366272726,0.026984921846473,9.829581025173853,-0.0149806663218318,-0.0041854727290094,-0.002713755276076,6.483649015798946,-3.393453914844676,2.0646730462050487,1143.6589470402002,1129.048340992714,1138.1056853327163,1139.6045409897793,-112.76484663818589,815.5563254275562,91.29757570180237,104.58950985599093,153.76795471746993
49.2275,-1.520206938339391,-0.025200706754564,-1.2866961005350748,-0.004737309218655,0.0175897854497923,-0.0090046482210131,0.007065538720195,-0.0051349112207804,-0.3050095019123887,0.9523090924173474,0.0307365395478511,0.0250960819272057,9.831363579330143,-0.0150017649806128,-0.0042193066555712,-0.0027128660748108,6.483612925322232,-3.393440465988748,2.0646639885493614,1143.2584274840017,1130.8810770158711,1138.549928459867,1139.7552395986124,-195.72642075981085,685.8781141501041,252.32468163940945,18.940343813564457,153.7691800279304
49.23,-1.2529419531983976,-0.0736315065502181,-1.3504782564563647,-0.008887078885173,0.0175544021667366,-0.0134941751211799,0.0070641376672761,-0.0051090267338628,-0.305037394077513,0.9523003074554514,0.0290722813258263,0.0229213274107473,9.8334196479906,-0.0150267429074925,-0.0042596139178422,-0.0027006546304784,6.483576299029693,-3.3934254477125605,2.0646540407433727,1142.6803149364007,1132.4777315634663,1139.3673087409143,1139.6992427088471,-272.8672631624672,619.5385604653452,416.5207298063848,-67.84187210033619,153.77049374045944
49.2325,-0.8646292533104993,-0.1194053940071375,-1.2897488718719003,-0.0118127215947123,0.0179053172504118,-0.0188640434994452,0.0070613323948553,-0.0050843216868283,-0.3050735348177243,0.952288884842939,0.0272912240765152,0.0204527523607029,9.835699020500787,-0.0150559467274358,-0.0043084870749718,-0.0026751890753491,6.483539388274719,-3.393409622535736,2.064643711992959,1141.8940911681887,1133.9787698181997,1140.6325321089,1139.4160302381104,-291.17565125456275,473.51398554280735,484.98351864130655,-126.9290857481582,153.77217296185253
49.235,-0.5354197507554229,-0.1584682555783885,-1.1397106484600428,-0.0129536049494765,0.0180336208623511,-0.022624907128194,0.007057176248053,-0.005061005612201,-0.3051152695754612,0.9522756724328892,0.0254197050525831,0.0177275417903333,9.838144374352126,-0.0150899239506816,-0.0043677669209376,-0.0026349877756303,6.483502393030795,-3.393393716270741,2.0646332831133445,1141.2244366801292,1134.845301491178,1141.7922263341184,1139.064597280107,-263.143984036562,271.51080707567166,452.8680925884103,-140.86266539331587,153.77365776059276
49.2375,-0.255023614706013,-0.2035805387998438,-0.9221932942051708,-0.0129235196909914,0.0176483658383243,-0.0251122970711365,0.0070513075630938,-0.005040811487547,-0.3051590158162156,0.952261809549224,0.0235172920549725,0.0147913896757229,9.8406929338615,-0.0151294900621781,-0.0044389579321477,-0.0025790391877707,6.483465492115601,-3.3933784849063047,2.0646227857034005,1140.5783712480052,1135.3363238535787,1142.8968725718432,1138.7117169111436,-277.58334665172134,148.1157301092632,439.3195850911096,-125.10987510971027,153.77523030247443
49.24,-0.0223478713280354,-0.2653654062749055,-0.6338384999383152,-0.0116554112427686,0.016549367897736,-0.0265879281116467,0.0070422110831015,-0.0050238405865543,-0.3052013165075407,0.9522484135374308,0.0216217331323461,0.0116649963959668,9.843278451872205,-0.0151756635559319,-0.0045232657247935,-0.0025069252698895,6.483428979729888,-3.3933645261805974,2.0646127869522815,1139.8365199468699,1135.5858801417248,1143.9888242595753,1138.439047904558,-267.14146831611026,54.441185247473584,342.832311679779,-57.1032152975541,153.77721677162367
49.2425,0.066847560321388,-0.3259052294002093,-0.4035591682211193,-0.0102661922935986,0.0153518393457901,-0.0269857385628396,0.0070302108756991,-0.005010838631882,-0.3052406408760751,0.9522359691460104,0.0197731468802999,0.008412944203035,9.845831757083683,-0.0152295265821718,-0.0046217364090216,-0.0024187399203108,6.483393145510274,-3.393351677992692,2.064603292568863,1139.2426639064258,1135.6085297798159,1144.6110341302403,1138.426200834656,-230.22165956469553,-3.9287257835419855,177.2843851033488,47.44754842279082,153.7789529233098
49.245,0.0483521953713179,-0.4061732337194514,-0.2101338840550459,-0.0093155909805181,0.0145290930442231,-0.0269645370291033,0.0070142120890387,-0.0049994266370618,-0.3052784713644972,0.952224022550698,0.0179624231638191,0.0050589066741976,9.848283346633233,-0.0152920181474295,-0.0047353282919875,-0.0023151543441206,6.483358045805157,-3.3933392662196207,2.0645949774763017,1138.6854116490458,1135.566236512807,1144.8752461850925,1138.676285646672,-211.29286088401489,-11.24158124688954,46.36542017585627,136.9462915263948,153.7807696756973
49.2475,-0.0450008415458787,-0.5137357530345819,-0.0569645903690632,-0.0087921017194086,0.0143203901234167,-0.0266839453138651,0.0069940851680581,-0.0049891984243242,-0.3053165885536049,0.9522120055165172,0.0162120813140877,0.0016597941286237,9.85056371792034,-0.0153638047382264,-0.0048648390194716,-0.0021971593509257,6.483323506590081,-3.393326791710574,2.064588005067957,1138.1861996020052,1135.5523218735811,1144.84286123112,1139.1109322922885,-175.95640305442063,12.253849214687081,-73.84168561886675,196.58125236382747,153.78265030272985
49.25,-0.2011689567536789,-0.6603612913873463,0.0461249054426058,-0.0088158291753502,0.0142405355500981,-0.0263515440128561,0.0069691590628389,-0.0049823629719888,-0.3053547005904279,0.9522000039686738,0.0145967999667842,-0.001719852046331,9.852605016825997,-0.015445181231607,-0.0050107504085326,-0.0020659019358082,6.483289197908964,-3.3933142979823026,2.0645819075702505,1137.8056296337743,1135.6275057588805,1144.5060377569985,1139.6591919084904,-128.0753775926569,52.08229448449136,-194.89874924665392,231.20768895271905,153.78460368761554
49.2525,-0.4185349673626657,-0.8674825530131278,0.1186970157834503,-0.0095393089213759,0.0131116784004886,-0.0261295563468688,0.0069382236144826,-0.0049793656164169,-0.3053916853351708,0.9521883845420984,0.013160339158899,-0.0050354939773774,9.854342782497865,-0.0155359602000515,-0.0051731772716834,-0.0019227024291956,6.483254835157314,-3.3933020668975526,2.064576607893238,1137.5458227140423,1135.8127333460036,1143.8683674848876,1140.2669707370508,-57.00849325018492,72.00191056054746,-252.23301704841845,190.69992936292033,153.78702547528323
49.255,-0.5906592951608686,-1.0403793960118484,0.1435631655043232,-0.0109787136935383,0.0108743285323438,-0.0258591820896967,0.0069047957461691,-0.0049802532884759,-0.3054273140257,0.9521771959459874,0.0119085121934371,-0.0081570090289388,9.855716037118318,-0.015635400999964,-0.0053518917061357,-0.0017689271532635,6.483220095005698,-3.3932899997570014,2.064571788134184,1137.5205871675234,1135.9875153116834,1143.2448726717555,1140.6126915553054,30.145473567957236,53.54177617693484,-245.1688205868432,90.16304262227027,153.78910310396523
49.2575,-0.7140816745519383,-1.1756156020578363,0.1391902311399093,-0.0134784667457792,0.0073318802423846,-0.0252743339900588,0.0068724913268749,-0.0049827129325222,-0.3054630191637074,0.9521659655990308,0.0107994155737571,-0.0109688624224678,9.856669397970084,-0.0157421822979646,-0.0055463004440262,-0.0016060018380265,6.483184426157792,-3.39327754326277,2.0645677713329924,1137.6965500818824,1136.0804422268884,1142.6425233819527,1140.7177859501624,117.20578851879255,0.1111098746606431,-237.788775372326,-1.382739753581866,153.7912353771298
49.26,-0.7728864901560525,-1.259482618898495,0.1112068419577498,-0.0170544173149665,0.0023024661954654,-0.024559120296347,0.0068452532563623,-0.0049863637131695,-0.305499847791316,0.9521543311272016,0.0098220447769882,-0.0133415068499294,9.857153615740199,-0.0158544978462109,-0.0057553547212996,-0.0014352275834874,6.483147292898729,-3.3932642622038824,2.0645643234658277,1138.1066161101169,1135.9880708610567,1142.0559287948952,1140.6057778565375,174.85439287693376,-77.37047460337315,-179.80438578338078,-57.930381016983496,153.79384810993344
49.2625,-0.7384484758927728,-1.2539192466014386,0.0808285568448644,-0.0197207905504989,-0.0017663363503974,-0.0244015097592677,0.0068257956421237,-0.0049919006423823,-0.3055364771434367,0.9521426925247888,0.0089891580944246,-0.0151672050092345,9.857126863146318,-0.0159702341002663,-0.0059774395243965,-0.00125777566221,6.48310837562037,-3.3932505430927065,2.0645608145210765,1138.5708220462675,1135.6935898538711,1141.7435014530352,1140.4281340450775,197.59511713167635,-165.47247047429383,-77.71266967448015,-47.449658863227626,153.7960632628235
49.265,-0.6237987324028957,-1.1777220035273677,0.0591172430273185,-0.0214998505805327,-0.0051564107645941,-0.0248463153659953,0.0068106938605933,-0.0049993707309497,-0.3055711379338539,0.952131640510949,0.0083342132177522,-0.0164640400386186,9.8565565399438,-0.0160871557703971,-0.0062104192903861,-0.0010747821338552,6.483067525311948,-3.3932370672631733,2.0645568563007126,1139.0945916957755,1135.1607085086848,1141.6673654465224,1140.3685295622213,225.5813474324219,-284.28658652886435,28.69425772703716,51.513726137456175,153.79830912887599
49.2675,-0.4115643575735357,-1.0299998884298072,0.0543831294324106,-0.0226826992992438,-0.0082370604439993,-0.0255971166771719,0.0067956838222978,-0.0050098126130708,-0.3056031576790633,0.9521214156421888,0.007910266627929,-0.0172678597448702,9.855419212079811,-0.0162030835951566,-0.0064517815819038,-0.0008873973181294,6.483024491837408,-3.3932241522724915,2.0645516989058312,1139.6987287834284,1134.2721569212283,1141.8869727416704,1140.6857026757643,202.63805966122712,-360.2856878800115,135.6113983455759,208.42482208971228,153.8010297444413
49.27,-0.1849051277804502,-0.8815435873942248,0.0667792523597508,-0.0230810487486001,-0.0097693048474894,-0.0258947638997069,0.0067780875693591,-0.0050215210473345,-0.3056336549056706,0.95211168758659,0.0077055748628583,-0.0176103413815311,9.853701552347612,-0.0163160564344807,-0.0066988054508468,-0.0006970963205064,6.482979400000356,-3.3932116624838518,2.0645457017792683,1140.1077819940824,1133.3592800692838,1142.3454224382508,1141.4106536726704,126.34305518384184,-389.93743089602566,242.38793980099547,396.1266127850442,153.80331102048035
49.2725,0.0838015575744837,-0.7254959295026571,0.0843932252475106,-0.0230564911837359,-0.0105881503931684,-0.0255284793097117,0.0067581545937036,-0.0050346459332841,-0.3056640409811864,0.9521020007313242,0.0077224393919418,-0.0174669546735342,9.851400788773752,-0.0164245345891787,-0.0069486657748001,-0.0005057263453138,6.4829327641174075,-3.3931993709611814,2.0645392552708737,1140.330444059348,1132.3224697667472,1143.098912440676,1142.6663357396908,46.27028577037552,-424.77460559000497,349.2686654303718,577.9331128088214,153.80559834080077
49.275,0.3833266872329266,-0.5657621956720561,0.0955079486021308,-0.0226717888507163,-0.0115960118726174,-0.0247542354952421,0.0067371045142046,-0.005049908198961,-0.3056935432209973,0.952092590168272,0.0079656839115142,-0.0168020288557919,9.848526082807075,-0.0165275854697654,-0.0071984467576566,-0.0003157218911961,6.482885163225532,-3.3931872882100462,2.064532694852329,1140.339133422934,1131.2354070413355,1144.091765765401,1144.3003192367119,-58.90883270773599,-430.8227452485041,447.6665882965773,706.8838923145016,153.80788427060892
49.2775,0.7150963310704822,-0.3928020338058161,0.0912357355199022,-0.0216718226767203,-0.0133503136603467,-0.0239230116045376,0.0067161982635194,-0.0050658712157813,-0.3057212794337944,0.952083738292256,0.0083979516673601,-0.0156030735910335,9.845099732496909,-0.0166249468552291,-0.0074452578312737,-0.0001303082981538,6.4828373802232075,-3.393175818252041,2.0645272381198367,1140.0358998958093,1130.1683560405036,1145.33724538216,1146.200755201265,-211.70482894029277,-441.0840585021122,585.0146252216026,829.7123223989123,153.81016078112407
49.28,1.1393638137881748,-0.160813307573198,0.0700339243054075,-0.0194633292692125,-0.0156030714644829,-0.0232844756438486,0.0066990784827639,-0.0050813465226814,-0.3057469195112525,0.9520755337783012,0.0089717012847993,-0.0138226035565749,9.84115723490986,-0.0167170094230407,-0.0076862680927665,4.660687503848809e-05,6.482790146128815,-3.3931654634102393,2.064523852844373,1139.280609278232,1129.029986748824,1147.0168388915104,1148.4488808487083,-338.5581277086554,-377.43949110579473,620.1577347630702,765.8120169831961,153.81287172242048
49.2825,1.5016619306748524,0.0464630885731566,0.046892293193715,-0.0166227977058808,-0.016717930636408,-0.0231036177444354,0.0066870585896903,-0.0050927929114209,-0.3057716587618256,0.9520676044116704,0.0096096751491962,-0.0114820707377549,9.83674852473626,-0.0168046705664655,-0.0079187347047357,0.0002104920753482,6.482743422215788,-3.3931562414290433,2.064523310881546,1138.3431092572675,1128.2811585849763,1148.4380340559724,1150.0298152861776,-422.6113984857532,-246.0598865291209,528.786208038448,518.2488285692748,153.81510636877567
49.285,1.8522307874875608,0.2423311916082334,0.0307071230155938,-0.0128401225640942,-0.0164326422449212,-0.0230532197364471,0.0066828149546393,-0.0050977784071748,-0.3057966825056211,0.9520595638634756,0.0102482994586941,-0.0085814329674303,9.831936961662658,-0.0168891686736799,-0.0081399506147806,0.0003566335015523,6.482696570986392,-3.3931479762401326,2.064525558299799,1137.1675522858022,1127.7996873161778,1149.660769931704,1151.0401249915562,-538.7754482421742,-152.36921961710712,432.65242034190726,276.10886892293337,153.81730783435592
49.2875,2.2297503381722144,0.4234007901471008,0.034065275677482,-0.0073805709633685,-0.0143751057915198,-0.0230865443675023,0.0066871103102284,-0.005096659873185,-0.3058205654630776,0.9520518607752104,0.010889336872,-0.0051498226308605,9.82679902436852,-0.0169719691247081,-0.0083471741075199,0.0004805416638203,6.482649308707341,-3.3931409069158285,2.0645299017938985,1135.6492320160553,1127.5193124868904,1150.6012961576832,1151.4103596307928,-543.778644332582,-67.20350978154529,217.36441450563447,-10.931275821904755,153.81990321249359
49.29,2.482705056843542,0.5054125583329472,0.0656714485252211,-0.0020024028156874,-0.0115968403355542,-0.0233074571993103,0.0066958722125841,-0.0050909015604957,-0.3058408470285135,0.9520453049622788,0.0115860201491988,-0.0013094604209809,9.821423796317353,-0.0170546242469437,-0.0085377607669265,0.000578192408048,6.48260174620603,-3.393135666612796,2.064535834719454,1134.4486590641416,1127.4636697672704,1150.7475920042311,1150.9854686124468,-428.1891139371593,-13.213582309019843,-104.53033238040116,-307.8679634963708,153.8220221882484
49.2925,2.636620197659023,0.5090755609976951,0.1352926350246458,0.0042592904265856,-0.0088139760852941,-0.0236162868126544,0.0067071018363829,-0.0050831441723307,-0.3058562592510397,0.952040304350334,0.0124025163352783,0.0028551594763119,9.815910069539138,-0.017138599937362,-0.0087093734001611,0.0006463111160775,6.482554273494264,-3.393132439388395,2.064542838399083,1133.5082864463684,1127.4532445753453,1150.0786444957807,1149.8710198133103,-314.70405492743606,-31.422128019296288,-487.05220269691927,-613.5713611684921,153.82409024477832
49.295,2.665560763822943,0.4487204024318419,0.2629627648608097,0.0128212954312539,-0.0068826974638901,-0.0235506861117815,0.0067203142809346,-0.0050737929604965,-0.3058691676169277,0.9520361021939882,0.0133528781439373,0.0072674969164263,9.810364503388717,-0.0172250483852133,-0.0088602326690679,0.0006824207798189,6.482506942452569,-3.3931304289874737,2.064550688177605,1132.8751387895038,1127.3065591271738,1148.3123309907455,1147.9176118066027,-130.789243407781,-98.88406484783344,-789.2267348108718,-785.7296751159862,153.82650773073928
49.2975,2.5363474622955553,0.3774903215750107,0.3994824406514189,0.0205426774462145,-0.0067699828124891,-0.0229062969757765,0.0067394662474188,-0.0050643390518585,-0.3058830683105953,0.9520315409928632,0.0144449607386056,0.0119350942369796,9.80489802158436,-0.0173146706804877,-0.0089891371927423,0.0006851117841505,6.482459563820926,-3.393128286478058,2.06455878874103,1132.85434022933,1126.9588242511063,1146.13251082173,1145.942371437734,101.48155173764546,-199.5926685391512,-975.2798510984588,-820.4393699320813,153.82846557286106
49.3,2.2391323283426727,0.3202620326886261,0.5548374720271769,0.028094880944199,-0.0076379589253007,-0.0218337097458549,0.0067687463388769,-0.0050591439709984,-0.3058970689235026,0.9520268555329254,0.015738479934849,0.0168832300133704,9.799623361381698,-0.017407723945729,-0.0090952774521812,0.0006541507043325,6.482412283028721,-3.3931258113933516,2.0645663014484135,1133.3825465481923,1126.3085957844776,1143.4359317352507,1143.8154149569402,337.3863283067842,-349.6401258185445,-1241.0447808294539,-923.7982597176872,153.8303614008923
49.3025,1.7134327636828877,0.2823892426412211,0.7463604414857742,0.0355884046273308,-0.0082584993360188,-0.020177763981983,0.0068055568793751,-0.0050571823492145,-0.3059088114357482,0.9520228263550164,0.0172318161222554,0.0219762216982331,9.7946544331549,-0.0175039461995877,-0.009178291820688,0.0005901003364296,6.482364987998255,-3.393123653113296,2.0645737383383254,1134.5412718708649,1125.2106236220127,1139.9272869175795,1141.3233801391432,480.03440486370897,-436.449373376296,-1283.8325807103809,-871.3082335942738,153.8325619937827
49.305,1.1767733726139207,0.2665037041162692,0.8962887793884285,0.0394814138846706,-0.0075961079237521,-0.0184003576265011,0.0068446850556866,-0.0050569675758771,-0.3059178419453725,0.9520196420775155,0.0189276270565622,0.0270269157884093,9.790102014508808,-0.017602447511426,-0.0092383423995232,0.0004945066351976,6.482317369623239,-3.393122067826031,2.06458137428512,1135.7827185725087,1124.126348917598,1137.0167688317047,1139.4588737889728,505.38508948317553,-433.6337092690029,-1111.361298453289,-667.2533691308441,153.8343324505462
49.3075,0.6040418468021647,0.2446145646103901,1.0168347917647198,0.0406907728324322,-0.0060577159660056,-0.0160741487349851,0.0068815947953406,-0.005058937121143,-0.3059261989965448,0.9520166769590092,0.0208563176261389,0.0318742990833796,9.786069665805586,-0.0177016529609391,-0.0092761604195719,0.0003700370187112,6.482268903044053,-3.3931204779380995,2.064588588532146,1137.068197318282,1123.0424550756668,1134.3704804253105,1137.9871132934873,486.9259076534728,-403.11841182167274,-985.836021436076,-503.71216220757253,153.83603620322242
49.31,0.0487673204237225,0.2062684085197147,1.097621753444111,0.0402395235186277,-0.0046228830061059,-0.0133239467095533,0.0069153109871052,-0.0050640834169945,-0.3059371829254139,0.9520128728877264,0.0230322806808877,0.0364308092090886,9.782650171063043,-0.0177993543147265,-0.0092930539959299,0.0002204531208885,6.482218953045459,-3.393117622479226,2.064594249646688,1138.2173481107773,1122.1107568584887,1132.0875887245215,1136.9403129779337,397.13458093128526,-302.1679769838576,-801.5741540802097,-305.0205368546858,153.8376844718736
49.3125,-0.4442586951322837,0.1476548355567011,1.113929290741364,0.038390901732069,-0.0039148995604467,-0.0101967417672371,0.0069468055014875,-0.0050759846459894,-0.3059499962568117,0.9520084619075194,0.0255013334378242,0.040666000378384,9.779922828349132,-0.0178929745599234,-0.009290721469896,5.0567271445227514e-05,6.482167681672057,-3.3931131566837887,2.0645970561562974,1139.0538702229367,1121.5316151907489,1130.362609654913,1136.4620106092152,279.31335744859035,-142.15647709133205,-611.5203600286909,-87.01910857611166,153.83926625784403
49.315,-0.9362225707409946,0.0641418874497011,1.0449677233960029,0.0352153021325966,-0.0039534192403096,-0.0062775897894399,0.0069727977448994,-0.0050937302743371,-0.3059613961223953,0.9520045160628204,0.0282455736244119,0.0444502711735847,9.777953769055916,-0.017979789102421,-0.0092712666041191,-0.0001343489825559,6.482115335393615,-3.393107493485407,2.0645970848456074,1139.6139148980187,1121.3999744730327,1129.029986924381,1136.5052174350535,135.2091409091135,55.47193832255179,-360.3725750828265,95.72049313128096,153.8410888799598
49.3175,-1.2592179765652616,-0.0089307286770481,0.911749495002127,0.0322172976453814,-0.004309311941665,-0.0033328775781123,0.0069921777716124,-0.005114005798085,-0.3059711790248481,0.9520011252836424,0.031183019594362,0.0476884944034053,9.776792472427568,-0.0180570522896814,-0.0092373451774657,-0.0003287842750019,6.482062109006129,-3.3931009194187327,2.0645952412038264,1139.7299159274824,1121.8089748823616,1128.560746779498,1136.9406130748719,-6.171325071224172,265.94094444790284,-57.406700170411305,213.52947992834729,153.84254633845703
49.32,-1.4989506712335383,-0.0826147729765582,0.7082022224545145,0.0289912033547775,-0.0042663360510668,-0.0011813533271361,0.007008379291356,-0.0051329327075219,-0.3059829245786019,0.9519971332418506,0.0341877275663843,0.0503764452013421,9.77646966558486,-0.0181221714058988,-0.0091921637157689,-0.0005271775954274,6.48200820360439,-3.3930932089781143,2.064592615179477,1139.5830582726628,1122.7296791952729,1128.742953423529,1137.5728648346956,-89.01648768645738,497.1675094847316,216.10319969946983,264.51552451414,153.84394256611813
49.3225,-1.7019099797227115,-0.1709257872939678,0.400919870575671,0.0246675958161443,-0.0038842842312372,0.0004355823261692,0.0070243115613067,-0.0051493725617968,-0.3060010689525788,0.951991098055569,0.037182594596417,0.0525271372696492,9.776997435961473,-0.0181729390433386,-0.009139317712573,-0.0007239648989024,6.481953849975753,-3.3930836202065606,2.064589122499733,1139.2848334890507,1124.2948124297832,1129.6412627779944,1138.2631906974411,-100.82455346977738,621.135480851854,425.2681593915084,202.92958351077309,153.84555075197207
49.325,-1.8065905868748704,-0.2382031785754668,0.1073995212759117,0.0206357826539396,-0.0039006406973625,0.001078867663253,0.0070407883487363,-0.005167176226984,-0.3060256001862143,0.9519829962302117,0.0401924432879559,0.0541554830238851,9.778369116877256,-0.0182078193427022,-0.0090824675482516,-0.0009135784999461,6.481899882715619,-3.393072461330459,2.0645837060437584,1139.0789355053137,1125.8353565995335,1130.8692942204875,1138.58751275225,-44.794381334508955,623.5129382420375,564.7330248219827,48.95952662943497,153.84683742249447
49.3275,-1.8485892055647313,-0.2823527227524493,-0.2069553547200615,0.0161852193097605,-0.0046299515172229,0.0010745608683543,0.0070544085817878,-0.0051852404124011,-0.306053685482575,0.9519737682214134,0.043172682123437,0.0551795363628061,9.780562112379602,-0.0182260298117296,-0.0090252102986447,-0.0010909943800592,6.4818469344771845,-3.3930606490690844,2.0645768186015796,1139.060861582378,1127.4123771209947,1132.4649279021055,1138.5079883305887,52.77578854720812,654.4317261371401,754.5737721625796,-128.49853121854585,153.84807147828943
49.33,-1.8308275493337287,-0.2856084241830136,-0.5857968898229152,0.0104689646391997,-0.0061396685582305,0.0002569976964813,0.0070631113303761,-0.0051996587824225,-0.306083887975618,0.9519639109342414,0.0460168240627472,0.0555367600584948,9.783537089902929,-0.0182274606805591,-0.0089710746964797,-0.0012517794922612,6.481795128898128,-3.3930485167642264,2.0645692890203184,1139.3428144480495,1129.1075152302164,1134.6421630812968,1137.945020096158,153.1193193959224,560.1334029442886,818.8624858947508,-261.3716424804834,153.84949462202732
49.3325,-1.765597583717841,-0.2348614423447694,-0.8835781123355817,0.0058224357067045,-0.007618872357501,-0.0012550504524109,0.0070675477442928,-0.005207359609035,-0.3061172801121223,0.9519530919112532,0.0486172542689649,0.0552309989129825,9.787238311308863,-0.0182125755115245,-0.0089234326645919,-0.0013920336662409,6.4817443634483904,-3.393035929487818,2.064561782963627,1139.826458179358,1130.2130441357178,1136.5592403315816,1137.2011301181856,228.9568876647729,358.09602288281764,761.614158510312,-307.58414114805146,153.8506345604404
49.335,-1.6616705981006419,-0.1261685517809453,-1.1358965417162448,0.0018333901879973,-0.0088284272497058,-0.0038387241204473,0.0070706179540661,-0.0052086603760157,-0.3061553395949934,0.9519408145527716,0.0509174570980351,0.0543384020052595,9.791594962842032,-0.0181823676235623,-0.0088852962693186,-0.0015082959019418,6.4816942125547765,-3.39302263684768,2.064553902433364,1140.487598886374,1130.8979953446315,1138.4502338738505,1136.4070993904168,273.39619037449967,201.95268862212464,733.2485926840793,-285.9533732136114,153.85172901270144
49.3375,-1.5377811494677631,0.0221243017956035,-1.3298221952318623,-0.0016234332115671,-0.0094929740589881,-0.0073351803703812,0.0070747178423553,-0.0052075068515799,-0.3061947087080426,0.95192812141707,0.0529353794813805,0.0529562636445634,9.796523855306184,-0.0181384142106823,-0.0088589921857106,-0.0015975504318132,6.481644455508569,-3.393009280738432,2.0645446650617862,1141.1934391312293,1131.2228075788275,1140.2254832949986,1135.7713632521188,263.2071089565688,56.04223347624472,662.256756957529,-176.3846985874359,153.85278727991744
49.34,-1.4011310958146663,0.1980466620874177,-1.4338149520348216,-0.0046890722938701,-0.0095036497829787,-0.0115508839202448,0.0070740995497242,-0.0052055567320204,-0.3062325860007941,0.9519159472256556,0.0546995288931085,0.0510240423455456,9.801934894142846,-0.0180827401343431,-0.0088462691933093,-0.00165758838298,6.48159491230858,-3.392996658529977,2.06453443626319,1141.8036344311574,1131.1782065120128,1141.7615176586398,1135.5251758974791,208.72359956659477,-74.48780469317907,602.0307047694689,7.107137791259449,153.85380356560597
49.3425,-1.2292547719253977,0.4076609306881523,-1.4441859027138153,-0.0081632222038065,-0.0086004350366397,-0.0166313192415168,0.0070634735127586,-0.0052027952343468,-0.3062697516480874,0.9519040788334114,0.0562095693042322,0.0484860869538375,9.807731113920301,-0.0180177032449489,-0.0088484614198652,-0.0016870604234004,6.481545559129511,-3.3929849633261644,2.0645238671063666,1142.2370571290628,1130.8503685553615,1143.2356368188475,1135.8068989410751,88.06703982835465,-140.40421627513788,472.45463713709114,194.2075257578328,153.85497644476075
49.345,-1.0797963406016151,0.5548004891602734,-1.36173144775076,-0.0110120236385639,-0.0068316321616654,-0.020476346293864,0.0070438529140695,-0.0051980005517693,-0.3063094330244679,0.9518914768468588,0.0574109697587289,0.0454020954355453,9.813809704435538,-0.0179459307128299,-0.0088665462265954,-0.0016854989550459,6.481496802885651,-3.3929739813488196,2.064513805217317,1142.2439696302988,1130.4761854306375,1144.1237908443231,1136.4962135262676,-80.97215950611321,-144.45385789851457,285.42910276818424,337.1589208963636,153.85591612840452
49.3475,-0.9230229761174245,0.6475040513889364,-1.200434830382198,-0.013765747751164,-0.0044974174956898,-0.0237985054321341,0.0070212503710895,-0.0051919678975844,-0.3063551209073504,0.9518769706350844,0.0582639636122117,0.0419408313709938,9.820064375594924,-0.0178702741778173,-0.0089011193088621,-0.001653181139915,6.481448791060854,-3.3929632550911535,2.0645042041034056,1141.832196331532,1130.1280992658685,1144.6627823326892,1137.4926935455578,-265.44119680093047,-128.2954849369415,166.83879592688405,450.08025453603005,153.85681782617235
49.35,-0.7303950762483536,0.6817474070677076,-0.9420438164268305,-0.016681586605567,-0.0018346527544929,-0.0270265380240448,0.0070028239815046,-0.0051874330862504,-0.3064044023735766,0.951861270464548,0.0587664792891811,0.0383059557024833,9.82638891673353,-0.017793822226141,-0.0089521464378568,-0.0015910980765733,6.481401954884031,-3.3929531794205046,2.0644945337782614,1140.9167636462935,1129.8347080059527,1144.957984823958,1138.7466147989487,-381.48381000453946,-81.7821232863769,61.75105136641081,424.56406945650497,153.8578569942822
49.3525,-0.5750799612083374,0.6464118962574825,-0.6947660463068285,-0.0184601425281175,9.11450930434688e-05,-0.0288900731321133,0.0069884349719237,-0.0051816900494268,-0.3064525810207102,0.9518459029341518,0.0588662846707304,0.0345325174515109,9.832682966323214,-0.0177196768334298,-0.0090190344149791,-0.0015012643849616,6.481356551475217,-3.3929444947873133,2.064485815057296,1139.924777281511,1129.719188649437,1144.9715375895207,1139.6155138928384,-403.80303232497937,-21.841539526747248,-26.17795928830244,271.02665435140585,153.85868780335542
49.355,-0.4415348700751868,0.553135280528517,-0.4406922069536614,-0.0194885539642818,0.0017723469787525,-0.0298758316782562,0.0069751407495356,-0.0051704388487929,-0.3064961112344902,0.9518320531992196,0.0585050321794556,0.0305928368780883,9.83885194416373,-0.0176506831583351,-0.0091007780252699,-0.0013864741667065,6.481311918825639,-3.3929374387636555,2.0644792097143227,1138.8977484846675,1129.7255003083187,1144.8270950275164,1140.1017480707067,-409.6816842252516,21.283853136981655,-81.11374047430614,109.70522725600703,153.85948253626844
49.3575,-0.3259345345940346,0.3902731550070278,-0.1536719754334948,-0.0200565431329274,0.0035693421248404,-0.0302293580173201,0.0069575441440841,-0.005153122873759,-0.3065333043656673,0.9518203073537,0.057715513981417,0.0264341057957667,9.844807408234162,-0.0175892015397167,-0.0091960556603363,-0.0012498953257927,6.481267028472393,-3.3929318438474327,2.06447521360058,1137.8763688603835,1129.825607915122,1144.5659688871492,1140.1640400291187,-307.4653786202884,42.945877231061736,-96.91712657604232,-52.34195629464224,153.86039468617713
49.36,-0.2768664113943899,0.2282104497951538,0.0571496690979541,-0.0201834013000359,0.0047194412320922,-0.0299893201010993,0.0069325945103097,-0.0051322741427071,-0.3065635839476377,0.95181085947307,0.0565799161583179,0.0220635615154053,9.850467472763693,-0.0175369666012195,-0.0093033448724994,-0.0010947619156369,6.481221109663441,-3.3929273801542967,2.06447340657648,1137.3604215915675,1129.940229694474,1144.3425093946366,1139.8400382892337,-110.72580496614837,41.12835904454811,-74.01215125033411,-170.68768226936663,153.86112012684222
49.3625,-0.2802771099530614,0.0641964840670913,0.2290572845982243,-0.0202003920897891,0.0049525117163196,-0.0293605485806956,0.0069026703228555,-0.0051139139099635,-0.3065868940829546,0.9518036782295192,0.0552178524068622,0.0176083324563536,9.855757185530436,-0.0174950714914363,-0.0094210736907573,-0.0009240368283717,6.481173879795208,-3.3929235708028824,2.0644722185961535,1137.3227398355527,1130.0312497103448,1144.1959081308971,1139.3106016177715,72.21560084854843,25.074284385060214,-33.528819892336415,-208.17493608477244,153.86180933009203
49.365,-0.3220975843909525,-0.080285174543885,0.3657126198483837,-0.0202964694685178,0.0042326540895499,-0.0285371767033489,0.0068688268603103,-0.0050990665851638,-0.3066052258407089,0.951798108445502,0.0536667073875602,0.0131374729934947,9.860612156068653,-0.0174639955786055,-0.0095478179636633,-0.000740620051651,6.4811257923252015,-3.392920198332922,2.064471490909966,1137.7214995958104,1130.0656011163994,1144.1748652951749,1138.7991636088093,259.01020154306843,-6.976816704861427,34.7486360790615,-154.69905668265227,153.86246835297905
49.3675,-0.3945672591533598,-0.1818035442070031,0.4591624420595097,-0.0206669877732764,0.0029741579623045,-0.0276026012332291,0.0068327045227835,-0.0050853094607635,-0.3066207493266107,0.9517934501980612,0.0518980306007687,0.008706764933885,9.864977913634164,-0.0174437381571273,-0.0096823579365629,-0.0005472242546459,6.481077438353856,-3.3929172371695935,2.064471942347073,1138.617790843267,1129.9963656268203,1144.3696513112925,1138.537106334359,483.2357908226897,-60.83286873205523,147.3253498537516,-14.67451008115108,153.86309096766124
49.37,-0.4862264871134437,-0.2452213585662549,0.5208306142908445,-0.0216019453417948,0.0015658788261442,-0.0262165863831204,0.0067965427208946,-0.005071113216415,-0.3066349826508363,0.9517892054285504,0.0498978250276192,0.0043852654508115,9.868808944106153,-0.0174338936120914,-0.0098237065246178,-0.0003461417570908,6.481028815628585,-3.3929145055120298,2.064473775201417,1140.137678549925,1129.7614367727388,1144.911492044444,1138.7257910584035,601.4238556083108,-113.97990975041093,253.88994482360172,165.06169519476057,153.86379617865651
49.3725,-0.5387679425852708,-0.2541553046123314,0.5291225706192176,-0.0228303126946549,0.0006971211253222,-0.0247042562425127,0.0067620841514165,-0.0050551237548399,-0.3066487402353029,0.9517851074578884,0.0476587388275925,0.0002306610968646,9.872068718609007,-0.0174336733044487,-0.0099711213619657,-0.0001391683596637,6.480979647200575,-3.3929119289914214,2.064476728921391,1141.62491012131,1129.426466078068,1145.6391010354112,1139.3624148103331,597.6001489385432,-162.70584788914013,345.5756653970598,341.89996844396944,153.8643491656195
49.375,-0.5313423021288448,-0.2308965991541706,0.4933315122040337,-0.0244711827404471,0.0001800716188874,-0.0230475545963228,0.0067318902096556,-0.0050408033252888,-0.3066634031533884,0.9517806770097488,0.0452585004573658,-0.0036574747394123,9.874728313591376,-0.0174419180938382,-0.0101241565073921,7.268659824803102e-05,6.480929726844432,-3.3929092902846296,2.06447934885056,1143.125679294615,1128.947907533294,1146.6393703714275,1140.4352909006216,611.9045371106148,-238.80516943676304,488.33117300272386,530.7602827444778,153.86486659586987
49.3775,-0.4163126195627166,-0.1835171983345121,0.4073729489570706,-0.0269109632705697,-0.0001245963123695,-0.0213964372389462,0.0067052231526314,-0.0050282374925002,-0.3066809922853359,0.9517752684984357,0.0427303694588025,-0.0072643061270963,9.876768055098708,-0.017457169737149,-0.010282667494444,0.0002888198971603,6.4808788387338,-3.3929061741443234,2.064480937548821,1144.6844328068603,1128.2324402308855,1148.0807569004223,1142.016216224053,498.0541658944456,-278.72631453091634,549.7937541030667,588.3055658806999,153.86544711431296
49.38,-0.2139281162133521,-0.1385851593431428,0.310815050200855,-0.0291398531073962,-0.0002036530928377,-0.0204696294187282,0.006680887849604,-0.005016924156918,-0.3067019878876852,0.9517687372745678,0.0400980758186317,-0.010589215322848,9.878176165130684,-0.0174778516382855,-0.0104467217312872,0.0005089904747125,6.480826814785644,-3.392902240076235,2.0644811719543346,1145.6159501240886,1127.5542759606387,1149.3883391419445,1143.3768187300268,268.645131302036,-275.2127034986599,515.1702311322972,507.47080731181507,153.8658978455248
49.3825,0.1011167412575603,-0.0961450526568656,0.2043329395623992,-0.0308385860537623,-0.0001943845750926,-0.0200039099528618,0.0066575954247111,-0.0050076478476946,-0.3067254462335238,0.951761391466152,0.0374087725605313,-0.0136272238881305,9.87894827308092,-0.0175024539055684,-0.0106165589986805,0.0007331323102892,6.4807734267436174,-3.3928972146152607,2.0644797968238793,1146.0276584633712,1126.8563767133915,1150.6566080560851,1144.5535702606135,49.67442564052333,-291.9009203975219,510.5537567649304,439.704201505119,153.86631496553872
49.385,0.5800684737755174,-0.0512321839945555,0.0827444270362531,-0.0312238711407403,-0.0001573882617971,-0.0198753126577862,0.0066350332236022,-0.0050006258179549,-0.3067502657482753,0.9517535874449248,0.0346918777386195,-0.0163597854661754,9.879087628232622,-0.0175297384479315,-0.0107925717602109,0.000960987000772,6.480718912182412,-3.392891274788909,2.064477396740937,1145.864322252291,1126.0947713586525,1151.9411079257668,1145.5753397375504,-162.6191034824465,-251.42900114875243,405.3475032660772,300.4040521532542,153.86677678984572
49.3875,1.0228491473059476,-0.017631449200796,-0.0031554274591852,-0.0295730743438583,-0.0001390922716668,-0.0200471944717724,0.0066183458045545,-0.0049987937054461,-0.3067758815385724,0.951745457452491,0.0319941812818549,-0.0186505051580577,9.8786043592122,-0.0175589449368654,-0.0109752400599045,0.0011919961143441,6.480664091068377,-3.3928848633001434,2.0644742067798743,1145.2145629459585,1125.599231707647,1152.6833455724168,1146.0555905213805,-343.096402037424,-153.94763103214555,204.81614582402904,123.35166514474676,153.86712889696943
49.39,1.4517197259074106,0.0160009566205313,-0.0650894054765702,-0.0259771031571437,-0.0001526562474305,-0.0204256307508003,0.0066102165895189,-0.0050012281648908,-0.3068021052680064,0.9517370484793524,0.0293048368841517,-0.0204340856464643,9.877517899611528,-0.0175899411849573,-0.0111650471313767,0.0014247426526716,6.480609654969498,-3.3928782777319246,2.0644714611668755,1144.148840242103,1125.325033203491,1152.9651886548875,1146.1920980632744,-470.5966653573984,-65.94154980631714,27.00141131779401,14.466906896645439,153.86744574346608
49.3925,1.8267561757602064,0.0533040909848061,-0.1047318528626178,-0.0212634674442709,-0.0001920125910466,-0.020906812483939,0.0066115689207984,-0.0050061818764297,-0.3068283001132078,0.9517285673230949,0.0266089948716903,-0.0216850973597849,9.875856878796217,-0.0176232564535124,-0.0113623378855272,0.0016569718412461,6.480556154433912,-3.392871922960176,2.064470556479838,1142.8615796191737,1125.2695239586155,1152.8183526290056,1146.1279250558637,-536.7299805522617,30.86290303384216,-159.88716718676193,-47.731781140076365,153.86773187772815
49.395,2.0966533990259713,0.0984174343079385,-0.1188756932939364,-0.0155377332418078,-0.0002424802754421,-0.0213749849376954,0.0066227522058122,-0.0050119174888145,-0.3068539605316205,0.951720183013548,0.0238970581393443,-0.0223910884611609,9.873659288857747,-0.0176599739132488,-0.0115672106816323,0.0018857159997098,6.480503726534355,-3.392866045947359,2.0644723206624653,1141.4651903393403,1125.4793477186606,1152.1657528189533,1145.953439157574,-604.2207582457742,141.45128731531298,-383.6479088407343,-70.07628435190834,153.867978561062
49.3975,2.265512057682947,0.162338025382385,-0.1126190372052148,-0.0077684441668914,-0.0002592158338857,-0.0216480525298726,0.0066413451263132,-0.0050175736060317,-0.3068793562873834,0.951711830526185,0.0211949079846723,-0.0225892631699834,9.870972980447121,-0.0177015421269671,-0.0117794236380148,0.0021075488633416,6.480452279959829,-3.392860787178128,2.064476995645759,1139.8404758279432,1125.9767803951927,1150.9001130848008,1145.777543634104,-568.79378728392,205.72799099541564,-519.8533543272514,-42.0543209464468,153.86822504137405
49.4,2.268651990724931,0.2203636414829058,-0.0936158651772457,-0.0009021815931641,-0.0001682853010203,-0.0215829262469399,0.0066651968185004,-0.0050273361317468,-0.306904864850978,0.9517033831491593,0.0186242330766187,-0.0222848087573199,9.86785490736696,-0.0177495801142536,-0.0119982476304857,0.0023191095896418,6.480401572247404,-3.3928562643796583,2.0644835173858795,1138.6212214029233,1126.5079876736368,1149.5664860473191,1145.743167552842,-448.75906964734673,209.1914621948784,-556.4126402717529,17.335828383638955,153.86838572091696
49.4025,2.1415739468828527,0.2735604436581094,-0.0638344496132077,0.0055131127064604,0.0001456033187079,-0.0214423060067139,0.0066881219563146,-0.0050421753692717,-0.3069300304863343,0.9516950265255786,0.0162734391736676,-0.0215826353538004,9.864372308550317,-0.0178057438462207,-0.0122223871035401,0.0025169883831489,6.480350676295168,-3.392852637985039,2.064491375042101,1137.5966804797051,1127.0227377061676,1148.1180498834408,1145.864222776022,-405.78274386700446,190.4172875371322,-624.8976039624708,80.69082732759361,153.86849551696253
49.405,1.8804207646318,0.3137740155508233,-0.0130101306144951,0.0115180679490092,0.0009324261664304,-0.0213360025458813,0.0067046261465457,-0.005060594687061,-0.3069530659926996,0.9516873819460032,0.0141830267524877,-0.0205947719038868,9.860601277915697,-0.0178716252771615,-0.0124499404912529,0.0026979781186718,6.480298722443609,-3.392850132710311,2.064499882326623,1136.5923076835873,1127.460074111323,1146.4419980275054,1146.14662168948,-335.4674054569254,112.13761748796254,-582.6050323228015,109.58999531108891,153.8685636323994
49.4075,1.6123307277882812,0.3120967078804443,0.0474442262451806,0.0147970029739761,0.0020149779347289,-0.0212596248229536,0.0067139894791053,-0.0050787239850281,-0.3069725999852275,0.9516809161052114,0.0123223042198454,-0.0193639039846119,9.8566250853536,-0.0179486713854901,-0.0126785324105199,0.0028592134716507,6.4802457808743235,-3.392849194228717,2.064508700586691,1135.9193434524223,1127.5834257936067,1145.2050247218294,1146.4121727525771,-239.5099476933549,-11.0557775992618,-449.3838392887003,84.08423503383592,153.86856431598136
49.41,1.3335797624833543,0.2578396321721505,0.1351826643036404,0.0169415156359073,0.0035150874959298,-0.0211639742943493,0.0067183814952513,-0.0050919988548546,-0.3069877320389357,0.9516759285778926,0.0106317277119428,-0.0178893050756158,9.852532838757428,-0.0180381395265433,-0.01290547941957,0.0029982450120381,6.4801923597588225,-3.3928501751548,2.0645182293993654,1135.3947579451199,1127.4047952233263,1144.1950788310608,1146.5670428646495,-193.0559573915993,-145.13896680638783,-397.21293474906497,6.9595389034894515,153.86850371952124
49.4125,1.0116473248620688,0.1255895133422477,0.2809546234543889,0.0192579377454401,0.0054099727038657,-0.0210843502778751,0.0067231395884209,-0.0051009991395235,-0.3069982458190764,0.9516724497773004,0.0091297485382252,-0.0160867757446117,9.848417213191896,-0.0181409621694557,-0.0131279713771355,0.0031133195978883,6.48013870285108,-3.3928530137580983,2.064528345372391,1134.9540636654635,1126.8577309595746,1143.218960048083,1146.4469704470944,-120.69517041311036,-246.0483986779728,-333.78033348834265,-116.80713818069925,153.86835730615445
49.415,0.7566043368374542,-0.0315530064434338,0.4388258013306651,0.0211574652286945,0.0064044346372234,-0.0209926815264758,0.0067302878943811,-0.0051050736448754,-0.3070056455777572,0.9516699841620327,0.0078310916837052,-0.0139489198999021,9.844374014268132,-0.0182575853014594,-0.0133433365911204,0.0032030797177324,6.4800847962736725,-3.392857236399984,2.064539485262024,1134.7912820930549,1126.1745532299378,1142.5261771636203,1145.9830071737465,-6.511693104217863,-303.70096722843226,-278.01961527920287,-275.2950125263352,153.8681722702019
49.4175,0.509497560011086,-0.2102063692945164,0.627849701524609,0.0229607868628799,0.0060082494614886,-0.0206641054370002,0.0067410648178228,-0.0051030785648207,-0.30701158987189,0.9516679936494292,0.0067438633096169,-0.0114929417098822,9.840499552117103,-0.018387859307325,-0.0135491096825676,0.0032667137476454,6.480030363137047,-3.3928623237600184,2.064552010044065,1134.9215051999427,1125.3392261234317,1141.8288619716864,1145.0704953844622,112.0760077378572,-345.125607962569,-299.31878329310314,-437.43882062781626,153.8679204535856
49.42,0.2647482491483343,-0.3809112164500097,0.827239489703219,0.0245222445030348,0.004667159670921,-0.0198850259999719,0.006753750326065,-0.0050966187339191,-0.3070167146885871,0.9516662760654612,0.0059417874344655,-0.0087811525265401,9.836888367020537,-0.0185309476190465,-0.0137430885504941,0.0033042109773354,6.47997525012611,-3.3928680723861393,2.0645657893637814,1135.3516621317444,1124.448925190124,1141.0295832471543,1143.7958130706063,251.20104819316217,-350.9175493121356,-359.84742392184654,-577.8461345373925,153.8676126588538
49.4225,0.0247598374338267,-0.5162843140242231,1.0061711904811779,0.0253960589733875,0.0029272114436282,-0.0181840993349217,0.0067638354832025,-0.0050886365573204,-0.3070206402705858,0.9516649707170436,0.0055350004875944,-0.005925460167755,9.833630874779725,-0.0186852877455833,-0.0139234068632962,0.003316476748476,6.479919313938578,-3.3928742793531264,2.064580384090039,1136.177510440907,1123.5846383768724,1140.0296248520788,1142.1812647117779,449.1785340324871,-349.96646007580523,-486.8966038165364,-745.8091941483239,153.8672371938065
49.425,-0.2438546478447277,-0.6174443937822282,1.141349294393354,0.0253227308219865,0.0008371295276135,-0.0146503983477743,0.0067725939682007,-0.0050828925756386,-0.3070235487737963,0.951663991911032,0.0056068695482799,-0.002929105490948,9.830809351123888,-0.0188485600383906,-0.0140886027112717,0.0033055768312588,6.4798621481303815,-3.3928803249896338,2.06459461084128,1137.597554801908,1122.699092889744,1138.5951002280704,1140.0667670998628,576.5914919899166,-283.353611264684,-548.2244822774115,-766.2209392866033,153.86670914689915
49.4275,-0.4360619858746978,-0.643016718850022,1.145991520647448,0.024228506385601,-0.00088832153731,-0.0103950103467286,0.0067816733533609,-0.005079149161,-0.3070264530481333,0.9516630047145316,0.006155079319137,0.0001840789686901,9.828496682039965,-0.019017761134604,-0.0142377118914016,0.0032744786153445,6.479803437854136,-3.3928855703693257,2.064608013526453,1139.0604679008584,1122.1678703205484,1137.2885024406903,1138.350160015343,613.7526952276528,-156.3732476885492,-506.0720803867808,-633.0157961874038,153.86620588289273
49.43,-0.5777867744400588,-0.6035464728586981,1.0047045810935944,0.022162747013083,-0.0027033721330211,-0.0053912205521292,0.006795273899211,-0.0050784051988695,-0.3070292028272843,0.9516620228881733,0.0071753510448021,0.0034434197632328,9.826753214235172,-0.0191893809790635,-0.0143701700195354,0.0032272357815439,6.479743343201023,-3.392889995950931,2.064620100643188,1140.6663182780435,1121.917226651302,1136.0647398261387,1136.9016881189286,699.3208948022644,-42.92962166985112,-458.0929795222276,-538.718776016728,153.86563957647616
49.4325,-0.6810202908319195,-0.4821822726144471,0.6689498939216069,0.0192067438952761,-0.0049535259360318,-0.0001524777105507,0.0068180715982111,-0.0050848122042922,-0.3070297960714836,0.9516616372113856,0.0087089780330819,0.0069055003201333,9.825624945085426,-0.0193595866823444,-0.0144857715583784,0.0031688827961749,6.479682549470288,-3.3928940263714025,2.06462962095694,1142.5570723748715,1121.953222212199,1134.998037543078,1135.656566135258,659.8472990501967,60.887348416250234,-280.71187246954844,-362.6644243050087,153.8648913550504
49.435,-0.7177876242855262,-0.3265685729793978,0.2862075800401876,0.0168955983336905,-0.0065478814239246,0.0023741243603331,0.0068473929303746,-0.0050971018061602,-0.3070279247872708,0.9516619727909462,0.0107290146570224,0.0104574513312697,9.825144408289043,-0.0195242800906063,-0.0145848493215261,0.0031046420713687,6.479620823801476,-3.3928976078744912,2.0646363993065595,1143.965554773296,1122.2216633933836,1134.6611804637903,1135.0883659974027,505.3050689909972,137.11742799895285,14.711395743019883,-134.72411297437677,153.86421452935645
49.4375,-0.7243665116540265,-0.1326956983818155,-0.1303618825053375,0.0153895502056204,-0.0071205830319237,0.0019409248067181,0.0068790747614955,-0.0051130539100896,-0.3070256416576206,0.9516624084635328,0.0131883499970718,0.0139549853800578,9.8253283660534,-0.019679159540294,-0.0146682408181379,0.0030398396642808,6.479557296893654,-3.392900159317324,2.0646407058607665,1145.083597719824,1122.6388093521932,1135.071594521793,1134.9829455703866,414.2694027622968,191.7328704034314,358.8164195058278,36.0480902593154,153.86348800121323
49.44,-0.7259723350324842,0.1163784456343396,-0.5769620806345558,0.0145077838045202,-0.0065191411659336,-0.0015638509804082,0.0069067198041221,-0.0051296604587923,-0.3070248872843622,0.9516623797548274,0.016027818801647,0.0172108439641551,9.82617766435969,-0.0198199766488772,-0.0147371869373399,0.0029795310656453,6.479491486656057,-3.392901226734289,2.064643265783321,1146.0369017871055,1123.1803277453998,1136.4552625613176,1135.268606448699,287.49821738000566,191.45395280838085,634.6648355858115,148.84791592623176,153.862566453062
49.4425,-0.7342488629519374,0.3208835530959309,-0.856213531470358,0.01380596199111,-0.0054191966079576,-0.005516255221843,0.0069265535646376,-0.0051435941119337,-0.3070274796312142,0.9516613421243808,0.019156592566128,0.0200896477049684,9.827676394879326,-0.019942838861409,-0.0147932979913825,0.0029283097094053,6.4794238947317115,-3.3929007727927822,2.064645175640447,1146.5210888067247,1123.5960791162356,1138.2449186997237,1135.727185150018,140.15253021531967,154.9563156741104,798.8079564459445,199.8341002255871,153.86176330780128
49.445,-0.7471061568168202,0.5118281638790247,-1.017803549139604,0.0124850346943995,-0.0040774009250452,-0.0092177007339489,0.0069388459740042,-0.005153161716586,-0.307034618703191,0.9516589123452194,0.0224816010533038,0.0225473642098148,9.829791990305832,-0.0200445355523308,-0.0148384906978101,0.0028902657145554,6.479355593894519,-3.392899131068571,2.0646474299645123,1146.7376644381827,1123.9551093237708,1140.4493023435496,1136.2677769498275,52.31980346466327,141.6330556691188,903.603063992208,212.3704621791261,153.86093092482952
49.4475,-0.7520869181967609,0.6898180194454686,-1.0898348496116563,0.0104143852467938,-0.0026846029525871,-0.0124400961626152,0.0069447981558325,-0.0051564762493315,-0.30704613174829,0.9516551467508892,0.0258940566247363,0.0245629747033776,9.83247721661303,-0.0201227987006217,-0.0148749034241165,0.0028688402679319,6.479287018391183,-3.3928967434342767,2.064650401336163,1146.782687824048,1124.3042443945803,1142.7629340196806,1136.7890374609128,-12.81134390355218,154.5512605418599,894.4507548051632,191.674917170387,153.86007925334087
49.45,-0.732289060017183,0.8524293706056733,-1.0799720264903343,0.0076800821535642,-0.0012993927825673,-0.0149656824843071,0.0069481712157882,-0.0051551745499314,-0.307061122781542,0.9516502988252816,0.029331338399619,0.0261921370318018,9.835670797965047,-0.020176386616665,-0.0149048156863773,0.0028671020731577,6.479218435695615,-3.392893809799907,2.0646531903760734,1146.6736077186647,1124.7278656264805,1144.9215561175777,1137.22615153568,-75.01616077430097,226.0641855831844,852.5467375417705,169.3899269410892,153.85920968431526
49.4525,-0.673135440397532,1.0247381025820967,-1.0123609165557723,0.0047046152386355,0.000627620599072,-0.0172705361192599,0.0069495450360919,-0.0051495474684869,-0.3070791465146193,0.95164450638124,0.0327228383724132,0.0274308623212779,9.839301147626557,-0.0202051107608868,-0.0149306501169077,0.002887472139482,6.479150408105572,-3.392890577749832,2.0646559154658513,1146.4076070201763,1125.434565322497,1147.0256677073917,1137.6359870956187,-118.0332278352744,302.03552753064474,660.9351726972008,135.64346012125102,153.85815163366695
49.455,-0.6018670237257969,1.1378052493382058,-0.933236140909087,0.0030038122816924,0.0027857069774585,-0.0188899805077895,0.0069478252182633,-0.0051399029424908,-0.3070995904014055,0.951637972416206,0.0360089176887992,0.0282521194537949,9.843287923012486,-0.0202098291075407,-0.0149548452000486,0.0029318058663571,6.479083462467824,-3.392887357140373,2.06465880415227,1146.083441579489,1126.2380432641323,1148.2262319810607,1137.9043688362856,-152.69451051373295,365.66407010713584,351.44285460464954,101.07064367197665,153.85726167685132
49.4575,-0.5249433072953325,1.196747909608957,-0.8477467975997518,0.0021021791734256,0.0058312346591905,-0.0203895702680567,0.0069418198298091,-0.0051271171152584,-0.3071212908413666,0.9516310762042446,0.0391441834783261,0.0286386247405387,9.847543783879688,-0.0201923594067088,-0.0149797299425454,0.0030014360360114,6.479017799978492,-3.3928843396288806,2.064661560701086,1145.6441344676073,1127.2628856730337,1148.7828819804158,1138.1413403139788,-224.08430648072127,488.10845972786893,104.55310700380431,104.71350147016992,153.85636712382822
49.46,-0.4433974288915032,1.1773935536229678,-0.7438398150621698,0.0014137484289908,0.0103704652656345,-0.0222523392619931,0.0069313094837067,-0.0051126538061904,-0.3071437407240478,0.9516239762877148,0.0420935088866744,0.0286028104190323,9.851976447311799,-0.0201552830302178,-0.0150074695695678,0.0030971716170135,6.478953630405201,-3.3928818873546556,2.064664302907969,1144.963020047085,1128.6785855627727,1148.74899751608,1138.4279363436367,-277.25815532146703,535.1539988959622,-110.52522780397388,105.90554466703534,153.85529209810292
49.4625,-0.3899044768999507,1.074562371673004,-0.6537685330284729,0.0007773795890661,0.0142248284413924,-0.0239464212581184,0.0069193572766999,-0.0050996012110726,-0.307167449216787,0.951616472178872,0.0448394050477637,0.02823605406562,9.856490370378289,-0.020101726691411,-0.0150399770279539,0.0032193420249765,6.478891099568536,-3.392880146025803,2.064666686017844,1144.2578436910012,1129.938655667511,1148.2302558413965,1138.6708680373135,-308.62422496263787,503.94025023644326,-277.1148383024812,91.81908395075729,153.85439717619678
49.465,-0.3500670283945443,0.8854279665698654,-0.554516561251243,-2.5997625348166982e-05,0.0172646771702312,-0.0256454390499377,0.0069069602592479,-0.0050852112510022,-0.30719300941628,0.9516083818224184,0.0472760855079862,0.0275625646991761,9.860991660444428,-0.0200351942617627,-0.0150788448809256,0.0033672921262268,6.4788298061160745,-3.392879004748657,2.064669245539481,1143.4198989222707,1131.1982868139564,1147.3634233245668,1138.8870317633907,-389.3543437938488,541.0813864890275,-419.2268393614669,78.12455389494613,153.85350551225895
49.4675,-0.3119341548584879,0.582520203545206,-0.4213055212673336,-0.0012135461805517,0.0196412062241857,-0.0273268893852083,0.0068951946291126,-0.0050667254747145,-0.3072202824782269,0.9515997567173826,0.0493068816470255,0.0266139274657371,9.865388949107425,-0.0199593548289038,-0.0151252325951474,0.0035396432666657,6.478768989580879,-3.3928784763173687,2.064672595405003,1142.3110719720307,1132.6440625999576,1146.134121644588,1139.0614908067885,-411.2239356337898,513.962285086076,-452.5650412872006,45.72348910446247,153.8524416240629
49.47,-0.2846918751534542,0.2907485926400048,-0.2995641355812813,-0.002396997505467,0.0206297257616644,-0.0282944665512767,0.0068854956682114,-0.0050438385533595,-0.3072483566945687,0.9515908820426948,0.0508895321417628,0.0254483622602152,9.869595021608836,-0.0198778868801754,-0.0151798461997808,0.0037344307909809,6.478708164364443,-3.3928790120915795,2.064677229334497,1141.3637792441039,1133.7680982393845,1145.100598118133,1139.1156492089128,-365.0016532424112,430.18420351377966,-387.1783876719584,9.728556390468409,153.85156165569663
49.4725,-0.2636696255609967,-0.0123111468326803,-0.1707158878804005,-0.0036331255357448,0.0207503999410615,-0.0288589185079056,0.0068760335503081,-0.0050190913183465,-0.3072765625067977,0.9515819743039268,0.0520658198491701,0.0240841381210464,9.87352940852586,-0.0197943367516409,-0.0152430637914992,0.0039491530993361,6.478647840038028,-3.3928810893406687,2.0646835569799005,1140.486063705818,1134.7949836175276,1144.1982297062273,1139.1101335887408,-325.7739057686801,394.8664131439526,-326.42231068368017,3.9053779137682816,153.850690124451
49.475,-0.2555257268237406,-0.3042800579111039,-0.0397793836389,-0.0045975718661197,0.0202294103041314,-0.0290933718401896,0.0068670435808433,-0.0049979389454056,-0.3073056234408137,0.9515727705321296,0.0529303739854771,0.022599233912382,9.877118917430575,-0.0197119591758176,-0.0153150500362628,0.0041810068189484,6.478588545556181,-3.392884486795693,2.064691157739365,1139.7349097152596,1135.7424303051052,1143.4684865647137,1139.1351760984817,-257.8707807466416,362.43927320962246,-245.9179776048094,46.120059079972734,153.84982660448358
49.4775,-0.2791633474641357,-0.5608767820073514,0.0891559284794694,-0.0048941998696335,0.0189497818723697,-0.0289769322102325,0.0068560662647768,-0.0049802680126756,-0.3073365840488473,0.95156295069642,0.053499674183599,0.0209894060283534,9.880301600666076,-0.0196336194495961,-0.0153958469225927,0.0044265552589523,6.478530128746485,-3.392888821917726,2.0647003940042206,1139.196709802086,1136.607179983574,1142.9686398182043,1139.3407338841405,-181.33488338116692,365.32799401556485,-172.24376492308977,170.10714470152772,153.8489737746964
49.48,-0.3644585466145645,-0.8034293162668015,0.2364168600251441,-0.0045864545092373,0.0165542668708242,-0.0286296243131222,0.006840638202285,-0.0049639319178589,-0.3073694869992027,0.9515525266114297,0.0537612922131741,0.0192391396101378,9.883026516331249,-0.0195616436713682,-0.0154853276324595,0.0046820825484103,6.478471861770678,-3.3928936925302766,2.0647112677864543,1138.828235298353,1137.569070275184,1142.6072677400975,1139.9857118219895,-91.22977596039043,340.5353746282421,-99.9300008052558,322.1183810120864,153.84796382807974
49.4825,-0.4882009748295548,-0.9373094107484052,0.3487703549169265,-0.0041929479246001,0.0139682041468646,-0.02826098043491,0.0068214939996423,-0.0049479189413649,-0.3074038050004411,0.951541666231128,0.0537127907243808,0.0174003286693001,9.885253105182926,-0.0194976933356651,-0.0155831962978794,0.0049439502515127,6.478412849317742,-3.392898887737777,2.0647234997363038,1138.7405609222835,1138.309856856716,1142.4689898141778,1140.9513257892015,1.893302351665528,277.9587341360438,-26.432493887501945,477.9220878215055,153.84713415057124
49.485,-0.6527603116497658,-0.9913365105823224,0.441978440810317,-0.0045462870728552,0.0109749823967804,-0.027557967238751,0.0068005547762899,-0.0049315351828566,-0.3074389379035731,0.951530553352032,0.0533572199860612,0.0155488024911674,9.886951997290067,-0.0194427719309704,-0.0156890655273706,0.0052086637901872,6.478352638638868,-3.3929042223007535,2.064737254052941,1138.8377018101116,1138.9588639458627,1142.4751052706604,1142.375322261095,73.62460960494771,248.23422544528543,41.13741998860574,703.8624332282361,153.8463181167062
49.4875,-0.8562741060118947,-0.9660108050027058,0.5161126323922284,-0.0066080963232662,0.0074736622538516,-0.0260344237424871,0.0067815072839199,-0.004915876801226,-0.3074740572285002,0.951519425817686,0.0527259372930787,0.0138034527431811,9.88810451574442,-0.0193973311342853,-0.0158025033336556,0.0054730775821257,6.478291453643116,-3.3929094476912542,2.0647522421250044,1139.1086839703087,1139.5510279839432,1142.6746769141207,1144.4706379553447,118.9199214899264,169.36325447500596,116.05227621774677,791.9370660501995,153.84535687103664
49.49,-0.9932049805712528,-0.8802382287191448,0.534190087777287,-0.0097263302487254,0.00525624323503,-0.024266913011419,0.0067625950718645,-0.0049002032529288,-0.3075087940944567,0.9515084205327458,0.0518527843232213,0.0121678759023395,9.888704236682765,-0.0193614053815902,-0.0159231953430729,0.0057342061466589,6.47822985013437,-3.3929144317262825,2.064768364767584,1139.4323014175616,1139.8056802182384,1143.0553666517494,1146.335007591348,147.57574504660403,30.689556959969824,212.8341172087065,706.7747007435689,153.84457298637875
49.4925,-1.0584245208192544,-0.7446114603838354,0.4975615363236122,-0.0135552877396455,0.0038830721666168,-0.0224273740045237,0.0067419945881077,-0.0048851735491604,-0.3075429640955041,0.9514976055159162,0.0508010359942606,0.0106505144160515,9.888754622411774,-0.0193347170343635,-0.0160508683963631,0.0059895520426279,6.47816857848143,-3.3929190761112795,2.0647853942797303,1139.846562695541,1139.704475768743,1143.7388475001635,1148.0045114590591,205.3772316389172,-146.93493208812228,383.96941919011994,614.2269972255731,153.84381012114372
49.495,-1.03397333089617,-0.53853477744743,0.3912427297632757,-0.0178144043799021,0.0025502634759409,-0.0205894868657139,0.0067188250830444,-0.0048720287125879,-0.3075760400982339,0.9514871491566907,0.049640715366112,0.00927802535289,9.888268084369619,-0.0193167517289515,-0.0161851833727337,0.0062371394948395,6.478107766427672,-3.392923476935069,2.0648029166871167,1140.4591875757567,1139.0710055577974,1144.9752137477008,1149.4061425774776,244.82007394364,-324.3968175984878,523.8762244931926,370.1783725201419,153.84292352596083
49.4975,-0.9304808781985116,-0.3341758685015095,0.2588108061596175,-0.0206889258671944,0.0014070845490427,-0.019470006062124,0.0066917960981266,-0.0048605901186629,-0.3076076389105022,0.9514771850396524,0.048418051567203,0.0080570368558482,9.887265527393712,-0.0193067582758161,-0.0163256664970406,0.0064754021254374,6.478046853156604,-3.392927889889204,2.0648205044497328,1141.0706630652599,1138.0824916807496,1146.3582286226308,1149.855403321661,260.90167453318,-486.7007893827456,614.5535889640219,4.814422725898853,153.842212587527
49.5,-0.7566510960982901,-0.0970771093705878,0.0971629006922166,-0.022737761035633,0.0005238756786835,-0.0188025593499434,0.0066635331519756,-0.0048518339666633,-0.3076379689828875,0.9514676235430564,0.0471766918738348,0.0070705628227718,9.885773997781667,-0.0193037227728139,-0.0164715828003568,0.0067033298400073,6.477985379693526,-3.392932194051655,2.064837493375151,1141.7636959484214,1136.637501610886,1148.0479816925183,1149.430214691107,280.960489778482,-641.6112546365108,707.2337527617558,-309.55485044501944,153.84153584164287
49.5025,-0.5403050401378166,0.1637169082987444,-0.0728368234110298,-0.0240910740088407,0.0001050283015735,-0.0185659355146851,0.0066349884295463,-0.0048435865998872,-0.3076670708170277,0.9514584566728364,0.0459100692688272,0.006345913098015,9.883827274500195,-0.0193064789493994,-0.0166219520226849,0.0069200401083008,6.477922997349279,-3.392936250311503,2.0648544176621617,1142.4754655141508,1134.87443540757,1149.8943973864364,1148.307629069437,270.2480810517027,-759.831184016614,741.683241158428,-581.0560793609721,153.84089178432853
49.505,-0.2904669834619005,0.4424942612374978,-0.2304043822838048,-0.0245822962563214,0.000474469997766,-0.0190320207383921,0.0066090012421203,-0.0048332969449166,-0.3076940463591902,0.9514499669222468,0.0445914962331762,0.0059378794436732,9.881463628908872,-0.0193138270430553,-0.0167754526545833,0.0071248502522908,6.47785934077607,-3.392940057418995,2.064871714568743,1143.1149363536806,1132.838345690801,1151.7563978983123,1146.5249342943007,235.07328653465063,-926.2775103584579,771.9681231487955,-864.9922011925479,153.84029239152497
49.5075,0.0323728932832924,0.7760508482747959,-0.3754471406747801,-0.0241682770286396,0.0020831606888979,-0.0204158363947973,0.0065905328482902,-0.0048203544809067,-0.3077178170035293,0.951442470526038,0.0432160048716274,0.0059467021445589,9.878724354247138,-0.0193246327433653,-0.0169304459143652,0.0073173266974439,6.477794384005271,-3.392943748106169,2.064889272378044,1143.6508319468248,1130.243047855775,1153.7542380021823,1143.9826680634724,136.3833066002702,-953.2502218758085,659.0595170307633,-941.1086631887349,153.8396309144679
49.51,0.3172432693011144,1.0338641261480612,-0.4416340221070729,-0.0232297749041777,0.0045030972023183,-0.0219265377956966,0.0065841493932301,-0.0048032338636903,-0.3077378188774739,0.9514361265713612,0.0417618139069411,0.0064529210604356,9.875653693942056,-0.0193379976385315,-0.0170850844811704,0.0074970721714712,6.4777281748703,-3.392947725401024,2.0649074071935365,1143.796852886681,1128.072094581426,1155.0516954834632,1141.8193909783613,-24.482487845976927,-844.7477840815961,413.8572875074871,-813.3998588727469,153.83913182970448
49.5125,0.6246962214064666,1.2492572471889942,-0.4377698816579883,-0.0222459679766887,0.0078888351943586,-0.0235654990082557,0.0065934081157868,-0.0047817266501012,-0.3077547726947076,0.951430680631866,0.0402360126246638,0.0075191386314929,9.872297662642422,-0.0193533405273855,-0.0172374090718977,0.0076638093335698,6.477661050905666,-3.3929522259867495,2.064925942079968,1143.528419507595,1126.0193089353652,1155.8235244397208,1139.9156687691063,-224.49133394991236,-851.0351326727425,202.76179839519128,-728.1883483034021,153.83869102365145
49.515,1.03071026579013,1.443496888316849,-0.348708939661783,-0.021242959365271,0.0124051496545079,-0.0257160891285135,0.0066157600681104,-0.0047544486235988,-0.3077696096403937,0.951425857939806,0.0386588639094039,0.0090789736120982,9.868704545688638,-0.0193705341810417,-0.0173854780239192,0.0078171628723981,6.477593606312857,-3.3929575544698767,2.0649453047112902,1142.6743962169312,1123.8169189180603,1156.0655044754396,1138.1784492368424,-396.9303633944009,-748.4294727873915,-26.19080403290008,-525.9027937472873,153.83823349310768
49.5175,1.3987366191871444,1.549114838084467,-0.2116985885444782,-0.0200108457376677,0.0161314884204212,-0.0273932890264962,0.0066465942668775,-0.0047236161995479,-0.3077829200418895,0.9514214877324476,0.0371290608874474,0.0110422646539954,9.864922751272225,-0.0193898761406194,-0.0175273494937824,0.0079570005420413,6.477526578659806,-3.3929640447294767,2.0649655952998205,1141.5437676906247,1122.2771615714316,1155.6925704195564,1137.2861548003723,-516.6310384401726,-538.534950359369,-260.52956606750143,-234.84298090717664,153.83791421574043
49.52,1.773111389212762,1.5990695316473993,-0.033686532696637,-0.0173262205219076,0.0196356103586067,-0.0280706150114666,0.0066821979643702,-0.0046932214047436,-0.3077951279061348,0.9514174368004183,0.0357713952424557,0.0133398866834511,9.860999930301405,-0.0194120144883647,-0.0176611176038409,0.0080834755456914,6.4774604938656495,-3.3929721341410497,2.0649862932905854,1140.091241024729,1121.124244166262,1154.7628566451015,1137.004234332306,-669.1084607454501,-404.3336430746172,-519.7799381033361,7.928263770368667,153.83766167853435
49.5225,2.172717847915258,1.5969242866635551,0.1851000256101595,-0.0116328938953801,0.0237752162394759,-0.0270109430914439,0.0067205454698975,-0.0046641164499983,-0.3078065896365047,0.951413599030079,0.0346396054823574,0.0159091646887792,9.85698294054365,-0.019437808690209,-0.0177849890075774,0.0081968585411792,6.477395474734993,-3.392982250246478,2.065007322835823,1138.1982253868955,1120.2554933560575,1153.0936707290384,1137.3257961192244,-680.1191122741149,-228.71540018743755,-686.3465936751585,211.91779139877497,153.8374378585578
49.525,2.4151043067017164,1.5406089099768783,0.3432600664867437,-0.0050115962166849,0.0273301008759729,-0.0251075075132205,0.0067637770961945,-0.0046369763188748,-0.3078186685015142,0.9514095160695166,0.0337566428496121,0.0187590221236611,9.852916280695274,-0.0194679716082821,-0.0178973538475174,0.0082977448537121,6.477331288343652,-3.3929940743673206,2.0650282210802327,1136.6906454633615,1119.980667165326,1151.3311236767288,1138.0638232892989,-543.8516854931951,-21.64905356784204,-756.9442669850781,364.10316751680074,153.837318382563
49.5275,2.514951436816649,1.4196192217370682,0.4592574289434568,0.0026337166296435,0.0310010067141368,-0.0231258576987801,0.0068114406084215,-0.0046087383970879,-0.3078332013396809,0.9514046128415254,0.0330885219492828,0.021822408513899,9.848843487352775,-0.0195028327089011,-0.0179969826852354,0.008386710720447,6.477266945119752,-3.3930068685108408,2.065049081493788,1135.4789669594284,1120.1472480882182,1149.308949394111,1139.1463119568093,-427.5399291649224,156.04811996655573,-919.8045142412253,512.7409201742572,153.837269129449
49.53,2.4444831593660017,1.1899397546149983,0.553970387294101,0.0118500044344006,0.0355547554535676,-0.0211670103282842,0.0068619830988597,-0.0045783246414171,-0.307850316593865,0.9513988630540904,0.032642145341502,0.025020029160377,9.844805688181719,-0.019542171997678,-0.0180829797598792,0.0084645698902553,6.477201671190088,-3.393019839535577,2.065069685855028,1134.5529458175358,1120.7609077651591,1146.7321011055203,1140.6275278901715,-239.78861621375447,272.2020485502273,-950.5305683243481,538.1874754891561,153.83729121599703
49.5325,2.233207495215765,0.926818247834667,0.6090086436367818,0.0186443651187637,0.0393271343102814,-0.0199108067775136,0.006915581110738,-0.0045466279097915,-0.3078672055772357,0.9513931681452916,0.0324472232049568,0.0283143853280946,9.840840797029795,-0.0195852737857101,-0.0181547665982826,0.008532372831119,6.4771352988879665,-3.393032486322384,2.0650894675844853,1134.2800238783607,1121.508258330968,1144.5562965524937,1141.8372493342526,-11.433482669502672,316.67970951636727,-858.4958747745686,437.8876593313668,153.83737679988448
49.535,1.8952960597639563,0.6034681800360037,0.6573698239311359,0.0238423561556136,0.042377612395596,-0.0188998316718046,0.0069692689553155,-0.0045133644313026,-0.3078812784979534,0.9513883882825946,0.0325257391828862,0.0316007482039975,9.83698498898724,-0.0196309406898959,-0.0182123578890661,0.0085910322119669,6.47706773805723,-3.393044681883868,2.0651080326323674,1134.4957784041883,1122.3443063127415,1142.4396217316453,1142.8169661868294,150.5260916906221,325.50407702293967,-828.0661196397742,329.19760213727824,153.8375309659434
49.5375,1.485986403520392,0.2562573539381133,0.7100872158959811,0.0277579458003569,0.0441188934398529,-0.0179784200531046,0.0070203299266613,-0.0044802828624177,-0.3078923844685818,0.9513845839910136,0.0329304429820208,0.0347914725108107,9.833271533802701,-0.0196775259557324,-0.0182564113832462,0.0086413762547613,6.476999531401197,-3.393056341794712,2.065125224716592,1135.032654336814,1123.1357787160837,1140.4159659542927,1143.4832373449399,262.828140650993,282.2560186549547,-781.2628534588215,174.88236709980345,153.83774071814375
49.54,1.0323636338576334,-0.0738245240898738,0.7708522531501253,0.030213318109065,0.0438093770695879,-0.0169869604370238,0.0070669433182328,-0.0044463861090064,-0.3079021608998888,0.951381243917666,0.0336508472531455,0.0378002906320723,9.829731511292318,-0.0197231754705033,-0.01828820944238,0.0086837281989305,6.47693142927822,-3.393067020860145,2.065142210050355,1135.809919107442,1123.7555864060153,1138.5333074643547,1143.6913780223276,357.22098359133184,214.4922981974372,-792.9427483655709,-12.861320725817464,153.8380154228478
49.5425,0.4836933701124407,-0.3905715172735557,0.8422389079391605,0.0316025541490426,0.0413679166819313,-0.0151484161624928,0.0071103723433568,-0.0044109531820879,-0.3079124735295568,0.9513777574702652,0.0346562489621218,0.0406025004401431,9.82639294231867,-0.0197659414894627,-0.0183094519015731,0.0087179735063099,6.476863835131105,-3.3930761915607803,2.065159975381751,1136.8187592547715,1124.2082402070714,1136.4512522124628,1143.4189307413108,356.7876901828179,114.08081554708208,-733.2656719391593,-169.94616941911264,153.83841688930528
49.545,0.0489319208512662,-0.5587939954440553,0.8842961744654461,0.0315457176555306,0.0384711228252187,-0.0128029426288137,0.0071523059497398,-0.0043739881640515,-0.3079227921022225,0.9513742816654384,0.0359202489801787,0.0431886374616362,9.823281426643808,-0.0198039194120936,-0.0183219993371507,0.0087435401512399,6.476797072538899,-3.393084174754746,2.0651791649515143,1137.593857558357,1124.3259904837507,1134.866979104657,1142.8416471752316,274.9365563050332,-0.6706687308912211,-599.7823940078886,-269.0667932562238,153.83880876891328
49.5475,-0.3430664660868398,-0.6196134758731258,0.8881711232863628,0.0304899158859798,0.0357657755475831,-0.0099197666266496,0.0071897261955203,-0.0043334714480265,-0.3079315818983521,0.9513713435558728,0.0374001226251783,0.0454526038853862,9.820421909747289,-0.0198352274526421,-0.0183278020002441,0.0087593033920361,6.476731280303623,-3.3930916992102818,2.0652007859098407,1138.1934420362957,1124.2048868634167,1133.452340242426,1142.0735967750309,213.11363130164875,-95.00467303323289,-573.7410642205552,-334.46624661524936,153.8392573374702
49.55,-0.756111557227429,-0.59121280484902,0.8363399289231505,0.0286985663253213,0.0333185626257419,-0.0068236016754539,0.0072200671373901,-0.0042878904970027,-0.3079387985223048,0.9513689833484458,0.0390526113002435,0.0473040332546833,9.817836807958466,-0.0198578469925233,-0.0183287151323599,0.0087641114521551,6.476666092982102,-3.393099167514237,2.0652252107212488,1138.6594257148658,1123.8509671185843,1131.9982737835528,1141.1693159421543,130.98949985672,-154.4441129933267,-480.7053739764157,-297.2220388441045,153.8398582303139
49.5525,-1.0525724547515425,-0.5128325418496166,0.7461023230196778,0.0269476037171276,0.0321896614768761,-0.0048649069983372,0.0072418770046765,-0.0042362634436257,-0.3079469151407099,0.9513664167443864,0.0408304173062476,0.0486810804104857,9.815545336455472,-0.0198695134514361,-0.0183264162616463,0.0087571828684842,6.476600610599367,-3.3931064729238094,2.065251910538156,1138.8483895355796,1123.43266629845,1131.0488133725428,1140.5874865808096,46.11565523723231,-182.90358723428008,-307.9971039477259,-171.9579629537038,153.84040923512967
49.555,-1.2978039244722048,-0.4162061616135407,0.6119561405303836,0.024683738085058,0.0319709953825585,-0.0032231809471755,0.0072563859657885,-0.0041816481206422,-0.3079586877233951,0.9513627290229498,0.0427390586226111,0.049600831341645,9.813561712944239,-0.0198677438676468,-0.0183222262007752,0.0087386806293658,6.476534085941235,-3.3931132574642615,2.0652791894318847,1138.8900039910516,1122.936449182414,1130.4582882638156,1140.3095261273868,4.195486063779426,-226.96069311143432,-158.77934610417532,-44.93615191702222,153.84101038478244
49.5575,-1.5210904214494985,-0.3123797508684189,0.407128507735205,0.0209687198782609,0.0323191098888144,-0.001457366453882,0.0072665780943596,-0.0041267842097787,-0.3079743532672098,0.9513578082125236,0.0447622781651565,0.0501153174389764,9.811895293318049,-0.0198501191028419,-0.0183170470014171,0.0087096880049184,6.476465927437324,-3.3931196491577196,2.065305475859465,1138.8693669658985,1122.297862832892,1130.2549166420215,1140.3628058212244,-4.6676410891881215,-234.28751234688957,17.683386856279007,74.00068076395507,153.84178771248082
49.56,-1.6334514205191992,-0.2457667475857149,0.2070091763916822,0.016954369927186,0.0325816006118093,-0.0003646292567886,0.0072755085124566,-0.0040705857021776,-0.3079933823008328,0.9513518079557266,0.0468076084801994,0.0502588566721057,9.8105508271516,-0.0198144652540729,-0.0183115493472962,0.0086719907511492,6.476396169089935,-3.3931258280967396,2.0653303580476607,1138.8666657856058,1121.7650116206787,1130.546705198097,1140.6795295312068,15.318231841970661,-202.1720319878588,212.69857790385927,157.03999569632927,153.8424808447481
49.5625,-1.6518548698298332,-0.1939484966100142,-0.0102519772470988,0.0121692379335635,0.0322822606317914,0.0001419461333764,0.0072878657688589,-0.0040130182621365,-0.3080156207300129,0.951344744974835,0.0487892563627628,0.0501066736014983,9.80952636794387,-0.0197589683669348,-0.0183062702310393,0.0086281952715197,6.476325371043873,-3.393131545662096,2.0653536063354254,1138.9459581251083,1121.2870026729538,1131.3184095315398,1141.1480057997053,50.3123715428049,-171.26195740349544,379.88045053346457,186.85738794209723,153.84321978771183
49.565,-1.5858534259963648,-0.1422515786286337,-0.2277549505023079,0.0071343904893161,0.0316121627122875,7.007768608511815e-05,0.0073036597142238,-0.0039534753136698,-0.3080416203583508,0.9513364448355432,0.0506375758622688,0.0496472178407488,9.80881461295604,-0.0196823719915677,-0.0183018159554296,0.0085812882292679,6.476253697598128,-3.3931364305072647,2.0653750999564435,1139.1182276433196,1120.9087018336622,1132.4461074507626,1141.6138164709164,90.78453778984016,-112.61418540760737,516.1034967383417,153.37891492350875,153.84399585750373
49.5675,-1.4254482011732175,-0.076215018666931,-0.4250538551469308,0.0024848984956887,0.0308731444371724,-0.0008163565327012,0.0073217801892862,-0.0038931122997397,-0.3080710443071637,0.9513270201861748,0.052323313454985,0.0488625477907428,9.808401191344846,-0.0195842273585089,-0.018298744076748,0.0085345769569794,6.476181110143104,-3.3931404942404138,2.0653942165156463,1139.3998808140575,1120.7239317459155,1133.8989270152329,1141.9149003743232,141.58221153813463,-18.491232861187743,677.6517717769992,57.74158670007412,153.8448155543946
49.57,-1.1549560540737118,0.0306950989592832,-0.6114299729530945,-0.001964796231287,0.0302135173653049,-0.0029532073496161,0.0073415303412558,-0.0038374642682523,-0.308101093023936,0.9513173594166964,0.0538995176274686,0.0477725895562578,9.808263752221704,-0.0194651229160932,-0.0182974547039072,0.0084915359596166,6.476108503683862,-3.393144744628801,2.0654103328966844,1139.8261387010107,1120.8162456693562,1135.834366309649,1141.902524404417,161.4790807651493,97.19065020976556,713.0069390915313,-85.63781049755165,153.84584794135884
49.5725,-0.8991583714951212,0.1440578827315754,-0.7094379857438667,-0.0044236908297792,0.0299794977800379,-0.0056061989270391,0.00735780099494,-0.0037880023142303,-0.3081300552010564,0.951308048799468,0.0553747196023059,0.0462944203989084,9.808375326854726,-0.0193267697673312,-0.0182984746564757,0.0084549003263372,6.476036767694577,-3.3931500418989264,2.065424223716864,1140.2072762178827,1121.2098849969639,1137.4639617106873,1141.4867113218359,142.1129855402524,231.7464990801633,626.9361820078733,-257.44473818049767,153.8467475045438
49.575,-0.6580470979898794,0.2763632623516812,-0.74333402690277,-0.0054246086973898,0.0301844397381229,-0.0087441871666195,0.0073676992237044,-0.003741777611063,-0.3081579449476804,0.9512991166878804,0.0566681866955802,0.0443640241036027,9.808703559651834,-0.019171962863831,-0.0183024197465376,0.0084264370612878,6.475966261163829,-3.3931565483930224,2.06543730664334,1140.5367036287123,1121.9749781647577,1138.9690472196903,1140.6153007135135,110.25931252060035,423.97772496743664,614.4657226637304,-471.798285202553,153.847685959325
49.5775,-0.430324349170962,0.442019059875909,-0.7305289202816408,-0.0054540543511349,0.0310539195072133,-0.0118674193972594,0.0073690573133992,-0.0036933119070272,-0.3081845088209385,0.9512906837229552,0.0576562844327808,0.0419198494059139,9.809211766010941,-0.0190044498465793,-0.0183099737686971,0.0084067990575313,6.475897216204825,-3.393164322760784,2.065451578632084,1140.758572780486,1123.329773621802,1140.5362903240075,1139.1277198958219,35.810313264378976,563.6147640877094,530.8390941828574,-590.4629570555612,153.84885469260576
49.58,-0.3096980020966347,0.5717679263479613,-0.706171618362998,-0.005187892546701,0.0323493673828244,-0.0131557346051735,0.0073625170353643,-0.0036395298625094,-0.3082080460752306,0.9512833080184352,0.0582534480184016,0.038971603126032,9.80985859050863,-0.0188286853265582,-0.0183218163499409,0.0083958488578359,6.475829937846206,-3.3931735696634724,2.0654683500615545,1140.715755195034,1124.7930519851936,1141.623242690602,1137.6629859282386,-78.09719259744823,638.8387607010742,393.48874281252273,-584.4940496295033,153.84986223091553
49.5825,-0.2617389435752248,0.6759568840994514,-0.707818660449208,-0.0050822913976052,0.0341536664706445,-0.0130870309166656,0.0073521185050575,-0.0035837829740308,-0.308226233044283,0.9512776982758264,0.0584844703271296,0.0356359306942179,9.810598291678383,-0.0186494682606847,-0.0183386498818961,0.0083931192431175,6.475764857870863,-3.3931848064715004,2.0654869831722937,1140.3680868174984,1126.5239674253091,1142.5037340380711,1136.2052496476729,-223.7158951663552,795.3747539629171,350.47855154935206,-576.7638565992235,153.85090217942803
49.585,-0.26888426557315,0.7559856721243206,-0.7635492141492843,-0.0052472216849797,0.0364679398770924,-0.0126404430076955,0.0073383348397754,-0.0035277915798772,-0.3082397542932172,0.9512736221248154,0.0583761070507871,0.0319583738188683,9.811385201403219,-0.0184715558206798,-0.0183615254784315,0.008397586445608,6.475701920641217,-3.39319823834098,2.06550688730752,1139.5971757192017,1128.7699257550103,1143.3756354483498,1134.779166645241,-328.83602889521967,826.9233841743034,296.5075752671478,-426.05026904741504,153.8521844785336
49.5875,-0.305778473182681,0.7775960106637884,-0.8447086393022613,-0.0059370028403767,0.038263024492404,-0.0133328754358925,0.0073203867149232,-0.0034714498341313,-0.3082524842741317,0.9512698312218956,0.0579392501844103,0.0279556247450787,9.812174115308276,-0.0182992889352227,-0.0183918572283115,0.0084079642175887,6.4756408405434485,-3.3932132448522334,2.0655276874896167,1138.723906673024,1130.658584346177,1143.9862719144055,1134.0749983024375,-369.0709348837048,727.6630389714144,223.7039490497174,-142.6801342812448,153.85327925447683
49.59,-0.3435815615989983,0.7449151944257936,-0.9219660771765272,-0.0074865975918017,0.040051372260086,-0.0160362578705466,0.007297658587712,-0.0034135522708062,-0.3082690166860722,0.9512648490556264,0.0571734510233492,0.023646188180872,9.812920539833137,-0.0181363395623823,-0.0184313290469458,0.008422945768262,6.475581176796616,-3.3932287533949506,2.0655493489493977,1137.7518210447822,1132.4082409498692,1144.4941551935988,1134.0657659738345,-379.7051675955904,653.723252802258,181.99478420783416,124.33928380194637,153.85439809693057
49.5925,-0.3632823215878748,0.661225904357095,-0.9609611902522324,-0.0094468801105588,0.0421068009906875,-0.019902401263848,0.007274334400749,-0.0033548619486293,-0.3082920589945571,0.9512577655836592,0.0560950787078602,0.019155196103614,9.813579732570355,-0.0179855576513169,-0.0184816703114113,0.0084415834808097,6.4755223322999536,-3.3932436441688556,2.065571192437066,1136.825380835045,1133.9272006101899,1144.8962458354451,1134.6966947214476,-331.8956437631931,526.4016756051445,122.39453950507811,395.87468424783384,153.85553440591835
49.595,-0.3525820489704799,0.5114888369855181,-0.9278795119125932,-0.0112056597678469,0.0443351578625926,-0.0238077371431365,0.007256755212219,-0.0032996512129926,-0.3083191172430604,0.951249325788004,0.0547805219400544,0.0146738943988671,9.814107527593489,-0.0178489782440826,-0.0185444507154471,0.0084633539032181,6.47546423923816,-3.3932579407886294,2.0655920327597035,1136.0923428259675,1135.0402493278923,1145.1061278911238,1136.0451393950718,-255.29910695914296,370.86100206355826,27.724591961700213,709.0058791514376,153.8566885653731
49.5975,-0.313048581919769,0.2618351716857599,-0.8034074799593873,-0.0126067012304593,0.0463563392416916,-0.0274223034798919,0.0072447868238718,-0.0032463466576724,-0.308347274950634,0.9512404792626704,0.0532411397450566,0.0102420505870812,9.814464040366303,-0.0177277390993985,-0.0186212998098042,0.0084874661392077,6.475406819003299,-3.3932721483022887,2.0656124162963514,1135.5488853002487,1135.7815056205084,1145.0348687952535,1138.2417241172068,-139.5471274524166,164.8241033690804,-90.07596588398819,843.8963455462047,153.85808978517588
49.6,-0.2730854596609894,0.0112843464265665,-0.6461899895537246,-0.012880416662083,0.0471804756662604,-0.0293560655906833,0.0072364306793785,-0.0031905698971856,-0.3083763715984929,0.9512313051345614,0.0514497511708632,0.005852188146885,9.814612118627524,-0.017621929094538,-0.0187138053351932,0.0085130169844261,6.475349799151879,-3.3932862078197465,2.065633370438261,1135.394607188705,1135.8643698447383,1144.6557480617037,1140.264621122805,-10.095407728576989,-70.87437393358493,-215.23244962537797,769.4647009044905,153.85926758562525
49.6025,-0.2435214979543282,-0.2543631582862563,-0.4632552844169423,-0.0124220775948295,0.0470678658838922,-0.0303409287966527,0.0072317521405298,-0.0031290743303138,-0.3084085184376341,0.9512211287011976,0.0493883799793809,0.0015458777371925,9.814516008852333,-0.0175305685372953,-0.0188233059670184,0.0085392635269391,6.475292482653104,-3.3932994336962685,2.0656555320321965,1135.4984082616058,1135.4271337508408,1143.9587065471278,1142.0890476217255,80.0079074634641,-285.0899488375395,-352.3865642331219,676.0557166986653,153.86045159490473
49.605,-0.2250004136397842,-0.5499191333728691,-0.2472750333017719,-0.0121984540114838,0.0456208436557536,-0.0307674697227905,0.0072318042548479,-0.0030640225333575,-0.3084474687911272,0.9512087180018424,0.0471327706277228,-0.0025815772154092,9.814141048144048,-0.0174516533168725,-0.0189507529358157,0.0085658922335297,6.475233658316051,-3.393310893113227,2.06567811356242,1135.7946467260228,1134.43892010055,1142.8938152405372,1143.6448997063,114.96919149161415,-411.7228401953238,-394.616124039001,428.7150541792097,153.8618744048246
49.6075,-0.2144902969081331,-0.747470609099305,-0.0888085026433539,-0.0128863717959652,0.043298319128803,-0.0307101367921918,0.00723703008166,-0.0030024336034001,-0.3084928003444739,0.9511941832314084,0.0448502756876941,-0.0064161036377963,9.813454355296878,-0.0173826444905886,-0.0190964109966256,0.008593035118741,6.475172719973729,-3.3933210943718195,2.0656993066804903,1136.0732542190642,1133.368519549863,1141.9856259269316,1144.2326228926229,92.74404363640565,-445.0813283546223,-321.7873470099419,81.85741303230483,153.86305801055758
49.61,-0.193130827475254,-0.8680803003568194,0.0333060240751061,-0.0140027228897767,0.040300094938086,-0.0303881716149592,0.0072445486531337,-0.0029465665831576,-0.3085414342627938,0.951178536378969,0.0426351028196233,-0.0099348634816502,9.812427024835934,-0.0173209221950406,-0.0192599516460497,0.0086206901601668,6.475109773904379,-3.393331122828481,2.065718970369069,1136.2583669442045,1132.2135134587788,1141.284878505489,1144.0541867714612,37.54022704168063,-494.54110506682974,-217.696862954042,-216.5064247120683,153.86423517877685
49.6125,-0.1445253052907615,-0.9127309058451843,0.1305162660253407,-0.0149850872955577,0.0366289551839943,-0.0297740225321386,0.0072533629310578,-0.0028958509122979,-0.3085911923480681,0.9511624921366844,0.0405116897887444,-0.0130983648600696,9.811033164588329,-0.0172639816948584,-0.0194405247209923,0.008648736855543,6.475045487887701,-3.3933414699831483,2.0657378447069608,1136.2609553542727,1130.895814024528,1140.897141612161,1143.150090769062,-44.565092601737824,-454.5048521485972,-51.249811043973,-395.44434506044814,153.8656355752586
49.615,-0.0845377832722901,-0.8722718746458553,0.1698685858229468,-0.0154448991189152,0.0338677904641838,-0.0290918182140824,0.0072640342644023,-0.0028490721012582,-0.3086408439225942,0.9511464491304936,0.0384769944129913,-0.0158447561970499,9.809250018797906,-0.0172096238668699,-0.0196368435303642,0.008676851344893,6.474980445225945,-3.393352543706132,2.0657568006924985,1136.0355414811957,1129.9409891980347,1141.028629450269,1142.076965046158,-137.1016457556262,-340.1313287009908,143.46099445314707,-424.2270472406056,153.86678906310215
49.6175,-0.0089715989857515,-0.770897851163232,0.1706036757408258,-0.0158856639889024,0.0318013577366817,-0.0282844191590885,0.0072779741283514,-0.0028054843196763,-0.3086893998521139,0.9511307216432902,0.0365254420505701,-0.0180977889409626,9.807058460783946,-0.017156071446267,-0.019847257799143,0.0087044737479713,6.4749151187867175,-3.3933647417099575,2.0657764804748826,1135.5754471254952,1129.1951573810245,1141.614446584426,1141.028955532861,-214.28177989999264,-260.32809319895347,293.6024767199659,-366.2016923749379,153.86792470312434
49.62,0.0728784388726225,-0.6386951245724952,0.1472301060481628,-0.0160745118559597,0.03035781214112,-0.0275000477513717,0.0072997282985306,-0.0027669902575289,-0.3087362607131802,0.9511154673306722,0.034675911253152,-0.0197123397654172,9.804443043932082,-0.0171019438361399,-0.0200697946063357,0.0087310088028125,6.47485000212705,-3.393378156895224,2.0657965389817776,1134.9641325816951,1128.6393487320393,1142.4966418338695,1140.2459565842823,-263.3026169870408,-178.6562705573483,397.2286627953295,-209.35221156804093,153.86904279932034
49.6225,0.150181594284144,-0.4920766524196817,0.1103064083149491,-0.0151163549873115,0.0294923426217217,-0.0270661654990856,0.0073276990658239,-0.0027334346195668,-0.3087819510905674,0.951100529986532,0.0329404740567258,-0.0206771537764206,9.80139453442387,-0.0170461789360827,-0.020302428623253,0.0087554280568218,6.474785247780951,-3.3933926172321836,2.065816807493857,1134.258934040559,1128.3018760282373,1143.6005898984035,1139.98219447502,-308.79533494981735,-109.35453205975988,503.88702731011455,21.359990807851645,153.8701365618683
49.625,0.2274276317567247,-0.3214987993229999,0.0751285897041479,-0.0128346122272809,0.0288396257962542,-0.0271890867981541,0.0073584809972965,-0.0027048963001926,-0.3088267873577312,0.9510858307232511,0.0313414870440914,-0.0210211614558619,9.797909666989602,-0.0169879630051402,-0.0205429814164005,0.0087765166368651,6.474720768286641,-3.3934078121390145,2.065836798391759,1133.4201559069475,1128.0925760717407,1145.0160769704175,1140.3527565383215,-295.5926838176725,-58.60578678299008,515.4878807470736,237.99679710922464,153.87141730178607
