t,ang_acc_x,ang_acc_y,ang_acc_z,a_vel_x,a_vel_y,a_vel_z,quat_x,quat_y,quat_z,quat_w,acc_x,acc_y,acc_z,l_vel_x,l_vel_y,l_vel_z,pos_x,pos_y,pos_z,mot_1,mot_2,mot_3,mot_4,dmot_1,dmot_2,dmot_3,dmot_4,vbat
11.75,1.1234592427825312,0.9122342139405986,-0.355557807695889,0.003923494725694,-0.0001947533832894,0.0127582884635466,-0.0066959787033095,0.0033979664635327,-0.0431481709060888,-0.9990403759755108,0.0196146709886843,-0.0293979614353809,9.714822684141204,-0.0008558364237094,-0.0031007487164771,0.0026403206057894,3.4835358742900686,5.046075189362488,2.0671981462333644,1137.8071839003408,1130.0139077859708,1142.6993448224823,1124.8050648484275,-357.28648878337316,288.01060305978626,-503.74493433506376,-356.0675228506424,154.2349100226002
11.7525,1.132856967387469,0.8589056779590941,-0.350961186093822,0.0081595832085885,0.0016619488130051,0.0126082593905201,-0.0067122155866657,0.0034031038766818,-0.0431408105491383,-0.999040548955049,0.0200938634234566,-0.028286899947163,9.712263722528911,-0.0008110708328747,-0.0033082921820509,0.002353964661092,3.4835330160266254,5.046065597697497,2.0671997570624607,1136.782338817079,1130.9032137415068,1141.170045882522,1124.0478940416144,-492.4032466996917,409.6962155850902,-775.1093135575654,-230.11513032725853,154.23523644462972
11.755,1.0427942802588164,0.7647320676534701,-0.2992374647863034,0.0128898057850707,0.0044597895046447,0.0113230630138895,-0.00673550625891,0.0034106706506889,-0.0431418417421321,-0.999040299153118,0.0202602703465309,-0.0269715164669295,9.710133372557904,-0.0007612212061267,-0.0035087878447327,0.0020668484284578,3.4835319372193285,5.0460548304938255,2.0672006588120313,1135.345167666842,1132.0623888638963,1138.823798254694,1123.654489196791,-542.1537880627119,395.1195127169577,-918.1546442450256,-41.3005902168542,154.23563592512718
11.7575,0.8984058181459833,0.6460668494811633,-0.2066664961498419,0.0158083258800809,0.007255436548515,0.0095222118442785,-0.0067651005417697,0.0034173531796166,-0.0431503706701603,-0.9990396820831544,0.0200334848915058,-0.0254852367553308,9.708435490277056,-0.000709554986412,-0.0037011840050392,0.001780770698727,3.4835321507391566,5.046042524989911,2.067201642822145,1134.0715698767651,1132.878811305092,1136.579272661296,1123.84139109053,-500.2868223652144,254.12458950696015,-912.5416660150217,182.11203344311784,154.23597110210247
11.76,0.7161742441270841,0.4803029910001145,-0.0620568384887086,0.0174394158258548,0.0099376430741257,0.0079480910314976,-0.0067995436349359,0.0034191584007142,-0.0431633282365135,-0.999038855353658,0.019330438221584,-0.0238753012276987,9.70716786869818,-0.0006592569672189,-0.0038848484876052,0.001496903723276,3.483532768530438,5.046028995888872,2.067203042777728,1132.8437335550163,1133.333011811431,1134.26108992462,1124.5650493640064,-503.53961595225286,97.18355475173055,-973.790597840282,417.06390792103616,154.23630434498733
11.7625,0.4964472586898289,0.2464558586728134,0.1467620968927757,0.0182097549355026,0.0117165883771031,0.0073938697057054,-0.0068360662384604,0.0034151255666865,-0.0431799232564454,-0.9990378771228678,0.0181369526423494,-0.0222170250514862,9.706322739856084,-0.0006133420526773,-0.0040596954090846,0.0012159254963067,3.4835343895175055,5.04601529815846,2.067204289077884,1131.5538717970035,1133.3647290788508,1131.7103196720939,1125.9267106301356,-426.7978466642732,-65.38466652322201,-850.8823640912431,548.375261103916,154.2366979177943
11.765,0.3358537875419471,0.0506682071293632,0.3191195337232718,0.0179333783049268,0.0114982948410922,0.0081670932335656,-0.0068704715128464,0.0034026133716286,-0.0431989140825896,-0.999036840709798,0.0164161175570098,-0.020610910204764,9.705888249099223,-0.0005745639012385,-0.0042262333507537,0.0009381360304227,3.4835368271689244,5.046001637983944,2.06720514255128,1130.7097443216949,1133.0060884788147,1130.006678104163,1127.3069256695264,-275.1418704577283,-190.0462697378694,-550.5669271042465,553.435410821313,154.23701824670397
11.7675,0.2086831888402974,-0.1123343108194329,0.4500728040566077,0.0170384227386024,0.0100243826066344,0.0098858812364305,-0.0068994928777965,0.0033846851699287,-0.0432214672239983,-0.9990357091313316,0.0142530147116946,-0.0191423249406015,9.705848101658269,-0.0005453205597647,-0.0043855191835803,0.000663562585007,3.483539367132542,5.045988273845945,2.06720610155712,1130.178162444715,1132.4144977301617,1128.9574850365732,1128.6938876842416,-152.0635621405138,-238.78466826731912,-293.7875329417368,518.0628419291801,154.23732849839095
11.77,0.0989584519209653,-0.2348609595007955,0.5230208439112585,0.0165695132188404,0.0084729137143955,0.0122178467620299,-0.0069224628868862,0.0033639393972373,-0.0432475140090956,-0.999034484488429,0.0117358170545106,-0.0178429567457177,9.706182777975693,-0.0005275966374567,-0.004539071719708,0.0003920596454421,3.4835410309222103,5.045975876711949,2.0672072141474165,1129.9494265109925,1131.8121651374784,1128.5377404394546,1129.8972398791718,-9.668037502250025,-196.36118357958932,-16.461040569444933,399.7608811772637,154.23762932164598
11.7725,-0.0198979047249823,-0.3114779954226772,0.5124160588306294,0.0173765948200365,0.0075615285739321,0.0147856929895834,-0.0069382845973797,0.0033410204887206,-0.0432757661347507,-0.9990332319543312,0.0089234605032678,-0.0167476784376606,9.706870564250824,-0.0005230249083382,-0.0046887118366556,0.0001234097833333,3.4835410141216445,5.045964800121379,2.0672089010989168,1130.1298222572038,1131.4326918122636,1128.875179833726,1130.6926920901283,182.61456839229012,-67.21343488733369,299.60160983241485,227.8254488578667,154.23791803086107
11.775,-0.2112714019134083,-0.3666785717700134,0.4102159562690737,0.0190712219662386,0.0070702675840547,0.0171599549393197,-0.0069476861463991,0.0033253350159989,-0.0433092121981551,-0.999031784381188,0.0060542935471328,-0.0158596072484671,9.707886538713824,-0.0005331021010714,-0.0048363154403202,-0.0001424863880076,3.483540291964,5.045954699356022,2.0672111673625833,1130.862499352954,1131.4760979630419,1130.0357484886167,1131.036367123461,357.16203628319647,115.6567392750051,522.8145852066649,21.838319812791063,154.23824972533285
11.7775,-0.4220436430920901,-0.3927906374138048,0.2712010589788948,0.0201408039016992,0.0068640843650075,0.01812885341668,-0.0069521610083224,0.0033212392247862,-0.0433516972564254,-0.999029946698844,0.0032761429184044,-0.015158686642741,9.709204375520512,-0.0005593217112815,-0.0049835838323325,-0.0004054402691328,3.4835398621519698,5.045944674971931,2.067213817368186,1131.9156324386195,1132.0109755086385,1131.4892527597588,1130.8018836891922,507.23488844874817,309.83008053487333,643.5368856012617,-183.87225784989843,154.23851319309773
11.78,-0.6692453828040686,-0.4015848297116357,0.1092978045726014,0.0198689249400006,0.0065052961137706,0.017968350744653,-0.006955330742856,0.0033311839223693,-0.0433996976374461,-0.9990278346165155,0.0007070811368572,-0.0145777661659907,9.710795808537016,-0.0006031078377411,-0.0051319208918882,-0.0006647904004356,3.483540335529693,5.04593373658099,2.067215944546752,1133.3986737951973,1133.025248365716,1133.2534329166226,1130.117005834212,728.0488890597779,517.8815536445753,806.1956986830968,-364.40237106111215,154.23876229227733
11.7825,-0.9582622839285516,-0.3821859785555598,-0.0782511881433991,0.0174097954428855,0.005564681492591,0.0167429839104318,-0.0069595685079427,0.0033540087691838,-0.043445339436943,-0.9990257743082211,-0.0016021363547438,-0.0140671762499816,9.712631159845376,-0.0006657390991519,-0.0052824347718533,-0.0009193553246008,3.4835419568045745,5.045921900272584,2.0672164618261175,1135.5558768839187,1134.6003832768615,1135.5202312531749,1128.9798718338864,822.9133997079848,597.1757141661304,830.9430388944813,-432.65284786282393,154.2390433137423
11.785,-1.1497001105699471,-0.3284519371434669,-0.216605578222962,0.0138101777202507,0.0043168393442799,0.0153119341302133,-0.0069653300463017,0.0033829495520226,-0.0434834241897477,-0.99902400822343,-0.0037091547341569,-0.0136066435116752,9.714679532643586,-0.0007482469733093,-0.0054360081254699,-0.0011675065431967,3.483544710812968,5.0459095745309055,2.0672147680487756,1137.5132407937379,1136.011126936547,1137.4081481110957,1127.9537415948976,764.2834909063523,536.4817450250188,731.9846999727453,-383.36668335412816,154.2392615095422
11.7875,-1.2487332341242752,-0.2225648890994044,-0.3399045220635344,0.0094713183977599,0.0028721458477936,0.0141615751898202,-0.0069701138338968,0.0034112656696442,-0.0435088919070354,-0.9990227946553164,-0.0056737068751965,-0.0132307297929056,9.716908608595828,-0.0008512001360493,-0.0055933571234564,-0.001407371005149,3.4835490058107763,5.045897279160112,2.0672105256045414,1139.37729433845,1137.2827920019863,1139.1801547530379,1127.063038417116,727.593831328727,482.43886016377206,734.4108089612051,-321.11133399943793,154.23946166567407
11.79,-1.240043056604538,-0.0324188429035436,-0.4911450185365515,0.0044684945057254,0.0015941342895535,0.013339242367386,-0.006971395424674,0.0034331528810201,-0.0435194806783442,-0.9990222684724536,-0.0075395351147948,-0.0129733426711135,9.719284562269523,-0.0009745069174583,-0.0057550327805472,-0.0016370678840941,3.4835546459134674,5.045885175655002,2.0672039890050806,1141.151209950382,1138.4233212373663,1141.0802021559023,1126.3481849249,522.8334041864947,330.63451800493857,650.4733176761767,-186.54515589425313,154.23967912248403
11.7925,-1.1300840317898937,0.169722135822783,-0.6361638890408963,0.0009535827171326,0.0011800542374472,0.0130104641018319,-0.0069694415407338,0.0034451243668247,-0.0435170703445595,-0.9990223573469525,-0.0093073664506375,-0.0128149167873488,9.721772193256374,-0.0011171953356506,-0.005921381733153,-0.0018549486338939,3.4835609868680195,5.045872983596323,2.067195741492192,1141.9914613593828,1138.9359645920113,1142.4325213414193,1126.1303126376447,157.0435980397036,96.35394946037293,488.68505551532223,-6.1773851214651145,154.239839995503
11.795,-0.9332386808652934,0.3955999487599718,-0.8091019087610876,-0.0016657297813358,0.0015249856720312,0.0126992718777676,-0.0069660653371232,0.0034465331844218,-0.0435050862031782,-0.9990229019237946,-0.0109279700440522,-0.0127077009054687,9.724335910736649,-0.0012772082683951,-0.0060925002534845,-0.0020598211931092,3.483566564228038,5.045860320281704,2.067186674458472,1141.9364279405804,1138.905090984668,1143.5236274334784,1126.3172979992928,-187.58298960237065,-108.27923263930067,393.93559505691536,131.21507766275383,154.2399784793749
11.7975,-0.68466055568889,0.6191242336135468,-0.9961994369886908,-0.0035048405205384,0.002449820182506,0.0117369996705534,-0.0069627694953406,0.0034374553677127,-0.0434870556136623,-0.9990237389268666,-0.0123468917645084,-0.0126108152270687,9.726941137370456,-0.0014513483168649,-0.0062682063733947,-0.0022510952185698,3.4835700446799653,5.045847145379567,2.067176491634882,1141.0535464113711,1138.3945684288149,1144.4021993167034,1126.7863880259583,-544.8948172973872,-314.7162047176116,304.15952433349753,229.9375875622995,154.24009793437924
11.8,-0.3984480165302567,0.8084441634623774,-1.1698270607706163,-0.0042632022670919,0.0041962875522003,0.0092604452210315,-0.006961173835668,0.003415342120199,-0.0434644034336456,-0.9990248051827926,-0.0135709760747802,-0.0124799359812252,9.729555527076384,-0.0016354031449567,-0.0064480344237924,-0.0024288611625361,3.4835699341756325,5.0458334524515,2.067165461145402,1139.211953854093,1137.3315099610795,1145.044425055146,1127.4669859371045,-983.6371177165629,-568.0650382407315,233.33589307750108,304.3043808926065,154.24019450732155
11.8025,-0.0366092351339458,0.9536396864332308,-1.311587576831022,-0.0042171422606272,0.0075502863674251,0.0047068924386397,-0.006960912196214,0.003378144037304,-0.0434383281753175,-0.9990260594223807,-0.0146108488218269,-0.0123115752402234,9.73215015592603,-0.0018245528787506,-0.0066311989379209,-0.0025939593074037,3.483565573606126,5.04581886098123,2.06715541548001,1136.1353608227876,1135.5542432376108,1145.5688787820911,1128.3079099304216,-1214.8702118299896,-698.2586757712422,153.38867628246004,277.50103426720733,154.24028481736528
11.805,0.2697196135740798,0.9802988028447258,-1.341951652095436,-0.0039222664320984,0.0111771278245365,0.0002637804303278,-0.0069637735003208,0.0033307586804978,-0.0434104490783702,-0.999027401787852,-0.0153528560371741,-0.0120686600592989,9.734699652276237,-0.0020139311247139,-0.0068166070471139,-0.002747809877774,3.483558092520102,5.045802739818121,2.0671471582625776,1133.1376027949443,1133.8402165822242,1145.8113684365583,1128.8544911084402,-1206.9028436812844,-671.7436321324244,55.90864669819929,149.49743202166638,154.24033997096492
11.8075,0.5737188291923784,0.8947448486339107,-1.2605551178880843,-0.0035933882011479,0.0147062257581981,-0.0042698583470806,-0.0069703325008891,0.0032812373301643,-0.0433846943701337,-0.9990286295725272,-0.0156358482571214,-0.0117432828995376,9.73718374309178,-0.0021991224589092,-0.0070028997550765,-0.0028921972089706,3.483549281554988,5.04578481177394,2.0671404455520954,1130.10084660438,1132.195525076948,1145.848422015582,1129.05539709053,-1251.9876007764512,-624.41348104275,-34.872915775480585,-19.96687118298411,154.24037637567548
11.81,0.920242232821276,0.6731692051357719,-1.0384176347887355,-0.0027508752917095,0.0178545408705144,-0.0091818382139638,-0.0069794944486328,0.0032345229236736,-0.043364661324232,-0.999029576931344,-0.0153731494289581,-0.0113606554713326,9.739588216785668,-0.0023763832762176,-0.0071885972194594,-0.0030289925842346,3.483540421187106,5.045765553211324,2.0671345771508447,1126.877664791061,1130.71814917701,1145.6370038576808,1128.7546567525253,-1055.7925328813608,-403.80019162192946,-122.61072313847473,-207.07345827931505,154.2404016868942
11.8125,1.1695150551118878,0.4115628707405081,-0.7726850801428174,-0.0009766843587491,0.0193737557346854,-0.0121984188211724,-0.0069905941652682,0.0031931850672993,-0.0433512485008867,-0.9990302009399354,-0.0145359030391366,-0.0109390533090515,9.741904898393338,-0.0025426774238624,-0.0073722726975753,-0.0031598922117342,3.4835319719355913,5.045745381875676,2.067128530629425,1124.8218839399744,1130.1765241188389,1145.23536839989,1128.0200297991337,-646.2895686563945,-31.308828806874633,-206.62379335262372,-381.9308427944939,154.24041026764792
11.815,1.3337809748800795,0.1041068162839262,-0.4688727576746656,0.0027783168545783,0.0198464145617056,-0.0135786527167423,-0.0070043598878777,0.003155865360439,-0.0433424077214089,-0.9990305899423217,-0.0131815858882975,-0.0104695821952822,9.74413169228307,-0.0026955941064983,-0.0075526799754982,-0.0032863077192647,3.4835235191828615,5.045723934144358,2.067121459708933,1123.6462169477795,1130.5616050329756,1144.603884890918,1126.8450025385532,-308.04417227713844,312.6247133511208,-285.2765471968732,-518.5914793154651,154.2404090127249
11.8175,1.3938261377591943,-0.2152975406263493,-0.1728767116169135,0.0078659390371379,0.0196183091969505,-0.0136001791377149,-0.0070229767862632,0.0031238878133249,-0.0433349866125198,-0.999030862094463,-0.0113240463329783,-0.0099200926067229,9.74627212305064,-0.0028333377381359,-0.007728849989051,-0.0034093684312111,3.4835149727114327,5.045701628867412,2.0671129439376807,1123.2816630785885,1131.7396476855947,1143.808985663905,1125.427072402556,49.16419366735822,632.6435612076159,-344.41337091006136,-582.1863813601339,154.24040153151614
11.82,1.3067161454151854,-0.5193940956317907,0.0725766516666288,0.0130165117679626,0.0187579986609524,-0.0125028780251989,-0.0070466359062624,0.0031020592341225,-0.0433284642184954,-0.999031024633418,-0.0089193360009658,-0.0093024998238814,9.748335458832498,-0.0029547449122435,-0.0079001334859462,-0.0035300933326473,3.4835067652568035,5.045678999121444,2.0671032737712705,1123.8920379161164,1133.7248228390142,1142.8818180363671,1123.934070631752,470.5610436916713,983.6578113804673,-415.82454975040577,-611.9297846285771,154.2403883241709
11.8225,1.0412363604592427,-0.8288918636702475,0.2755077031741008,0.0178306170224665,0.0169251387765859,-0.0106906425143179,-0.0070782567711178,0.0030955183944577,-0.0433223567442635,-0.9990310641074708,-0.0059215549787569,-0.008577531695208,9.750335740501784,-0.0030591629341652,-0.0080662688272413,-0.0036494721529196,3.483498986626921,5.045656860773665,2.067093053243411,1125.6344682970464,1136.657936742496,1141.7298629151535,1122.3674234794137,777.038958843165,1094.9908266058735,-410.35232590464096,-496.38649294307896,154.24036745371285
11.825,0.7144867686676584,-1.0119776106086416,0.3602132749390746,0.0203576099966629,0.0143896844102669,-0.0092214730992003,-0.0071185969188904,0.0031095497300473,-0.0433182956235625,-0.9990308913719111,-0.0022890823551906,-0.0077491179870416,9.752291892246685,-0.0031463779005299,-0.0082272682963895,-0.0037686227385665,3.483491835522119,5.0456352738662655,2.0670832386888676,1127.777232710333,1139.1997769720444,1140.8300564068438,1121.4521381670363,954.0047004637344,949.8871721100264,-326.39017692249024,-253.1668089998734,154.2403465364944
11.8275,0.3253649442522891,-1.0853780632443628,0.362797923007273,0.021302069193352,0.0107102918562788,-0.0080928084613038,-0.0071633001563134,0.0031412334178169,-0.0433183157473503,-0.9990304604103372,0.0018516590866488,-0.0069141719083238,9.754228151553232,-0.003216390429794,-0.0083832820581134,-0.0038888700078655,3.483485708206788,5.045613901112826,2.067073682701649,1130.4044917993658,1141.4073726030467,1140.097912030541,1121.101589434414,1207.4016248961143,817.1380781779395,-265.60975266553044,-15.394007804346408,154.24032214660372
11.83,-0.1577828253777829,-1.0256039455639383,0.2875708599920918,0.0207755646131768,0.0057553327029934,-0.0072665087782153,-0.0072069534871306,0.0031799530997646,-0.0433216747862981,-0.9990298769993676,0.0062207630134904,-0.0061831634114023,9.756172928584393,-0.0032692046549228,-0.0085345438566138,-0.0040116064073767,3.4834797104862862,5.045591979374732,2.067063979667961,1133.8142408348124,1143.285467362933,1139.5020076435164,1121.3751681280144,1248.4900012822643,532.7557606870564,-165.95370167900575,202.1613848451072,154.24028833467008
11.8325,-0.5396643347509896,-0.8567445847123624,0.1726680815251929,0.0191755016149808,0.0020620991077566,-0.0065707379914624,-0.0072445183271572,0.0032182583963184,-0.0433277309854242,-0.9990292309604694,0.010599081445255,-0.0056606465643814,9.758156804155032,-0.0033048569048285,-0.008681340543926,-0.004138139181701,3.483473073097544,5.045568482427901,2.067054746277128,1136.646941805776,1144.0711514064817,1139.268143522146,1122.1123963586394,1081.4137855955453,158.22911529882987,-42.57812264449301,365.12553897026663,154.24025566969212
11.835,-0.8716241951357219,-0.5946806900039145,0.0191780565610205,0.0165989866681728,-0.0005509951200576,-0.0056384682539789,-0.0072766248201188,0.0032553071421792,-0.0433371028718512,-0.9990284929494434,0.0149012144734627,-0.0053442217606696,9.76020995189398,-0.0033234916962733,-0.0088241366929327,-0.004269483149059,3.483465808924122,5.045543763201084,2.0670464216549305,1139.2213097627907,1144.0766129394276,1139.289117030294,1123.2007958228662,953.725084797985,-99.51066745555443,42.23419622011783,459.1407474141952,154.2402177947288
11.8375,-1.1515150416145097,-0.2930122128010418,-0.1497235266395234,0.0134716075415355,-0.0020459973846752,-0.0051246877830878,-0.0073014234428905,0.0032865489673522,-0.0433479261517705,-0.9990277686681736,0.0189687513669864,-0.0052737667761139,9.762362877533526,-0.0033253014419338,-0.0089636718119074,-0.0044063942618477,3.48345794268296,5.045518164572891,2.06703990786734,1141.4155672297663,1143.5735980692039,1139.4793145032468,1124.4081000957108,752.3003750483573,-276.7942235019387,104.45697148963777,470.09897732064275,154.24017567073648
11.84,-1.3677248242603044,0.0010412030801691,-0.3071228295656887,0.0103025024513022,-0.001904781061088,-0.0058122164861626,-0.0073184373888849,0.003312738194073,-0.0433587294183862,-0.9990271180175768,0.0227505897337522,-0.0054633845345773,9.764643224338618,-0.0033107488347281,-0.0091010623491206,-0.004548993951062,3.4834499648455104,5.045492321940442,2.067034666872667,1142.982811638032,1142.692641821918,1139.811401887742,1125.5512907094687,512.7424796288434,-417.69833057741505,166.34207919135983,446.09309946731406,154.24012913000837
11.8425,-1.5600151584343112,0.275528913965589,-0.4397648990960519,0.0068809346458759,0.0002633145606278,-0.0081071370565445,-0.0073266905803788,0.0033347085038132,-0.0433679586016225,-0.9990266093693364,0.0262007316534249,-0.0059329278102845,9.767074856498803,-0.0032805777850657,-0.009237807503113,-0.0046965689360243,3.4834417626097105,5.045467180901052,2.067029125114956,1143.9792796279103,1141.4851064163172,1140.3110248992034,1126.638565593047,206.8769245152129,-438.1866165647577,196.1103991796938,333.7750856761819,154.2400698779998
11.845,-1.6650439173498943,0.4019912338848588,-0.4802399359226655,0.0037721149174446,0.0031484976139468,-0.0106454637430746,-0.0073229811057529,0.0033518639482939,-0.0433730052138756,-0.9990263796742228,0.0292485793148176,-0.006739982518008,9.769676645021132,-0.0032358132810061,-0.0093756914780983,-0.0048474885499658,3.4834334688253055,5.045442881866043,2.067022257723,1144.0171962606082,1140.501708739094,1140.7919538836406,1127.22016613785,-144.24507737892347,-372.45941819795553,207.40900905458545,162.01858884707883,154.24001946340834
11.8475,-1.7017695074591315,0.4082901149112745,-0.4410655797986969,-0.000538576254011,0.0059662596799872,-0.0127408502695429,-0.0073057730796506,0.003363593813031,-0.0433728466650368,-0.9990264861431496,0.0318310135051675,-0.0079051521773345,9.772460142778336,-0.0031778412038824,-0.009516648199981,-0.0049991875776055,3.4834258088144607,5.045418793244909,2.067013086547972,1143.2580542410155,1139.6228093253271,1141.3480699444765,1127.4486585372824,-488.79714201908155,-364.0127906701578,266.6523566691088,34.30645021463307,154.23997074349143
11.85,-1.6493088787010293,0.3022723048565998,-0.3196212719235669,-0.0065024657358036,0.008268107274626,-0.0142928736807972,-0.0072776454134272,0.0033670268292766,-0.0433662895798532,-0.999026971406534,0.0338516758386269,-0.0093622582100548,9.775428274441952,-0.0031083222810323,-0.00966267560794,-0.0051483453107667,3.483419087117319,5.045394933836864,2.0670013124485247,1141.5732105505133,1138.6816447857436,1142.125215666986,1127.3916983889233,-712.274809046428,-333.06188759187785,302.70323416370775,-55.83143877837793,154.239918272303
11.8525,-1.5211629699849951,0.1582603961349094,-0.1788597377582823,-0.0111465448165728,0.0088095884054923,-0.0149680015804845,-0.007243480824033,0.00336118364181,-0.043352431830648,-0.9990278428683524,0.03526147947153,-0.0109975070103608,9.77857415727375,-0.0030291604007078,-0.0098157330262584,-0.0052912010157564,3.483412514287592,5.04537145181726,2.0669872741111033,1139.6966801957828,1137.9574998873675,1142.8615861152953,1127.1695013433905,-797.9032172045324,-281.9310554230029,302.13357828470004,-94.75538578897952,154.23988289504828
11.855,-1.3159141032126715,0.0113819957564373,-0.0272604852378014,-0.0152050230645616,0.0076379456038653,-0.0149231710467491,-0.0072078685771406,0.0033480209738694,-0.0433328121944793,-0.9990289945684464,0.0360776987691927,-0.0127018646949333,9.781880885180561,-0.0029425138853176,-0.0099776034088687,-0.0054239072983736,3.4834053104951144,5.0453489092533275,2.0669718483708497,1137.58369446449,1137.2719895086284,1143.6358835584097,1126.9179214599783,-844.6317994371699,-264.14647157922246,299.6070596706118,-81.02085510073968,154.23986003437227
11.8575,-1.0642964347709551,-0.1047712664247792,0.1118888331767212,-0.0185394836398423,0.005660499926732,-0.014283818946028,-0.0071779569426702,0.0033298171170677,-0.0433088852187497,-0.9990303047506685,0.0363360341505832,-0.0143137021570226,9.785321607436591,-0.0028507739555337,-0.0101497805774455,-0.0055427207609291,3.4833975919714035,5.045327518398564,2.0669551999004323,1135.4735211985978,1136.6367675294716,1144.359621413648,1126.7643970678869,-801.0487704597156,-228.0238504724365,251.54328721942423,-10.812973667409429,154.23985001209786
11.86,-0.7865840232006645,-0.1684238010850268,0.2165328269257862,-0.0204598492436129,0.0038299378226195,-0.0131550258057411,-0.0071574415047306,0.0033085087229436,-0.0432810621056648,-0.9990317231948622,0.0360730827055582,-0.0157366916564768,9.788861091776747,-0.0027566318617477,-0.0103331961180813,-0.0056442944686628,3.4833897314104307,5.045306532498386,2.0669371148752775,1133.5784506121922,1136.1318702562664,1144.8935999945063,1126.8638565916413,-744.7972683194366,-167.55548228840888,160.14539787417783,125.70371154841122,154.23985789312766
11.8625,-0.4626344872705624,-0.1969391290580294,0.2899177025339276,-0.0213709335729972,0.0025994432223796,-0.0114723764833341,-0.0071455949104534,0.0032864167210966,-0.0432508119126115,-0.999033184736654,0.0353400089463701,-0.0169609413757972,9.79245676602051,-0.0026631981812192,-0.0105280212399775,-0.0057258644714324,3.4833825687496045,5.04528462462194,2.066917660578715,1131.749534857,1135.7989901180295,1145.160348403019,1127.392915625629,-581.1324388957473,-60.176816774209925,21.854925726162257,266.3146705299407,154.23989047327896
11.865,-0.2220721644751979,-0.2049682125964883,0.3093985078796015,-0.0214170917538342,0.0025170791314397,-0.0101104164338521,-0.007140921256805,0.0032664335329596,-0.0432223666247656,-0.9990345088725044,0.0342093324167517,-0.0179932409134262,9.796059665634429,-0.002574032590778,-0.0107336709865865,-0.0057853562849653,3.483377261936453,5.045261213100272,2.0668967480976033,1130.672788417713,1135.8309861723951,1145.0028746231371,1128.1954299442912,-334.46166114056103,87.35209597099957,-140.26261228025822,382.0034124278969,154.2399381549745
11.8675,-0.024809590534276,-0.2269020263550489,0.299931520401319,-0.0211079302760082,0.0031965077137879,-0.009165847162567,-0.0071393253982672,0.0032521696043379,-0.0432005461624167,-0.9990355063751426,0.0327759935004141,-0.0188941437227985,9.799616509862467,-0.0024929586787701,-0.0109489133843292,-0.0058215954787216,3.483374488197751,5.04523611512285,2.0668759393973217,1130.0772265512976,1136.2357505978844,1144.459035341618,1129.302932687768,-160.95255981401564,258.92174540450054,-302.25510154032054,519.677415496754,154.24000805329433
11.87,0.1616664654885013,-0.2873551959603459,0.2807977315877531,-0.0205383539753884,0.0041761404686464,-0.0085271870096402,-0.0071396358456007,0.0032463419962853,-0.0431870909395493,-0.9990361033049032,0.0311298885158648,-0.0196693762689436,9.803071341761212,-0.0024236927285195,-0.0111721369828873,-0.0058342660998918,3.48337443619089,5.04520976517555,2.0668559821709773,1129.8680256186428,1137.125594899418,1143.4915991154355,1130.793817021775,-5.365990008657789,377.47467754150887,-375.82373103290166,537.4458612879677,154.2401179076517
11.8725,0.2813307090679038,-0.3605815989121488,0.2774872959910749,-0.0199309838326453,0.0042587184126658,-0.0084289953598285,-0.00714120649765,0.0032476395913909,-0.043178247093318,-0.999036471612444,0.0292913796552541,-0.0203149450723399,9.806368537136489,-0.0023694038097735,-0.0114015052838539,-0.0058239022015892,3.483376232059021,5.045182495720312,2.0668367617250256,1130.0503966012543,1138.1231239855922,1142.579916686453,1131.9901619942084,129.4103473487924,421.1813463532436,-344.6799544541367,427.43046817467393,154.240230830121
11.875,0.374471193365815,-0.4316486041508511,0.3037862990274793,-0.0191490054479125,0.0026956022342072,-0.0087816884399895,-0.00713978439345,0.0032547902609741,-0.0431707753741571,-0.9990367861471702,0.0272858465389692,-0.0209029102123994,9.80945495476396,-0.0023325860229681,-0.0116349906165756,-0.0057918499212892,3.4833789559783903,5.045154392154882,2.066817944548872,1130.5150773553867,1139.2315016311838,1141.7681993431652,1132.9309693626483,220.26685725877377,433.9245007821728,-281.078491779464,312.1603566114284,154.24036521680358
11.8775,0.4540329636301544,-0.4790324452668186,0.357021474117693,-0.0181999077432749,0.0001240490970565,-0.0092050934873427,-0.0071336594804029,0.0032639666132136,-0.0431661987053995,-0.9990370049176258,0.0250961635434418,-0.0214595473732247,9.81228168969226,-0.002314940625143,-0.0118704954676818,-0.0057400593940901,3.483382399076826,5.045125766829736,2.0667988777367032,1131.151730887548,1140.2927464895026,1141.174524227556,1133.5509637772652,283.434143198748,380.9872302083336,-164.88003109063507,161.93478518673342,154.24051670038816
11.88,0.5269859874165261,-0.4870900398608005,0.4284930883696889,-0.0171300169482207,-0.0023304098684312,-0.0089648675327448,-0.0071211731791671,0.0032693066314308,-0.043164810555076,-0.999037145132391,0.0226688474405636,-0.0220143467409375,9.814806284087021,-0.0023171390320155,-0.0121058852906018,-0.0056711346567441,3.483386136068008,5.0450961468696045,2.0667794646040343,1131.9322480713806,1141.1364377822258,1140.9437991877119,1133.740643288582,362.2039546858448,290.4739777383384,-11.53906737672334,-3.6050789347422154,154.2406877960915
11.8825,0.6178696990435812,-0.4645052098433932,0.4988861254763438,-0.0158952229806551,-0.0039204087550111,-0.0072122037146956,-0.0071039718985858,0.0032684722209098,-0.0431650514376941,-0.9990372681685686,0.0200237562373006,-0.0225408725035601,9.81699336605871,-0.0023388202565883,-0.0123390681467414,-0.0055882832973633,3.483389271509692,5.045065004216414,2.066760291939512,1132.9627506609775,1141.7451163781943,1141.1168288906724,1133.5329383825915,382.354330732354,146.15579466770393,130.14927315123575,-125.07435828099673,154.240914289349
11.885,0.7011405613118543,-0.438861598491721,0.5157008918321427,-0.0148787436079993,-0.0042792929431066,-0.0049264848588536,-0.0070835813740423,0.0032605559746571,-0.0431677432584375,-0.9990373286788043,0.0172080698880957,-0.0230221156670501,9.818816855770427,-0.0023787133044085,-0.0125680287597676,-0.0054954101602511,3.483390757917451,5.045032482024335,2.066743254740893,1133.844019725042,1141.867216755564,1141.594545553468,1133.1152714971772,341.4849139005958,-24.85791712687908,240.59440096003405,-179.14830301444383,154.24111944940856
11.8875,0.7903282426005511,-0.4253050688794786,0.4665806526861557,-0.0136902524727113,-0.0042659778909271,-0.0027257104687736,-0.0070618469993306,0.0032471756301343,-0.0431723048553791,-0.9990373319063436,0.014316350441299,-0.0234419891509534,9.820260851576483,-0.0024347350894725,-0.0127909579041861,-0.0053969464530843,3.483390145944744,5.044998773924116,2.0667288165280278,1134.6701752304807,1141.62082679256,1142.3198008954728,1132.6371968675192,330.9334727369725,-164.10212777725226,347.1057576999013,-179.40466896163267,154.24134000780708
11.89,0.8897530053518788,-0.4266128529443651,0.327471617548795,-0.0116721555784548,-0.0045531356276917,-0.0007409834204996,-0.0070400326439442,0.0032309152479928,-0.0431771572769142,-0.9990373281478112,0.0114575754064491,-0.0238009337209348,9.82132049502144,-0.0025042518839064,-0.0130063224206955,-0.0052975573978079,3.483387664589292,5.044964087486202,2.066717465635905,1135.4986870887271,1141.0467061166776,1143.3300743419677,1132.2182481523687,264.0186011675339,-224.38602115621424,370.6225527469824,-105.1546028079183,154.24162036108768
11.8925,0.9490808935585748,-0.4319530046729257,0.1540762269582216,-0.0093251492469534,-0.0054171395372565,0.0002670583065724,-0.0070195423107449,0.0032150934372961,-0.0431815351675799,-0.999037330161193,0.0087498609212759,-0.0241006154604893,9.822001892697497,-0.0025844054966487,-0.0132129227500842,-0.0052017208025992,3.483384035199675,5.04492801232214,2.066709128826437,1135.990268236318,1140.4988966867793,1144.172913659207,1132.1114238534797,146.7015484569693,-190.5525300006881,310.04455267399663,13.292702029960227,154.2418653690843
11.895,0.9620224853706552,-0.42131385101048,-0.0585803947591632,-0.0064420490946242,-0.0067972656861166,0.0006140024279785,-0.0070030970683776,0.0032017794582648,-0.0431846783391456,-0.9990373458297412,0.0062816191755815,-0.024317855660983,9.822321578046049,-0.002672297679702,-0.0134099876025607,-0.0051132717364034,3.483379168810252,5.044890390648548,2.0667034167175906,1136.2321948310118,1140.0939434666743,1144.8802971053371,1132.2847116625187,55.60268863277128,-110.43847881149397,243.1222271631288,102.45196223375603,154.24212000336172
11.8975,0.9244721136536568,-0.383034624016105,-0.2842594190431516,-0.0034014544042857,-0.0082966560699624,0.0004105581385213,-0.0069910767430727,0.0031899998553807,-0.0431863433285457,-0.9990373868285592,0.0040727086766393,-0.0244735408826747,9.822305947535256,-0.0027651711923755,-0.0135972522158242,-0.0050351153984533,3.4833726702866814,5.044851339992618,2.0666991939307127,1136.268281679482,1139.9467042927215,1145.3885247950232,1132.6236836646483,-26.83226187977688,23.744776606277732,143.1611263310746,143.08396134808882,154.24238085923315
11.9,0.8219313643586676,-0.3008066646471319,-0.4987245131108846,-0.0005351288069883,-0.0097885594741142,-0.0005244994659469,-0.0069861518240678,0.0031777510125434,-0.0431871853879098,-0.9990374131734572,0.0021177015135775,-0.0245419594804505,9.82198898206523,-0.0028606467537211,-0.0137751268042197,-0.0049688322076576,3.4833649008492924,5.044811321992937,2.066694024444996,1136.0980335216127,1140.212667349706,1145.5961027369929,1133.0001314692593,-103.9429444574332,216.92738935543952,23.785271895171903,124.10922650017451,154.2426469301639
11.9025,0.6338776255092186,-0.1496541405439262,-0.7066330707463822,0.0023974521570272,-0.0110858094190616,-0.0026159921247338,-0.0069882730481233,0.0031661360518568,-0.0431870692492504,-0.9990374281849908,0.0004630297338729,-0.0245511381767598,9.821410744261204,-0.0029569151285396,-0.0139447412328347,-0.0049147834136337,3.4833560646114825,5.044770922087054,2.066686580926983,1135.7485669571947,1141.0313412394987,1145.5074511544988,1133.2442297971493,-134.7811430958968,370.61565701176823,-73.676869026409,22.001239197474945,154.24296908822072
11.905,0.4409068126409769,0.0125847643936207,-0.8139743212568962,0.0042295074536251,-0.0115300783854359,-0.0051719710092839,-0.006994128096788,0.0031570335062507,-0.0431842838357073,-0.9990375238033732,-0.0008388370330088,-0.0245901434932536,9.820615921882,-0.0030528336404689,-0.0141079612888908,-0.0048723939354045,3.4833472615802124,5.044731417804944,2.06667607347247,1135.4241278061336,1142.0657456347644,1145.227718391861,1133.1101376652466,-112.80984340358428,456.5420887082124,-125.2725034851014,-146.97079495901994,154.24323749914012
11.9075,0.2418171490234183,0.1967672967824195,-0.8322273240804559,0.0049340073635782,-0.0116315880191292,-0.0082470371304416,-0.0070039887084829,0.0031548622542157,-0.0431767112257557,-0.9990377762948862,-0.0016884894753862,-0.0246750589143644,9.819651258603248,-0.003148008317061,-0.0142673287739348,-0.0048403679591675,3.4833394284241446,5.044694431014641,2.066662808502416,1135.1845177401767,1143.31405168304,1144.8810886370732,1132.509375822354,-57.4560947464671,554.5428693067195,-131.77814599255484,-369.1392829541988,154.24350275907995
11.91,0.0366402276795492,0.4181357327169377,-0.7467539921012857,0.0040259919119893,-0.0111525032829393,-0.0118140891253832,-0.0070165396424016,0.0031635151616294,-0.0431636559153252,-0.9990382135117472,-0.0020036982854719,-0.0248470144807906,9.818564960862572,-0.0032426811155824,-0.0144256932623569,-0.0048172971719295,3.4833335081320778,5.044660444851909,2.0666479331548326,1135.1368473324012,1144.8384599812985,1144.568827661898,1131.264441250475,39.864723394028914,533.3581744556037,-77.67703233836707,-520.0992049496233,154.24381361643557
11.9125,-0.0849630530717155,0.5794766696866605,-0.598224685886917,0.0025146934507712,-0.0096600278556988,-0.0142912422854412,-0.0070296657518065,0.0031790351823918,-0.0431474128145383,-0.9990387624255634,-0.0018620612862192,-0.0251500281406854,9.817405989274148,-0.0033374244268449,-0.0145857697406672,-0.0048020219771057,3.4833295256112575,5.044628980407327,2.0666331887395626,1135.383841357147,1145.9808425553176,1144.4927034753816,1129.9088797976065,168.704212501435,404.8881254120992,16.2171079866741,-560.67777955241,154.24406349973495
11.915,-0.1515689572299875,0.6886313381679243,-0.4000067092513137,0.0015336342391487,-0.0071286754392628,-0.0156776940121718,-0.0070408429288138,0.0031959223624609,-0.0431293022908937,-0.999039400486445,-0.0013765545652999,-0.0256284994005469,9.816222596822415,-0.0034327389673754,-0.0147497354392367,-0.0047937321087727,3.4833271000207526,5.044597637408692,2.066619153873535,1135.9803683949085,1146.8629006083593,1144.6499132018312,1128.4610523527128,335.96707892588006,314.8429354139315,111.60552976096442,-594.892337660847,154.24429996307998
11.9175,-0.1862679221532187,0.7404907717378763,-0.1510422264726861,0.000996981388646,-0.0039815549562033,-0.0154949298885848,-0.0070466017242027,0.0032070263280978,-0.0431120912335378,-0.9990400561962536,-0.0006981198440204,-0.0263378977129145,9.815061718651203,-0.003528803651568,-0.0149189803499346,-0.0047919480973508,3.4833257288401795,5.044564554918289,2.066606178257971,1137.0636767517767,1147.5550572323875,1145.0507311241863,1126.9344181093015,439.55971818745286,192.6134881421532,161.70829759888454,-484.4607090111877,154.24456295438432
11.92,-0.1959455725168326,0.7175441593269328,0.0362926877462203,0.000702838023457,-0.0018172861686373,-0.0141511742658423,-0.0070454795195574,0.0032075630292161,-0.0430986538285146,-0.9990406328386136,6.548786475237683e-05,-0.0272906927392996,9.813967756745036,-0.0036252504826887,-0.0150941938641951,-0.0047962846806417,3.4833245857357413,5.0445292550377125,2.06659415865482,1138.178166985845,1147.8259680490698,1145.4584546898257,1126.0387488076572,455.1710624876701,51.409585868315155,145.26441178121038,-248.7984030767206,154.24476047479823
11.9225,-0.2064344770518711,0.6367698508786694,0.1872994080738579,0.0004998233404803,-0.0002330169900255,-0.0128304083707087,-0.0070376925268562,0.0031958745346553,-0.0430858321774167,-0.9990412713823216,0.0008642139402217,-0.0284638873956361,9.812982051261054,-0.0037208814988693,-0.0152756240017505,-0.0048063018325987,3.483322296733318,5.0444921830769776,2.0665826155421287,1139.3395320642146,1147.812105161729,1145.7770531830924,1125.6904260939184,442.7607514172213,-45.653952294917104,87.40079413031253,-40.26190808612508,154.24492976273464
11.925,-0.2303707865967357,0.518892549145285,0.313049754044658,0.0003701809388329,0.001005539167558,-0.0122796214627995,-0.0070268950729972,0.0031774597018275,-0.043072553355197,-0.9990419738867402,0.0017857008355321,-0.0297686749412618,9.81214188566084,-0.0038140022685121,-0.015463263129631,-0.0048213031732499,3.4833184762357363,5.044453506150701,2.0665711794156048,1140.3919707429316,1147.5976982875952,1145.8954586604773,1125.8374392672267,362.64681304463704,-124.47037105592116,-23.57208086186433,169.75376270636008,154.24507087917257
11.9275,-0.280767718063818,0.3680351536209365,0.4217347068349043,0.0002637766703712,0.0020265812173189,-0.0124267906194648,-0.0070165408734183,0.0031579436256853,-0.0430619361227712,-0.9990425636691512,0.002914068726577,-0.0311164940431305,9.811481047060862,-0.0039025945239766,-0.015656973894195,-0.0048404402711841,3.48331337543978,5.044413640771288,2.0665584980087366,1141.152766129438,1147.1897533064491,1145.659192778783,1126.5391949074503,238.61014399681352,-210.30961202272556,-196.36442051336687,405.2552798821477,154.24517172190048
11.93,-0.3760406313769388,0.1623534258130242,0.5379666876565498,2.0620578672542185e-05,0.0030895002823144,-0.012029513069741,-0.0070094490345947,0.0031454207642406,-0.0430563645345204,-0.9990428946466512,0.0043756982676879,-0.0324299510483752,9.81102926042252,-0.003984385701758,-0.0158566477190758,-0.0048627784991808,3.4833072423818128,5.044372672910192,2.0665451124377068,1141.5850214629156,1146.5461502274818,1144.9136365579106,1127.863715666637,68.17402725886339,-250.54192330713423,-341.29032079753534,532.2126104753884,154.2452373371334
11.9325,-0.4797626040863471,-0.0181936677787395,0.613816667457947,-0.0004095546797869,0.0036664507690469,-0.0105636319506882,-0.0070063093024487,0.0031455589987933,-0.0430551881155525,-0.9990429747212058,0.0062424375117425,-0.0336683887432649,9.81081239810024,-0.0040568940573878,-0.0160623068936775,-0.0048874888527354,3.4832998419804504,5.044330518204686,2.0665320607658035,1141.4936362657324,1145.9370436899135,1143.9527411747952,1129.2002579598277,-131.07159174508294,-246.33728458052943,-424.2047534736476,538.3082636335143,154.24523894949917
11.935,-0.5933745909951719,-0.1893841142462935,0.6506678843801974,-0.0012325912326492,0.0034457749471086,-0.0081875287788743,-0.0070052259372076,0.0031516125934432,-0.0430559364927254,-0.999042941881288,0.0083360896977865,-0.034828849073904,9.810853223511872,-0.0041175334558609,-0.0162741788811319,-0.0049139616479715,3.483290661200938,5.044287452365889,2.0665193913562265,1140.92966350419,1145.3144638045787,1142.792612790542,1130.555256984805,-344.9836690703482,-267.3936458311423,-502.1878808646396,554.7400508913792,154.24517743542162
11.9375,-0.7121104686978321,-0.3576936315507479,0.6397268561164194,-0.0027744087359016,0.0022340015673114,-0.0053777242353745,-0.0070042862364967,0.0031566007432201,-0.0430562394761129,-0.999042930750155,0.010470214995688,-0.0359065484154516,9.81116984532324,-0.0041640129452951,-0.0164927514022558,-0.0049416006963957,3.483279614559154,5.044244236198903,2.0665065505681484,1139.768717920381,1144.600075460758,1141.4418017704725,1131.973958214284,-487.8146706337763,-253.73752241326247,-444.99384041668895,462.18142396146607,154.24502319592793
11.94,-0.7698583476274651,-0.4500632869484846,0.5889519202882614,-0.0045680992041756,0.0007755124906066,-0.0034666439547249,-0.0069997145631979,0.0031547514630964,-0.0430559769916705,-0.9990429898437672,0.012477994153937,-0.0369329658001354,9.811775501397356,-0.0041946789869302,-0.0167187052084462,-0.0049698461391541,3.483266965693657,5.044201562746717,2.066493475213356,1138.4905901510217,1144.045776192513,1140.567643588459,1132.866164104612,-542.4012388874933,-213.54109229693069,-254.55453643199348,283.4473151644045,154.24482384900145
11.9425,-0.7511772244172074,-0.4797509062909433,0.5104526786000558,-0.0071311294844504,-0.0009359785156745,-0.0019961495909058,-0.0069908779449744,0.0031454366595843,-0.043057190871791,-0.9990430363882382,0.0142950878101827,-0.037881784779677,9.812677373081902,-0.0042087974207679,-0.0169528302502426,-0.0049979848777575,3.483253565308007,5.044159663911438,2.0664806087214656,1137.0567117259432,1143.5323699992732,1140.1690290883123,1133.3911947901063,-568.3524115034764,-199.31026264995648,-62.8299257749306,150.0144299100377,154.24454842356775
11.945,-0.648266395661863,-0.4545851127487536,0.4245868891006739,-0.0102864239762805,-0.0027853523468332,-0.0009452491642054,-0.0069769109214237,0.0031330743045002,-0.0430614645846402,-0.9990429938031692,0.0159567119281902,-0.0387357425386809,9.8138765652257,-0.0042066160719169,-0.0171958223798108,-0.0050252517794406,3.4832408822107843,5.044118223008534,2.066467878538143,1135.6488280935039,1143.0492248792627,1140.2534939595844,1133.6162362541622,-517.5739929177446,-184.7609509212274,149.661888163321,30.256461548703207,154.24420944514407
11.9475,-0.4355393544735691,-0.3699583642785838,0.349355269067842,-0.0135057144497791,-0.0046030128258091,-0.0003852087582315,-0.0069598290854543,0.0031223680173854,-0.0430709010795662,-0.9990427431709176,0.01750869904281,-0.0394226231358715,9.815368085038445,-0.0041893373558721,-0.0174481207731394,-0.0050507203348984,3.483229967885652,5.044077547326541,2.0664555737771155,1134.4688417613547,1142.6085652446673,1140.9173385291288,1133.5424770978495,-422.3347388610159,-178.9482220178063,398.09980367970786,-73.51059236588057,154.24379499973028
11.95,-0.0766145222116435,-0.2236676276851248,0.291907515590907,-0.0160798017665468,-0.0060831134368342,-0.000116244145102,-0.0069417623325487,0.0031162772413798,-0.0430832001593653,-0.999042360705516,0.0189673536631607,-0.0398686736499819,9.817141119101473,-0.0041587433803092,-0.017709747147164,-0.005073359170756,3.483220683339292,5.044037315409855,2.0664435325481905,1133.5371543991985,1142.1544837691736,1142.2439929779832,1133.2486832923328,-238.91060029901283,-148.8645872327874,539.0616713627036,-116.59348480737204,154.2432140258449
11.9525,0.2672067098266457,-0.0916725728743405,0.2800140200528593,-0.0163124317946838,-0.0060901114870511,-6.386924072247846e-05,-0.0069235654015993,0.0031153642700553,-0.0430958348336977,-0.9990419490240364,0.020306787814207,-0.0400268009497246,9.819179060827981,-0.004117083740059,-0.0179800944027356,-0.0050920268374711,3.4832123363901046,5.043997000531795,2.0664319274699907,1133.2742887598597,1141.8642423085032,1143.6126468859427,1132.9595096738128,10.93270905030512,-92.44539083412766,550.8581267186132,-95.55981912237341,154.24266428381142
11.955,0.5913888216431008,0.0171940380394853,0.3058550007887458,-0.0145873824059707,-0.0049831530303707,2.5636877935085385e-05,-0.0069126717078099,0.0031219999624776,-0.0431076812370252,-0.9990414969605956,0.02154926130381,-0.0397274814901124,9.821458177865251,-0.0040669871379659,-0.018257876548695,-0.0051050976667789,3.4832049379980448,5.043956312062807,2.0664204138205293,1133.59181794445,1141.6922568150032,1144.9982836115755,1132.7708841967208,262.17858018322414,-46.33374531659695,558.758512944016,-35.5918724307301,154.24205229530338
11.9575,0.883679224933954,0.0987260588658737,0.3677318986307903,-0.0108603487507769,-0.0035212652612683,0.000434713782589,-0.0069139048941243,0.0031359815698066,-0.0431178998350366,-0.9990410069317192,0.0226724780828137,-0.0388565199920546,9.823948849390451,-0.0040112378995313,-0.0185409930840755,-0.005110772776049,3.483198495455118,5.0439144335944075,2.0664088032780703,1134.5851816607756,1141.6325735819203,1146.4064394506622,1132.7815503116592,444.1202005884622,-0.2855252225799185,445.9856528553004,50.19553283235962,154.24125272981016
11.96,1.0067130052472406,0.1254445994865897,0.4280954741292612,-0.0066387210469535,-0.0027456280791994,0.0012065789477563,-0.0069249245023148,0.0031546986596724,-0.0431252575618643,-0.9990405552096792,0.0236096084031739,-0.0374457807397268,9.826616021935116,-0.0039526390242762,-0.0188265179020049,-0.0051072512484866,3.4831925626342377,5.04387062668224,2.066396764861064,1135.8124189473926,1141.6908291888903,1147.2282118758524,1133.0218618608828,535.5630047189679,37.00771718349064,242.16081424102265,137.89726879633807,154.24053689394796
11.9625,0.9848736702062764,0.1223911919355181,0.4721380868576545,-0.002083999383806,-0.0025902489573214,0.0025752228024942,-0.0069424713168022,0.0031727763977651,-0.0431296524030478,-0.9990401855818072,0.0242477389064187,-0.0355514178020422,9.82941903356655,-0.0038939917136641,-0.0191108866414064,-0.0050925524077881,3.483187483270453,5.043824640793548,2.0663836415751615,1137.2629966843708,1141.8176121678375,1147.6172435218675,1133.471036655641,584.4044565328458,53.00289925090655,87.90894663372386,200.82518263629385,154.2397751607099
11.965,0.8541945870151069,0.107190829994233,0.4840297428794729,0.001987394969023,-0.0027743387445397,0.0044225548742681,-0.0069633003109331,0.0031830867946273,-0.0431322916559671,-0.9990398922361448,0.0244484410029661,-0.0332370047863238,9.832311928948352,-0.0038380487711405,-0.0193901269415432,-0.0050645897496563,3.4831838985573556,5.043775646758097,2.066369115038435,1138.7344412300563,1141.9558436851448,1147.6677566090211,1134.025987774064,556.1728946651823,47.564863730614725,-44.55908778622174,226.26826909273504,154.2389793421133
11.9675,0.6365373631944687,0.0879663805203406,0.4422659809060688,0.0047295071068067,-0.0030519369571474,0.0064987899067256,-0.0069831587308265,0.0031815525889582,-0.0431337456465141,-0.9990396949536248,0.0241410239501616,-0.030597676400142,9.835243699973464,-0.0037873772869285,-0.019660178223234,-0.0050213709753093,3.483181599846407,5.043722951390311,2.0663530629076994,1140.0438611576972,1142.0554364864909,1147.3944480829364,1134.6023780011049,502.56851758091545,27.345706313140273,-167.9440201405406,234.16334696636088,154.23814706048944
11.97,0.3583406759185221,0.0642247083206759,0.327616142704099,0.0055517578401038,-0.0033164574287896,0.0084140960888377,-0.0070007188817523,0.003164898033815,-0.0431326371806505,-0.9990396743836126,0.023281145664824,-0.0276804815145707,9.838159255645929,-0.0037441558882463,-0.0199173514766033,-0.0049610878646676,3.4831795253241946,5.043667623558993,2.066335481134332,1141.2472838179613,1142.0925722167103,1146.8280365083183,1135.196804508896,366.17146284832427,1.1098897074591538,-230.15642847967715,191.05353480194188,154.2371119499823
11.9725,0.1766047475308939,0.040220693419596,0.1880995731465224,0.0042062261657179,-0.0032103554170595,0.0093096503868405,-0.0070177252315142,0.0031391998596928,-0.043128384711117,-0.99903982248111,0.0220181001018287,-0.0244880305440502,9.84099961544618,-0.0037103150113598,-0.0201586729555177,-0.0048822967584444,3.483177164130999,5.043611489104171,2.0663168293063565,1141.8747184719384,1142.060985935028,1146.2436659405382,1135.5576456751144,172.30538884540482,-16.633511836793,-245.39436543941852,113.8808611997546,154.23622310526355
11.975,0.1021080438210046,0.0038287960778637,0.0224811806153499,0.0018871998571992,-0.0026485327712007,0.009778605398261,-0.0070351520815113,0.0031133553295208,-0.043122141191216,-0.9990400532120612,0.0205622270214624,-0.0210472719156105,9.843704888714667,-0.003687538132163,-0.0203820174399784,-0.0047843246899115,3.48317443346321,5.043555262520828,2.0662976785896863,1142.108810762188,1142.0094046575266,1145.6010646811214,1135.7662088148948,27.721523305349574,-12.517783801602352,-295.8624883963231,62.17434028893815,154.23531144069287
11.9775,0.1514152530195871,-0.0582980595649973,-0.178453503481225,-0.0006913441967277,-0.0020903763262252,0.00963160939159,-0.0070544450201838,0.0030930038619353,-0.0431169696122742,-0.9990402062651044,0.0190651865126629,-0.0173783928957746,9.846216781087053,-0.0036772690538587,-0.0205861183239595,-0.0046674070616068,3.4831718126749607,5.043499098655815,2.066278309577162,1142.0133260884652,1141.99839701602,1144.7643534985564,1135.868517376559,-79.54184628855394,14.09807217714622,-323.68210055364614,17.379847530671224,154.2341951295477
11.98,0.282728035013641,-0.121092008411987,-0.3250956679180033,-0.0018875230337056,-0.0021233377183587,0.0085066107016222,-0.0070759279934665,0.0030812754469977,-0.0431159939419092,-0.9990401359334764,0.0176318496124925,-0.0135249678774418,9.848480558207552,-0.0036806684830333,-0.0207704889565024,-0.0045328427464389,3.483169778487692,5.043443028411265,2.0662591497326073,1141.7111015307453,1142.0798950184123,1143.9826541783527,1135.853108052548,-144.1429320814964,59.13044907739544,-338.55901348067533,-27.009690038817926,154.2332483968526
11.9825,0.4427016389736012,-0.1842176102048213,-0.4270546815334823,-0.0011357872309538,-0.0028539105654958,0.0067596674013561,-0.0070968752456526,0.0030787203233783,-0.0431226341360347,-0.999039713359732,0.0163156263977251,-0.0095901403767586,9.850447163361425,-0.0036985719447639,-0.0209353147153665,-0.0043831120211225,3.483168784830569,5.043387401065341,2.0662413257553016,1141.2926114280579,1142.294049261407,1143.071558431153,1135.733468926365,-173.48457340366434,110.94718794968163,-388.83999410439634,-70.93718922189102,154.2322860901722
11.985,0.5651454207014339,-0.2401030791721499,-0.4831893791742817,0.001694254887385,-0.0040684034243972,0.0051915591773235,-0.0071156270064769,0.0030837314779129,-0.0431338600758457,-0.9990390856418768,0.0151284807650662,-0.0056539484230502,9.852074248961747,-0.0037310946525099,-0.0210814377595981,-0.0042216209762223,3.4831682351345927,5.043332106381508,2.0662264768666296,1140.8436786637271,1142.6346309581606,1142.0384542078311,1135.4984221064387,-180.16873535881956,168.52931608165912,-439.0420642656177,-134.08055930151656,154.23131125842895
11.9875,0.5799201240396538,-0.2863261889462345,-0.4832704800040276,0.0060114271018091,-0.0053894435354982,0.0041184810454656,-0.0071299594196978,0.0030955861210277,-0.0431468796884743,-0.9990383910364988,0.0140975552192339,-0.0018067957818976,9.853327347898986,-0.0037778138956336,-0.0212101765205965,-0.0040524787595272,3.4831679142807883,5.043277216435325,2.066215361295401,1140.3917677512636,1143.1366958418155,1140.876348109825,1135.0630661298571,-202.5562511307409,255.92328085322697,-527.4926430252975,-253.4053318168448,154.23032089051688
11.99,0.4392406284803677,-0.3430333227339522,-0.4207155132162555,0.0103806724203667,-0.0061905658746316,0.003037643141426,-0.0071416900130736,0.0031157830629432,-0.043161819107289,-0.9990376052358372,0.0132938118512936,0.0019413871507954,9.854179861804846,-0.0038378161093505,-0.0213232215453526,-0.0038798611642201,3.4831677104465464,5.043222971659803,2.066207350984416,1139.8308974080733,1143.9142473624267,1139.4009909927045,1134.2313954473543,-215.42021769709856,306.6015729231977,-540.1536311666115,-362.4865236270392,154.22911278351427
11.9925,0.203165213157789,-0.4046539188615151,-0.3159019252460407,0.0122976023727687,-0.0061065000059092,0.0020124444104334,-0.0071509881930621,0.0031444078556282,-0.0431767729048278,-0.999036807347204,0.0127539666236465,0.0055536696705951,9.854614700662125,-0.0039094093289607,-0.0214224957440216,-0.0037078246427199,3.48316679578715,5.0431687915224925,2.066201692629584,1139.3146666627783,1144.6697037064312,1138.1755799539924,1133.2506335117223,-221.31220238535383,305.67314406111785,-471.08200614576987,-448.09501919405466,154.2280875948377
11.995,-0.1108923145844914,-0.4881461185791698,-0.1551838304398354,0.0122804742466226,-0.0059671601532278,0.0009439689521425,-0.0071577262929324,0.0031835201812603,-0.0431908613684478,-0.9990360284143808,0.0125469385077889,0.0089905915267034,9.854623629157008,-0.0039902979224711,-0.0215100351579749,-0.0035398781859383,3.4831649885533924,5.043114759179643,2.066197216397911,1138.7243363961463,1145.4426130827328,1137.0455809619752,1131.9909203513837,-267.6803862195848,310.80447623312153,-456.8721429231314,-598.3973239503003,154.22704024387963
11.9975,-0.5143873936613618,-0.5986891358039425,0.0969346831929889,0.0104537313784935,-0.0066439104466217,2.6986692794652103e-05,-0.0071630124000275,0.0032322996589877,-0.0432037775681329,-0.9990352756426544,0.0126784047271242,0.012245151015248,9.854206981984317,-0.0040776084627054,-0.0215879275904057,-0.003378745682453,3.4831624168675415,5.043060919299044,2.066192493595335,1137.9762647316802,1146.223726087597,1135.8912192393764,1130.2586468919703,-261.39992672447727,234.03776784925972,-379.929989087471,-648.9837061454109,154.22575437541235
12.0,-0.832839440047007,-0.6746413390102206,0.3439988176057791,0.0079636552347351,-0.0084106519463234,-0.0001804340687774,-0.0071667664300886,0.0032872923873111,-0.0432154000812537,-0.9990345661143804,0.0130927731101584,0.0152952530803198,9.85337322860408,-0.0041679789356902,-0.0216582302416236,-0.0032264578348914,3.4831586124593206,5.043006870195636,2.0661868292667647,1137.4173367625242,1146.6128019219789,1135.1459310165383,1128.7460018206573,-175.49181305447598,71.60551307198662,-246.18459343987877,-589.2788149327124,154.22465637589
12.0025,-1.0996466401795053,-0.7001674320213699,0.6028982677704435,0.0050371351602897,-0.011343883153707,0.0004697832865597,-0.007168045035236,0.0033436303160173,-0.0432241989202084,-0.999033989349086,0.0136970143705043,0.0181092464933726,9.852137790747236,-0.0042576392985739,-0.0217229378787431,-0.0030844656598413,3.4831524732029777,5.0429530644467775,2.066180564731789,1137.098805666408,1146.5817536529569,1134.6602962721772,1127.3122528173076,-59.58591039124236,-95.49926704897517,-149.37354100472868,-540.9561649153211,154.22352858598128
12.005,-1.3086459600807527,-0.6676991932940968,0.8439657862401195,0.0018452203785132,-0.0144965850396341,0.0020429169662004,-0.0071666362374011,0.0033945453181159,-0.0432322537366857,-0.9990334795053988,0.0143528617012186,0.0206773723227936,9.850521667413293,-0.0043428697809881,-0.0217838913064572,-0.0029537348010554,3.483143569687101,5.04289963087948,2.066174458944979,1137.119407210568,1146.135305586734,1134.3990633115145,1126.0412209960803,116.17268501625406,-278.6265997312531,-52.20352163268311,-453.6237545805053,154.2223745874505
12.0075,-1.4370988408891068,-0.5668244289963527,1.0253554907739026,-0.0019997326945403,-0.0169606987581924,0.0049065150673334,-0.0071618744236544,0.0034369493081795,-0.0432424369275344,-0.9990329275526812,0.0149861775521628,0.022983424868364,9.848549902779677,-0.0044202510975975,-0.0218426981545571,-0.0028348485976262,3.4831325537581854,5.042845943579155,2.066168792220039,1137.6796690914891,1145.1886206543004,1134.3992786640135,1125.0441340444047,384.4915916534175,-509.09732298488177,53.8270941368062,-367.2878534300074,154.2211874674107
12.01,-1.4930191280206815,-0.3926389998659286,1.1304366115722793,-0.0073910342965959,-0.0186014181430313,0.0096708111185005,-0.0071533754605239,0.0034692048943286,-0.043256793427112,-0.9990322543858892,0.0155446501386132,0.0250206249500124,9.846250526619821,-0.0044869111514655,-0.0219006919692481,-0.0027279960342241,3.4831197863294205,5.04279172166051,2.0661638568700744,1139.0418651688346,1143.58981897181,1134.6681987821985,1124.2047817289304,605.0727948182121,-631.8344600525428,136.89682180336283,-250.91219548631383,154.21972306359513
12.0125,-1.4649283854257629,-0.2307037371276669,1.1065080311756728,-0.0121053857640503,-0.0188474515518953,0.0140648721869479,-0.0071381936284443,0.0034880050825104,-0.0432751281091509,-0.9990315026460508,0.0159353593811192,0.0267376987258527,9.84365444817536,-0.0045407153252792,-0.0219589391818046,-0.0026330818001283,3.4831061143507736,5.0427366272082255,2.0661590353521286,1140.705033065581,1142.0294483540372,1135.0837627730307,1123.7895730669727,740.6539452312905,-622.2352348500344,199.08359747120429,-119.30381136146887,154.21846865288407
12.015,-1.3859539962039655,-0.08139195029624,0.9718370469766812,-0.0162608036256987,-0.0181230247364183,0.0176552352929024,-0.0071145185424427,0.0034910636615722,-0.0432945593086417,-0.9990308194468176,0.0160826611283668,0.0281085519614178,9.840793451231646,-0.0045804504666979,-0.0220183289598668,-0.002549525945969,3.483091961975348,5.042680683876712,2.0661539153003274,1142.7451348949917,1140.4786427975591,1135.6636167695547,1123.6082626721231,922.20229726113,-618.5210361143484,288.0884578011892,-46.80473886947788,154.21717819562335
12.0175,-1.2833915691614273,0.0654943123644476,0.7176737110740171,-0.0197015343739801,-0.0165916545590073,0.0202279078056186,-0.0070842391975076,0.0034835741065496,-0.043313825633311,-0.9990302267308006,0.0160597058365986,0.0291760403847143,9.837698128261204,-0.0046061439042123,-0.0220796331191906,-0.0024761489617798,3.483078189228748,5.0426245224079915,2.0661479036278383,1145.3160445518856,1138.936843173466,1136.5242050620363,1123.5555493726256,909.8800156515144,-471.4863434664068,340.5210878543808,-6.659141688807228,154.21558762932523
12.02,-1.2316564933694487,0.1650606609739718,0.4631828964938827,-0.0213242700005597,-0.0153259613354062,0.0210508803911181,-0.0070509943354706,0.0034715281467544,-0.0433311977269931,-0.9990297517387264,0.0159572096330125,0.030018363130189,9.8343985322325,-0.0046189318710675,-0.0221435619414153,-0.0024114351532262,3.483065217655091,5.042569146252796,2.066140137657279,1147.2945349732483,1138.1212110802276,1137.3662222088262,1123.5749669636791,695.911943644824,-193.05608059850493,358.53301943060467,10.30934341328996,154.21422718937313
12.0225,-1.2484480443790091,0.265123342474212,0.2009226036953233,-0.0226538402363226,-0.0148828810673243,0.0209805764638603,-0.0070178411941589,0.0034606236462137,-0.0433467540830758,-0.9990293495198814,0.0158621630313259,0.0307030197678545,9.830924618874798,-0.0046210579801576,-0.02221067317014,-0.0023538736151867,3.4830533875760894,5.042515197780647,2.066130698116509,1148.7956042701103,1137.9715627704732,1138.3168701591896,1123.607096089692,484.3404934470225,63.77692248737643,392.554041728165,14.489150552387864,154.2128308682405
12.025,-1.3282106604341368,0.3903263017072866,-0.049591370683186,-0.0244461887668974,-0.0152879554139888,0.0204609614884283,-0.0069865122467681,0.0034574033303073,-0.0433611183289325,-0.9990289581238087,0.0158811969167742,0.0312702831312397,9.827306374496873,-0.0046156513596814,-0.0222812128780033,-0.0023022637681744,3.4830435379738343,5.04246269598394,2.0661201385108434,1149.7162374404838,1138.4400956926647,1139.3289924174671,1123.647412716441,202.4146222272923,332.28968731752747,408.6925172002242,25.00565451778627,154.21140537449153
12.0275,-1.4691436375768636,0.5661787451437945,-0.2759485079816804,-0.026926726358589,-0.0158854957972379,0.0196378092324726,-0.0069549615371695,0.0034619317154025,-0.0433761761341861,-0.9990285082490488,0.0159961018886214,0.0316902654836688,9.82357550941603,-0.0046064596909652,-0.0223548972291422,-0.00225611323712,3.483036354976579,5.042410559737755,2.066109562209893,1149.8076773812463,1139.6330112070607,1140.3603327451904,1123.7321243622807,-155.8666948279308,659.3778854293183,440.4665128477739,59.395964857676326,154.20994574321224
12.03,-1.6693803424147968,0.8323987181641909,-0.5175133315472273,-0.0307889035187652,-0.0155821170825591,0.0185439074583909,-0.0069182328993059,0.0034717457068487,-0.0433945655084722,-0.9990279272075652,0.0161431218550523,0.0318757891627831,9.819765332761593,-0.0045974878282942,-0.0224307973606047,-0.0022156847581818,3.483032024534231,5.042357843382251,2.066099571382824,1148.936903966344,1141.7369851198118,1141.5313249817063,1123.9443925407295,-465.824117971415,840.6331000135701,405.55523398409633,101.99622459416102,154.2081565007129
12.0325,-1.823260491110412,1.0752754223115824,-0.6948372441554638,-0.03495943242519,-0.0140032401827033,0.0176282992134857,-0.0068735637538744,0.0034840344921822,-0.0434163225148146,-0.9990272417546004,0.0162601292224349,0.0317800905955885,9.815909923573203,-0.0045924448045962,-0.0225074097122009,-0.0021817443228225,3.4830303560287326,5.042303980042657,2.0660899501393977,1147.478556791389,1143.8361767071292,1142.3881089151112,1124.2421054852518,-697.5039266582395,842.9765846732465,307.6297217015211,143.365013847398,154.2066356709894
12.035,-1.912948993607955,1.2925614231677076,-0.8438049443749802,-0.04002979478888,-0.0109837646409631,0.0164330372403904,-0.0068184083979799,0.0034968346774501,-0.0434379006779614,-0.999026630151788,0.0163080053816228,0.0313564273816665,9.812044994420575,-0.0045943054899044,-0.0225827918839679,-0.0021555897694287,3.4830301925080875,5.042248186207339,2.0660807846505653,1145.4493843330536,1145.9518680431772,1143.0694735902139,1124.6612176099663,-969.4710437106206,845.6479726279531,257.4821318079615,202.21187090955408,154.205086079433
12.0375,-1.8940246928508928,1.4632732458047344,-0.9732307752145624,-0.0466557634981077,-0.0059996255777773,0.0143050970333616,-0.0067527737269962,0.0035121759736527,-0.0434558760982018,-0.999026232929366,0.0163338140628436,0.0306007139560694,9.808207437977233,-0.0046052028714325,-0.0226547683687047,-0.0021388593055904,3.483030159640708,5.042190231559029,2.066072577328095,1142.6312015728367,1148.064416570268,1143.6755195741507,1125.2531648397994,-1056.7045094382306,643.6145284380831,193.33984624847,221.75134147379313,154.20319587407707
12.04,-1.7455513920999643,1.4936026839259815,-1.0202031167397467,-0.0523571454534849,-0.001240421508751,0.0116785610134337,-0.0066787272294186,0.0035281958651485,-0.0434702311964278,-0.9990260410528888,0.0163148875211318,0.0295484430005432,9.804436552474607,-0.0046264346928463,-0.0227211822935267,-0.0021334963851312,3.4830293995218935,5.0421305750428465,2.066066117583824,1140.1658617858616,1149.169940685368,1144.0361728214564,1125.7699743173355,-968.2918176943837,256.18733793735913,128.63425228722727,202.43407833974308,154.20159696596815
12.0425,-1.4460793833444103,1.3813803053709215,-0.978957489093389,-0.0577352295985942,0.0036802234053945,0.0082189415850955,-0.0065989016451325,0.0035428177088165,-0.0434828963815981,-0.9990259585526068,0.0162281705403608,0.0282427313631221,9.800773925859492,-0.0046584671814738,-0.0227801575137554,-0.0021415834409644,3.4830277403167824,5.042069796339832,2.0660618521522194,1137.7897424843643,1149.3453532599551,1144.3186908355867,1126.2653352314983,-910.7350824954658,-96.34086389925967,111.96870158225875,192.7253637748819,154.19997559691654
12.045,-1.029713621824057,1.1481430408937188,-0.8535206808332618,-0.0621239335508607,0.0085079413833343,0.0047117512876397,-0.0065150772277584,0.0035517749178056,-0.0434948146156752,-0.9990259470970302,0.0160085182696665,0.0267092076377382,9.797263570426463,-0.004700916820947,-0.0228302950847587,-0.0021651315814919,3.48302514554888,5.042008736282024,2.0660592405956506,1135.6121863733852,1148.688236365872,1144.5960163293676,1126.7336011362097,-800.8710801118243,-442.6612076535519,119.49682799115737,184.1596624825254,154.198337217249
12.0475,-0.5049429564874393,0.790585800235767,-0.6310524662578557,-0.0647918299409513,0.0125391488402099,0.0019254771960926,-0.0064270342263432,0.0035520800645762,-0.0435051661091513,-0.9990260553284774,0.015614078860219,0.0249318117996083,9.793950996840419,-0.0047526606605399,-0.0228707595534436,-0.0022058291647501,3.483022018461876,5.041946935247436,2.066056884919087,1133.785387083806,1147.1320472216876,1144.9161749755426,1127.1861335439107,-703.326245307134,-825.5201561623909,151.7368647567072,201.79287278989733,154.19668027302743
12.05,0.1866311165706808,0.2800070080560566,-0.2802189212295621,-0.0657667869277366,0.0151797626413217,-0.0001951708117333,-0.0063332391361126,0.0035431351965948,-0.0435119345932014,-0.9990263854896438,0.0150471924105242,0.0228666930558978,9.79088179098686,-0.0048119760960573,-0.0229013427748721,-0.0022648404688446,3.483017960470161,5.041883827860125,2.0660545065758207,1132.0955551468487,1144.5606355850591,1145.3547006531512,1127.7425655001591,-528.4982272939569,-993.2242163397216,160.59776792828634,207.9700469936272,154.19467299537655
12.0525,0.7589206981330954,-0.1491914953032752,0.0493679994609265,-0.0645973344671308,0.0150368448609746,-0.0008821223640488,-0.0062372296389124,0.0035305988491716,-0.0435144244266345,-0.9990269269023144,0.0144343981247035,0.020565242726275,9.788098448790473,-0.0048767985141874,-0.0229225919034737,-0.0023424160375913,3.4830121919657,5.041819588322305,2.066052880000581,1131.1428959473355,1142.1659261399884,1145.719163815184,1128.225983778879,-285.76413352590174,-928.4321497307274,124.63947051940272,191.99855995529288,154.1929863203025
12.055,1.25823756716645,-0.5011100845279371,0.3699705920801748,-0.0612866727708669,0.0125555281906577,-0.0003821631330808,-0.0061489181400719,0.0035210531119685,-0.0435136210745227,-0.9990275509058272,0.0139221873979814,0.0182055610878148,9.785639225614895,-0.0049449035492965,-0.0229359573697329,-0.0024377825044174,3.483005102085651,5.041755186935569,2.066052127505058,1130.6667344792197,1139.9184748364066,1145.977898005748,1128.7025582999356,-108.63444257182103,-882.2075391843539,60.59764877499182,190.73005630463487,154.19128738676645
12.0575,1.7035476634364504,-0.7614533394094208,0.6848586376206828,-0.0551613641716479,0.0078818072563899,0.001774345372287,-0.0060740552895985,0.0035163180587976,-0.0435099866674317,-0.9990281938559376,0.013556099375245,0.0158928081849043,9.783539240992603,-0.0050139783747026,-0.022943828723027,-0.0025495424603795,3.4829972589991067,5.041691828169498,2.0660511108508346,1130.5997237344764,1137.754888444066,1146.0221520590592,1129.1796340604023,46.427723784101566,-677.2451326187671,-44.484138017689794,140.88918312188596,154.18923709286844
12.06,1.9125997942546495,-0.8191680911933253,0.8491435865002747,-0.048635277717928,0.0036916166802882,0.0049589676572273,-0.0060130960646802,0.0035149344161699,-0.0435032991828277,-0.9990288668966139,0.0133086115669973,0.0136372098647633,9.78182866421779,-0.0050817520050602,-0.0229494371090208,-0.0026756415944512,3.4829886570753774,5.041630665655853,2.066049560393211,1130.8988730981403,1136.5322491733123,1145.7554773156596,1129.4070042155452,172.02264430301295,-369.864157290277,-175.21791633342977,33.15027809804383,154.18752079121015
12.0625,1.9447370198145508,-0.7220783835122764,0.8798911680477071,-0.0419588981394059,0.0003717792097247,0.0089695820495516,-0.0059653237782604,0.0035140947839807,-0.043494580788968,-0.999029540369156,0.0131206875285895,0.0114339818774298,9.780529955151,-0.0051461780207503,-0.022956592905916,-0.0028131759488332,3.482978532610929,5.041572410064242,2.0660471638358686,1131.4598369559915,1135.9055676576147,1145.1460624773922,1129.3453854508923,278.64306356346873,-173.41425995740605,-331.0658195193559,-110.863542932497,154.18579880333627
12.065,1.8136316321656216,-0.4786294654218457,0.7604786126774017,-0.0355069517612904,-0.0016359365723711,0.0131116659151625,-0.0059272992002705,0.0035078930816237,-0.0434844603980017,-0.9990302294004852,0.0128665288880115,0.0092350758176568,9.779656893975655,-0.0052054708570737,-0.0229692942083722,-0.0029585467981262,3.4829663871127594,5.041516892825361,2.06604330736587,1132.292088415957,1135.6651778735254,1144.1001482180632,1128.8526865008828,310.6162901955455,-39.57338646295575,-410.25148427227526,-251.41980881081213,154.1837286057558
12.0675,1.6089124434463165,-0.2197978704401991,0.5534017118593613,-0.0318107191536886,-0.0018111917361842,0.0152009771023431,-0.0058969147121103,0.0034937385262232,-0.0434724906923491,-0.9990309765266157,0.0124830016289407,0.0070229307818393,9.77921205831076,-0.0052583068767742,-0.0229913073501219,-0.0031073661938947,3.48295295557592,5.041463514783872,2.06603644934416,1133.0129184069694,1135.7077007253,1143.0948050560305,1128.0882864068383,272.74045787003445,28.01505421156906,-389.53197950989585,-365.23520142985694,154.1820023240714
12.07,1.3632925547935266,0.0420460458268343,0.278164054102155,-0.0294952223856767,-0.0009868616955945,0.0158360191084612,-0.0058718715812001,0.0034704032490031,-0.0434604056679326,-0.9990317265214284,0.0119312564643333,0.0047816544830623,9.779186745101809,-0.0053041499074143,-0.0230257348803259,-0.0032548344902236,3.4829393118337735,5.0414111977897855,2.06602614799776,1133.6557907053077,1135.8052531445833,1142.1524883205132,1127.0265104937332,234.4690162682139,31.867792056261322,-335.303852227274,-454.3999440055808,154.18027740148904
12.0725,1.1173663668663385,0.275854229323928,-0.0195780857702788,-0.027817153822021,0.0003883252828951,0.0156952468794207,-0.0058528692838828,0.003442426063144,-0.043451841177506,-0.999032303613297,0.0112864675919319,0.0025545704534852,9.779559948242312,-0.0053433439962737,-0.0230747770452572,-0.0033959798805292,3.482926762155936,5.0413591871808245,2.06601249991975,1134.1852634883103,1135.8670396855814,1141.4182857948945,1125.8162866868108,183.28154217253405,17.226889729724498,-212.62723366772977,-490.3139810184855,154.17855553609147
12.075,0.892417425774751,0.4546029041057422,-0.3095091783056498,-0.0263455111074418,0.002204338193695,0.0148829271281108,-0.0058418387602915,0.0034194653372919,-0.0434509320974479,-0.9990324847817708,0.0107246903899799,0.0004089167968655,9.780299388704343,-0.0053769620552643,-0.0231396197015726,-0.0035262010719404,3.4829162859793414,5.041307140217766,2.0659964131605375,1134.5721984161703,1135.891387593232,1141.0893521521743,1124.5749405886404,149.481656835382,23.51277274824129,-27.900679537056202,-514.9519476768196,154.17683968087465
12.0775,0.6528836897316667,0.5970179033679383,-0.6119546112370186,-0.0244553431439004,0.0045204785626786,0.0129310083848308,-0.0058372571056508,0.0034053480645932,-0.0434578799120686,-0.9990322564294352,0.010305740458118,-0.0016478597898617,9.781364570126458,-0.0054062867531192,-0.0232204428820352,-0.0036419630976708,3.482907376767796,5.041253838841909,2.065979329910556,1134.9326717724873,1135.9846035493226,1141.2787823972092,1123.2415269484263,130.4011154517216,65.9436643573503,168.53317919270637,-438.9115177131735,154.1747903322425
12.08,0.4747524637011856,0.6608040106879006,-0.8060354326441302,-0.0229086888383577,0.0062584553787959,0.0103608082358366,-0.0058359363604009,0.0033989599447925,-0.0434715900359558,-0.9990316885386484,0.0099931540314215,-0.0036357530848269,9.782707912468416,-0.0054326704264291,-0.0233165067225028,-0.0037409194112487,3.4828989370417944,5.041198626112349,2.0659628305589943,1135.224203993429,1136.2211059150184,1141.932018048138,1122.3803830000747,133.76003919659456,147.96240444041575,347.7638069637815,-273.2537159287492,154.17309232293294
12.0825,0.3136527116197783,0.6814574558211698,-0.927915039194588,-0.0217786275563665,0.0079011684752851,0.0072076117289969,-0.0058325602118036,0.0033941221853151,-0.0434901965241536,-0.9990309140371048,0.009652045949288,-0.0056128590662132,9.784276745448915,-0.0054573993020936,-0.0234263529124889,-0.0038219289344534,3.4828906253694,5.04114164950218,2.0659479607286686,1135.60147196847,1136.7244155715243,1143.0176014320275,1121.8752583687829,198.2457893646969,291.6231939462249,539.743307525948,-131.8929555469161,154.17140618865812
12.085,0.1379573080851017,0.6752889219543707,-0.9973907497000892,-0.0210735306172192,0.0096803978521035,0.0037620544599773,-0.0058242055092656,0.0033875298946004,-0.0435100116826768,-0.9990301214202236,0.0092085422338762,-0.0075952219761929,9.786013944417137,-0.0054816614224022,-0.0235480921208499,-0.0038845864346312,3.482882056258047,5.041082839876621,2.065934300879316,1136.2154329402526,1137.67922188475,1144.630734585768,1121.7209182223403,249.7167803219846,402.3251259868911,608.409102420815,15.84384739958048,154.16939815298696
12.0875,0.0065891905328281,0.6574262941066666,-1.0076404406617254,-0.0209465709488612,0.0106468613970888,0.0014940580615704,-0.0058082662852712,0.0033780012269147,-0.0435284568969022,-0.9990294428601652,0.008633767119879,-0.009598144644194,9.787860596159865,-0.0055066891508988,-0.0236795943301255,-0.0039290972998445,3.4828739642265623,5.04102232215505,2.0659207041002445,1136.8500558700803,1138.736041201459,1146.0596469441323,1121.9544776057808,261.13246962405094,456.1659887668154,546.6055478151426,157.21227044658403,154.16773846703208
12.09,-0.1087278640474085,0.6354700957581597,-0.9914489994452196,-0.0210667220563649,0.0114213641831124,-0.0003058648391723,-0.0057882053797151,0.0033676221669514,-0.0435444245589492,-0.9990288999052364,0.0079712566093043,-0.0115256533122404,9.789757303187853,-0.0055337690072045,-0.0238187501145644,-0.0039558658880963,3.4828672371212206,5.040960839842528,2.065906570845996,1137.5210952883726,1139.9600518285836,1147.3637623248433,1122.506979574573,250.92411700130185,495.1266734241152,473.03504587382,260.57864862169043,154.1660937588555
12.0925,-0.210680194422719,0.608091951816913,-0.9662838276236116,-0.0212779548016048,0.0126549239454814,-0.0020141301259571,-0.0057690826487534,0.0033592612140748,-0.0435558902247076,-0.999028542287053,0.0072844237170248,-0.0132563798985611,9.79164730030104,-0.005563988814983,-0.0239636255464249,-0.0039657187283953,3.4828614110786695,5.0408989826324975,2.0658926470911188,1138.1046764550867,1141.2116745685803,1148.4248221735015,1123.2573708488894,178.44976236617123,478.875639586902,340.73310829257156,326.8310451763626,154.16446184077427
12.095,-0.2950160582164033,0.5640396897920315,-0.9366680540103623,-0.0216347412766533,0.0144227310170678,-0.0039331021997786,-0.005749683101753,0.0033511620896485,-0.0435616096721796,-0.9990284355123042,0.0065438333127465,-0.0147934628276018,9.793480027891427,-0.0055981167733496,-0.0241124512858786,-0.0039603349046051,3.4828556490274565,5.040837043852343,2.0658793678408527,1138.4133441002036,1142.3544300265185,1149.0674278663064,1124.1411348004551,33.510821710940334,448.4183212271528,167.3102793488275,388.7606555941921,154.16284570777225
12.0975,-0.3696486730447774,0.4806817713562436,-0.8947775665054101,-0.0224410489126659,0.0165533726141837,-0.0065437578821183,-0.0057282534471823,0.0033427170442175,-0.0435587598367995,-0.9990287136377431,0.0057445572803565,-0.0161574538888785,9.795211458545204,-0.0056364544592129,-0.0242636801001871,-0.0039418649304932,3.482849347236519,5.040775330662802,2.0658665398007474,1138.2722305636416,1143.4537661747156,1149.2613735702455,1125.20117412686,-153.81074797586157,347.13138928930306,-28.51575077630172,366.2889870794335,154.16092550020875
12.1,-0.4023857808755664,0.3839503458363324,-0.8510948369512371,-0.0235098453363026,0.0179044501079139,-0.0086354036608134,-0.0057018364262652,0.003335481193833,-0.0435454463340691,-0.9990294709424836,0.0049250774090564,-0.0174003431104843,9.796805594445196,-0.0056789851808217,-0.0244158826626544,-0.0039128739681658,3.482841851262043,5.040713987544267,2.065854385196394,1137.6442903603245,1144.0900869729646,1148.924849112425,1125.972579735852,-356.4593106661857,200.386554351931,-231.64482462735597,263.49929391094946,154.15934242436768
12.1025,-0.3959914203273057,0.2637439497208838,-0.7940499267370322,-0.0249277108964633,0.0186252577391483,-0.0102744050425787,-0.0056714655115942,0.0033326806069372,-0.0435234608164149,-0.9990306117376943,0.0041616635103636,-0.0185033942196947,9.798235052694908,-0.0057256189777638,-0.0245676494030604,-0.0038760092948786,3.4828329058841847,5.040652546704201,2.0658426690814435,1136.4899340103104,1144.4556989464754,1148.1031494471088,1126.5186705964147,-600.2888428710293,124.11596263730524,-455.62776685057696,174.3673249569565,154.1577790393348
12.105,-0.3396237461653607,0.1007641854968022,-0.7017303980789201,-0.0267629362276178,0.0189237241828367,-0.0120690892763782,-0.0056383785697524,0.0033313363414273,-0.043496501335852,-0.9990319757935232,0.0034104258984209,-0.019444172095345,9.799483147977304,-0.0057762184712435,-0.024717494407254,-0.0038341903388348,3.4828230258611,5.040590326367225,2.065830821037129,1134.6428461459689,1144.7106667861513,1146.6467102781717,1126.8444163606368,-717.3067753512049,92.17583685728655,-593.1666266903719,64.71551504329378,154.15592874868872
12.1075,-0.257428491157312,-0.0462074883898639,-0.5942658856818935,-0.0280455092032446,0.0189655850078706,-0.0139324077832592,-0.0056033673747231,0.0033269755133202,-0.043467417105954,-0.9990334487428632,0.0025984875456305,-0.0202128356514589,9.800543972538918,-0.0058306682054359,-0.0248638728819002,-0.0037905794696313,3.4828126388952034,5.040526802016551,2.065819280575009,1132.9034001335551,1144.9165781307615,1145.1373163136575,1126.8422481716311,-684.2888271237823,118.64809237570256,-636.5986603041522,-44.32511318051156,154.15441101253384
12.11,-0.1552177445071843,-0.2014655455791554,-0.4422869114850142,-0.0287426496405272,0.0189147003527773,-0.0159384530131909,-0.005567438375027,0.0033156852847698,-0.0434366544721815,-0.9990350196354668,0.0016643967824224,-0.0208003919824679,9.801422173479745,-0.0058889240999836,-0.0250052890788999,-0.0037485069811953,3.482801762529131,5.040461875588267,2.0658093466419647,1131.2214020103506,1145.3039072480296,1143.4637169766515,1126.6227907947343,-625.1676271840029,205.958775548847,-672.8511805545025,-105.45860396626436,154.15292218748323
12.1125,-0.0538897818353043,-0.3599556739119436,-0.2502918070081736,-0.0288897745201633,0.0185675117225691,-0.0175356428298597,-0.0055312307593179,0.0032952810672353,-0.0434035958652691,-0.9990367217815198,0.0005802043877552,-0.0212104441139774,9.802132545468991,-0.0059511590364087,-0.0251404109921176,-0.0037113546976101,3.482790719665004,5.040395852494778,2.0658014174254173,1129.7775619976346,1145.946372008506,1141.7730604108845,1126.3149551518,-485.604933581059,323.73811524907467,-650.5803826789253,-116.72329040969085,154.15146063794168
12.115,0.0244877515354943,-0.5137419332790293,-0.0178159224660085,-0.0284644042551339,0.0176246046693889,-0.018366078414885,-0.0054976234024192,0.003271043504228,-0.0433697142878847,-0.9990384600527628,-0.0005342641411058,-0.0214122400859053,9.80269842760677,-0.0060179865825621,-0.0252681738399197,-0.0036821198377654,3.48278099705386,5.040329433322573,2.065795173969444,1128.7933773424447,1146.9225978242753,1140.2108150632564,1126.0391743426856,-304.0881902654441,480.51638259371896,-620.2922573423036,-79.83657931542209,154.15003625262003
12.1175,0.0697533117729036,-0.6778104530716144,0.2855627071818265,-0.0275746291094642,0.015751883216223,-0.0185123739623568,-0.0054687429783881,0.0032542464396519,-0.0433377963651729,-0.9990400651066093,-0.0014432058756509,-0.0213970108978933,9.803150996931116,-0.0060902940574635,-0.0253878343051439,-0.0036633035410913,3.4827736286453987,5.040263025757341,2.065790896555708,1128.2571210463077,1148.3489539214743,1138.6715991241736,1125.9157722552227,-89.09477788205065,525.216834610328,-484.14448108994,6.914295112800402,154.14837503873284
12.12,0.0582101900123317,-0.7866137171068986,0.535472407689676,-0.0267358406718292,0.0138100498030213,-0.0179515136145251,-0.0054425775433978,0.003248642266762,-0.0433090531486043,-0.999041480898852,-0.0020630189551952,-0.0212317347531921,9.80352910909995,-0.0061687069639104,-0.0254989996346389,-0.0036569536341205,3.4827682365182846,5.040196292275187,2.065787725601371,1128.3479034530346,1149.548681997327,1137.7900926578063,1126.0737458182496,131.49336037966114,422.1867337770868,-248.06394798598137,123.95771946610574,154.14703390879512
12.1225,-0.0037443564254021,-0.8563328063022992,0.7477151046557874,-0.0261043008325777,0.0117767239384211,-0.0163557937704121,-0.0054153436757655,0.0032519031725382,-0.0432844345020592,-0.9990426928488654,-0.00243272205065,-0.0210129955903066,9.803876837622893,-0.0062533301488939,-0.0256016397743603,-0.003664318501138,3.482763784418226,5.040129031325086,2.0657849880809938,1128.914587848206,1150.45988759036,1137.4312793842435,1126.5355608525535,326.01284473164134,273.3847059559228,-28.461722615890015,261.06853618721937,154.14574077799966
12.125,-0.1223231719698686,-0.8859317180834975,0.9151028261732908,-0.0260236488078301,0.0089251255021317,-0.0129948552627906,-0.0053843239612393,0.0032597054439669,-0.0432659181527238,-0.999043643548594,-0.0026322460770043,-0.0208138507982013,9.804240602128756,-0.0063436057713765,-0.0256961226929268,-0.003685550349049,3.4827587797225528,5.0400614757978985,2.0657815342046457,1129.9779676766923,1150.9156055271067,1137.647784044727,1127.3790884991856,424.7516370886323,36.37963221886636,179.460036480795,337.1496236321707,154.1442473527949
12.1275,-0.2422492860940757,-0.8614780140832523,0.95586836504603,-0.0265761999345416,0.0061506863927814,-0.0092598752165054,-0.0053506139673605,0.0032717040375306,-0.0432532106145567,-0.9990443398212993,-0.0026638113622094,-0.0206340478904877,9.80466612154052,-0.0064381355190376,-0.0257832952085418,-0.0037195197315234,3.4827518153698085,5.039993782120498,2.0657766358257494,1131.0383460336488,1150.6417857514543,1138.3285795666472,1128.221308970714,425.27535302249527,-243.22537376979943,350.06272874333246,333.2858941818292,154.14305298524388
12.13,-0.3646754428601211,-0.7892411955784084,0.8825419002298743,-0.0274764912726134,0.0036093419233602,-0.0055590536342092,-0.0053139662993659,0.0032876752917887,-0.043244701701283,-0.9990448528440746,-0.0025324339901708,-0.0204969037904227,9.805197172207171,-0.0065348485129039,-0.0258644181726061,-0.0037642629175701,3.482742393204278,5.039926247657262,2.065770427380489,1132.104344441805,1149.6994786582575,1139.3980976884438,1129.045517970095,404.1583400130826,-465.3524728430693,463.58897203505904,301.3486172689665,154.14191189689797
12.1325,-0.4765165790756513,-0.6877213400916417,0.7248521423573999,-0.0284623970645269,0.0016398995426508,-0.0026222106135246,-0.0052753047117732,0.0033044427866582,-0.0432398861343054,-0.9990452098395542,-0.0023043411898011,-0.020396788676243,9.805873559003592,-0.0066313879971917,-0.0259410948983567,-0.0038170773905863,3.482730806622059,5.039859011266112,2.065762837589585,1133.0591377337144,1148.3150233872386,1140.646524426823,1129.7280520570591,334.58219695264523,-617.8774435799688,504.94045110363953,214.95977260978816,154.1408154436966
12.135,-0.5614277433091126,-0.569138395773005,0.4967468823222182,-0.0295660613871963,0.0003870288108579,-0.0009213825095239,-0.0052343816051126,0.0033186791635868,-0.0432360383051408,-0.9990455412272036,-0.0020541972994016,-0.0203468819108078,9.80672954344936,-0.0067252670626985,-0.0260152047308794,-0.0038748183838259,3.4827175684324527,5.039792118711097,2.0657532043433724,1133.7772554265682,1146.6100914403582,1141.9227999439615,1130.1203168331435,246.99173073746127,-765.0052392794519,527.2041289562907,92.64628910376275,154.1397728939922
12.1375,-0.612222066659612,-0.4296203346813696,0.1932985733648788,-0.0312743990739055,-0.0005175316750088,-0.0002861854887593,-0.0051919358683331,0.0033301754876474,-0.0432320448156027,-0.99904589255014,-0.0017988842677271,-0.0203395210731022,9.807792075308509,-0.0068143480294294,-0.0260887629021311,-0.0039339922398029,3.4827031517099134,5.039725903185367,2.065741685537768,1134.294096387402,1144.4899971908408,1143.2825450716048,1130.191283502578,130.03148786645184,-751.4665772057659,451.0223551515742,-33.80849159534063,154.1385841546529
12.14,-0.5964004193632999,-0.3272572698967376,-0.0469652714829882,-0.0332334760207414,-0.0009855481203319,-0.000792773189382,-0.0051482737792318,0.0033389509034994,-0.043226432901739,-0.999046327554324,-0.0015547931779406,-0.0203716212758525,9.8090803856836,-0.0068969054751264,-0.0261638115589902,-0.0039911269963214,3.4826874272766166,5.039660379091996,2.065729093267738,1134.4274128659004,1142.8527585543288,1144.1779117197195,1129.951274375167,-3.279018300737077,-594.3799327500801,301.60351865671686,-132.5464798904513,154.1376456548498
12.1425,-0.5061007798847356,-0.245594054278539,-0.2382536805720534,-0.035798181478198,-0.0013506398434489,-0.0021526440851683,-0.005104718508273,0.0033495624869886,-0.0432183894437397,-0.9990468617986754,-0.001251249402422,-0.0204203355752141,9.810605110190188,-0.006971864977377,-0.0262422702279853,-0.0040428533484935,3.4826710665984097,5.0395955345683054,2.065715647179757,1134.2777012958984,1141.5180975270907,1144.790562664888,1129.528551103126,-119.29053331866824,-495.9964847497836,214.3893873459973,-185.43844441641392,154.13676172915623
12.145,-0.3140448451697712,-0.1707311559506128,-0.3878079344789585,-0.0387675360787633,-0.00172638027173,-0.0043446527344312,-0.005063405344375,0.0033694616678463,-0.0432095128024222,-0.9990473917017731,-0.0007617622328732,-0.0204463827860276,9.812368513310556,-0.0070389778208616,-0.026325759885704,-0.0040860766980852,3.482655238008325,5.039531669401868,2.065700910029704,1133.8309601993071,1140.3727761305804,1145.2498586564495,1129.0240821530851,-196.72711027130043,-339.42534267652417,140.0778715747273,-153.1538604653394,154.1357650013017
12.1475,-0.1055652367448485,-0.1235663723947421,-0.4434351395074582,-0.0400293007618138,-0.0018941307049802,-0.0060837742638757,-0.0050236816223454,0.0033977447660116,-0.0431991120653247,-0.9990479516014134,-0.0001265781411565,-0.0204559723112492,9.81436630152466,-0.00709844894404,-0.0264154794932796,-0.0041184600671105,3.482640450928887,5.039469111375875,2.0656844500889626,1133.2940657445415,1139.820970813708,1145.4909520227618,1128.762781800799,-231.2433690075616,-142.5675448787165,95.59341466936854,-44.63679000736404,154.13498858804417
12.15,0.1090302441973599,-0.0843161638525113,-0.4399181676139349,-0.0392971537937927,-0.0019491974593436,-0.0070970497049611,-0.0049848977214885,0.0034307902874755,-0.0431868180668354,-0.9990485714174167,0.0005613093550699,-0.0204521047022562,9.816587628692282,-0.0071509726543709,-0.0265119898118881,-0.0041384136575858,3.4826265750569214,5.039408197113456,2.0656675366906168,1132.6747433542691,1139.6599384061867,1145.7278257297965,1128.8008982030483,-244.63008797161228,-9.8741775122127,115.70711477122614,71.74917476292256,154.13426973887113
12.1525,0.2945254481420122,-0.0433413052639363,-0.4016301737944414,-0.03732434178435,-0.0021522956086409,-0.0075847062272489,-0.0049486800021387,0.003467802265929,-0.043175320246876,-0.9990491281834412,0.001267923964348,-0.0203960343035684,9.819015364547075,-0.0071977391322844,-0.0266149528998712,-0.0041450395685453,3.482613676634802,5.03934821839393,2.0656518544262257,1132.070915304684,1139.771599926147,1146.0694875966178,1129.1215276746136,-213.97137348359433,93.1164424451108,179.90575998021004,186.57473927939276,154.13359981013363
12.155,0.4202779026929965,0.0106394498182077,-0.3344496825512103,-0.0350377262121786,-0.0026732597841752,-0.0080337614021153,-0.0049167638619337,0.0035088294388777,-0.0431655741123347,-0.9990495714370108,0.0019785010992371,-0.0202492908934098,9.821627617994864,-0.0072399902267366,-0.026722983325396,-0.004138207848978,3.48260099759617,5.039287378029208,2.065638368917514,1131.6048864868512,1140.1255206184123,1146.6273545296976,1129.7337718994454,-141.95720758041315,187.52978345911995,299.00389168815184,306.38732884776556,154.13299051083953
12.1575,0.4989831841223985,0.098690501123803,-0.2278246832680417,-0.032933493842137,-0.0034877347776024,-0.0087376893313736,-0.0048888228253886,0.0035545679689646,-0.0431563571567287,-0.9990499534491538,0.0026925863664427,-0.0200172859756125,9.824399107813862,-0.0072788894746974,-0.0268336099317184,-0.0041184274983086,3.482587837211804,5.039223881083284,2.065627139417422,1131.3611292667815,1140.7092488434428,1147.5645070550588,1130.6534643188527,-17.443448997531792,225.14650433358767,373.89109763829026,340.1288000108019,154.13233157395277
12.16,0.51672678532139,0.1882121282910114,-0.119035184882857,-0.0318915136936401,-0.0039038202911087,-0.0093290700304938,-0.0048629494572349,0.0036008797726455,-0.0431484155702292,-0.9990502657303604,0.0033175764227062,-0.0197362389822054,9.827302586488258,-0.0073157087475037,-0.0269434375856566,-0.0040865615225771,3.4825743820302635,5.039156914823753,2.0656175908093943,1131.5176692418636,1141.25125314008,1148.4968100178887,1131.434415899499,151.69201593683573,217.3143461297491,369.0172106190682,284.70644778450355,154.13184409083576
12.1625,0.5033794544260397,0.2774289419695353,0.0076866050141945,-0.031370795882401,-0.0035500499374491,-0.0100008494052856,-0.0048383541277053,0.0036430378682016,-0.04314462973575,-0.9990504046217225,0.0037547609499638,-0.019424260987301,9.83030899169324,-0.0073519443728743,-0.0270485756779278,-0.0040433344703868,3.482561136500833,5.03908593030968,2.065609094752608,1132.1195893464655,1141.7958205740913,1149.4095931081536,1132.0769965577747,369.5938811384044,240.4398301981552,342.64314044870946,226.75027401402167,154.13142216061215
12.165,0.4637293056808651,0.3541857021538339,0.1697169846887274,-0.0307692233341173,-0.0022617026336395,-0.010421178040929,-0.0048148956617388,0.0036768214433827,-0.0431455154966639,-0.9990503640187988,0.0039206177705747,-0.0190912704076854,9.833388083851919,-0.0073891218057977,-0.0271452257584429,-0.003989139947429,3.4825485227819635,5.0390109887816275,2.0656008890493984,1133.365638647556,1142.453452291071,1150.2100257201323,1132.5681672695691,533.9891696599882,250.72665274493093,205.21699395664172,126.45296658668327,154.13099328634723
12.1675,0.4102022474140774,0.3717357907584996,0.2971486442335541,-0.0299403548251395,-0.0006158985751498,-0.009765662125914,-0.0047953126911458,0.0037029848228934,-0.0431488663063985,-0.999050222313774,0.0038366731324937,-0.0186982098494864,9.83650831617219,-0.007428783994706,-0.0272302671613839,-0.0039237757183801,3.482536887269911,5.038933116148158,2.0655917696683814,1134.789535194766,1143.049453837816,1150.4356780779372,1132.7092613907084,623.0921371531042,265.6259525844763,-34.461696768364654,5.280147074246229,154.13070151832616
12.17,0.3268822157086714,0.3250774833438321,0.3938261170263769,-0.0288219233704765,0.0011818018983887,-0.0081091962146586,-0.004780429485232,0.0037259902211936,-0.043150694910344,-0.999050129886263,0.0036006267006839,-0.0182489537917624,9.83963807390635,-0.007472436072955,-0.0273016967021724,-0.0038467938220506,3.4825263410871887,5.0388537757988265,2.065580424596546,1136.4810993333208,1143.7815820539931,1150.0377172362907,1132.5945680049404,691.4660775652931,328.27454883192496,-269.30916219503973,-76.95236489659403,154.1304790364892
12.1725,0.2121800865573474,0.2240724715005691,0.4532880407383963,-0.0276507058678715,0.0025782266484585,-0.0063388709722256,-0.0047698384006548,0.0037486664350891,-0.0431485461535249,-0.999050183093178,0.0032818154812497,-0.0177708591873281,9.842746633556446,-0.0075215500734131,-0.0273589049932285,-0.0037577832928278,3.4825161230736335,5.03877456308692,2.065566893733275,1138.246865582592,1144.6908265819754,1149.0891322669622,1132.3244995662255,681.0772583654698,414.0534184100296,-492.6567296278474,-126.89635398785703,154.13031478193227
12.175,0.0572409466404633,0.0688941255744146,0.4654657555160979,-0.0267492241963519,0.002996283244451,-0.0050116184444197,-0.0047624919329137,0.0037743674656378,-0.0431429616158119,-0.9990503503149668,0.0029636965722028,-0.0173031577232368,9.845804492806813,-0.0075775575868019,-0.0274027424954832,-0.0036566588826311,3.482505601577952,5.038697243447492,2.0655519254365995,1139.8864856251487,1145.8518491460436,1147.5744335881511,1131.9600862350012,637.4152399426207,561.0957131022165,-739.6448583806185,-159.33907586838595,154.13022155322108
12.1775,-0.1673437073057715,-0.1581589697422305,0.4313796547232893,-0.0263580314985571,0.0026312327015619,-0.0037451143659739,-0.0047564025195903,0.0038059865629044,-0.0431352494489428,-0.999050573839305,0.0027234433640505,-0.0169001370766131,9.848784130073,-0.0076416821180707,-0.0274353828474459,-0.0035439823707185,3.482494502348203,5.038622768892705,2.0655376611348903,1141.4339417823055,1147.4963051474867,1145.3909079750583,1131.5278041868835,466.0873958909196,623.9508753213945,-804.5590381114162,-145.36166600231064,154.1301926850551
12.18,-0.3735726556695281,-0.3664804313116308,0.3680825244986756,-0.0267125185455625,0.0019833258293905,-0.0025971188875555,-0.0047502159686827,0.0038446529578002,-0.0431279691105543,-0.999050746364306,0.0026067594392017,-0.0165974340399655,9.851660521160737,-0.0077149636146682,-0.0274599540996075,-0.0034209767805765,3.48248292387629,5.038551567878372,2.065525996544083,1142.2169226046028,1148.97160352265,1143.5516383975948,1131.2332779049896,189.3261137823788,571.2463814306392,-669.4103346527618,-95.99282979537155,154.13023834167868
12.1825,-0.5778561517773922,-0.5790543202195075,0.2765188231794557,-0.0277432882840318,0.0011067167412851,-0.0015096840390248,-0.0047410683528244,0.003886892493254,-0.0431241112536431,-0.999050766977634,0.0025690499187256,-0.0164505072805862,9.854412168000238,-0.0077982041674832,-0.0274800612011422,-0.0032895050180488,3.482471173293973,5.038482868890929,2.0655166397238154,1142.3805723512176,1150.3525370546406,1142.0438563017942,1131.0478400379063,-65.0469171509838,529.018464653299,-521.1405570472474,-54.26170504814824,154.13035687445168
12.185,-0.7913110387111618,-0.818561507454641,0.1484677024022796,-0.0298014290370188,-0.0003973541634965,-0.0006358711765143,-0.0047233892401917,0.0039286215163444,-0.0431260734145103,-0.999050576767932,0.002551770158394,-0.0165608377941709,9.857021234483696,-0.0078919174808789,-0.0274993431129305,-0.0031517884821863,3.4824599989349463,5.038415938720552,2.0655089859536595,1141.8916880188478,1151.6166958459169,1140.945935612358,1130.961969379749,-271.4575061033514,360.3019374167423,-256.12642503729694,-11.015034342155932,154.13058379825443
12.1875,-0.920879994156396,-0.9852423492959432,0.0410024558751737,-0.0322373452977062,-0.0022773739675717,-0.0003748854318297,-0.0046914920728232,0.0039655532749431,-0.0431332845289755,-0.9990502481180767,0.0024913126196178,-0.0170250165853146,9.859473276650967,-0.0079961072467426,-0.027521181827637,-0.0030100018876634,3.482449657539981,5.038350610234516,2.0655027130505177,1141.023284820701,1152.154046741724,1140.763224176608,1130.9927648661956,-401.1174684850973,78.24347262750699,82.9482785815509,27.74852506882423,154.13084367756798
12.19,-0.9782169545069448,-1.0882510801205252,-0.0480883314430423,-0.0352720571912189,-0.005050656966153,-0.0006256316246554,-0.0046436414240032,0.0039942313132676,-0.0431411441050785,-0.9990500052746074,0.0023415363938339,-0.0178557144205456,9.861756497102416,-0.0081100654612727,-0.0275484850645943,-0.0028658450554013,3.482439302011599,5.03828586498709,2.065497644043813,1139.8861006764228,1152.0079132090543,1141.3606770052659,1131.100712005093,-462.34675598759213,-178.44427839715476,349.7362556353345,50.42265179758154,154.13117713515527
12.1925,-0.9661658541608302,-1.1160951480696009,-0.1087561539548789,-0.0384505826045956,-0.0085119434779497,-0.0012720096956385,-0.0045855572742133,0.0040189039872731,-0.0431467865304629,-0.9990499270954496,0.0022112572659685,-0.0189191402066259,9.863860416500717,-0.0082326115268085,-0.0275834461765918,-0.0027201087387001,3.482428898370645,5.038220481460405,2.065493173175245,1138.7115510407627,1151.261825349738,1142.5119054547847,1131.2448781251835,-436.90879637354095,-432.9279541910869,550.3264937244743,59.34013308700724,154.1315715955554
12.195,-0.8709928449294634,-1.0346290324716458,-0.1245786719914771,-0.0410708224558123,-0.0122154252552683,-0.0022744908580838,-0.0045234832610453,0.0040414059773513,-0.0431504854172354,-0.9990499624982496,0.0021579270845174,-0.0200640063170965,9.865777275770144,-0.0083620502849656,-0.0276274637670717,-0.0025731191204478,3.4824185494561983,5.038153805977937,2.0654884994404568,1137.7015566945547,1149.8432734380983,1144.1123094738887,1131.397412670528,-367.572951440325,-747.978838759094,736.107876798279,60.26845539396453,154.13203948092567
12.1975,-0.6733966042678698,-0.805976802713718,-0.0900168550473205,-0.0433458862622235,-0.0161127037172535,-0.0035128074818631,-0.0044630756905682,0.0040666299605613,-0.0431491205309036,-0.9990501976533868,0.0022932913772979,-0.0211493581072782,9.86750120327407,-0.0084958193367305,-0.0276813524401333,-0.0024247549634179,3.4824071259496243,5.038086412290442,2.065482504413702,1136.8736862835615,1147.521931155943,1146.1924448387756,1131.5462204021535,-226.1073483200663,-920.9833883184652,735.360109245197,43.322643616822965,154.13268549619326
12.2,-0.4516387631344292,-0.5183080030692753,-0.0259545395803379,-0.0450096644285379,-0.018533441033015,-0.0041458718512399,-0.004408948708132,0.0040989088295407,-0.0431409740176596,-0.999050666940282,0.0027111421100665,-0.0220520277041148,9.869028050471053,-0.0086307915586719,-0.0277453883372789,-0.0022746885458205,3.482393373852985,5.038018251080125,2.06547499075332,1136.5710199529542,1145.2383564965055,1147.7891100201152,1131.6140258886123,-40.17497546791955,-936.3767631377768,556.6146547518241,11.008204907737406,154.1332939454156
12.2025,-0.1880237397828985,-0.1594425193744817,0.0529655933400208,-0.0466295027563225,-0.0197902690791392,-0.0040419841809172,-0.0043619585930673,0.0041367997206036,-0.0431265230298218,-0.9990513509915377,0.0033817644774133,-0.0227173646565889,9.87035567043333,-0.0087635146498847,-0.0278193657105557,-0.002122875846158,3.482376749611548,5.037949315079802,2.065466352998836,1136.6728114062219,1142.8400473402537,1148.9755181125352,1131.601261426692,128.2170364888571,-1014.7554320106992,389.5815861034273,-26.08074196123717,154.1339745955952
12.205,0.1441866081583471,0.3056076377701315,0.1352713348280761,-0.0474915735575561,-0.0198251895735844,-0.0031394336633793,-0.0043208723780325,0.0041762411503758,-0.0431045187828549,-0.9990523267420024,0.0042155135998772,-0.0231306445429362,9.871483024712985,-0.0088903704933646,-0.0279027324266658,-0.0019696665257663,3.482356711890326,5.037879881828934,2.0654579254599383,1137.2121051353984,1140.164579336453,1149.737017950632,1131.483622178806,258.77207872586644,-895.3247173207235,160.20610890821902,-59.90248408689977,154.13487401489516
12.2075,0.3995166555777933,0.6820849514599819,0.176191828708844,-0.0466670824863711,-0.0185746670911511,-0.0020753850979053,-0.0042825335880269,0.0042098107847431,-0.0430739735661908,-0.9990536823432719,0.0050489394977212,-0.0233148057584324,9.87240990980792,-0.0090081209893705,-0.0279945782036261,-0.0018159289885326,3.4823335741952017,5.037810764887525,2.0654507669533815,1137.9666717998507,1138.3634237536507,1149.776548657076,1131.3017490062575,356.3579779792133,-573.0072834745456,-98.2384961654435,-88.8831739341501,154.13569166969464
12.21,0.5871674211542885,0.9990596911092544,0.1781204929333232,-0.0443788831267044,-0.0159798075459909,-0.0011125728341628,-0.0042478894969599,0.0042348968463887,-0.0430401170636906,-0.9990551971330126,0.0058123503955307,-0.0232201191476342,9.873135179998416,-0.0091147090942573,-0.028093493920746,-0.0016625299044223,3.482308835810033,5.03774160625028,2.065445670912451,1138.9938950252947,1137.2995429190798,1149.2458254698047,1131.0392063091351,502.5903990938911,-246.40292280187865,-335.27815441388367,-131.5125467341908,154.13657903749817
12.2125,0.695179712475776,1.2620771755222535,0.1365158462122439,-0.0406747585210214,-0.0115869577757351,-0.0002710905549642,-0.0042166390546502,0.0042516861646158,-0.0430103522588203,-0.9990565508949024,0.0064869324092448,-0.0228294261778059,9.873657167536498,-0.0092093262837105,-0.0281975477175717,-0.0015104677005886,3.482283910585135,5.037671725886115,2.065443084281777,1140.4796237953208,1137.1314091396412,1148.1001578850064,1130.6441862725867,571.8276224866942,141.00891329615555,-474.6876370658391,-154.7011661073919,154.13772310974042
12.215,0.6777515754886304,1.3586284129272352,0.0721657158175902,-0.0374835340292468,-0.0074044761327792,0.0001518321671708,-0.0041864327418346,0.0042613874699735,-0.0429890389183747,-0.9990575601416356,0.0070705530312153,-0.0221736010265929,9.873973505560521,-0.0092922087226896,-0.0283043840515591,-0.0013606555787166,3.4822603361003615,5.037601085925761,2.0654431988305326,1141.8530331377276,1138.0045874855605,1146.872387284476,1130.2657004785983,549.233461763975,550.6072163345883,-507.99409909433297,-155.02112499964218,154.13874140558403
12.2175,0.5630672805009366,1.3151172914113671,-0.010698130431582,-0.0351851349377517,-0.0033226479348555,0.000313998911432,-0.0041562192147332,0.0042640123844345,-0.0429750074126534,-0.999058279241046,0.0075384568275124,-0.0212645967171039,9.874080476205105,-0.0093643772685725,-0.0284113625390835,-0.0012134451391754,3.4822384453493687,5.037529197003739,2.0654444849581615,1143.225791104141,1139.8844452213148,1145.5601873895343,1129.8690806475884,521.8005899273616,888.1876285844531,-511.030075038536,-154.85480644499455,154.13982557174808
12.22,0.3938092903874925,1.1581752707799708,-0.0980397559774184,-0.0339745026084904,0.0003796938142366,0.0002727027559614,-0.0041248263202823,0.0042625229646724,-0.0429657017756887,-0.999058811149516,0.0079256336385638,-0.0201277251776317,9.873972301645917,-0.009427636707625,-0.0285156087052861,-0.00106842532022,3.4822185864993,5.037456144253944,2.0654449072353525,1144.4620360873648,1142.4455256284834,1144.3172369092829,1129.4914264463735,427.36207436814175,1127.45568423488,-455.1434817406512,-135.96516615955784,154.14096312435487
12.2225,0.1968592373574731,0.8799895038677156,-0.1762970463365656,-0.0338448615491937,0.0035041672278856,-3.35491287525098e-05,-0.0040901683328847,0.0042606457932964,-0.0429580514293357,-0.999059282754688,0.0082844138569625,-0.0188158397917746,9.873641081473655,-0.0094843125010974,-0.0286141483743013,-0.0009245386963032,3.4822010370674708,5.037382965133376,2.065442885367004,1145.3626014759811,1145.521723642488,1143.2844699808315,1129.1892548167907,282.7048012133326,1376.93540316841,-389.5666659787232,-99.38811684057485,154.14216340739875
12.225,-0.0282144023604687,0.4399377585631656,-0.2400193374773575,-0.0343555449347313,0.0063440359103622,-0.0007658875820952,-0.0040496433507594,0.0042574906026474,-0.0429486546076216,-0.9990598567318628,0.0085796663689516,-0.0173969523991204,9.873077123185247,-0.0095369146319115,-0.0287040010370962,-0.000780440034377,3.4821848905820767,5.037309387873512,2.0654383786175625,1145.8755600934312,1149.330202644324,1142.3694035793897,1128.9944858621707,78.68720744157731,1345.5323515803855,-283.14699121474524,-31.447006756747754,154.14367394439267
12.2275,-0.1832257834503655,0.0199632239075359,-0.2541365308311454,-0.0353529200826661,0.0074128475790326,-0.0017101556524231,-0.0040013350375608,0.0042542072231828,-0.042938747008726,-0.999060484476706,0.0088220678321212,-0.0159359066336684,9.872268245029817,-0.0095881440510951,-0.0287821448050891,-0.0006347310605137,3.4821699907416344,5.037234188910764,2.0654320621651685,1145.7560375131893,1152.249385400391,1141.8687350247576,1129.0320197830067,-162.03291477556573,1042.9001057696228,-162.2589168079431,67.37246652595643,154.14498938061885
12.23,-0.2886301990788895,-0.4029116644000831,-0.2151990061293277,-0.0370138498213236,0.0065198401744661,-0.0029315745507796,-0.0039468702722169,0.0042518323629274,-0.042931686093634,-0.9990610124442832,0.0090282479575189,-0.0144354100896779,9.871200015792851,-0.0096405247293277,-0.0288457052813843,-0.0004862025938637,3.482156147559108,5.037157335580837,2.065425301460299,1145.0653955195532,1154.544703173173,1141.5581089953498,1129.3313481948005,-416.7959234348848,808.2135068432096,-121.62987548529291,195.10313163327072,154.14636124663593
12.2325,-0.3591369016140073,-0.8523166566280995,-0.1033353119852995,-0.0390138675972841,0.003680635226407,-0.004335075295398,-0.0038911602524389,0.0042565075197708,-0.0429265473146623,-0.9990614346352492,0.0093230301190417,-0.0128443669503934,9.869855921009332,-0.0096958657660078,-0.0288922920738858,-0.0003339921084564,3.4821428039580824,5.037079257152336,2.0654189027032976,1143.6720578960153,1156.2904529346063,1141.2605856473313,1130.007535441173,-581.4163349807378,450.6164135071672,-115.50129301620042,293.18617742507206,154.1480697330709
12.235,-0.3863438482197458,-1.1426010981411787,0.0366728106786006,-0.0397746874491235,0.0004221411143785,-0.0050070821162727,-0.0038375853158879,0.0042710369895334,-0.0429207742074009,-0.9990618350682468,0.0097684754818417,-0.0111443240725124,9.868219766081747,-0.0097552846626491,-0.02892014398667,-0.0001780829786285,3.4821291732526527,5.037000557306722,2.0654132693165375,1142.15831384465,1156.7977852407084,1140.9806025302687,1130.7972790819256,-644.5250153300451,5.701634947899056,-128.2617923373691,340.29017176616566,154.1495430027829
12.2375,-0.4051597875552743,-1.3176949938372255,0.2047693049759014,-0.0392929078034885,-0.0034705936283328,-0.005072611669121,-0.0037860678240455,0.004289926777898,-0.042913814204949,-0.999062258613525,0.0102640614374162,-0.0093816085488443,9.866277547033544,-0.0098193926991901,-0.0289281891902862,-1.9481696834590205e-05,3.482114924946087,5.036921494711262,2.0654088557966714,1140.4494328193643,1156.3189611093455,1140.6192766856443,1131.708986300004,-689.4212040542528,-337.70738376414727,-151.970223061311,358.79775029637887,154.15106469500722
12.24,-0.4262101521254444,-1.3880489365654796,0.3747597578857614,-0.038533232821751,-0.0077299681616862,-0.0046648344204738,-0.0037383729447894,0.0043083372329619,-0.0429062561841656,-0.9990626913931764,0.010727020800318,-0.0075684495093945,9.864016912182736,-0.0098883095210075,-0.028916131718393,0.000140339220184,3.482099360645244,5.0368419701046685,2.065406393109236,1138.7112078243783,1155.1092483218874,1140.2207514149623,1132.5912678334075,-672.8237272818634,-620.767592845719,-147.8252501761584,307.7948757668012,154.15262415904755
12.2425,-0.4371402675019623,-1.335876296047804,0.5164260541339086,-0.0388132328885124,-0.0119220110975112,-0.0032092093499141,-0.0036943463806532,0.0043218046751714,-0.042899295636708,-0.9990631005748376,0.0110828678359423,-0.0057549032647312,9.861428754117286,-0.0099617600690045,-0.0288845044997249,0.0002993971085996,3.482082201579534,5.036762406808948,2.0654060119775224,1137.085314182956,1153.2151231451176,1139.8801504347637,1133.247960678838,-656.5132182685712,-925.5403582931112,-104.38654697798673,189.34819429656952,154.15422609885337
12.245,-0.398650160624866,-1.1554004156383448,0.6162333381827098,-0.0411649766876295,-0.0160294968784339,0.0001376791946826,-0.0036522424636125,0.0043272439430279,-0.0428959115205751,-0.9990633780667176,0.0112847828784784,-0.0040212197937018,9.858507970921613,-0.0100393280926719,-0.0288346559959337,0.0004554675551662,3.4820636341882327,5.036683860917107,2.0654067581425375,1135.4286417330347,1150.4815465304212,1139.6988186800722,1133.5380088048908,-538.1213593330881,-1027.4824764558828,-10.146167902074245,-2.6581918661118316,154.1561933144195
12.2475,-0.2959069459797678,-0.9336926843266502,0.6265667512839901,-0.0443873232041106,-0.0183441983712284,0.0032844689803222,-0.0036105295996078,0.0043286942039205,-0.0428994262866752,-0.9990633692370396,0.011427481205723,-0.0024451815828808,9.8552533086598,-0.0101205478810332,-0.0287686876747101,0.0006064760410262,3.482044205639101,5.036607203444722,2.0654083030759764,1134.39470738629,1148.0777107628376,1139.8294195952533,1133.234669719507,-321.74931944834526,-932.3552872778728,118.15905248061048,-247.0846966731679,154.15786681007634
12.25,-0.1149347262152169,-0.6716959346489803,0.5702705453703055,-0.0471317804326086,-0.0195728590391058,0.0051297870238928,-0.0035677290122913,0.0043344215295205,-0.04291211200971,-0.9990629462697924,0.0116890581189848,-0.0011011331991835,9.851668202846865,-0.010204933199306,-0.0286892700246185,0.000750549513348,3.482024786976852,5.036532716547394,2.0654111125520638,1133.8198951357936,1145.8197700940327,1140.2896139424752,1132.3025853215252,-131.05176659717347,-913.7654775815008,266.16237570879844,-540.5036872098829,154.1595716558827
12.2525,0.1496506441740348,-0.3404023706853311,0.4577614315961447,-0.0475347947136391,-0.0201740976967472,0.0057624460549524,-0.0035211170947732,0.0043487035654052,-0.0429314203941517,-0.9990622096622764,0.0121671253834241,-7.713583639933075e-05,9.84776218439818,-0.010291785984027,-0.0285994393977139,0.0008858925449505,3.482005229073531,5.036460189668889,2.0654146203878407,1133.7394485533043,1143.5088833749307,1141.160231473797,1130.5321512834585,75.83207185924672,-763.2151127296937,352.6596642874114,-726.9269041819142,154.16164867512035
12.255,0.3596584440779246,-0.0619965259270438,0.3476628579144476,-0.0454129268921977,-0.0202816605278017,0.0058548394470602,-0.0034688276958273,0.0043715886530969,-0.0429546133434462,-0.999061283832238,0.0128758898995418,0.0005675241154318,9.843550740884357,-0.0103804365234759,-0.0285022267055691,0.0010109876741674,3.4819852616057183,5.03638855539221,2.065418528484547,1134.1990554950899,1142.0036945303837,1142.0529122639125,1128.667950800615,284.94485996066123,-512.8697475931057,364.2164400001433,-771.7213007112762,154.1634016492446
12.2575,0.5091104537657257,0.214297755878124,0.2320821022538787,-0.0423410529146831,-0.0202756963938142,0.006194247676799,-0.0034149610800651,0.004401958541589,-0.0429809539737139,-0.9990601907009196,0.0138106980343908,0.0009007294450726,9.839054197682893,-0.010470354987823,-0.0284004173827633,0.0011249719984687,3.4819648976266144,5.03631686287625,2.06542217157958,1135.1641728531079,1140.944534636965,1142.981313673798,1126.6735447799015,453.3960934660619,-360.6450028934695,359.5405740578632,-773.1403040758497,154.1651727128475
12.26,0.5932640371387107,0.4872109748350992,0.112335720218198,-0.0395810094858237,-0.0199957265901508,0.006698665131238,-0.0033622576721011,0.0044379162830745,-0.0430081596267367,-0.9990590276134,0.0149488720347548,0.0009733236682826,9.8342988867974,-0.0105609686273847,-0.028296591820893,0.0012271718084513,3.4819442477047673,5.036244922551994,2.06542490141522,1136.4660359624197,1140.2004695159167,1143.8506151342015,1124.8022492802363,572.1745704975107,-245.2628636848729,320.46778460648505,-668.9072116538546,154.16695494574938
12.2625,0.606665984854156,0.7486308309112091,-0.0141921116225847,-0.0377853814735279,-0.0188691346228644,0.0070113612618285,-0.0033115903318149,0.0044792208791196,-0.0430332285840296,-0.9990579232851023,0.0162969417085293,0.0008070788442881,9.829316945751406,-0.0106517187427542,-0.0281931508380831,0.0013169925381214,3.4819237726217795,5.036173454302443,2.065426794359997,1138.0250457055959,1139.7182203185405,1144.5836525968307,1123.3290087216317,702.0349732714105,-186.39730640290324,285.76718501563016,-511.7411423726135,154.1687457737517
12.265,0.5675036800022305,1.030723312153342,-0.1731709769504315,-0.0369234440171813,-0.0162087889532037,0.0068289033326648,-0.0032645042351861,0.0045203465612695,-0.0430554751819916,-0.9990569278063696,0.0177565235498926,0.0004501160264057,9.82414663702492,-0.0107422138633065,-0.0280922588611501,0.0013937683109787,3.48190406559596,5.036103087338506,2.065428005017726,1139.9762108287773,1139.268482983902,1145.2794510592798,1122.243543568373,699.0231619009618,-164.50228525981035,226.41367069413675,-270.4016132381722,154.1708980950044
12.2675,0.505681249775851,1.2239810210473308,-0.3091933325488886,-0.0367250833052657,-0.0129102408712684,0.0061974631588002,-0.0032167089038666,0.0045509424750352,-0.0430733086595403,-0.9990561702572416,0.0191275733860685,-0.0001516724110056,9.818833381453645,-0.0108319411385251,-0.0279958678046669,0.0014562471541515,3.481885087699168,5.036033461991472,2.0654292539150956,1141.5201615151,1138.8957088922416,1145.7157209503011,1121.977000655441,571.7106344302238,-160.70367255309534,148.59443893727303,20.081434677653665,154.1726894156274
12.27,0.4184290542314988,1.3613218937856515,-0.4460198080562647,-0.0359871894607797,-0.0089896042416595,0.0051534120180407,-0.0031633343540884,0.004563189371153,-0.0430848149132168,-0.9990557855239688,0.0202572170334324,-0.0010582513078577,9.813427910807295,-0.0109201372001859,-0.027905609058669,0.0015029501985897,3.4818657541680116,5.035964321189115,2.0654306885077225,1142.8347640009279,1138.4649646211367,1146.022423253966,1122.343950741761,501.4417129138236,-195.64767490921113,105.33877065316292,277.9877323993353,154.17447205728303
12.2725,0.2748073909173325,1.461968798383705,-0.6098035436120905,-0.0340481133861553,-0.0045803620805992,0.0037938448015073,-0.0031035974396274,0.0045562431318624,-0.0430902770234219,-0.9990557693836224,0.0211307388893291,-0.0022487568787144,9.807984672737849,-0.0110058501319742,-0.0278226665617901,0.0015325084544404,3.481845058286622,5.035895326315432,2.0654323396843535,1144.0273700796695,1137.9174705176952,1146.242414803567,1123.366939317438,360.2108375468452,-188.12176113389583,51.60833334770462,440.06765936212497,154.17659350398128
12.275,0.1188212108544401,1.5004965386564493,-0.7449094797973924,-0.032139407213646,-0.0014455822846834,0.002522360710696,-0.0030436911490804,0.0045384321299235,-0.0430914340288972,-0.9990559884414308,0.021916491053832,-0.003568047500057,9.802560690226109,-0.0110879710078931,-0.0277477565220765,0.0015438868467658,3.481822583479552,5.035826152649933,2.065434479503808,1144.6358181886624,1137.524355815467,1146.2804649207046,1124.5442890385723,149.9443670338522,-115.65746324661204,-24.042176541938954,494.5004675273669,154.17834074107236
12.2775,-0.060788889308523,1.5006111085775276,-0.8733707887781746,-0.0310047240409456,0.0014200910199942,0.0009488720683426,-0.0029887840311595,0.0045187744318051,-0.0430898141926761,-0.9990563189968866,0.0227923924268439,-0.0048776281303117,9.797217352337281,-0.0111653632180793,-0.0276812054745867,0.0015358253305261,3.481798533342203,5.035756155021432,2.065438125875355,1144.7770919148384,1137.3391832014624,1146.1222039208571,1125.8394416550743,-30.9934895678404,-19.798087821751867,-102.63214610684587,504.87920528077046,154.18005913318095
12.28,-0.2334312157994823,1.4683987363566535,-0.987994539285788,-0.0311468855685152,0.0044566779368401,-0.0008768970335665,-0.0029385156063629,0.0044986202554604,-0.0430878371541423,-0.9990566491848812,0.0237788206555247,-0.00613791635766,9.792021347935208,-0.0112371681130178,-0.0276230261116262,0.0015065698434945,3.481773934974212,5.035684980526273,2.0654433277516304,1144.4808507408231,1137.4253653763583,1145.7673041901703,1127.0686850649763,-234.8777264879205,113.05116093019984,-193.5309557042881,441.28663035046344,154.18174757536568
12.2825,-0.3560955470583596,1.3872768385959675,-1.0699582550043651,-0.0331108153133631,0.0079936844707968,-0.0030558832602658,-0.002890704939333,0.0044766703641537,-0.0430849524614442,-0.9990570138972364,0.0248402078085976,-0.007340703160933,9.787042320200111,-0.0113027158559028,-0.0275731485978964,0.0014544015545947,3.481749457425994,5.035612893766628,2.065449559944573,1143.6027032823988,1137.9044390061135,1145.1545491423356,1128.0458748068268,-527.4313562272849,296.7200725775137,-326.5728814400258,339.58575041440264,154.18339193353913
12.285,-0.4040546349776041,1.2174562094451835,-1.1033546161092855,-0.0368539731851498,0.0125355140606032,-0.006219981592981,-0.0028424791251392,0.0044515055897532,-0.0430796242110603,-0.9990574954507876,0.0259361260849107,-0.0084903976766603,9.782350927797587,-0.0113616522804611,-0.027531542118567,0.0013779630423411,3.4817255296734975,5.035540466676379,2.0654567766377414,1141.8436939596872,1138.9089657392456,1144.1344397829705,1128.7666138170482,-757.0477198433906,419.2306190644028,-413.22055783561194,177.91855927988664,154.1853030345631
12.2875,-0.355698959796813,1.0095445934448295,-1.0552287147742723,-0.0397491540784113,0.0159844414224861,-0.0095201339406828,-0.0027946481297491,0.0044206641778079,-0.0430700362278368,-0.9990581832985967,0.0270073934212871,-0.0095189591641846,9.778016594443512,-0.0114139203877352,-0.0274982924991768,0.0012766645373204,3.4817016978602857,5.035469038940889,2.065464728698781,1139.8174646831826,1140.0005921014351,1143.088446353158,1128.9354676032262,-904.535729826916,449.29530818819586,-441.6771843007828,-17.830326045347586,154.18683506864275
12.29,-0.2443710562515807,0.7376005389442581,-0.9083932325366753,-0.0410616778471232,0.0185247008121817,-0.0131942591431335,-0.0027456325401269,0.0043847993536741,-0.0430545350614519,-0.999059152844288,0.0280525828442608,-0.010409385152229,9.774105886224834,-0.0114597076073448,-0.0274735733473069,0.0011505885385148,3.481677548349123,5.035399451861771,2.0654732101747544,1137.321015310552,1141.155442280187,1141.9260538614662,1128.6774621868215,-1162.6512170798835,469.1337714189734,-510.0752111341192,-185.70287676918096,154.1882930263637
12.2925,-0.098392907409722,0.3559888653723976,-0.6166523246193458,-0.0405446951027308,0.0204009891265271,-0.0168908913140123,-0.0026963626304185,0.0043509704477187,-0.0430367009608654,-0.9990602152617772,0.0291970187317878,-0.0111042957477139,9.770679144819631,-0.0114996812685308,-0.0274573256860414,0.0010009754231277,3.4816539371925206,5.035331706671018,2.0654823830661084,1134.0042085977823,1142.3462609585304,1140.5380702974871,1128.00695321938,-1228.9757872360212,369.9069450971192,-484.3686189804484,-275.8755273303544,154.1899429484857
12.295,-0.0087669085408789,0.0107164593887254,-0.2944769740153768,-0.0387548045900117,0.0210703696521168,-0.0187829278203852,-0.0026479706937592,0.0043224008072274,-0.0430200772523146,-0.999061198495578,0.0304904864785501,-0.0115435077407474,9.767790013390153,-0.0115346569221429,-0.0274491320071434,0.0008300155421457,3.481631240352127,5.035264953047092,2.065491326130971,1131.176136374373,1143.004977005672,1139.5042107665645,1127.29808455017,-1093.5381140462953,168.55442951999692,-361.95398684283566,-273.58003516511405,154.19122406344323
12.2975,0.0205819177277647,-0.3367710259034294,0.0723563329457725,-0.0369216869876138,0.0208832557301524,-0.0191836100655896,-0.002600670444646,0.0043028144160073,-0.0430095860245183,-0.9990618727712252,0.0319913375918614,-0.0116910244874825,9.765482842037672,-0.0115655326084036,-0.0274479915755701,0.0006409526812148,3.481609409156037,5.035198402176721,2.0654991602192876,1128.536518027552,1143.18903310613,1138.728300363273,1126.639053043555,-989.7340472990708,-9.674675564381994,-252.83255701047577,-227.12946100879068,154.19239506595991
12.3,0.0035517663572748,-0.6639160538530241,0.4419522449772879,-0.036143114413591,0.0199480536291034,-0.0183192987755466,-0.0025545862001128,0.0042951344509168,-0.0430077503163376,-0.9990621167873504,0.0337415225653158,-0.0115188745159136,9.763790784514363,-0.0115929326609187,-0.0274523223832801,0.0004380611288088,3.4815881870732617,5.03513168257572,2.065504902932559,1126.2274661378767,1142.95660362785,1138.240047981512,1126.1624372451258,-810.3113079496877,-182.8911533708093,-116.44862189080412,-123.54323836259825,154.1934664597168
