t,ang_acc_x,ang_acc_y,ang_acc_z,a_vel_x,a_vel_y,a_vel_z,quat_x,quat_y,quat_z,quat_w,acc_x,acc_y,acc_z,l_vel_x,l_vel_y,l_vel_z,pos_x,pos_y,pos_z,mot_1,mot_2,mot_3,mot_4,dmot_1,dmot_2,dmot_3,dmot_4,vbat
0.0025,1.177852557984268,-2.2943931300861644,0.3941730753969814,0.0283536682537385,0.2264782724412258,0.0201417866804862,-0.0044426146958666,0.0090835452227114,0.0012246546985636,0.9999480463667716,0.1797060787927645,-0.1690603708614516,10.066230221277198,-0.1322044294482233,0.0001823300244638,0.9710141817211082,0.2280058066548605,1.462536809398285,0.3326464195639827,1108.921868752519,1149.6945334552088,1127.522030782566,1158.0652971884858,390.17686690040136,1092.2679846943536,-202.5006385427332,551.744182697621,164.02506233307776
0.005,1.2747612853696546,-2.7729307292125327,0.3060810685821007,0.0305641520045068,0.2198022687177383,0.0214654493577322,-0.0043737712098464,0.0092109824213447,0.0012472300144826,0.9999471062390544,0.1582942652934022,-0.1486025965353952,10.096688708746768,-0.1318048898244254,0.000202646706007,0.9716686971883948,0.2277062832031344,1.462575482240522,0.3351058959335307,1109.89731091977,1152.4252034169447,1127.015779186209,1159.4446576452299,381.2829847513968,863.084259372863,-212.5918815973364,499.01635483115575,164.0144595853811
0.0074999999999999,1.4121814031204936,-3.212349011031982,0.24323707234127,0.0329730041490226,0.2127745254555094,0.0218313313452841,-0.0043010090038913,0.0093264179732193,0.001277102529388,0.9999462795865788,0.1370991887669613,-0.1280328504002705,10.12717230128312,-0.1313884632841886,0.0002415520548023,0.9723406035975416,0.2274072132467733,1.4626105115835004,0.3375624461126268,1110.828283676276,1154.009954752073,1126.4590713745793,1160.5603789626416,375.2470270114827,480.9211366714408,-250.47715982582304,446.9604141469063,164.00555010443804
0.01,1.5836279599560235,-3.648406302797312,0.2124250011269639,0.0363836867337481,0.2043400817752545,0.0217016613480595,-0.0042156567491803,0.0094196523049129,0.0013197411948675,0.9999456853477816,0.1163326373327007,-0.1071644369920322,10.157701404597727,-0.1309414840476607,0.0003253232754641,0.9730447951230384,0.2271102752762823,1.462639810706169,0.3400153771991603,1111.7735460548274,1154.8298091003019,1125.76339338708,1161.6794597159644,367.2144813551312,220.02155324717015,-297.1114581353958,449.8357633568047,163.9965766449209
0.0125,1.7581943018889,-4.0481871161027145,0.2181003347622833,0.0406569236247892,0.1947202518550512,0.0214369200675599,-0.0041113716311559,0.0094871761643664,0.0013792631355382,0.999945370604835,0.0960863171705517,-0.0858628574296492,10.188283733560551,-0.1304656051105209,0.000477160336934,0.9737971634749466,0.226817060527707,1.4626628954966483,0.3424635900678251,1112.6643560830516,1155.1100625183087,1124.9735140839023,1162.8095577794256,336.69818420166854,24.30067477785088,-329.1707028329712,446.78948546220454,163.98755891206304
0.0149999999999999,1.9070353905771036,-4.368731404523363,0.2687634464327486,0.0456927230661451,0.1840554398824587,0.0214058362029657,-0.0039828395570014,0.0095287978860854,0.0014601610579296,0.9999453478427094,0.0764032472808807,-0.0640245811773827,10.218907020585382,-0.1299710021104652,0.0007192733245149,0.974614544916894,0.22653016957172,1.4626802399488898,0.3449051893365384,1113.4570369758355,1154.9513124741911,1124.1175398729151,1163.9134071432754,333.6402752328467,-111.8200286391129,-374.3295704960928,454.208440558068,163.9784976142861
0.0175,2.0275735551996554,-4.626091941770701,0.3693631008162741,0.0521989826250032,0.1707537043288677,0.0219940879004206,-0.0038305626908432,0.0095420778494066,0.001564146542739,0.9999456318488182,0.0573938415192618,-0.0416777399017363,10.249534694526416,-0.1294649834747463,0.0010618553169336,0.9755149792800668,0.226252695241576,1.4626912270599532,0.3473378744881956,1114.3325574592159,1154.5509623751132,1123.1018662314218,1165.080599982216,324.1009468648826,-146.13262859529638,-354.06402449289084,374.79061375365734,163.96758541198608
0.02,2.068592810157434,-4.714552864571316,0.4711962585922861,0.0575059301889817,0.1593802422935885,0.0230917486010622,-0.0036587255343871,0.0095234211653981,0.0016883018058869,0.9999462427425552,0.0392147801856443,-0.0189413269283333,10.280105906418669,-0.1289530909336749,0.0015058527067956,0.976515920878869,0.2259864287862199,1.4626952762629155,0.3497610270155755,1115.07754171016,1154.2206493312146,1122.3472197504507,1165.7873602120435,326.99024445619233,-105.7444657503766,-260.17697742036046,192.55021509861768,163.958467590247
0.0224999999999999,2.044249353026549,-4.652725591726553,0.5723043328539025,0.0622297322926407,0.1476482852702822,0.0246550569456057,-0.0034774641723953,0.0094705538872295,0.0018243524705134,0.9999471731536564,0.0220164455912329,0.0039267883155541,10.310537402216273,-0.1284425602762957,0.0020373377295374,0.9776319204846792,0.2257313482827415,1.46269404160887,0.352177194618449,1115.9675086814968,1154.0222400463615,1121.80098134432,1166.043351057709,457.03901576171114,-47.56509344333608,-166.29435436830133,-25.791864037273623,163.94933318357477
0.025,1.9373731581839944,-4.390011138556398,0.6745974762516623,0.0674075276079984,0.1335394754409291,0.0266707477360111,-0.0032975072591849,0.0093923743073561,0.0019636701100362,0.9999483043054932,0.0057359891509264,0.0266404060370178,10.340725710118573,-0.1279600435384645,0.0026382578917826,0.978870556864599,0.2254845533932661,1.4626909966169608,0.3545910202784225,1117.3627367889687,1153.982823863998,1121.5157479786092,1165.6584008918571,586.9860932680692,16.85692627083881,-28.64619090323685,-271.44195152554846,163.93836192772696
0.0275,1.7772747781724607,-4.013383735433967,0.7341928373081412,0.0715777424288392,0.1222948185650431,0.0282875114875748,-0.003133494424046,0.0093092935366978,0.0020911861381397,0.9999494078501092,-0.0099189362286984,0.0488191395184768,10.370551272959572,-0.1275512219957636,0.0032778713501819,0.9802313390285922,0.2252409563121684,1.4626903644065388,0.3570073961404722,1118.9024391478372,1154.1065246777157,1121.6577503898038,1164.686141300081,712.2169746392959,77.87848438783843,141.64286697687209,-524.500555800387,163.9292172653961
0.0299999999999999,1.5294133755395127,-3.4896481436582247,0.7565338426227731,0.0758325843201364,0.1123701591668093,0.0298600558667981,-0.0029978467446461,0.0092414373079872,0.0022000496479821,0.9999502828852908,-0.0252310134710123,0.0701180218923723,10.399886046555457,-0.1272569060099471,0.0039280682287978,0.9817083030328532,0.2249965089954686,1.4626948522920404,0.3594306832753923,1120.9238216621652,1154.3722162859372,1122.2239623134935,1163.0358981128554,893.3446550689492,129.63935711304654,290.9353471752183,-757.5836531773346,163.92007795127427
0.0325,1.1978789098485365,-2.869868800797396,0.7383551508738188,0.0801511096604665,0.1040891656912084,0.0315770921945925,-0.0028895323123229,0.0092076519939891,0.0022886135246753,0.9999507718268345,-0.0404570150858526,0.0904673998044421,10.4285978569391,-0.1271109911014593,0.0045851694982467,0.983290333378587,0.2247475052862608,1.4627074219546559,0.3618650550132849,1123.369162423182,1154.7547214632807,1123.11242712568,1160.8982230341946,1070.2121998946031,185.68412595473075,414.1975509017808,-936.9102302982349,163.91094846380065
0.035,0.7624591051979804,-2.1777296767644314,0.6575858411575954,0.0839299105924519,0.0980848812803215,0.033701389191923,-0.0028081009380439,0.0092172213835238,0.002355410216285,0.9999507962384308,-0.0556614065248205,0.109786423649293,10.456560917887128,-0.1271247544362623,0.0052420581948501,0.9849640908593464,0.2244916352348603,1.4627297071180847,0.3643141790362069,1126.2748826616382,1155.3006369157108,1124.2949500680024,1158.3513469613642,1345.5614477189108,284.5873265853699,555.2266013256033,-1152.6740999488543,163.90183724936347
0.0374999999999999,0.1410499869562567,-1.325037124288196,0.4750616118098868,0.0868356123924513,0.0934223940954996,0.0367325938113741,-0.0027511007628539,0.0092709036853948,0.0024039720769876,0.9999503454001508,-0.0707390217127683,0.1280402459230458,10.483661973939684,-0.1272895866981928,0.0058955809552301,0.986715054266571,0.2242277333482004,1.46276130595949,0.3667799311944392,1130.0969696617765,1156.1776580962076,1125.888560132308,1155.1348525344504,1408.8404156366328,358.1481509493189,589.4016098091473,-1154.5246369662896,163.8909331382646
0.04,-0.4238704322872153,-0.6389779547364843,0.2535074561805266,0.0875052185006216,0.0916052564811237,0.0392148683288093,-0.0027146168496836,0.0093689939368784,0.0024377442116691,0.9999494159212577,-0.0855880242386906,0.145230855964955,10.509802439498388,-0.1275939997627293,0.0065456130185647,0.9885271886831252,0.2239569905962055,1.4628002824180835,0.3692619980302706,1133.3190847398212,1157.0913776704574,1127.241958117048,1152.5787237765328,1220.1566737137443,390.2797947209816,526.328908262712,-936.6115826263004,163.88187680850191
0.0425,-0.9764509513382724,-0.0217776681724219,-0.0148074728420073,0.0858169059087995,0.0917493902519411,0.040379916535248,-0.0026953681080031,0.0095125887064219,0.0024617790221906,0.9999479911072544,-0.1001392678040761,0.1613539248262413,10.53490056757915,-0.1280272378838334,0.007192418152138,0.9903844745616516,0.2236802229253299,1.4628441254534543,0.3717587165187796,1136.1977530303452,1158.1290570698127,1128.5202046736215,1150.4517946213189,1091.0756320699425,451.3692122242448,537.9716915689644,-778.3287207021207,163.8728592049613
0.0449999999999999,-1.5440505229068848,0.6046073300525358,-0.3354581362904544,0.0806972629633519,0.0936681509674097,0.03918831250139,-0.0026915892978707,0.009698615876513,0.0024811945655703,0.9999460882718496,-0.1142539784993984,0.1763788582901404,10.558893932065851,-0.1285704439671032,0.0078352350559471,0.9922738508553052,0.2233985447841725,1.4628903743715804,0.3742664353480928,1138.774462900171,1159.3482237315786,1129.9318165748928,1148.687080173022,739.6481045265322,409.131242244712,502.11849426527834,-485.348681278447,163.86209114601832
0.0475,-1.8867513425273583,1.0185272146494795,-0.5589865468013037,0.0743601613356329,0.0961903372392901,0.0365766620519166,-0.0026993494525437,0.0099129148215583,0.0024988243462503,0.9999438372540316,-0.127577696231026,0.1903239332622476,10.581739906412073,-0.1291836554796083,0.0084793111107576,0.994188194384628,0.2231142438073246,1.4629357700183396,0.376780277693963,1139.8959935529779,1160.1747132810362,1131.0307971449479,1148.0250512149266,200.0986044042291,251.16207135765737,435.1993227695853,-78.58698628483573,163.85316791116966
0.05,-2.06337952772844,1.3176011530835023,-0.7046347120679312,0.0674806425654511,0.0992276775812742,0.033689251974245,-0.0027167354304399,0.010138109810415,0.0025147642917999,0.9999414072093146,-0.139704689191651,0.2031662563532178,10.60341145813367,-0.1298218600685755,0.009127376824339,0.9961249869054009,0.2228287072347862,1.462975612677773,0.3792961903890035,1139.7749559221922,1160.6040340883667,1132.1078131887407,1148.294145241598,-245.0534926805632,85.00677195897883,435.025006353226,260.84129135483647,163.84430352913034
0.0524999999999999,-2.107138591628566,1.5248303629430435,-0.7800058038519561,0.0614908207168949,0.10267863529243,0.0312175504466311,-0.0027395837176384,0.0103622141482254,0.0025310717928459,0.9999389473372096,-0.1503557502280879,0.2149317618137911,10.623886832207848,-0.1304522553051868,0.0097885824632133,0.9980839403983623,0.2225421190356619,1.4630090991112277,0.3818121019408364,1138.670726089575,1160.5997471408311,1133.205922176714,1149.3292576717008,-622.8379037433573,-110.2595778382693,447.9079948043821,579.1663972789596,163.8354928422511
0.055,-2.019986003591119,1.6274869988739435,-0.7794571459782565,0.0571992235300256,0.1066996735918556,0.029314721756444,-0.002751479103674,0.0105797252991048,0.0025551446143909,0.9999365595582648,-0.1593969759620547,0.2259083316856584,10.643138114222783,-0.131056528884803,0.0104983228409947,1.0000658807081857,0.2222536909581949,1.4630402536765608,0.384327446092506,1136.6607664034755,1160.0527361991756,1134.3473531627628,1151.1899772279928,-980.7480225358167,-338.25010577725124,507.69850694564366,964.7156619004354,163.82675262983713
0.0575,-1.803100345016576,1.6406142848800442,-0.7086787348236049,0.0531512717877571,0.1118191792395782,0.0274710583489536,-0.0027391947293547,0.0107765382941889,0.0025877312994363,0.9999344322787794,-0.1665229264760947,0.2363134208155642,10.661140671751143,-0.1316012852812178,0.0112836594667142,1.0020760977111416,0.2219634106947183,1.4630740021972424,0.3868426046590161,1133.766985976896,1158.9084966119449,1135.7444147114422,1154.1528359812028,-1046.7485480621694,-458.2806037149569,508.02655416378013,1165.6525433572376,163.8163530487402
0.0599999999999999,-1.5437015062228683,1.5717549091604264,-0.6024740799180996,0.0494273460923917,0.1157080564291713,0.026019942579512,-0.002699804423293,0.0109443239234463,0.0026261532825291,0.9999326673576484,-0.1715573427961802,0.2461420144421085,10.677866017723835,-0.1320669444973343,0.0121494993803968,1.0041199336679338,0.2216716677502754,1.4631115911345287,0.3893600059558643,1131.4270236631646,1157.7613331806008,1136.8874859335815,1157.0182399447788,-817.8132575587374,-430.504401352164,438.32913521036994,1173.448343517112,163.80776576696283
0.0625,-1.207152053110566,1.4373399400677709,-0.4572062524485672,0.0447642416505238,0.1188618687413095,0.0244474856061994,-0.002635579388725,0.011084602448513,0.0026728343858139,0.9999312312869744,-0.1745319893235052,0.2552765961300653,10.693274078179908,-0.1324559652003173,0.0130908970065373,1.006200978466014,0.2213803552310004,1.4631524626137424,0.3918812044989264,1129.6779196891023,1156.755974605184,1137.936060387494,1160.0200776987883,-549.9177315216907,-324.1329653317732,421.2633225215992,1290.546018991107,163.799266564328
0.065,-0.7307760077572645,1.2157898302791883,-0.2511906163178527,0.0397202556072239,0.1220978466061244,0.0227685575879525,-0.0025533989059272,0.0112061347138749,0.0027243585161495,0.9999300130723136,-0.1756349042613993,0.2634957269435282,10.707312244369314,-0.1327881165528534,0.0140917058022727,1.0083213659086805,0.221091740616456,1.4631959285551763,0.3944065095709539,1128.677435005556,1156.140668353942,1138.9938025461895,1163.4709700397343,-157.18759006590503,-72.79733817381377,343.0380458749366,1199.5836130365649,163.78917626857648
0.0675,-0.3089704170816085,0.9855783843143529,-0.0691064437233769,0.0374219757573977,0.1246748031938044,0.0220037864731928,-0.0024614567440747,0.0113148707102203,0.0027747714838447,0.9999289382694038,-0.1749906887339298,0.27054508344454,10.719918561651996,-0.1330799466810371,0.0151320355757348,1.010484156730338,0.2208092011583295,1.4632425072473192,0.396935284741374,1128.8919817387728,1156.3919879143148,1139.6512506168688,1166.0179957639712,293.82999900440126,301.7893566278869,209.10708246574336,911.3359268592823,163.78086321047098
0.07,0.0716232376698457,0.7086194772565533,0.09698576215691,0.0377760411323613,0.1272656358967294,0.0222127054280912,-0.002366769244377,0.0114139185253365,0.0028219821943419,0.9999279578630728,-0.1726528772077154,0.2761937526825257,10.731020847547123,-0.1333437380611253,0.0161949673607586,1.0126930649146253,0.2205343565073287,1.4632928817910051,0.3994668285357905,1130.146585000578,1157.6496151370811,1140.0393379585184,1168.0276496740307,641.9784615937727,679.4302924958187,112.39038038620512,696.2771052276835,163.77265479768934
0.0724999999999999,0.3641378140482555,0.3959597273669244,0.2281247709339038,0.0400144018605943,0.1295155385059721,0.0232398154029853,-0.0022737003870529,0.011511473786213,0.0028660477135147,0.9999269652992628,-0.1687738036253001,0.2802670983099666,10.740532931874196,-0.1336025136321485,0.0172693929924064,1.0149499425965447,0.2202670957911794,1.4633459962808255,0.4020002207724422,1132.1018740467416,1159.789139376794,1140.2132025187996,1169.4993812901096,894.0798850565914,1051.2218601657444,31.695298804606924,456.2898281084935,163.764536995697
0.0749999999999999,0.5029438222430778,0.0550078214116492,0.2971193799660846,0.0432917449229826,0.1304626758025714,0.0249719114776878,-0.002185731791432,0.0116162362973753,0.0029038570479415,0.9999258588525936,-0.163510678223263,0.2826083809224054,10.74836102618039,-0.1338798569736328,0.0183452788173657,1.0172555538033463,0.2200064947691241,1.463400343165617,0.4045355480989873,1134.6169844258611,1162.90572443791,1140.1978144525415,1170.3090988145734,1157.5440010041336,1544.7725617345427,-17.541854392129594,229.35080676652407,163.7565327968831
0.0774999999999999,0.4700133255974085,-0.355217178850633,0.2999200552803703,0.0467686724946487,0.1296703980434369,0.0270275531594193,-0.0021075143704718,0.0117380530892213,0.0029360735831849,0.9999245091233674,-0.1570370068931433,0.2830382397785005,10.754408776944542,-0.1341998838171576,0.0194111516405584,1.01960892472916,0.2197502493438895,1.4634552078058884,0.4070734252494452,1137.8895940517623,1167.5130021854668,1140.1254932468391,1170.6461353239424,1192.099301193001,1781.853885135659,-3.4674804267979167,55.49797535886677,163.74706436173588
0.08,0.2881991062720536,-0.6740193966919442,0.2445092536576173,0.048641209600024,0.1278228384060314,0.0280308090390626,-0.0020425565152604,0.0118820770586261,0.0029647212079742,0.99992283916884,-0.1494216259269885,0.2814049164898906,10.758583863060858,-0.1345745447970628,0.0204579745835678,1.022008298984458,0.219495029579795,1.463510464749216,0.4096151698806362,1140.577480931826,1171.8149938635884,1140.1804770504075,1170.5865886913675,1025.375918617782,1750.0760680697551,85.35771246833967,-38.19838078834433,163.73929146444962
0.0825,-0.0175275730517094,-0.948497322025198,0.1511045497217083,0.0491707812019058,0.1253414097716255,0.0282127212994258,-0.0019910539327898,0.0120492857866372,0.0029901960339116,0.999920832681253,-0.1406458267307267,0.2776323080876652,10.760801774966936,-0.1350042616476561,0.0214826197739835,1.0244505037610132,0.2192379408212623,1.4635662090125787,0.4121630930647744,1143.0164736448512,1176.2633825258156,1140.5522818091808,1170.4551434200007,997.0281420800792,1921.1956704269123,270.81799282127554,-12.651166307159643,163.73164460599253
0.085,-0.4732544796317458,-1.215162677832514,0.0212503016878984,0.0482183711962719,0.1220719025907646,0.02809764617577,-0.0019506934106353,0.0122372084650771,0.0030123554040283,0.9999185213524208,-0.1306232842024588,0.2717054585408066,10.760991841094922,-0.1354793141784253,0.0224862817118248,1.0269306063008956,0.2189772167224438,1.4636229402297247,0.414718600463794,1145.5626216422263,1181.4209722157227,1141.5345670145139,1170.523332859832,876.3052078429602,1821.267556583824,458.9941557916059,95.04968362107311,163.7226186039462
0.0875,-0.8874854944320181,-1.3812482251200826,-0.0868856027861308,0.046196186571262,0.1191199570190577,0.0278956271907411,-0.0019152313966252,0.0124413589127567,0.00303477402714,0.9999159578587457,-0.1192334445903336,0.2637044939197154,10.759101860194223,-0.1359828728904152,0.0234782985168492,1.0294415420253964,0.2187117578486606,1.463681787751308,0.4172829675651176,1147.397999684066,1185.3697203087347,1142.8472525881389,1170.930391838106,699.7375264501457,1475.8827889254944,617.4674628172409,252.12444825951985,163.71522515123215
0.0899999999999999,-1.296132856299278,-1.4842903070684708,-0.1810213373511945,0.0431316720723511,0.1156619123476494,0.0274623677313189,-0.001879391903456,0.0126566068212913,0.0030619846376795,0.999913199402878,-0.1063585809547155,0.2537007948019161,10.755106342637976,-0.136494553331266,0.0244653586564347,1.0319742396260279,0.2184403177374737,1.463743770205784,0.4198579076814813,1149.0613092744773,1188.8003861603504,1144.6219043286,1171.7839551011295,661.4302277133005,1274.1953328153638,765.3538736823534,411.0075297267039,163.7079679034211
0.0924999999999999,-1.674820437269803,-1.5305462865357276,-0.2547403667695195,0.0392056069043349,0.1116588164814443,0.0268113876979869,-0.0018379268178072,0.0128792257257891,0.0030952686355968,0.999910297535166,-0.0919349960317774,0.2417790915281811,10.749010434832883,-0.1369956609564773,0.0254524639605026,1.0345175158321462,0.218163437372681,1.4638107599213932,0.4224438930192127,1150.7051508226325,1191.7406969728115,1146.6740219565506,1172.9854294867396,678.6774159606915,1052.380170037576,853.9532863092509,543.1860989605407,163.70082555870465
0.095,-1.9932571438645668,-1.5060264061376458,-0.2950607778604785,0.0342081272511995,0.1073541302048681,0.025948463746078,-0.0017875920932213,0.0131006989937026,0.0031332519705215,0.9999073706289698,-0.0758230310504434,0.2279974437695075,10.740857803977164,-0.137457270800494,0.0264391995416217,1.0370605123831964,0.21788120776215,1.463883661976115,0.4250407313331334,1152.4546963542807,1194.0622870105383,1148.8916707601463,1174.4998855959323,811.6510665506206,878.1466245021866,972.1809248796936,700.3425094019343,163.69382370714922
0.0975,-2.284457050916485,-1.4025178415223134,-0.2968232790424922,0.0274498526909419,0.1026833868601479,0.0248375344210425,-0.0017257141593495,0.0133110916310866,0.0031758090386141,0.9999045535402232,-0.0578799714906758,0.2124211959118653,10.730731135211192,-0.1378477695221356,0.0274241235696028,1.0395923977225932,0.2175939553536051,1.4639620384455154,0.4276481575536663,1154.7634061553856,1196.1314300953225,1151.534926580949,1176.4871420337493,879.4008979948549,642.7088616629129,943.6839384814442,727.8029501326265,163.68558589963436
0.1,-2.4434648526724745,-1.2677094992989513,-0.2564897047879198,0.0214998446721314,0.0994357875363867,0.0239487730174662,-0.0016508913730258,0.0135041912303936,0.0032241528570918,0.999901929345866,-0.0380722497170617,0.1951101206788516,10.718752509579016,-0.1381443474224151,0.0284038679589899,1.0421016182162843,0.2173037109471339,1.4640448555117624,0.4302655264490933,1156.8517008442548,1197.2758313188529,1153.6100904525535,1178.1389003465952,850.813707389124,346.4039932493503,790.0603775203301,631.4595070614354,163.67885918391255
0.1025,-2.513028577768828,-1.101882855098519,-0.1728724064957879,0.0154267832525858,0.0967335621609762,0.0231088572902011,-0.0015628449179114,0.013679918077401,0.0032804276971091,0.9998994970354194,-0.0165276468515748,0.1761234673084558,10.705083844476633,-0.1383387931531041,0.0293737554698324,1.0445757685861496,0.2170135175076,1.4641301378194431,0.4328914045406342,1159.0174746923312,1197.8634500615692,1155.4852284685508,1179.6444395690564,934.6499665309256,146.34369708601326,777.806968467759,611.3769854163831,163.67227679178268
0.1049999999999999,-2.4946485700193226,-0.8886684930417273,-0.0284761787400754,0.0081905189908684,0.0940295309663287,0.0223807550625018,-0.0014611449830093,0.0138342932139766,0.003346362642992,0.9998973128879524,0.0066797251224875,0.1555482257357059,10.689928854228947,-0.1384169882729104,0.030330230245837,1.0470047033742864,0.2167278210857818,1.4642150957508613,0.4355241432808795,1161.5249506769096,1198.0075498042827,1157.4991252948923,1181.1957852736773,873.091374791649,-26.024946941242938,704.4068918677581,526.2665257923355,163.66454547993573
0.1074999999999999,-2.3966469875041465,-0.7131846855148009,0.119280791721592,0.0023843348706534,0.0922779640077179,0.0221722002476402,-0.0013522462510799,0.0139649549980795,0.003422138277219,0.9998954032549948,0.0314110950405599,0.133351154391501,10.673531924733624,-0.1383702626570357,0.0312556646741309,1.0493796512868452,0.2164508062707202,1.4642962767195655,0.4381618823278378,1163.3829315662895,1197.7333253268628,1159.0072629278895,1182.275772198018,659.5634039313603,-172.6516022428312,577.8590293057728,400.8639272147772,163.65824276179293
0.11,-2.215054908721069,-0.5540675715167896,0.2788811788307982,-0.0031972946958833,0.091007889487245,0.0224344152246337,-0.0012547700312473,0.0140855697386239,0.0035015203645798,0.9998935577026412,0.057155794326333,0.1092715880900725,10.656174269722204,-0.1382252992026783,0.0321054067552986,1.0516895928802543,0.2161822137610918,1.4643738975266671,0.4408030867458042,1164.8227676965664,1197.1442917930688,1160.3884204414212,1183.2001049097512,486.60800267898554,-272.57865433448364,540.5604606065476,359.574836428828,163.65208599649972
0.1125,-1.9657299293000183,-0.4164681756286164,0.4324796259462216,-0.0084402315447014,0.0900839670021411,0.0231955843112586,-0.0011878191027181,0.0142113881672088,0.0035808636600093,0.9998915331638332,0.0833475605285517,0.0830724368582089,10.638169237522652,-0.1380123082917981,0.0328335499271656,1.0539244036332365,0.215918799862638,1.4644497480003895,0.4434481325114159,1165.8159715796844,1196.3704320551903,1161.7100652309223,1184.0736463801622,280.35205931932956,-333.4826691148007,528.0090168667807,356.8169676669637,163.6460508383175
0.115,-1.638733490344117,-0.3107783477295273,0.5574926779179707,-0.0130197154761379,0.0894504808641905,0.0247165645985651,-0.0011685316649894,0.0143530985861623,0.0036557226797668,0.9998891677429704,0.1094960176414938,0.0545939394289943,10.61985710192132,-0.137751393973837,0.0333965941677092,1.0560761024417988,0.2156578461550188,1.4645251016624103,0.446098935610121,1166.224527993163,1195.4768784474948,1163.028465525755,1184.984189748086,57.58239074261832,-392.3770636587048,600.0207870729804,428.69392110101177,163.64016320199423
0.1175,-1.1667279546145028,-0.2239794612034071,0.6498457297297792,-0.0175530419160635,0.0888499782899513,0.0272262346172625,-0.0012065693661455,0.0145162493152177,0.0037152769986053,0.999886406987916,0.1351998291413806,0.0238735784323097,10.601597898319056,-0.1374511422068172,0.0337634303899176,1.0581384729485153,0.2153973579906235,1.46460076321578,0.4487572725536239,1166.1038835333975,1194.408546736897,1164.7101691662872,1186.2171159856673,-119.08039354661946,-371.7475230875614,647.9147033117455,482.8857308006272,163.63326998948867
0.1199999999999999,-0.719524045213292,-0.1848134775606049,0.6676834764356381,-0.0202532608896282,0.0884198527715868,0.0294673896960964,-0.001301802233533,0.0147052980369748,0.003746943073705,0.9998832319881276,0.1600645466686387,-0.0088060094438438,10.58376623039312,-0.1371167469471974,0.0339214353762448,1.0601058849879748,0.2151351955671105,1.4646793303472148,0.4514235793575782,1165.62912602543,1193.6181408320567,1166.2680390423138,1187.3986184020891,-221.85915844793317,-279.193288166744,667.2894740095229,504.12365807710654,163.6276701739542
0.1224999999999999,-0.2380498637748802,-0.1782407059271799,0.6220074533324091,-0.0216467817217777,0.088130397809984,0.0314531013928256,-0.0014515712740238,0.0149196112099954,0.0037418827541528,0.9998796930492124,0.1837896627886158,-0.0430756714642188,10.56674625727286,-0.1367414899957105,0.0338626750648678,1.0619752157163322,0.2148698552767662,1.464765117384892,0.454098792847949,1164.9945877411578,1193.012580296063,1168.0466165363348,1188.7377342760528,-260.38388655338144,-219.16938065241973,834.4488574350173,613.8509238417096,163.62222212836235
0.125,0.3469722844789082,-0.2037453140653667,0.5029943251883016,-0.0216142128846028,0.087952074811729,0.0333018884822282,-0.0016439794856019,0.015150222950774,0.0036965739311198,0.999875957527378,0.206238876970906,-0.0783429447908867,10.550923901021104,-0.1363002105425599,0.0335992428346454,1.0637467902493627,0.2146009374078923,1.464860343203151,0.4567829117058206,1164.327206592663,1192.5222939287949,1170.4402833294887,1190.4678730212977,-196.25189717571607,-148.2869121732618,912.6917491196757,640.9557720278366,163.61586234368576
0.1275,0.8140537080085598,-0.2465058605738689,0.3614581364189211,-0.020053068929337,0.0876840747041991,0.0345026754434445,-0.0018552012531822,0.0153926848729899,0.00361680290033,0.999872109785187,0.2271704183285082,-0.1137430823918066,10.536684114335456,-0.1357771150234007,0.0331713304364512,1.0654213087096915,0.2143271359301633,1.4649645032905871,0.4594737095100802,1164.0133282552792,1192.271145735197,1172.6100752819332,1191.942513136192,-54.172302422148235,-89.27339384786129,886.6643390672825,578.0624956330479,163.61071268906397
0.13,1.2293687471250283,-0.2992472062014483,0.1919397218231812,-0.0170759874857608,0.0870881372554066,0.0353931799080378,-0.0020590198618916,0.0156405362383794,0.0035147420389551,0.9998682563380246,0.2463777530816774,-0.1483470463138814,10.52440343352392,-0.1351532961102619,0.0326275101663532,1.0670027970705849,0.2140491637801778,1.4650759718722528,0.462168417634009,1164.0563450805523,1192.0759269595555,1174.873605024825,1193.3581854994627,76.05491812528264,-90.63716099926742,903.8882893688871,544.4088941669629,163.6057212352629
0.1325,1.5832072756112627,-0.348869853355343,0.0135655299986847,-0.0132481968554639,0.0862366374967596,0.0357167130528371,-0.0022343823666589,0.0158739232894744,0.0034081120414842,0.9998646854732002,0.2639336646751849,-0.181327853048416,10.514435296903365,-0.1343836313693014,0.0320094019860903,1.0685023371655296,0.2137717065505738,1.4651910695492034,0.4648647392578318,1164.3936028459057,1191.8179599302007,1177.1295167287776,1194.6645576070268,188.21687928225384,-144.49227883924308,876.6377674128754,487.2707624631853,163.6008626775298
0.135,1.8479257786565315,-0.3811880474177944,-0.1560152018369498,-0.0086876273152555,0.0849747353305889,0.0352011110344562,-0.0023668871371312,0.0160757593658551,0.003315577186215,0.9998616329274432,0.2798583722589307,-0.2119945414466127,10.507102178010015,-0.1334322954327883,0.0313482027990267,1.069933528298228,0.2134977407972176,1.465306679701245,0.4675622648758919,1164.9974294769636,1191.353465565359,1179.2567938618895,1195.7945393117789,292.40344724485084,-274.6544614700267,874.543081503679,453.7915938705733,163.59616641062448
0.1375,2.0521805939183633,-0.3875140941820739,-0.3272786521163341,-0.00236867635689,0.0830430097214864,0.0341501112839586,-0.0024544337287461,0.0162416904567533,0.0032471667717581,0.9998591348423999,0.2939244168631498,-0.2399105728144661,10.502686872474332,-0.1322951402479714,0.0306506856142685,1.0713097703289503,0.2132282321915723,1.4654217893733432,0.4702608728390056,1165.85562008213,1190.4446876228503,1181.502232136296,1196.9335155763797,311.3603932372368,-393.8245468534657,752.2551092380575,384.7706292296149,163.59072113086575
0.14,2.1274570304466818,-0.3643814370028476,-0.4314436143585686,0.0034684082775439,0.0816052401380286,0.0332355717472622,-0.0025012003885347,0.0163793929992761,0.0032061231685474,0.9998570469573452,0.3056850292223008,-0.2647760817810785,10.501425578292167,-0.1309981376420245,0.029912612389171,1.0726437514585203,0.2129631454820482,1.4655356437724312,0.4729607489024038,1166.5542314431495,1189.384342831092,1183.01806940808,1197.7183924579267,255.51311587328175,-467.8539900759002,517.6008045858448,286.6790959609714,163.58634384919284
0.1425,2.1156178266743764,-0.3205549630908894,-0.4842989050780336,0.0093167342718924,0.0808168691655812,0.0321409434321336,-0.0025125116867672,0.0165018683754043,0.0031924932018302,0.99985515460152,0.3146252761271205,-0.2863326996294241,10.503500569732036,-0.1295826993751474,0.0291305849921642,1.0739486589745728,0.2127051667958571,1.465646870986118,0.4756613549115313,1167.1331856614963,1188.105417672471,1184.0902361592252,1198.3669110561843,223.46925911711077,-565.1045941810052,364.5515733907376,260.77838983778867,163.5821354311886
0.1449999999999999,2.0307781361378985,-0.2596679127134152,-0.4756054829691832,0.0153929268219717,0.0801551646407437,0.0301334706095772,-0.0024993726910574,0.0166220689711446,0.0032008293352762,0.9998532527240596,0.3202847162697135,-0.3044678095318503,10.509029509836717,-0.1280940162989158,0.0282917038024907,1.0752395287556706,0.2124578403355849,1.4657533436629184,0.4783617740085154,1167.671577738735,1186.5588198601868,1184.8408272750337,1199.0222844071159,182.3867473227446,-523.1565664983488,188.83473220157697,221.84432152876167,163.5772833073619
0.1474999999999999,1.9292170004744733,-0.2122187418636097,-0.4025027826974643,0.0194393166824399,0.0796313838410358,0.0281074745514999,-0.0024737646406155,0.0167514663153819,0.0032189656433196,0.9998511793533684,0.3222959554126946,-0.3191255414632796,10.518061888239952,-0.1265772472623806,0.0273831796446446,1.0765328700610535,0.2122221339502432,1.4658524488838727,0.4810610856243829,1168.04511939811,1185.489634839979,1185.0344098202331,1199.4761326638284,158.13508767955668,-327.0429107747529,-5.735443746016239,160.74240717216512,163.57340692099487
0.1499999999999999,1.8237071151204685,-0.1786479969396778,-0.2665943346268009,0.0227895876527773,0.0793476629377422,0.0266580841717681,-0.0024389145199362,0.0168919994624762,0.0032446552508569,0.9998489112018945,0.3205510899589713,-0.3301262820138181,10.53057808620334,-0.1250580410526731,0.0264163571615026,1.0778476171772875,0.2119960011922276,1.4659426205435633,0.483760468682938,1168.462253177133,1184.9236053063132,1184.8121500563036,1199.8259964429767,195.172772230171,-110.837236840507,-153.4607548723669,120.35909517817332,163.569706484739
0.1524999999999999,1.7245516095662343,-0.1630583493463286,-0.093158298048944,0.0259409421738519,0.0792622725131844,0.0261222099324365,-0.0023911079497773,0.0170286690210223,0.0032790747508632,0.9998467023438944,0.3153647575131239,-0.3372082145722142,10.546485001561424,-0.1235259722069629,0.0254204741367193,1.0792064405936563,0.2117780258692999,1.4660251506404791,0.4864613971429962,1169.020983259261,1184.9354486557768,1184.2671060458713,1200.0779281397192,279.8666610518919,162.69038378550235,-292.0620600509662,76.64783689087919,163.56615394559535
0.1549999999999999,1.627613485419393,-0.1732138736284127,0.1023277415792157,0.029237967736045,0.0789948387307979,0.0265308743142701,-0.0023304030845319,0.0171441035788488,0.0033234878718272,0.9998448331135308,0.3071725076093697,-0.3402552065074717,10.565617587855607,-0.1219653961320128,0.024418070821357,1.0806321284137927,0.2115680863938804,1.466101793787806,0.489164322777616,1169.8615864823923,1185.7370572252407,1183.3518397560488,1200.209235627431,453.81316963462234,528.6725858294626,-482.6184483556058,35.526997941542476,163.56278226742495
0.1575,1.4895622365940644,-0.2159999638891491,0.3359881919779204,0.0337983274765819,0.0786929512084352,0.027562015340102,-0.0022570326270164,0.0172293123656485,0.0033814861620418,0.9998434295600314,0.2963035493889674,-0.3392265492671457,10.587748312441937,-0.1203779777661039,0.0234326374747329,1.0821445123065903,0.2113650393399499,1.466173180306624,0.4918701140830422,1171.290049107434,1187.578811584924,1181.8540138040933,1200.2555631294267,598.1201942315687,796.8852499350753,-607.8486287348363,7.672503483354368,163.55894875435004
0.16,1.3341555066631852,-0.2754179121189608,0.515773957351259,0.0380932685936435,0.0787409963810698,0.0286123711632936,-0.0021715103519422,0.0172781514251947,0.0034550302742799,0.9998425717554148,0.283097503612825,-0.334158700676191,10.612588504368816,-0.118770582064073,0.0224870537887922,1.0837617617360715,0.2111676513623856,1.4662390186163392,0.4945796461497656,1172.8521874535504,1189.721483474916,1180.3125966123744,1200.2475981448479,694.3098796026783,936.6107768588328,-659.7390039783471,2.1171404770939244,163.55593385695775
0.1625,1.1185003296274947,-0.3505125793097716,0.6664895485252937,0.0422097981830612,0.0785246196664197,0.0298691506815257,-0.0020708221735459,0.0172865632087675,0.0035434008084356,0.9998423159243937,0.2679170334569018,-0.325083932443367,10.639795462342631,-0.1171533450022633,0.0216112742186604,1.0855003778932388,0.210976592341337,1.466298863370726,0.4972925956351992,1174.7615985054474,1192.2618654692183,1178.5553187842015,1200.2661488318124,894.6580651508604,1146.2651771929804,-789.6522632763656,31.006464209849558,163.55310876253964
0.165,0.7909929047478474,-0.4362707924362946,0.796748808319542,0.0459419441928239,0.0770387266378727,0.0318595558450668,-0.0019523642861467,0.0172599837193061,0.0036492731276536,0.9998425420312628,0.2509795465500673,-0.3121152261031799,10.66897832730146,-0.1155552347239174,0.0208346395339208,1.087373626575377,0.2107933106997288,1.4663525233803183,0.5000065533055114,1177.3254777793047,1195.452809360881,1176.3643352959928,1200.4026304658971,957.8191858666733,1149.1037367572962,-784.343780922699,77.07233295841425,163.54994211038192
0.1675,0.4758283385238292,-0.486119013427463,0.8487240396441104,0.0478786471147138,0.0750221927574058,0.0340947248283468,-0.0018165167398794,0.0172074518022255,0.0037760130064613,0.9998430909862444,0.2324740403272055,-0.2954952809698362,10.699701281386705,-0.114011102112027,0.0201791183692699,1.0893928078148403,0.2106183327924071,1.4663985470907028,0.5027197658761564,1179.5506944347808,1198.0073841530048,1174.633599879588,1200.6515104966045,870.5190631124416,956.4045527009504,-627.6443297509553,129.43880562065704,163.54749250165966
0.17,0.1449194960432793,-0.5024485005671294,0.8261858515606328,0.0488043986566968,0.0730805723795226,0.0368864769964563,-0.0016636369528958,0.0171379665154671,0.0039249179009866,0.9998438186415528,0.212629961802729,-0.2755250911843287,10.731493161462817,-0.1125532723628102,0.0196645829999338,1.0915673289046364,0.2104515877989728,1.4664351336200294,0.5054308696956253,1181.6780730948667,1200.2348321243855,1173.226113647238,1201.0498244940004,807.4673953218728,813.654117476198,-476.9503961048026,179.49940616799705,163.54524291648156
0.1725,-0.1740355422870806,-0.4933868186392313,0.736323276777734,0.0488605227388746,0.0715705974570859,0.039783769506772,-0.0014977089850218,0.0170525026929804,0.0040935005789722,0.9998447229778116,0.1918779566506821,-0.2526344353365226,10.763854905495203,-0.1111934528776342,0.0192995111932489,1.0939056542425127,0.2102931026357539,1.466461888866826,0.508139533825311,1183.58803141139,1202.0756547403855,1172.248847899064,1201.5490075274445,685.1410343650508,625.9211319893433,-257.96201278808417,213.1189200445531,163.54316172108838
0.175,-0.4462861471872901,-0.4647910922852432,0.5721986241586506,0.0477541035502041,0.0706346668833385,0.0421183930599243,-0.0013248947334443,0.0169515548810429,0.004273034089214,0.9998458314230126,0.1706773484321332,-0.2273409476812107,10.796275703000024,-0.1099384013391311,0.0190825898430428,1.0964123503919447,0.2101424703884317,1.46647927579747,0.5108480500561741,1185.103778266692,1203.3644377843325,1171.9363035832976,1202.1154190942232,552.6266467833037,428.3861082382393,32.72903332972434,247.98010442459716,163.54128644198207
0.1774999999999999,-0.6805450926575205,-0.4225463507586305,0.3155578309792476,0.0451691140401733,0.0699892690619618,0.0434788435413729,-0.001156176106577,0.0168435948385746,0.0044526499080849,0.9998470387331276,0.1493168496447437,-0.2002992309182132,10.828246505218312,-0.1088076004080515,0.0189965431111339,1.0990853375487315,0.2099979126918664,1.4664912746753336,0.513560641526949,1186.3511646453067,1204.2175852815767,1172.4124930657126,1202.7889080495675,353.10759641206624,196.71018900749092,311.2042306263462,234.26335723279516,163.53927763255928
0.1799999999999999,-0.7786601882462355,-0.3861586220965496,0.076941205304361,0.0424458818783951,0.0696389984669968,0.0434684225357695,-0.0010028529045011,0.0167482676394869,0.0046198190619308,0.9998480549509378,0.1278289861740767,-0.1721924530476207,10.859274415439392,-0.1078399035180259,0.019017187728089,1.1019145312250036,0.2098542770749515,1.4665042491738791,0.516282006916915,1186.8693162487525,1204.34798872937,1173.4923247364293,1203.2867358803871,97.503672915036,-60.003466463285754,548.0101026832467,175.0536740911228,163.5378072688348
0.1824999999999999,-0.7669683906709274,-0.3452020034610111,-0.1613848788899983,0.0400904087660508,0.0692271340424161,0.0429592838670716,-0.0008642627516062,0.0166853083659589,0.0047692190265477,0.9998485663554992,0.1062146179955224,-0.1434567480476025,10.888896015483883,-0.1070688452919005,0.0191418726862846,1.104883855219676,0.2097054215429418,1.4665246413741753,0.5190170382468163,1186.8386830098818,1203.9175679492605,1175.1525435791289,1203.664176420023,-130.96165063589055,-298.86056432464983,814.9575494350748,129.6848803749525,163.5365509362242
0.1849999999999999,-0.6310060615488594,-0.2753627412343214,-0.4263104193782671,0.0380634723660785,0.068430680811855,0.0419747242016689,-0.0007315741928171,0.0166660184212,0.0049008928571894,0.9998483855927132,0.0846207433632771,-0.1143467226047234,10.91668532165488,-0.1065046073030365,0.0193816289621714,1.1079737647803063,0.2095471777926475,1.4665553555223239,0.5217693259195774,1186.214507995573,1202.8536859077467,1177.5671124836047,1203.935160282262,-313.53853428468,-460.4175821467375,911.0876440776784,64.29131945710645,163.53529364404307
0.1875,-0.4231057867726874,-0.1847684861631994,-0.6178827461415102,0.0367341792414929,0.0674448416649779,0.0405786049395833,-0.0005955707236327,0.0166922009300292,0.0050174351394665,0.9998474757985236,0.0633588737107368,-0.0850908985044463,10.942262530124076,-0.1061330229852857,0.0197449285735993,1.111162825522223,0.2093773755831702,1.4665961114210206,0.5245404254451468,1185.2709903384584,1201.6154800385268,1179.7079817995173,1203.9856330173086,-443.5955614021164,-535.8775234811669,828.2817300227172,-21.778314779839985,163.5344564976743
0.19,-0.1255760533143189,-0.0453974253806678,-0.7675952867808747,0.0352811691137827,0.0662564827449001,0.0385507219349664,-0.000446934738964,0.0167604347448403,0.0051223532445223,0.99984588831978,0.0428081273528795,-0.0558877714812181,10.965303458364707,-0.1059267087123492,0.0202384206292506,1.1144282753075672,0.2091973084322879,1.4666470912995344,0.5273310807027636,1183.9965301885625,1200.1742982903409,1181.7085211337182,1203.8262687083627,-545.0450821494081,-580.3063998362171,741.7153870678242,-102.74244475076549,163.53384046501495
0.1925,0.235065723063083,0.1375807805186285,-0.8771307082272602,0.034098233017377,0.0652577311772526,0.0362989293930182,-0.0002820462348654,0.0168602166781996,0.0052170289650093,0.9998438022966726,0.0234525696937827,-0.0270261487165629,10.985546335995748,-0.1058428050705284,0.0208549908850416,1.1177483014519984,0.2090091989245292,1.4667074509526277,0.5301402478849627,1182.5457649277112,1198.7139480393455,1183.4165587348564,1203.4719207935548,-596.5582147020535,-548.8326155420959,585.1041052359955,-191.8932401593336,163.5334098685966
0.195,0.6425407902713661,0.3617555661509196,-0.9364198397420846,0.0342682317081567,0.0652792966524868,0.0340186925204991,-0.0001119885616399,0.0169812644630518,0.0053005115922405,0.9998413961953948,0.0057179185923294,0.0009202678372251,11.002796550248249,-0.1058408397646512,0.0215548599870105,1.1211025135998438,0.2088171059420096,1.4667741059871546,0.5329646488836078,1181.0137391150522,1197.4301352126304,1184.6340416598982,1202.866802507566,-658.6608064477326,-476.93781314233047,412.1682990858968,-321.41489546083875,163.5332056449306
0.1975,1.1268891657484739,0.6477630204774592,-0.950698189688046,0.0368830440203584,0.0669836032631283,0.0313629360378317,4.335800533493607e-05,0.0171142092419596,0.0053715097956886,0.99983883205773,-0.0100439981786616,0.0272227458751284,11.016929677192712,-0.105885215711811,0.0222798548221926,1.1244729247252108,0.2086270591592241,1.4668429425758216,0.5357991323790386,1179.2524608954727,1196.329258973634,1185.4774002302859,1201.8648463162504,-609.511508611285,-307.0673256996085,218.02176612563903,-404.49344711869304,163.53322616942012
0.2,1.4777213484159908,0.8753719803904287,-0.9163937394388348,0.0411511486665498,0.0694043869256871,0.0291922335817056,0.0001710485071137,0.0172524437963016,0.0054266968968469,0.9998362365086044,-0.0235932125105979,0.0513455993967781,11.02788776416135,-0.1059495975280471,0.0229889294795901,1.1278435973963004,0.2084429598976255,1.466910675728563,0.5386409446376605,1177.9661815719955,1195.8947985841323,1185.7241504905264,1200.8443352719723,-451.9193062296832,-66.36992705120969,36.33750857657102,-429.87488149233246,163.53346766526786
0.2025,1.7260557023484315,1.0694409649671508,-0.8344674266847695,0.0468319767655067,0.0723646732854597,0.0268621012444163,0.0002647621853007,0.0173872223408122,0.0054640022546713,0.9998337676989631,-0.0346907213063592,0.0729396098652359,11.035673541126725,-0.1060053481194722,0.0236581878472564,1.1312017462937942,0.2082659107775371,1.46697530904061,0.5414885652496418,1176.9928643643243,1195.997409338378,1185.6590877731687,1199.715471908789,-331.59787777317405,150.5855565727414,-51.856110915196,-500.37209066549576,163.53394600481883
0.205,1.8821057134391748,1.2506400723764957,-0.6834571534397342,0.0538410525196605,0.0760495020387365,0.0237932906167845,0.0003239315776327,0.017511577869694,0.0054849514350806,0.9998315330530888,-0.0431804913241189,0.09182300435932,11.04034195889999,-0.1060294078513226,0.0242791327614587,1.1345366483828851,0.2080955324791379,1.467036172424911,0.5443413250556965,1176.30819218313,1196.647726366996,1185.4648699359504,1198.342474818645,-156.93469632587934,299.84479381587306,-56.863912626476974,-492.781357364674,163.53479871889087
0.2075,1.9003963128498,1.3556150880356574,-0.5223888102359435,0.0591954474427861,0.078957498598071,0.0213131552593329,0.0003550687634754,0.0176252629056685,0.0054952589689181,0.9998294955206388,-0.0490938160887093,0.1080100578596766,11.041990119216996,-0.1060146341637863,0.0248613626037371,1.1378380763724443,0.2079298557167834,1.46709347736098,0.5472000443562015,1176.208190882695,1197.4966333074572,1185.3747682100363,1197.2515651219655,65.46033093241051,367.3394200170168,6.908339472602197,-411.1382852340304,163.53574518412236
0.2099999999999999,1.8302425057275145,1.4101499690955412,-0.3499237607374716,0.0639472346687404,0.08209985272369,0.0197203519284,0.0003740794505921,0.0177321421700744,0.0055003827102346,0.9998275406747638,-0.0525880861924671,0.1217599353413543,11.040748876793833,-0.1059635126258619,0.0254365586428108,1.1410962931055892,0.2077669148700473,1.4671486780922862,0.5500657800441383,1176.635493837792,1198.4844234670811,1185.4994116333135,1196.2867833924747,254.32515512461697,395.76165294524975,92.84934111005937,-354.1201138059949,163.536940179721
0.2124999999999999,1.714823713904818,1.4184239370135447,-0.1972002070761155,0.0680216875599001,0.085658301649602,0.0193849364823569,0.0004022233394304,0.01784154093132,0.0055068866435043,0.9998254472398626,-0.0539723571515265,0.1334841527008314,11.036775773183715,-0.1058909426214632,0.0260491574599424,1.144301653552949,0.2076037212451937,1.4672040151342143,0.5529391620857087,1177.479816658318,1199.4754415721836,1185.8390149155866,1195.4809645529356,417.56066095463166,382.6793833407461,177.7770521675846,-268.4747485219302,163.53834330556683
0.2149999999999999,1.5794401769705768,1.3655039928299975,-0.1052420303700269,0.0711692696993548,0.0893228639679619,0.0202835662016549,0.0004630299439012,0.0179621592820491,0.0055207132470105,0.9998230053147416,-0.0535691708308901,0.1436741253546387,11.030251200888067,-0.1058105297683152,0.0267487107240095,1.147445898028838,0.2074379603357435,1.467263293884135,0.5558217038057428,1178.7232971425651,1200.3978203837848,1186.3882968941512,1194.9444096498653,592.1124207419774,389.76854124775826,255.389349488132,-152.38053810735423,163.539998938485
0.2174999999999999,1.428119857584763,1.2294247825159659,-0.0960943895573603,0.074087479638281,0.0934504203136328,0.0218167951293485,0.0005672129813888,0.0181005222079743,0.0055414483015352,0.9998200766303328,-0.0516796973509716,0.1525652016098034,11.021378062216952,-0.1057318620447357,0.0275542773633323,1.150523274968807,0.2072687586433312,1.4673285386209156,0.5587125430680004,1180.4403787620279,1201.4242842784224,1187.1159616630273,1194.7190618623988,621.313949808154,373.6898791110885,241.62842488203728,0.3572682532194445,163.54227839892656
0.22,1.3223007491002456,1.0588323064332164,-0.1758507394950657,0.0762190007090326,0.0964370595270923,0.0229904339334799,0.0007076037367689,0.0182587334118399,0.0055657727059738,0.999816619191186,-0.0485296646832698,0.1600226725347479,11.010379422643298,-0.1056557808718728,0.0284433768643436,1.1535314440209035,0.2070971815296301,1.4673991773318713,0.5616100707241097,1181.829866891606,1202.2662697793403,1187.5964390185616,1194.9461959911312,487.6453972999566,352.7725688181814,118.5170505599216,184.9767701254676,163.5444215693183
0.2225,1.2307963276154559,0.8373608297947593,-0.324569751343816,0.0786772303928955,0.0986433341892304,0.0236303803741317,0.0008672830831036,0.018428878375774,0.0055878559092696,0.9998127929595648,-0.0441409736688815,0.1657197512799789,10.997492088580112,-0.105561792840185,0.0293709050900775,1.1564722836409127,0.2069255977128472,1.4674728828816244,0.564513322123326,1182.8786057485277,1203.188147122513,1187.708546915827,1195.643945713026,320.8784974110128,442.04176530333785,-81.52424498421162,410.75715140914286,163.54681622181585
0.225,1.1111957512830968,0.5244333624062931,-0.5283601952106409,0.0824319567024636,0.1003343758472584,0.0232124307733517,0.001022862438631,0.0185984280587192,0.0056020593726427,0.999808852638504,-0.0384458886393075,0.1692096419096514,10.982957782374402,-0.1054204845440663,0.0302774205147285,1.1593504300875577,0.2067579173844325,1.4675460228173884,0.5674213194150559,1183.4342593786607,1204.4764786058568,1187.1888177936405,1196.999981748177,55.422969932214926,506.1807568848049,-317.9187019591606,568.6850077601316,163.5499776132964
0.2275,0.9823730733123494,0.2308514036262392,-0.6658671704832307,0.0858333899876616,0.1010569148308019,0.0212735730092301,0.0011616505559477,0.0187578463976161,0.0056085053462232,0.9998049672275136,-0.0314461964954888,0.1703016583783767,10.967008475118607,-0.1052104212398534,0.0311299573298735,1.1621703468974123,0.2065970676960744,1.4676163668817659,0.570333886072341,1183.1557205981887,1205.7190509069371,1186.118953406031,1198.4873707518268,-277.86982260627127,521.0511891179062,-558.1448162390184,637.3826472763534,163.55284897867787
0.23,0.8086149946675021,-0.0929082186912442,-0.7050377562587997,0.0887340037899412,0.1011758257079583,0.0174018305792251,0.0012822581604661,0.0189005133179854,0.0056067230108679,0.9998012673009492,-0.0232095803120456,0.1690717579280408,10.949861076937976,-0.1049178293877616,0.0319222584377109,1.1649358077814806,0.2064440864540757,1.4676843188834703,0.5732506588562641,1182.0449102656296,1207.0817345514463,1184.3980937124454,1200.1868949845589,-570.2571281470678,547.6861295673184,-777.2932510386902,683.0341205883082,163.55596204030627
0.2325,0.5971755965398557,-0.4404719330290263,-0.6304911819168615,0.0909192020760612,0.1007815143096999,0.0127708827307567,0.0013840381749781,0.0190286436059071,0.0055961837211302,0.9997977547003498,-0.0139966224264314,0.1656286762363329,10.931716785482358,-0.1045497851249583,0.032649974518214,1.1676488536814953,0.206298066097493,1.467749789170498,0.5761725032030695,1180.3044349574532,1208.457481554774,1182.2324871508376,1201.9025413547683,-807.1304551229781,529.1216129226991,-934.755879247995,648.1311827384155,163.55927220229844
0.235,0.3493758990146752,-0.8138665088022334,-0.4197498671087865,0.0920688769689343,0.0996161709013317,0.0090978461648881,0.0014703874090691,0.0191490591954263,0.0055759037455036,0.999794394311685,-0.0041639845216074,0.1601838502778575,10.912759209353815,-0.1041236954493763,0.0333177345727942,1.1703101671094447,0.2061567448158676,1.467814660012537,0.579100206224368,1178.0092579900147,1209.72734261606,1179.7243143162054,1203.4275508982507,-1056.7730048499006,508.9028384392345,-1123.1340856573288,578.5415113748053,163.56281580891334
0.2375,0.0262229358512625,-1.2822574921292011,-0.063527448653788,0.0922570986593746,0.0970384831365656,0.0074466509405874,0.001544461158532,0.0192652338258384,0.0055508350714457,0.9997912433934816,0.006013532632639,0.1529535301805292,10.893156685666758,-0.1036478168082827,0.0339297181648486,1.1729208348354163,0.2060169581460526,1.4678817851763375,0.582034882603607,1175.020569933204,1211.00199574697,1176.6168167225508,1204.7952489116424,-1062.7763829991686,416.0388551035813,-1112.5364187908924,399.163024329484,163.56733227081014
0.2399999999999999,-0.2546184178662156,-1.6773735948296196,0.2571317440853182,0.0916609213772042,0.0937693340034522,0.0085698690683766,0.001593879317008,0.0193753493771901,0.0055207372249878,0.9997885740908852,0.0163806219420551,0.143826957864253,10.873066570975263,-0.1031173184573296,0.0344517011077092,1.1754837360698331,0.2058772403584376,1.4679511458394903,0.5849769328370451,1172.6953760750189,1211.807536891578,1174.161632222251,1205.4233660198984,-810.7356871372341,267.71318237943103,-911.600048835912,132.08594605685056,163.57131169146083
0.2424999999999999,-0.541252200737378,-2.0580475205541,0.5296316450784053,0.0904412440317375,0.0893758814286492,0.011484714911546,0.0016117032233462,0.0194798522779614,0.0054863746923582,0.9997865673785375,0.0267428378501093,0.1328233556610607,10.852625096856887,-0.1025314629896939,0.0348614119215478,1.1780006846020652,0.2057358165232323,1.468022162171756,0.5879265669090137,1170.9668914975175,1212.3405616588673,1172.0588164783715,1205.4556786419266,-549.9174748698802,176.95538598359215,-812.8835239554967,-113.74661617760457,163.57550947465177
0.2449999999999999,-0.8911611340868363,-2.4719817237880304,0.7468829796076981,0.0881810838135125,0.0828462870752525,0.0154617312039306,0.0015952438269429,0.019580682105732,0.0054438765108323,0.9997849658381666,0.0368836941488208,0.1200649913558623,10.831948347066287,-0.1018927267226462,0.0351451325899858,1.1804727741621175,0.2055909911598464,1.4680969559827304,0.5908836988836484,1169.9457887006695,1212.6923138214959,1170.0972146024735,1204.8546329390103,-176.6887057654456,83.31729714150235,-616.8354456470291,-304.41036753363704,163.58079248260276
0.2474999999999999,-1.1901381627664247,-2.7613579504734544,0.8235115512561987,0.0855510190206807,0.0764993667064511,0.0184527272420172,0.0015488862329194,0.019682802270107,0.0053932765799935,0.9997833818755832,0.0465370357299298,0.1058332842408547,10.811132398677673,-0.1012105923915212,0.0353062236550961,1.18290001771647,0.2054420176460179,1.4681787757287084,0.593847313868032,1170.0834479686905,1212.7571481445748,1168.9746392501363,1203.9336268042584,243.37585476773688,-26.74609367695664,-346.1643758741499,-415.87190901159346,163.58539453751666
0.25,-1.5026262527125782,-2.9705223248479475,0.8008155405157147,0.0822605303370832,0.0694605804686877,0.0208869178977825,0.0014836054305854,0.0197948360558947,0.0053342624740789,0.9997814568557528,0.0553751382076989,0.0905553155712341,10.790255400285035,-0.1005043744883676,0.0353641923901335,1.185281359713716,0.2052867913382321,1.4682699556546128,0.5968180192418425,1171.162667974508,1212.558583353111,1168.3663927231028,1202.7752733939524,545.5302919999208,-134.56011116759316,-167.28239675189783,-469.9851126041718,163.5901974423001
0.2525,-1.8321871614049092,-3.097960487974978,0.7131764327795164,0.0786756649374685,0.0617205106125017,0.0228901445391382,0.0014119324408817,0.0199194926781688,0.0052710337016568,0.9997790289639706,0.063218867649303,0.0746879527468097,10.769381711528156,-0.0997814941642183,0.0353446261716508,1.1876170791463516,0.2051255657247152,1.4683701641625295,0.5997967273620339,1172.81109942869,1212.0843475887368,1168.1382272663768,1201.5837012412376,721.1028472420359,-276.6746909113406,-13.01722259991037,-451.51851878326806,163.5951622557795
0.255,-2.1866083752194934,-3.113655036451236,0.5734637765276,0.0750894116333375,0.0530716176291631,0.0244444230772803,0.0013440243625381,0.0200463028322226,0.0052142217916746,0.9997762723791228,0.0701948454106366,0.0586274200289612,10.748564063626741,-0.099021264935142,0.0352712981920022,1.1899106713495975,0.2049621839605349,1.4684759996373955,0.6027828927866805,1174.7681822107184,1211.1752098985544,1168.3013066101032,1200.517680800036,824.3305257143667,-527.8720369508842,147.9528767373266,-416.02700325797696,163.60031674304548
0.2575,-2.628867558529048,-3.0038203154664087,0.3811273774886336,0.0706946677456004,0.0425703039595417,0.0257625413296151,0.0012883747385975,0.020156965011853,0.005174599911421,0.99977363594556,0.0766193233914213,0.0427237316714841,10.727843493395138,-0.0981887350541849,0.0351678902193672,1.1921678632278383,0.2048046881954323,1.468581773226942,0.6057739359944971,1176.932752057262,1209.4449874039824,1168.8779916500634,1199.5035662249477,690.7870685692609,-755.5910896835933,267.8297033224678,-327.2067719855383,163.60671425934987
0.26,-2.978867685841683,-2.824242212415284,0.2260311121682903,0.0660099214583774,0.0348680319590427,0.0261669628965577,0.001254907835408,0.0202328549630244,0.0051612999911435,0.9997717087033248,0.0828381042954896,0.0273451294776734,10.707250002074575,-0.0972526294089837,0.0350655282441319,1.1943948956753137,0.2046629857372638,1.4686813568144503,0.6087667925485623,1178.2221175535647,1207.3972544501364,1169.6404551267156,1198.8816469401083,347.6339262970211,-950.1061616303552,356.518254513048,-221.53203738685056,163.61221709755995
0.2625,-3.236225464235485,-2.5940489654183985,0.1036823226448731,0.0582802674085046,0.0291423081024198,0.0257672200332997,0.0012479581861642,0.0202629469749267,0.0051767309377205,0.999771009626193,0.089057133271973,0.0127277109162602,10.686805412014488,-0.0962035401887148,0.0349848540240425,1.196597140924243,0.2045433149290078,1.4687706624656656,0.6117583979862515,1178.670921688747,1204.6944565958306,1170.6605829226287,1198.3959060380134,-20.948516828048,-1325.8308936789024,497.30220927340224,-221.66776597450715,163.61789181381477
0.265,-3.3351452108941264,-2.3060355300734026,0.0144339471621571,0.0453800139784772,0.0240304884401847,0.0248508069495518,0.0012654785204184,0.020241304050167,0.0052195057764334,0.9997717405825663,0.0953971873554597,-0.0010434161493679,10.666525766411263,-0.0950455157133034,0.0349331960294773,1.1987789884737348,0.2044466188578768,1.4688474021203473,0.6147467299484176,1178.1173749694244,1200.768099981742,1172.1269661730823,1197.7733081102358,-368.2329144823594,-1525.5246115221767,565.8105155692278,-266.6360499773871,163.62489293424386
0.2675,-3.1902065154416994,-2.073467180159347,-0.0095865120301955,0.0338527578550235,0.0202810942595181,0.0241982569238073,0.0013057453797254,0.0201748125489746,0.0052847003937436,0.9997738007845416,0.1017277947839842,-0.0138895384814615,10.646423805653615,-0.0938116766340442,0.0349189991450809,1.200940977968959,0.2043700213075128,1.4689112959705495,0.6177343687931103,1176.8297571163353,1197.0668335382195,1173.4896355004748,1197.0627257881265,-633.6369045558962,-1514.7509861825242,554.9963218893022,-353.67701830577937,163.6308814379821
0.27,-2.802562259767272,-1.8425786994549789,0.0082769092039652,0.0240844356015541,0.01622671985839,0.0238895443208446,0.0013606366336015,0.0200768133895738,0.0053614066834812,0.9997767267040896,0.1077987170222984,-0.0258792774404442,10.626513219440888,-0.0925466085456063,0.0349333604804009,1.203080659694644,0.2043063608665339,1.4689645657472896,0.6207251652124325,1174.9491904466447,1193.1943450508293,1174.901947782529,1196.004923018707,-797.159907728473,-1523.650265521472,556.6725411810689,-489.94129464563184,163.63702381323907
0.2725,-2.2493385764865184,-1.594388549037829,0.0467452773351589,0.0165214192031067,0.0116478447061218,0.0239398487822329,0.0014178954501837,0.0199714183769217,0.0054353822712032,0.9997798617835812,0.1131424499756109,-0.0371766349175204,10.606812045681457,-0.0913146456179587,0.0349541004588738,1.2051912233936188,0.2042455271616076,1.4690115106784767,0.6237230023705431,1172.843957577693,1189.4485822106124,1176.27299820638,1194.6130193148983,-831.142977075023,-1397.52393400281,517.9978405340075,-628.160981076598,163.64328934842752
0.275,-1.57088619125145,-1.3015818060861744,0.0905911513959561,0.0118693525268733,0.0066408469925958,0.0244283664986298,0.001479528096656,0.0198788707942383,0.0055012505441489,0.999782631949322,0.1173786850455275,-0.0476534972571806,10.587346304866376,-0.0901628878190766,0.034990364278609,1.207263035574778,0.2041796233675015,1.4690565768380843,0.6267314996888901,1170.7934755612698,1186.2067253808152,1177.4919369851991,1192.864118113324,-822.8717563257753,-1230.042648492098,476.489817384208,-815.6741284240518,163.64969829018747
0.2775,-0.7217477052923941,-0.889237273824734,0.1278536221480648,0.0097670108091445,0.0014469520316709,0.0253298215124347,0.0015452734261527,0.019807037967703,0.0055535985316157,0.9997847775998544,0.1203822797807049,-0.0572338474735982,10.568152070171887,-0.0891018944620725,0.0350408933307593,1.2092867462545116,0.2041045006623361,1.4691029743054895,0.6297522518655166,1168.729598796064,1183.2983689681519,1178.6554472933012,1190.534648672778,-662.0894986582692,-863.4469855860962,362.13106501968434,-853.9750338046806,163.6575485118982
0.28,-0.0589222374659459,-0.5114442479930915,0.1361847646113779,0.0107843895860633,-0.0011145049519996,0.0261867587201905,0.0016117422531584,0.019758898655424,0.0055926454024947,0.9997861596910148,0.1221141467254102,-0.0659080311027222,10.54927615909607,-0.0881246704079056,0.035092699452167,1.2112527707724428,0.2040187667392596,1.4691537587101076,0.6327848845291103,1167.4830280679785,1181.8894904528847,1179.3025923102975,1188.5942429443005,-391.16520892184747,-338.4680254778684,181.28390206256864,-727.1259704176366,163.6642188699991
0.2825,0.4949577513865942,-0.1398110093980957,0.1178846336459551,0.013619022511895,-0.0016535188243624,0.0270154819942341,0.0016799224454442,0.0197354681333342,0.0056194097179245,0.999786702689424,0.1225539335877486,-0.0735670458521386,10.530776459593786,-0.0872157715141002,0.0351391178594835,1.2131512128676627,0.2039230692403259,1.469212124550953,0.6358288618789126,1166.7737727514548,1181.6060288407623,1179.561866803614,1186.89901882069,-199.3485169805352,107.64765202811748,21.1590391114896,-645.7900685883482,163.67101756132993
0.285,1.0066064058624324,0.2436814777095582,0.0730060723937346,0.0174588029052526,-0.0006308421404839,0.027691730184787,0.001749769533461,0.0197328147802982,0.0056353546008516,0.9997864538158556,0.1217588520696367,-0.0801140446662479,10.512719796834464,-0.0863460864869771,0.0351676289001036,1.2149737299248335,0.2038182215295763,1.46927994412251,0.6388841903056571,1166.4862854830756,1182.427728713025,1179.4083875058548,1185.3652926013588,-26.792706802370933,448.6190716575489,-132.27221813203855,-465.54498614855174,163.6793187085891
0.2875,1.311533962350282,0.4772440324197171,0.0283969638507268,0.0204071310161754,0.0012152473433436,0.0278123150607879,0.001819695482984,0.01974724899333,0.0056424601984788,0.9997854750900638,0.1197540815795658,-0.0854731192218602,10.495178759257866,-0.0854872583858569,0.0351600510330087,1.216713600565492,0.2037047031886576,1.46935858730802,0.6419491870764273,1166.6398092174427,1183.8491241990503,1178.9005057129539,1184.5712938899471,121.29106881934727,645.7237968033562,-279.0656664583849,-228.67258328547229,163.6863512826236
0.2899999999999999,1.5108421659856948,0.5956738048716088,-0.0067622607113296,0.0230741247035562,0.0036991952849481,0.0275236410230743,0.0018870941567321,0.0197849438469833,0.0056402430164812,0.9997836668041368,0.1163354148835227,-0.0895768713697441,10.478227337821648,-0.084637119511985,0.0350952180422063,1.2183648953276107,0.2035818651663573,1.4694489408435987,0.6450210944250563,1167.0927408271723,1185.656347697042,1178.013059173563,1184.2219296849314,211.64360235184392,724.7554270740768,-416.4254568029306,-94.44233188810455,163.6934987424972
0.2924999999999999,1.6350308087207908,0.613001475490508,-0.0232149315032984,0.0258158296107118,0.0062976565695642,0.0270374754305732,0.0019477482378856,0.0198492281990791,0.0056298873892725,0.9997810067853165,0.1113429755523623,-0.0923861748300538,10.461934196832988,-0.0837903671872829,0.0349496969622156,1.219925302704278,0.2034496640225276,1.4695507848357303,0.6480988769853717,1167.698027229202,1187.4729013344206,1176.8183784289392,1184.0990822305066,249.97271294532743,661.0791312148189,-552.410578578701,-45.00517863611999,163.700738512724
0.2949999999999999,1.6703507291649526,0.5192157586854844,-0.0097856195690236,0.029298358672226,0.0082048240883391,0.026491222420134,0.0019979086154869,0.0199299887764231,0.0056140631172384,0.9997777677369528,0.1048919323419636,-0.0938543948583973,10.446356122554027,-0.0829143943449614,0.034704580457622,1.221398033233253,0.2033113077391645,1.4696635016331192,0.6511818925136533,1168.3426043918992,1188.961743353116,1175.2510062806696,1183.9969037917508,248.2572297324621,516.882308707954,-778.2932407786113,-108.76375436005208,163.7080864430361
0.2974999999999999,1.5978898395391623,0.3079513765417442,0.0408211677837465,0.0346408104696877,0.0090866015645838,0.0260241399397193,0.0020395608558948,0.0200091709694645,0.0055979732838315,0.99977441684269,0.0972677219758199,-0.0938263825389032,10.431532719055712,-0.0819639618353378,0.0343604213975492,1.2227906223250926,0.2031722261136968,1.4697842497113063,0.6542686319785583,1168.9393133778644,1190.0573128779604,1172.926912225046,1183.5552634587063,154.9390283162664,265.1549117973898,-926.2461641038035,-254.99312511865327,163.7170254309355
0.2999999999999999,1.4332108750227388,0.0730788803691815,0.1050778607625508,0.039463191258259,0.0090411938945522,0.025892090567426,0.0020801875328856,0.020065190760326,0.005593740282255,0.9997715303137656,0.0888451676843237,-0.0920559888621819,10.417480388873404,-0.0808925717396925,0.0339388165525454,1.2241142048613665,0.2030401602692757,1.4699073334044637,0.6573554250587732,1169.1172995334805,1190.287517912103,1170.6197754601503,1182.7219381661575,-31.2123342032464,-46.79762973860302,-993.517031433611,-453.10604518554067,163.72457354450177
0.3024999999999999,1.164422521734968,-0.2019207021793152,0.1782661345344603,0.0437691712583133,0.0088019785885994,0.026115509570271,0.0021294198972998,0.0200814207783804,0.0056129223727638,0.9997696950167178,0.0799257214621929,-0.0882834433407266,10.404185885388152,-0.0796737321617007,0.0334743492072759,1.225382048463718,0.2029230863541844,1.470023800814408,0.6604381992295139,1168.7832517068482,1189.8233247292671,1167.959327067878,1181.2897332327786,-290.99556284641005,-334.0715587135034,-1233.0605840038504,-759.2231123802313,163.73222203079916
0.3049999999999999,0.751620270520527,-0.5602571020640378,0.2557314548870909,0.0477257406309082,0.0083699562512054,0.0268878655180303,0.0021934957952344,0.0200555738504688,0.005658966572424,0.9997692811419971,0.0705558355825897,-0.0823580370616678,10.391599630941496,-0.0783233885849398,0.0330001393002457,1.2266077344327704,0.2028264301195608,1.4701273605029264,0.6635157962039582,1167.6623217192484,1188.6171601185356,1164.4544725401313,1178.9258226042564,-533.9024776237234,-517.780928537331,-1314.1896006012291,-946.5996911227184,163.74151395657958
0.3074999999999999,0.3702102968781522,-0.8658783632274178,0.2965762768431817,0.0493854971302808,0.0074295719586361,0.027884484239737,0.0022723927513337,0.0199916897687433,0.0057310155750897,0.9997702652911749,0.0607031747463817,-0.0743098913717398,10.379631354620447,-0.0768780005485381,0.0325398824594889,1.2278056918497355,0.2027516547779249,1.4702137742086003,0.6665879610570377,1166.1137393187296,1187.2344200865807,1161.388379064872,1176.556734777165,-729.6082031316921,-590.2936038221918,-1220.4060169424326,-982.3919515580192,163.7493506117864
0.3099999999999999,0.0057605570826691,-1.148160572566688,0.298737630818068,0.0490869944883293,0.0051206164910446,0.028980268091882,0.0023603625844807,0.0199042246813912,0.0058194112225659,0.999772410024126,0.0501787183842145,-0.0643440911534983,10.36814809908464,-0.0754021491887787,0.0321066809885319,1.2289894608257288,0.2026971334542989,1.4702805614869643,0.6696544389995304,1164.01428070359,1185.6656920994246,1158.3524424554191,1174.0138628464663,-904.0766563048227,-631.5637453442827,-1179.803580293218,-1006.5956096016624,163.7572830047557
0.3125,-0.3050270368724305,-1.382369502775733,0.2628216378362509,0.0474381335204446,0.0016034659275941,0.0300080661405515,0.002440975881276,0.0198085607599783,0.0059081953021602,0.9997751988604284,0.0388343420251467,-0.0529498222142058,10.356975292757166,-0.0739624595428466,0.0316884509829611,1.230172373036536,0.202659377878267,1.470328423788677,0.6727154452161634,1161.5933560372055,1184.0766013598593,1155.4893611634059,1171.5237567291567,-1001.7910218223724,-617.5840553773008,-1072.631328075794,-940.8210223874896,163.76529436198007
0.315,-0.5188047409446032,-1.5268125068074336,0.1793459117239116,0.0446936987553021,-0.0030492742523628,0.0308950737837827,0.0025079125116092,0.0197121854705235,0.0059873348010153,0.9997782215970014,0.026743801402005,-0.0404748252953081,10.345902829560455,-0.0726024494816664,0.0312974677683133,1.2313663715113383,0.202634864722567,1.4703605600961955,0.6757730995612248,1159.005325594478,1182.577771822538,1152.98928581504,1169.3097577345288,-1117.7932021184452,-623.5044597828613,-991.3914476409436,-870.900516808387,163.77340098105535
0.3175,-0.6520432870946031,-1.5725164663254907,0.0290912552570538,0.041250576408296,-0.0091645864086132,0.0317124130495004,0.0025664120735995,0.0196225455336535,0.0060562819296765,0.9997811001249204,0.0140343658790031,-0.0270923410882521,10.334688452559435,-0.0713597532899902,0.0309719557781719,1.2325797199260775,0.2026189489638266,1.4703813999159727,0.6788301003846424,1156.0043900266132,1180.9590790609448,1150.5324039252012,1167.1692541451148,-1046.8243208159483,-563.7209668045211,-805.8749947769678,-685.0181288273228,163.78323977538653
0.32,-0.6749509591190441,-1.504828013114598,-0.1286804022204887,0.0392272315138514,-0.013883767679142,0.0320203524780067,0.0026218318004478,0.0195490483963661,0.0061169809021056,0.9997834974877686,0.0008369331473899,-0.01302845028383,10.323062619996936,-0.0702704489960395,0.0307453354202653,1.2338167453095754,0.2026059850263361,1.4703967088008363,0.6818896883701635,1153.7712039903984,1179.7591669885155,1148.9599108411553,1165.8846670903922,-812.9036686697866,-462.39984600206253,-539.4429218350065,-413.9668033585618,163.79153212326904
0.3225,-0.6397544958592722,-1.348317540074829,-0.3023336401801708,0.0383831373128286,-0.0175003600277633,0.0316413259425754,0.0026745928646887,0.019494587470231,0.0061706556743248,0.99978529217304,-0.0125499849484765,0.0013438299025442,10.310738172798896,-0.0693479471435493,0.030632168063787,1.2350790356988819,0.2025909064011021,1.4704130341665709,0.6849551042485784,1151.9398716832643,1178.6470798309347,1147.835189316026,1165.099420128322,-710.4463755982117,-496.65935001630663,-413.6644372993029,-258.8611348821812,163.79992303162393
0.325,-0.5659411573966047,-1.0951919065428375,-0.5023915858302561,0.0376642048559971,-0.0206142881203818,0.0303921571206947,0.0027207592742764,0.0194617352650135,0.0062204066353584,0.999786417396104,-0.0258007576149455,0.0155299185907593,10.297419016211794,-0.0685983740030834,0.0306296253902292,1.236364615801854,0.202570472088191,1.470434698886214,0.6880274298746653,1150.2189721124073,1177.275870238434,1146.8915886546588,1164.5903614159813,-563.8905837184661,-530.110637017287,-297.7929751190456,-147.68846983533862,163.8101085769794
0.3275,-0.4926758053430391,-0.856114245781522,-0.6421811352400911,0.0364856467062772,-0.0225069746283878,0.0288009652917572,0.0027587017747201,0.019448115196012,0.0062703598575676,0.9997869208534148,-0.0384791083567226,0.0290651162638369,10.282810434379268,-0.0680099325770275,0.030734331160577,1.237668619792386,0.2025427093278799,1.4704638099692733,0.6911078704475352,1149.120418764672,1175.9965266458482,1146.346224440431,1164.3609777791453,-393.048368811105,-555.178215897558,-190.3959484592177,-97.36667841789304,163.8186957426536
0.33,-0.4162752770491169,-0.61217470617093,-0.7328803976948197,0.0349360972227332,-0.024000185579342,0.0267347703200982,0.0027889713581175,0.0194467448532617,0.0063233443498755,0.999786958951059,-0.0500584725680507,0.0415266984317347,10.26662818163648,-0.0675550720765207,0.0309428891857863,1.2389838617800053,0.2025060912642156,1.4705007078899683,0.694197881352855,1148.2537302683515,1174.499979158946,1145.9396089123627,1164.1035280238918,-326.0662585752013,-631.6219059828194,-153.1807516681964,-140.41182601999924,163.8273885614262
0.3325,-0.34592911941148,-0.3776760154224629,-0.7710259471889965,0.0337286522638361,-0.0251742521688212,0.0244351654556527,0.0028147944483993,0.019450178013011,0.006377634252507,0.9997867249226507,-0.0600199636890401,0.0525587532448926,10.248605542392696,-0.0672023502529408,0.0312541035932908,1.2403010478158991,0.2024614258626949,1.4705442987244444,0.6972981596212963,1147.490087471796,1172.838417115934,1145.58032068209,1163.6589186490453,-297.24694782425985,-681.5240151505799,-142.85482747231967,-252.49540797353777,163.8361707215712
0.335,-0.2988021685224416,-0.168618867480052,-0.7384603128832335,0.0333132021684359,-0.0257129306330814,0.0220216668890554,0.0028368927195729,0.0194528154376783,0.0064293008462748,0.9997863967402087,-0.0679114131289126,0.0617790984819172,10.228500503723511,-0.0669236211408313,0.031657464424534,1.24160973646629,0.2024111273835048,1.4705921382917744,0.7004071301548968,1146.7674955292305,1171.0923590831933,1145.225334775001,1162.841050984024,-321.3867058889716,-742.7094458785625,-159.75605671842445,-462.6605798098804,163.8450622055917
0.3375,-0.2882182202606862,0.0359987230797838,-0.6192056384074781,0.03360756296459,-0.0254877202404984,0.0191362774893462,0.0028551663864953,0.0194505365271272,0.0064719550633125,0.9997861370885764,-0.0733487393289375,0.0688266691126327,10.206101982342224,-0.0666943740022591,0.0321380614530853,1.2428991656631607,0.2023579170897928,1.470643124039427,0.7035209742635351,1145.883153942351,1169.124869886541,1144.7815403984976,1161.3456157499959,-331.23167117410014,-666.5805077940144,-162.55001532381343,-627.4716974734923,163.85585973995242
0.34,-0.3224421135989514,0.1587374944025896,-0.4639916488127608,0.0340291718563872,-0.0247092994741182,0.0170841547306423,0.0028673591097523,0.0194427757428588,0.006504517520758,0.99978600343952,-0.0760648353720395,0.0733459268185171,10.181234696227476,-0.0664993204871278,0.0326744331135475,1.24415857705964,0.2023046628140583,1.4706971966209064,0.7066364787077167,1145.11133717336,1167.7594565442232,1144.412584698382,1159.7036924966567,-316.77001232969786,-462.0780138371625,-138.66215132470631,-711.2079275163971,163.86496461492584
0.3425,-0.3893625257168457,0.2283805850098618,-0.2765988480842014,0.0337397713121888,-0.023761594233138,0.0159025304046638,0.0028711451232446,0.0194261955673095,0.0065294853188314,0.9997860771301263,-0.0757861411230515,0.0750393541951881,10.153765516468132,-0.0663170595156744,0.0332438226876734,1.2453779663635256,0.2022536752005333,1.4707540578153675,0.7097522926381673,1144.2993038807026,1166.8144798173555,1144.0882296418742,1157.789576112414,-365.1374539141212,-314.4071205011639,-123.37114351953448,-857.982907354016,163.87418037274404
0.345,-0.4755436330405931,0.2573604982929439,-0.055395324613904,0.032208277317264,-0.0226901519590532,0.0158203209216625,0.0028686176662869,0.0193953387779239,0.0065481380425976,0.9997864699763254,-0.0722519597025564,0.0737670510490646,10.123606089156423,-0.0661217788407908,0.0338332392024924,1.2465473981819195,0.2022060949527331,1.4708131016033714,0.7128686639291739,1143.2856499037891,1166.1874209417172,1143.7957289807844,1155.4137779598866,-376.66832699424015,-162.10922213899707,-91.22910132450659,-848.5918307048897,163.88536645637592
0.3475,-0.5267735565520776,0.2464164470898685,0.0961738030870052,0.0303927124553335,-0.0218717585644963,0.0168270390776629,0.0028655991924153,0.0193444543269063,0.0065618778388511,0.9997872822588326,-0.0652565856707895,0.0695381054845525,10.090715399902223,-0.0658873493001426,0.0344381050542972,1.2476564044356104,0.2021632087530895,1.470874388793954,0.7159857567778247,1142.4159622457314,1166.0039337066603,1143.6320841352515,1153.5466169588894,-351.2508809969856,-41.05196756217989,-61.25429237704333,-688.2157188735613,163.89479280328908
0.35,-0.5336679961761661,0.2156944764683615,0.1893574485197227,0.0286130414234924,-0.0213258561327418,0.0183447856627914,0.0028652271604089,0.0192780947866272,0.0065730641500353,0.9997884071747772,-0.0548674200946331,0.0623860970834829,10.055100322416948,-0.0656132855063242,0.0350466286160039,1.2486926801162144,0.2021253184994219,1.4709386290836672,0.7191047082747489,1141.5293954988044,1165.9821611039065,1143.4894575188991,1151.9726993655188,-356.7296025286887,-17.52431664499472,-71.55885555398599,-564.0228471246304,163.9043253162015
0.3524999999999999,-0.4938519067124312,0.1824385308609458,0.2293199179929441,0.0269207066230635,-0.0210978736730074,0.0198618380991467,0.0028624095874235,0.0192059477020192,0.0065815344358012,0.9997896707695768,-0.0413220643622565,0.0522609714164898,10.016821121647636,-0.0653115738568497,0.0356256954357271,1.2496430003949908,0.2020910555159865,1.4710061985680287,0.7222269271332742,1140.632314233088,1165.9163121234355,1143.2742898574816,1150.7265027232663,-362.6797766070959,-79.71081291248163,-130.914308649018,-413.37232431861105,163.913943447443
0.3549999999999999,-0.393254663090043,0.1608272948799006,0.2159962682539386,0.0251842121884275,-0.0211955771695244,0.0210650768473337,0.0028557875125626,0.0191343902817566,0.0065881752105782,0.9997909412026438,-0.0248577536246741,0.0392703664514414,9.975993691694672,-0.0649845506447015,0.0361511403360076,1.25049354118191,0.2020596166484751,1.4710774745884543,0.7253523424203587,1139.7159966157687,1165.583607039344,1142.834885975654,1149.9058377439255,-413.5654219643126,-252.51048660493305,-277.7052886186991,-275.390367468435,163.92366110699828
0.3574999999999999,-0.2079972983909482,0.1594865751626181,0.1685524492869525,0.0232910673332934,-0.0214300228892333,0.021763236547611,0.0028471117615416,0.0190725265206705,0.0065968820263416,0.999792003622268,-0.005833936861945,0.0236648345466654,9.932788982524903,-0.0646393972675375,0.0366067954027565,1.2512292397580487,0.2020300023678421,1.4711526755996465,0.7284803315917363,1138.5644871232664,1164.6537596904109,1141.8857634143883,1149.349550885924,-438.24086882041195,-448.9431201703151,-433.2464610975872,-157.02856998368574,163.93543150668367
0.3599999999999999,-0.0149849112027436,0.1792365219427554,0.130416072599719,0.0223342393446781,-0.0214236778072589,0.0214478048589478,0.0028345798658974,0.019028341217131,0.0066066109579566,0.9997927051465584,0.0153434435360321,0.0057016973068762,9.887434750268115,-0.0642788749545488,0.0369674793959227,1.2518348892568452,0.2019996216187156,1.4712317061890468,0.731609905874336,1137.524792271667,1163.3388914384925,1140.668653670166,1149.120694894007,-442.94529854050734,-642.9928376456695,-576.6469395595317,-87.28750563009264,163.945326114396
0.3624999999999999,0.1872116687791136,0.2128668825125414,0.1218485436470791,0.0224098187366105,-0.0209121354785947,0.0204436535421264,0.0028213348447165,0.0190040535024255,0.0066160301431553,0.999792990030109,0.0383160661029932,-0.0141927043226753,9.840213485088777,-0.063889233034733,0.0372210155109355,1.252295193693,0.2019656375620012,1.4713149481012977,0.7347423805650783,1136.3497606305639,1161.4387955021823,1139.0025287165906,1148.9131133577737,-557.812445885565,-954.6996350197325,-816.8717802092027,-147.14818989082218,163.95530289848682
0.3649999999999999,0.3959939814709992,0.2565898243208726,0.1573486477465916,0.0237267657257156,-0.0196475324122366,0.0196707445037889,0.0028118932011411,0.0190012587107335,0.0066280837250804,0.9997927853725184,0.0626721352115037,-0.035503925554057,9.791458291151383,-0.063453243664769,0.0373602416695603,1.2525944994720977,0.2019257837345538,1.4714034296599827,0.7378800596601416,1134.735730042239,1158.5653932633938,1136.58429476912,1148.3849539445532,-627.5349219070443,-1128.0801669515758,-931.736261586456,-280.2585553443348,163.96736058902073
0.3674999999999999,0.5110634037542932,0.290458062980101,0.2172832186507527,0.0256561483271905,-0.0183960494113333,0.0198581139753167,0.0028124590763319,0.0190198699904815,0.0066421729048442,0.9997920748867312,0.0879719718501524,-0.0576328188271711,9.741548025918362,-0.0629489323908529,0.0373837980624422,1.252717337230021,0.2018774725698608,1.4714988697871803,0.741024381637634,1133.2120860210287,1155.7983946674246,1134.3438474086583,1147.511820581052,-639.8554352585046,-1144.9312713620648,-909.5671839655998,-468.7885226845988,163.9774722088672
0.3699999999999999,0.5390141359137441,0.3245461572554192,0.289026949535085,0.0280784086506485,-0.017599351887938,0.0206581253194768,0.0028298601742791,0.0190619837526232,0.0066581562044871,0.9997908047230248,0.1136799067879701,-0.0799297894448243,9.69090029576308,-0.062360316816237,0.0372947393581568,1.2526487841384752,0.2018184251381378,1.47160230885651,0.7441766173544833,1131.5364528659463,1152.8407369065835,1132.036458849292,1146.0410113311302,-684.2850483023989,-1181.8310587087567,-911.8129068005138,-689.7273586169371,163.98764008071916
0.3724999999999999,0.4878409733419927,0.3655686867779459,0.3550421295203507,0.0304949080770544,-0.0173380257531178,0.0217094094001631,0.0028617854778694,0.0191274510002296,0.0066742700614194,0.9997890092710278,0.1392603852728498,-0.1018974826328254,9.639961359405408,-0.0616683130095735,0.0370769682642444,1.2523767880208054,0.2017493551190021,1.471713742860688,0.7473376347005233,1129.7906607795167,1149.8892393738809,1129.7847828746555,1144.063183787967,-697.5754281083476,-1141.086366786748,-868.8319733742893,-891.3908297250592,163.99784757919284
0.375,0.3507431858952056,0.419310493535186,0.3989730136768798,0.0323320721463356,-0.0172002121408028,0.0229370768425679,0.0029011468102327,0.019219795899004,0.0066821494476941,0.9997867245764176,0.1640787068840581,-0.1231148261813675,9.589194389415695,-0.0608676691024764,0.0367072100586078,1.2518923295197235,0.2016721281123056,1.4718308094264567,0.7505059684007976,1128.0485757254048,1147.1353050726495,1127.6922989824207,1141.5840571825047,-744.2218875056361,-1125.9490491423085,-873.9597157134077,-1156.735749700282,164.0080948296633
0.3775,0.118385610654026,0.490300918590948,0.4127001398655475,0.0330693429010847,-0.0166223111256258,0.0246577134871324,0.0029396686681309,0.0193373689228509,0.0066738885074515,0.9997840865239396,0.1875869611524475,-0.1431867561024738,9.539066322935907,-0.0599459744919754,0.036165631830396,1.251191482705046,0.2015905842096871,1.4719493092226092,0.7536777008959714,1126.0695513419885,1144.2594941281693,1125.4149842960887,1138.279505039466,-696.9569622451667,-963.7616814484307,-798.6857004903861,-1224.7196002695534,164.02042764721756
0.38,-0.1025154721029217,0.5388240750629013,0.3873860370258836,0.032212406240155,-0.0156486964210587,0.0261949002324582,0.0029708550887371,0.0194810428746022,0.0066507011505429,0.9997810569543786,0.209189913850044,-0.1617095986674589,9.490035570711512,-0.0589036763537834,0.0354447758998102,1.2502751702267665,0.2015099283544824,1.4720643500165944,0.7568485652280733,1124.5637909141788,1142.3164966654076,1123.6988704799687,1135.4604591811571,-571.2377717926297,-675.3990420626445,-661.2961460583841,-1096.0983390060383,164.03072826417252
0.3825,-0.3241397983509474,0.549965189177495,0.3275440923256593,0.0306422043473536,-0.0139499481591932,0.0274040815813185,0.0029944257314226,0.0196527719750261,0.006621113227654,0.9997775137292528,0.2282913316979643,-0.17820711512505,9.442540139317623,-0.0577512958095743,0.034560503387237,1.2491495084372253,0.2014347251826793,1.4721705674009344,0.7600165786987962,1123.213362483025,1140.882498917856,1122.1085035657968,1132.7990133444357,-571.6040748969131,-525.7867922371129,-692.7989878964576,-1097.4269418982649,164.04104525540782
0.385,-0.5794523267700997,0.4912016868256867,0.2298283501023231,0.0288119172567313,-0.0111107653804264,0.028172668151717,0.0030071002053113,0.0198377690050757,0.0065910738185789,0.9997737077109858,0.2446499035817967,-0.1923199721516999,9.396976893987263,-0.0564658166315897,0.0335272297554899,1.247828566933081,0.2013705314543942,1.472262741381642,0.763178189412859,1121.7057705396944,1139.687562704222,1120.2348755404864,1129.9733244716658,-551.6479518400041,-372.8479379845336,-698.8752759361427,-961.41395560412,164.05343595781187
0.3875,-0.7855051071558944,0.3718092376205928,0.1393174132866648,0.0273575646520076,-0.0087115583183093,0.0283100204332266,0.0030111383896117,0.0200151780184018,0.006567558214637,0.9997700220722396,0.2581903622980664,-0.2036591981856069,9.353692424294946,-0.0550165547288275,0.0323782980556712,1.246332099778148,0.2013193551966791,1.4723395787698828,0.7663292429308417,1120.4551227238253,1139.0182592279334,1118.614127186116,1127.991943566415,-525.3775116550055,-237.332860100423,-678.52300026725,-718.059950324868,164.06376407418915
0.39,-0.9895345294334624,0.1879327440111041,0.0513347036772139,0.0258629432525739,-0.0071871101430946,0.0282382807859532,0.0030116241882516,0.0201614623994916,0.006554265060332,0.999766953563142,0.2689566036458575,-0.211866705163411,9.312972927945165,-0.0533729145822493,0.0311570826836703,1.2446845204798704,0.2012821423960671,1.4724028565797456,0.7694660277535098,1119.0788829814192,1138.50089840372,1116.84226053915,1126.3830247200415,-591.91088025027,-212.6704689880169,-741.3326531834166,-597.1472548068499,164.07408762428108
0.3925,-1.1908742982136327,-0.0285996780920468,-0.0294864741512626,0.0241966309860537,-0.0067487559860576,0.0282280698336021,0.0030127419435693,0.0202599541081661,0.0065505758367633,0.9997649428864072,0.2769489065777182,-0.2166904949011723,9.275038422287517,-0.0515269325612948,0.0299060059601146,1.2429128219616816,0.2012597339437768,1.4724546565844023,0.7725869130356741,1117.495568322574,1137.954906882993,1114.907463920199,1125.0062072923809,-706.3430601124758,-260.35791556582785,-812.7962034442127,-522.6892296420369,164.0844016939063
0.395,-1.3757298779751823,-0.2510122598426055,-0.098045266559791,0.0218483954716726,-0.0075913512981456,0.0283119202693269,0.0030218187063079,0.0203007532323467,0.0065598158917793,0.9997642504037492,0.2821368963380647,-0.2179192633509561,9.240039552926174,-0.049490892813612,0.0286755366090417,1.2410448626356532,0.2012522077714079,1.472496828554058,0.7756922099635055,1115.547167680857,1137.1991088258908,1112.778279521929,1123.7695785718313,-965.4694592709792,-418.45718755848753,-970.6975889404013,-547.5810232773706,164.09469679873325
0.3975,-1.5451695869775683,-0.4850192313540322,-0.1591611284532455,0.0177891076266777,-0.0095380019460288,0.0281447320469773,0.0030442671973713,0.0202756434143374,0.0065904332696552,0.9997648646619374,0.2845615168093594,-0.2154782946545039,9.208051512565863,-0.0472831171261799,0.0275102584958413,1.2391086620709824,0.2012593865397602,1.4725308073971524,0.7787840628764836,1112.668221026219,1135.862620945201,1110.0539759754968,1122.268302175994,-1155.2739602820554,-580.6737236247949,-1014.9793248584946,-572.4527681113153,164.10701837735553
0.4,-1.6122102574708739,-0.6323571024386627,-0.1843781266479081,0.0133409355974335,-0.0116778449984376,0.0275482312019412,0.003076071146805,0.02017905287215,0.0066493191695798,0.9997667388481872,0.2843229427862559,-0.2095578704274416,9.179071875217378,-0.0449291838225911,0.0264289668667391,1.237131295769366,0.2012830856654536,1.4725568326820064,0.78186378732126,1109.7707978794467,1134.2957402077668,1107.7033828976366,1120.9073147312747,-1258.9927122529375,-730.2928759467242,-942.6153175094432,-577.0131168384518,164.11725080946215
0.4025,-1.5706153959845333,-0.719318074167406,-0.173384244141637,0.008129580687256,-0.0141165876663642,0.0264572504256102,0.0031121434714233,0.0200149821940025,0.0067397915691779,0.9997697036817274,0.2814543284412201,-0.200448401666143,9.153029922518938,-0.0424771683942266,0.0254447512413064,1.235136720978821,0.2013254169210149,1.472574832755836,0.7849323537789451,1106.3732574649543,1132.2111565654673,1105.3408993879495,1119.3832365918015,-1582.1580262790108,-1028.034358888498,-1028.476075644811,-703.4652385148996,164.1274354359993
0.405,-1.380465966718591,-0.7585768539168749,-0.1163531027404984,0.0020007293811449,-0.0168830245571817,0.0249913034190279,0.0031530661065606,0.0197978697715458,0.0068565789540424,0.9997734547879992,0.2759038822677633,-0.1884042654923439,9.129794974063335,-0.0399976275792734,0.0245807721060498,1.2331447221356864,0.2013870032106933,1.4725851117767337,0.7879907327293446,1101.8600077480517,1129.1555684133243,1102.5610025194123,1117.3899885387002,-1689.8101077542815,-1193.6074075956628,-1000.5825200355038,-746.7788335501601,164.1395879355564
0.4075,-1.1155287687482685,-0.7500435474855393,-0.0418165707782301,-0.0021286524973014,-0.0187611815721815,0.0242063702596003,0.0032008997489316,0.0195478540647066,0.0069870206703982,0.9997776484903418,0.2676096294951862,-0.173711886539011,9.109179887159348,-0.0375695028047584,0.0238591477866772,1.2311710611573194,0.2014643104883698,1.4725885638627736,0.7910398946522645,1097.9242069261827,1126.2431195274887,1100.3379867877723,1115.6493424240507,-1549.9582561461907,-1208.1822601122883,-855.9182599972692,-694.4338540275105,164.1496466595754
0.41,-0.774943054422269,-0.7192121414253765,0.0370576471781023,-0.004437931163871,-0.0202505948009366,0.0243481392583058,0.0032599103343165,0.019286956620778,0.0071249689705507,0.999781872748292,0.2565482195559766,-0.1566740790257148,9.0909482313341,-0.0352681237119645,0.0233023551788019,1.2292272559267095,0.2015496924399649,1.4725879646933373,0.7940809565058231,1094.1102164673207,1123.1146571127629,1098.2814112194262,1113.9178192685627,-1455.581491771862,-1260.3419580888371,-781.9762497929324,-677.228182133876,164.15962144056476
0.4125,-0.405873996109,-0.6842048176270557,0.0984723626370934,-0.0051958071766955,-0.0216070565043228,0.0252014195782579,0.0033245047201707,0.019034201047849,0.007259026165735,0.9997858536738462,0.2428081085622527,-0.1378070026217535,9.074819883922508,-0.0331527927497112,0.0229025898953207,1.227320956518786,0.2016354979825464,1.4725875170983627,0.7971159220898514,1090.6462994673236,1119.9414097370448,1096.4281055388076,1112.2632015133815,-1248.7631113658597,-1250.4240963296968,-675.7344227239167,-630.3830471095802,164.1695182560156
0.415,-0.0391386809084636,-0.6569883457228874,0.1197227406571784,-0.004598498466054,-0.0230029204080138,0.0264230141276083,0.0033927175883554,0.0188063319171025,0.0073792751517597,0.9997893527608263,0.2265553160678791,-0.1175839858843985,9.060487346261615,-0.0312680827731368,0.0226551732818247,1.2254548293797416,0.2017151408916744,1.472592014717072,0.8001479787662455,1087.8664009104912,1116.8625366311144,1094.9027391058066,1110.7659040330147,-1024.1456061639487,-1300.8406458225768,-580.10906415239,-615.2086013410616,164.1793134324388
0.4174999999999999,0.3690067211605981,-0.6447480422247928,0.0907939747949525,-0.0034578308487962,-0.024714147153856,0.0277041866559741,0.0034602458679463,0.0186173951379901,0.0074792836961251,0.999792176853036,0.2080204083733951,-0.0965300115239262,9.047626475949023,-0.0296438998245047,0.022544394766554,1.2236267851517308,0.201785392953655,1.472602958893946,0.8031806743004805,1085.525571436504,1113.437206507932,1093.5275602180457,1109.1871585066763,-688.4402956173815,-1191.8212755107684,-426.31588919426093,-545.9631204185881,164.190943459606
0.4199999999999999,0.6728964035414771,-0.6575554077625512,0.0280716982944415,-0.0023937592680503,-0.0259701681144723,0.0282906558359059,0.0035252121639689,0.0184678285198383,0.007555880544172,0.9997943579353902,0.1876786933296993,-0.0751218205360079,9.03590779721989,-0.0282704770566335,0.0225558973796195,1.221830777929115,0.2018455710909398,1.4726204203513908,0.8062176170970511,1084.4241994324043,1110.9034302535606,1092.7711596598351,1108.0360884309218,-289.11672265467104,-929.4745080311251,-232.32004046526504,-440.32760991208266,164.20052903295516
0.4224999999999999,0.9311287677656196,-0.6978389730334376,-0.05618120324548,-0.0007417533622068,-0.0270587706647103,0.0281702205239869,0.0035878734446586,0.0183528375040826,0.0076126796638795,0.999795970458072,0.1660819344062127,-0.0537802253251421,9.025010889170781,-0.0271208601863987,0.0226771535789392,1.2200571624141872,0.2018977549809282,1.4726440888619468,0.8092605900881255,1084.0799878232303,1108.7898339677763,1092.365960015719,1106.9855204571159,-30.999233502825486,-824.0044229376047,-122.48352769420296,-463.1643878990868,164.21000394139293
0.4249999999999999,1.1743178398516176,-0.7732220182218538,-0.1569419159502409,0.0022472313783303,-0.0285240605764428,0.0272801716189414,0.0036468607127023,0.018262695378406,0.0076516704998967,0.9997972000963284,0.14384090384912,-0.0329216661936126,9.014634660515728,-0.0261538740872792,0.022889208486979,1.2182941935451883,0.2019444944894167,1.4726736951590211,0.8123089707391126,1084.2692032648904,1106.7834081388723,1092.1587420213643,1105.7202664914264,123.4745507818842,-652.1517726764608,-51.56382804871096,-482.76126037740096,164.22124853889932
0.4274999999999999,1.3088028839917223,-0.8475500253581765,-0.226301324612723,0.0056693049432699,-0.0299942146132099,0.026182426534426,0.0037003889604762,0.0181898114500807,0.007677425738382,0.999798176349381,0.1214867497758575,-0.0129280233675654,9.00450656913887,-0.0253326082354968,0.0231708202730108,1.2165290932583603,0.2019888247195496,1.4727085688713006,0.8153601792545951,1084.69736057714,1105.529075104394,1092.1081408754756,1104.5717141552288,176.05653379741835,-435.9011576681037,-18.919817986898103,-496.19619618988463,164.2305186452614
0.4299999999999999,1.3610405805526262,-0.9122834059655976,-0.2731157564436489,0.0098622868315977,-0.0318539791234795,0.0251050672104655,0.0037475001164767,0.018131717467869,0.0077000671973342,0.9997988882922106,0.0994103138083657,0.0058826046387547,8.994387286331396,-0.0246324073977082,0.0235024121250417,1.2147491726876771,0.2020321135854925,1.472747588757548,0.8184109664837733,1085.1494859338775,1104.603902350532,1092.0641429314298,1103.2392855104767,154.9701416736751,-340.83145708464116,-30.144032877205944,-571.4085879553289,164.23969115995268
0.4324999999999999,1.345251974748211,-0.9482672185115728,-0.3029677085770878,0.0141029911975411,-0.0341314541323461,0.0242371817000159,0.0037903235821785,0.0180904827961539,0.0077262720119148,0.9997992545852608,0.0778689313176942,0.023304430774368,8.984072073845363,-0.0240401865327568,0.0238721647786096,1.2129426572219002,0.2020742229418273,1.472789975495316,0.821458322311199,1085.4722112855084,1103.8249178189708,1091.9574207110895,1101.714671215452,75.53502733235285,-313.20227849987504,-69.87790710400071,-659.716191521556,164.24878805136973
0.4349999999999999,1.2625939150551977,-0.922955216353216,-0.3194466483799795,0.0176704379626498,-0.0368646953505052,0.0237319419481753,0.0038326560646332,0.0180628604168295,0.0077580956005287,0.9997993161661408,0.0571600253363145,0.0392182357225135,8.973391267315487,-0.0235309453751418,0.0242728826987916,1.2110996466500004,0.2021144758130665,1.4728354979168887,0.8245006351964889,1085.5271610705393,1103.0378909580327,1091.7147533959098,1099.9407045528692,-49.48769219099627,-393.4748260344801,-151.8061203136766,-835.7780899492345,164.257800019314
0.4375,1.11919606029217,-0.7933571700881757,-0.3317019454565721,0.0209259189726397,-0.040513318579364,0.0234180766280501,0.0038715918590673,0.0180405290598881,0.0077922040976486,0.999799267265998,0.0376137285357423,0.0534401636134992,8.96221178779427,-0.0230690513275121,0.0246821587945572,1.2092125395281963,0.2021530088914708,1.4728841339507126,0.8275367689117212,1085.2247728245532,1101.8575436887984,1091.1983901095211,1097.535780765706,-170.31986933006905,-496.6821318721026,-235.97600512457555,-921.2233431651376,164.26852402842937
0.44,0.9891551062597606,-0.592415545253202,-0.3359717699991453,0.0228771632650264,-0.0434006276919191,0.0230630093230828,0.0039075676552158,0.0180152846622908,0.0078266791848653,0.9997992733344568,0.0195024154699541,0.0658988132333282,8.950434361167115,-0.0226208226516586,0.0250872567866671,1.2072751645309785,0.2021904404010876,1.4729354937970016,0.8305666800141972,1084.675561723889,1100.554480298672,1090.5348733702867,1095.3345878370435,-269.03665665031417,-600.6024380763387,-319.7468009067504,-907.9998580594284,164.27739089168253
0.4425,0.8732359486036722,-0.3012153304303792,-0.3262844627620781,0.0243003989878881,-0.0453878804148392,0.0221100085559659,0.0039445713498071,0.0179870375046038,0.0078622768922917,0.9997993162508886,0.0029015863373559,0.0766362872742509,8.937988263766485,-0.0221740884848719,0.025486012583708,1.2052821870395112,0.20222715050429,1.4729884476087411,0.8335911079775556,1083.8795895413018,1098.8545314984167,1089.5996561049876,1092.9957814754089,-383.2761739443409,-832.1077611306456,-467.1996154046606,-1039.834090269368,164.28619152290915
0.445,0.7648367949098215,0.1227204222141102,-0.2866384531871434,0.0258879570811477,-0.0460979073903265,0.0203195662352602,0.0039865926480032,0.0179565872215543,0.0078997050416468,0.9997993629708712,-0.0121758525350275,0.0857391646027678,8.924828295403444,-0.0217210672900797,0.025878273913144,1.2032294772278882,0.2022639324288933,1.4730420206318844,0.8366110108912747,1082.7591808541672,1096.3939414930187,1088.1988752932637,1090.1354173856967,-416.949281197412,-953.1866476136648,-543.1092090362195,-1040.4388036159153,164.29668249342024
0.4475,0.7004083094364442,0.506991305090759,-0.2281626359316977,0.0273610421614655,-0.0450399333872068,0.0188220113405157,0.0040329636927504,0.0179246227010944,0.0079357643902398,0.9997994313074172,-0.0257569213234736,0.0932495478496346,8.910932016966033,-0.0212563610888241,0.0262547485805349,1.201114372763498,0.2023016847085891,1.4730963559193972,0.8396256679934461,1081.7948431353147,1094.0885982603484,1086.8841100598063,1087.7935874573293,-366.2870699736682,-940.3380328449193,-525.5505286120292,-907.4369287468917,164.30537143592267
0.45,0.6554245939901487,0.8863537181411589,-0.1546462160336368,0.0288908858445686,-0.0424818470102872,0.0180520022928798,0.0040826172013702,0.017886245771687,0.00796718698351,0.9997996406447376,-0.037803312317417,0.099233359827794,8.896296339008684,-0.0207636001740451,0.0266072248927153,1.1989357161391867,0.2023428412788352,1.4731518992755808,0.8426337712977002,1080.9277455042989,1091.6922513287943,1085.5711226502035,1085.598232741962,-315.09110364681845,-942.9607365595976,-499.3736659026576,-840.1693680953023,164.31401000470112
0.4525,0.6185042602822151,1.2412674303593945,-0.0851074881984402,0.0302577867638671,-0.0391237545347601,0.0180146021382708,0.0041320630698554,0.0178389137071353,0.0079857074142683,0.999800116560075,-0.0483472746169517,0.103738768560256,8.880931895630324,-0.0202346062422976,0.0269239283205248,1.1966935178585407,0.2023883864467894,1.4732078998678109,0.8456342318474364,1080.2193876170807,1089.3737945775504,1084.3872417302932,1083.5927406168528,-235.631669852364,-872.3240512892054,-418.0804310534764,-744.1218763148291,164.32261070077854
0.455,0.5796299431268319,1.5549422854694728,-0.0408056725395962,0.0315344878097418,-0.0354283956258564,0.0185031084346428,0.0041829355160495,0.0177807150337096,0.0079862750628001,0.9998009268884847,-0.0574509757720059,0.1069226809120983,8.86485713596449,-0.0196642590958264,0.0272075749809624,1.1943884198087908,0.2024383095789485,1.4732630029886693,0.8486271648483626,1079.749587155037,1087.3306310723483,1083.480720494936,1081.877623360388,-155.7709631057604,-797.2549943403912,-322.23919263956276,-679.7581542000438,164.3311707339398
0.4575,0.5126743300808099,1.8792986503030356,-0.0339350093625017,0.0333165887869116,-0.030959968117378,0.0191835516402189,0.0042411361022566,0.0177167066022331,0.0079717819583015,0.9998019322080308,-0.0653106384475369,0.1090293563915847,8.848092275048632,-0.0190648500001203,0.0274731699133701,1.1920212121149256,0.2024917414209613,1.473316438273628,0.8516122008860729,1079.4405328015519,1085.3875196058484,1082.7760457670954,1080.1939498458523,-86.5258020309738,-609.2483924473065,-202.9309870191808,-556.5276583770806,164.34140259375718
0.46,0.4269931603198489,2.102366927152952,-0.070159212119222,0.0350917215193908,-0.0269488904790212,0.0196065272910375,0.0043045815285681,0.0176555922534904,0.0079506933059641,0.9998029156865632,-0.0721922814526235,0.1101669572635811,8.830659732952014,-0.0184578724467782,0.0277183785887765,1.189593388906615,0.2025474964982472,1.4733672849329855,0.8545899572729279,1079.316958144882,1084.2843891101115,1082.4660655598402,1079.0949850685026,-52.801677339266405,-323.98458489669764,-97.03193657369401,-387.3165709394012,164.34990087328768
0.4625,0.3017777460479307,2.262187447070173,-0.1438534650065422,0.0369116555644926,-0.0221699350962824,0.0197355902916692,0.0043674878697478,0.0176071018294966,0.0079293728601891,0.9998036774971256,-0.0783797533937574,0.1103783072582923,8.812580959393538,-0.0178676540669347,0.0279334491042807,1.1871068217337175,0.2026034244026113,1.4734141911245469,0.8575616662913697,1079.1765244148555,1083.7675966813647,1082.2908860842267,1078.2573669911555,-110.42030445282752,-94.19677302007575,-101.20259711588906,-329.38059433713505,164.3583762619487
0.465,0.1130239567697397,2.351668488106762,-0.258599593487965,0.0386068707668575,-0.0153816519471849,0.0194634077738907,0.004426334943392,0.0175789514615704,0.007912140443751,0.9998040635379088,-0.0841148447469796,0.109741059736439,8.793873555300534,-0.0173139618173445,0.0281148372637762,1.1845634625462815,0.2026582367324331,1.4734566469092796,0.8605280501491316,1078.764856622618,1083.8134052450112,1081.9600525742608,1077.4480820968167,-223.1995822179213,117.2710333957183,-188.231299673498,-281.4131629369056,164.36852799593663
0.4675,-0.0576882664139151,2.3171667422882414,-0.3591769553507379,0.0388921951627755,-0.0090360339456414,0.0188544517788383,0.0044818113982281,0.0175772416139881,0.0078980903420012,0.9998039718095916,-0.0896001580696785,0.1083973727788907,8.774548857463119,-0.0168133119476819,0.0282691423219406,1.1819652512253356,0.2027115644939771,1.473495983662364,0.8634880651279354,1078.060526503766,1084.3539518483435,1081.3497295858594,1076.850301176471,-385.2552606403602,298.2059302564264,-367.4520570900764,-240.82451511444535,164.3769779317672
0.47,-0.2107143063442234,2.1483704653640507,-0.4415491850290337,0.0373832553651907,-0.0025197925246268,0.0178922073540328,0.0045349263894249,0.0176005725296678,0.0078904225438458,0.9998033965197528,-0.094890975540559,0.1064819543799177,8.75461411774617,-0.0163651110499295,0.0284030802281928,1.1793145658289068,0.2027649056137619,1.473534211618676,0.8664402225995352,1076.8385803194162,1085.3044348962935,1080.1227922888104,1076.2439595212447,-585.0112872375115,425.1982558552296,-625.0389151410212,-253.39998485819683,164.38542441674895
0.4725,-0.3306813253437124,1.864284729205845,-0.4905102741065045,0.0348713520563256,0.003634931592002,0.0166680713552905,0.0045845708515495,0.0176429292254559,0.0078872483904898,0.999802463238424,-0.0999457833259039,0.1040774190624198,8.734071612379434,-0.01595935324817,0.028517508454859,1.1766141279896205,0.2028202971569463,1.473572300942156,0.8693836509070785,1075.1354700675784,1086.4799431276197,1078.2245350101543,1075.58330125218,-796.0989119258096,491.4018419090548,-942.8312995645219,-285.5892921872962,164.39387238155015
0.475,-0.4116215634269722,1.45538249959165,-0.4779836993664136,0.0325191667489992,0.0084993473107297,0.0148993580890894,0.0046283449937931,0.0176948695642703,0.0078846411160776,0.999801381444614,-0.1046446561777662,0.1012284380868757,8.712917988164248,-0.0155793786936146,0.0286093171270358,1.17386667519273,0.2028791656665464,1.4736117570977547,0.8723186698222443,1072.8580857597872,1087.7614441058388,1075.4086357909875,1074.8160130603083,-1120.2324044068964,542.9715077505074,-1452.0772441656377,-371.00318597731496,164.4023259182864
0.4775,-0.496999954833246,0.8600998471023655,-0.3722880629095191,0.031086293038245,0.0118503971139602,0.012111590787266,0.0046629587131103,0.0177502941445777,0.007884448304935,0.999800259256199,-0.1089048261954127,0.0979504342766701,8.691141882613037,-0.0152171966829115,0.0286725218434901,1.171074466512772,0.2029426220798471,1.4736530475174632,0.8752452278426462,1069.5343080455439,1089.1948006663722,1070.964148789326,1073.7282853222935,-1300.7549328705084,475.72536237490147,-1787.321051392355,-431.6280676676386,164.41247951656305
0.4799999999999999,-0.5938052394975124,0.3123250693175445,-0.2079738185601274,0.0310218982388816,0.0126345514168492,0.0098996367483819,0.0046874042431907,0.0178013326085168,0.0078864809533993,0.9997992415793588,-0.1125919262379052,0.0942836656595078,8.668726132405824,-0.0148612662706877,0.0287059000247366,1.1682390338732622,0.2030116771518693,1.473696846397696,0.8781633620542446,1066.3543110954347,1090.1400709177133,1066.472030534026,1072.65787272197,-1333.792917206497,291.56086087419067,-1914.29127257563,-464.3718500183288,164.420949313225
0.4824999999999999,-0.7499742636274002,-0.2526950352109819,0.0127398465447639,0.0311255843183172,0.012166060298312,0.009099110946934,0.0047038047649945,0.0178445333250803,0.0078932178915776,0.9997983596232076,-0.115627482850348,0.0903093058082929,8.645646499920474,-0.0145101164427716,0.0287152763924484,1.165360758358892,0.2030857782568101,1.4737425107525794,0.8810740997372352,1062.8653434595115,1090.6526049707431,1061.392692426448,1071.4064260722018,-1576.229394307346,93.21800873617568,-2295.856910932387,-587.2684189921978,164.42942693126167
0.4849999999999999,-1.0127292794005136,-0.9207583542099296,0.2946593044835127,0.0302530528001772,0.0103487632679147,0.010241466444494,0.0047132544811935,0.0178785432684628,0.0079105860770826,0.9997975861594338,-0.1179506140584258,0.0860775957889128,8.621875416948928,-0.0141662081027065,0.0287039969899649,1.162439111466316,0.2031636699258627,1.4737885921721847,0.8839791315829144,1058.473164123898,1090.606160961394,1054.992745979364,1069.721530627009,-1620.4828859531503,-144.21761899434372,-2335.725488183241,-639.0193855207593,164.43960571959266
0.4874999999999999,-1.27736189912932,-1.4514980037592566,0.508843640711997,0.0281875297675205,0.0074715940570845,0.0123889376483821,0.0047207353131264,0.0179001501664277,0.0079416520972741,0.999796931550883,-0.1194530163621156,0.0816922718507208,8.5973847138423,-0.0138263352490668,0.0286845284969429,1.1594725941584327,0.2032449892672257,1.4738341184666457,0.8868780093212018,1054.7629290297457,1089.9315168757714,1049.7140649855319,1068.211329144598,-1463.12213036649,-413.9889845429021,-2027.2636323420083,-611.2709558996806,164.44808873896352
0.4899999999999999,-1.5519197285644974,-1.935817753717852,0.6752095473440608,0.0246345853057266,0.0033676473417136,0.0148524652401393,0.0047323250086666,0.0179098377046862,0.0079844926706457,0.9997963735772912,-0.1200794665476418,0.077263208897678,8.572146163979738,-0.0134942611457651,0.0286720253620903,1.1564589468861695,0.2033277715293063,1.4738787601211791,0.8897703932422064,1051.1575534720655,1088.5362160386796,1044.856427817654,1066.6651758475107,-1399.8858867113074,-680.2812545826777,-1825.6225772408452,-613.8080647941473,164.45656621720158
0.4924999999999999,-1.8029581857732195,-2.3677775368225595,0.7966129532419617,0.0201180646954134,-0.0016217399051186,0.0170812356531925,0.0047504833898613,0.0179052418412516,0.0080374083174131,0.9997959562183298,-0.1197198803017037,0.0728265700492728,8.546137596525057,-0.0131651058708186,0.0286731320992376,1.1533957869749376,0.203410781539696,1.4739224887849236,0.8926550086945783,1047.7634995961891,1086.530110602858,1040.5859520993276,1065.1422888206273,-1276.233537698589,-944.1369255761392,-1524.5070788336748,-595.290839248218,164.46503420295846
0.4949999999999999,-1.992348333013387,-2.718946937689129,0.8688569984169531,0.0147013846852171,-0.0078468685200656,0.0188988204403058,0.0047720612980416,0.0178840545815984,0.0080971098167762,0.9997957608389688,-0.1182654896182106,0.0683134880968617,8.519344065380244,-0.0128321885103187,0.0286814504545913,1.150280693178379,0.2034934826573455,1.4739650464952387,0.8955305775854642,1044.7763857835723,1083.8155314107987,1037.2338924234857,1063.6887216512696,-1183.9970407678709,-1338.5116772730714,-1234.3874050287911,-621.4639396656816,164.47348532349804
0.4974999999999999,-2.119424846320208,-3.0241808304794318,0.9072335562202212,0.0077663587487193,-0.0167167636978879,0.0208934045004119,0.0047974372907123,0.0178480597924486,0.0081610705920309,0.99979577174258,-0.1156814903445691,0.0637094768667417,8.491756409051614,-0.0124960743568509,0.028698567249799,1.1471104753196255,0.2035759178446829,1.4740072514616565,0.8983963831013092,1041.8435143923496,1079.8375522164927,1034.4140150741837,1062.034969122299,-946.4534589985752,-1554.9023344398831,-833.4679276671513,-595.4146490454599,164.4836008611451
0.5,-2.132880869816286,-3.1693910536720327,0.9004136912095961,0.0020460483330377,-0.0248891347291053,0.0227279533940609,0.0048257218355882,0.0178036678129208,0.0082257033535593,0.9997959040977428,-0.1120213144992784,0.0589741466816536,8.463374111116785,-0.0121659583538396,0.0287229057702634,1.1438812161638767,0.2036570541878974,1.4740498762554874,0.901252928147151,1040.0441184885797,1076.0410197385995,1033.06655278515,1060.7116484060423,-575.6137116170905,-1579.4218166815235,-352.8827707427312,-525.4587567860591,164.4920048344277
0.5025,-2.052191380876556,-3.1973644910518546,0.8481761802246763,-0.0033319671406815,-0.0332505590460659,0.0250196298886667,0.0048533113095905,0.0177520622092049,0.0082865951004924,0.9997961843187756,-0.107264211782198,0.0540180464051122,8.43421164286521,-0.0118372380741886,0.0287462802421193,1.1405883890133712,0.2037353306933452,1.4740931463468336,0.9041021691455704,1038.9654458342643,1071.9404431330847,1032.64960122047,1059.4076753383683,-320.16409697116586,-1817.8352104888727,-13.583581736702387,-574.1629256908705,164.5003777740141
0.505,-1.8593766255628728,-3.106730998768049,0.7256882982829876,-0.0093465114277097,-0.0429393231539133,0.0281874517326229,0.0048799858976038,0.0176944390257781,0.0083394147956342,0.9997966215983006,-0.1014081816216878,0.0488091608230408,8.404296642163873,-0.011503807819919,0.0287680246258649,1.137226333791824,0.2038096091289819,1.4741374317215448,0.9069454112811778,1038.4432980037238,1066.9518436861551,1032.9986348764664,1057.840833777588,-88.07804955404198,-1794.7434237073123,230.5629451433104,-572.8854678827697,164.5103849002601
0.5075,-1.6329280642394048,-2.9448480362923752,0.5752267447072885,-0.014025330227904,-0.0503398360111681,0.0307296393489739,0.0049060759525878,0.0176323160741479,0.0083825090265973,0.999797195339053,-0.0944788020774624,0.0433271159910384,8.373671346970829,-0.0111592602537482,0.0287885462212238,1.133788633315713,0.2038792648896585,1.4741820685433271,0.9097840470460136,1038.525055586494,1062.9667260145484,1033.8024159461863,1056.5432479989547,95.53606749536803,-1504.508811610684,382.65174976390847,-509.22938000658127,164.51868756971817
0.51,-1.361646064400739,-2.719256575372893,0.3907291334148778,-0.0178340527111581,-0.0569107733513293,0.0323214789371816,0.0049311411650954,0.0175655570553822,0.008420030343563,0.9997978684016008,-0.0864986587307935,0.0375431671908576,8.342393931130726,-0.0107929796877357,0.0288063180695996,1.1302686854252504,0.2039453922880328,1.4742253153826437,0.9126184504443297,1038.9209783412007,1059.4292996281015,1034.911893625286,1055.294686877555,172.80004753234067,-1306.566172260846,465.345960455862,-483.77416938279686,164.5269490720192
0.5124999999999998,-1.075387748780918,-2.460072463707124,0.1994456889769624,-0.0205025473076295,-0.0627473869094032,0.0327396846925403,0.0049502333255506,0.0174934001616007,0.0084514556922379,0.9997986747145824,-0.0775072498576969,0.0313597024033254,8.310538014500068,-0.0103937261923838,0.02880960478731,1.1266604688223505,0.2040104909646714,1.4742651540885747,0.915446633492998,1039.3890558241555,1056.4338951532443,1036.1291457484658,1054.1243771520408,162.40344225047903,-1041.1566793812644,485.058241729666,-442.7939090752712,164.53517412801915
0.515,-0.7975219945888037,-2.1791444984997415,0.0268692615612441,-0.0218925640341776,-0.067706020893051,0.0319213708670164,0.0049566489168084,0.0174166342554266,0.0084765366413129,0.9997996295691868,-0.0675964541586323,0.0246605275979409,8.278190210549292,-0.0099546560834012,0.0287824138829072,1.1229588564394213,0.2040775358429096,1.474300211541394,0.918266186785288,1039.732995552453,1054.2235162311952,1037.3371848339343,1053.0807173321787,81.10473092406201,-783.3297408979425,502.25992136033665,-428.83306519402095,164.54335235641716
0.5174999999999998,-0.4964003651281079,-1.8315891082345472,-0.1384111926480682,-0.0227784918967169,-0.0732373869659132,0.0305036635368714,0.0049449690850731,0.017336986172131,0.0084995333533693,0.9998006910786726,-0.0568983820102787,0.0173639715432013,8.245448275143652,-0.0094716590116811,0.0287106881681249,1.119159716865369,0.2041465298736651,1.4743317875431403,0.921075021182649,1039.794579478776,1052.5172464487543,1038.6404453552675,1051.9802118260707,-53.64259385464715,-482.87109139819177,439.07851771173193,-383.49329308366544,164.5531082091766
0.52,-0.2772836367851432,-1.538608997161251,-0.2416824032363197,-0.0233140786383116,-0.0777251619926934,0.0296215850340205,0.004919698612053,0.017259360708831,0.0085290228719657,0.999801678522006,-0.0456188623980251,0.0095664317083231,8.212417679268754,-0.0089479711284238,0.0286009814561615,1.1152593577951793,0.2042161291041576,1.4743631745553567,0.9238726982361332,1039.4647825831798,1051.8091607742044,1039.5325774224927,1051.1632508667603,-216.6873934562316,-175.1253053036633,304.29450443052673,-318.64872712535515,164.56118675285276
0.5224999999999999,-0.0866080117125085,-1.2505011455988393,-0.3222103448921613,-0.0236370216375501,-0.0816146851159426,0.0292433459760669,0.0048937545783146,0.0171911930973102,0.0085706005626115,0.9998023531491596,-0.0340231353179677,0.0015156371347846,8.179210208296498,-0.0083928664718569,0.028476584192519,1.111254483022283,0.2042843616702136,1.4743985559489892,0.926661171850808,1038.7111425114947,1051.6416199222363,1040.16191787742,1050.386968190444,-420.01753052422794,-15.655402672655311,206.0699166841003,-351.86974670013996,164.5692082414708
0.525,0.1200801609216626,-0.9305871090217466,-0.4090580612702335,-0.023607440911213,-0.0846810976882041,0.0290300485328979,0.0048693964155617,0.0171361605837851,0.0086212580511001,0.9998026690296656,-0.0223308770482662,-0.0067021642688299,8.14594405572641,-0.0078083987840819,0.0283352465357772,1.1071433599746283,0.2043489774242752,1.4744403619091446,0.9294423144615614,1037.3646949305587,1051.7308837608412,1040.5629270059135,1049.4039021332596,-553.7244285943866,26.007883783177,82.78147343235098,-384.0936183010396,164.57876337415016
0.5274999999999999,0.2822085284986756,-0.7040558461870866,-0.4780846910262714,-0.0231451225886264,-0.0857603806635238,0.0286605959574092,0.0048404328072188,0.0170949528636936,0.0086719894415917,0.999802737532254,-0.0107244564236001,-0.0151216893065185,8.112738939751411,-0.0071915536535016,0.0281552421785189,1.1029258972920974,0.2044087613254046,1.4744888474340752,0.9322169631364569,1035.9425203685228,1051.771659341152,1040.575825244582,1048.4665000989387,-612.7460513116142,-53.8092330720246,-64.96905946701185,-414.7942739149127,164.58666344330865
0.53,0.4434486548065179,-0.5332390950512632,-0.5375448740938019,-0.0224321650192465,-0.0859016362744197,0.0277242289788601,0.0048010245988471,0.0170655961240325,0.0087103570372263,0.9998027639087133,0.0006517117399723,-0.0237538976171959,8.079711412485901,-0.0065355152573613,0.0279160650003401,1.0986035622434358,0.2044652890225622,1.4745433568988322,0.93498273946907,1034.3009646740006,1051.461837595481,1040.2380817085784,1047.329930763685,-681.1473404767634,-220.289706090716,-193.293507280441,-495.1227586574528,164.59449387527854
0.5324999999999999,0.6101112053584976,-0.4055003257701652,-0.5780104005419076,-0.0216641257825461,-0.0861007072809423,0.026188036978265,0.0047468217913387,0.0170401602517107,0.0087293461760019,0.9998030231980019,0.0117487688569226,-0.0325708963058247,8.046971626188025,-0.0058228389653054,0.0276016625702597,1.0941796987114758,0.2045233927044378,1.474602112968674,0.937735446149129,1032.5367836661392,1050.6702108106983,1039.6093577081797,1045.9908863056514,-725.6510145744862,-460.4930670689096,-318.5408794268366,-587.6517786286507,164.60226262231112
0.535,0.7856576333220963,-0.3090161781231623,-0.5815991279796903,-0.0207379524539478,-0.0869709354451312,0.0240658156479449,0.0046841687264751,0.0170148687412035,0.0087271206935349,0.9998036077117862,0.0224563603290355,-0.0413612905189764,8.014618310492633,-0.0050478696783066,0.0272214607745699,1.089658845544922,0.2045854982678144,1.474663978106658,0.9404735239253104,1030.672709601128,1049.1593722601365,1038.6453773114442,1044.3916718705418,-836.1866821431696,-837.6647695310559,-494.3330788815724,-762.0053957832617,164.60995151016027
0.5374999999999999,0.9970076814156844,-0.1949357432024382,-0.5351266225495912,-0.0190740493646745,-0.0883690086851095,0.0214111894517691,0.0046238848527511,0.0169900526601697,0.0087027938455592,0.999804374364294,0.0326098874930287,-0.0498370857132724,7.98273712764893,-0.0042166088033924,0.0267971145672293,1.0850467645498552,0.2046501593171251,1.4747286254203191,0.943197262697877,1028.355850255423,1046.4818869630433,1037.1376923137718,1042.1808593267351,-859.1612772925592,-1109.602476239205,-604.2578331079761,-855.4874316002033,164.61907779062946
0.54,1.1559014373067227,-0.0804051763737175,-0.4595781144038036,-0.0168889591014537,-0.0894394121750403,0.0194886303469592,0.0045735967541491,0.0169641465399279,0.0086560539433056,0.9998052148185524,0.0420916983608969,-0.0577626456020537,7.95139958737248,-0.0033334633778165,0.0263461268915105,1.0803505105681783,0.2047154511160152,1.4747946462428327,0.945908595848157,1026.3769032146652,1043.6113598789404,1035.6240881459044,1040.1142347125408,-795.4255976040705,-1240.6511415736975,-649.0628838191691,-867.3873568675837,164.62659275176344
0.5424999999999999,1.2661758933270366,0.0681500212527188,-0.365882096753878,-0.0136020969384585,-0.0901722629632708,0.0181391985070897,0.0045422517802355,0.0169228804252794,0.0085911944331749,0.9998062249331606,0.0510062866327309,-0.0648892338984045,7.920662792193132,-0.0023777687807941,0.0258917186834713,1.0755779449384415,0.2047830197278885,1.4748577277930552,0.948606877033939,1024.3787222674027,1040.2786312551748,1033.892377894676,1037.8439225423972,-871.7269741355259,-1508.9452915254683,-800.0623453074234,-1038.1309238054191,164.634005206046
0.545,1.3067504038374218,0.2860693228151715,-0.2673708489811312,-0.0086428338671619,-0.0904952201550328,0.0174153251678553,0.0045365029542634,0.0168404140975303,0.008519881860741,0.999807706094654,0.0596608032707866,-0.0710175771977333,7.890567768230909,-0.0013067494907528,0.0254548488027572,1.070737583243783,0.2048584398563696,1.474912561693796,0.9512884632804208,1022.0182683439876,1036.066633421313,1031.6237764193672,1034.9235800935137,-848.0546152998832,-1528.21484787887,-854.5640968065518,-1097.5675261131519,164.64277023517923
0.5474999999999999,1.2483031687416,0.4907725156984342,-0.2239212278763257,-0.0043879145567716,-0.0901639955471346,0.0174891000582855,0.0045564486207351,0.0167033726691445,0.0084548400682021,0.9998099246675451,0.068186203222301,-0.0760637327528016,7.861137349958982,-0.000107175219478,0.0250451100491622,1.0658381731087518,0.2049450341381831,1.4749575514409554,0.9539509055116924,1020.1384491909035,1032.6375570157804,1029.6195574106432,1032.3560849118314,-720.4839432840565,-1296.4553712880831,-815.0735345722744,-1049.279501834916,164.6499570236226
0.55,1.0942107664186105,0.6969291804838474,-0.2458181770608169,-0.0007855792117785,-0.0889918123322159,0.0180077399336789,0.0045949099490192,0.0165208323221461,0.0084048922441276,0.9998129058152788,0.0763860278767657,-0.0800686611458328,7.832378488602954,0.0011849894303552,0.0246586027534431,1.0608880137793355,0.2050447820244471,1.4749917802666719,0.9565927965691766,1018.4158486275674,1029.5843565648727,1027.5484087465059,1029.677182584339,-655.4837778335462,-1123.8251278557063,-832.243160144798,-1087.5045872336605,164.6570102776331
0.5524999999999999,0.8737641839691782,0.8818571487180185,-0.3300305792698859,0.0020740743365111,-0.0869538846096764,0.0185066228966344,0.0046425746104777,0.0163152714589652,0.0083732608777869,0.9998164796627096,0.0838838655580726,-0.083117558965492,7.804287885979237,0.0025064310600064,0.0242876121004527,1.0558938708735803,0.2051570380958506,1.4750155798812115,0.9592155612962388,1016.8610303017358,1027.018431376502,1025.4583416099192,1026.9185619756631,-578.1086968606127,-883.3709337327027,-830.9814603425358,-1119.4442043665267,164.6639443849095
