t,ang_acc_x,ang_acc_y,ang_acc_z,a_vel_x,a_vel_y,a_vel_z,quat_x,quat_y,quat_z,quat_w,acc_x,acc_y,acc_z,l_vel_x,l_vel_y,l_vel_z,pos_x,pos_y,pos_z,mot_1,mot_2,mot_3,mot_4,dmot_1,dmot_2,dmot_3,dmot_4,vbat
0.005,-3.0802273356375625,3.339482478117451,1.053795989397741,-0.1580003195885263,-0.3089440322459642,-0.003905312992223,0.0045767648716992,-0.0103640434386493,-0.977268754000011,-0.2117003515752826,-0.1938790467288321,-0.0958457265399645,11.72567943033328,0.1136298630534207,-0.0591156939012502,0.6319701560747321,3.5774011289131105,4.948233046478382,0.2297496454340211,1225.7167662974027,1191.3784900590465,1215.5026967033243,1173.2641500179395,-756.3793739504035,313.26471145494,-651.9259203514595,1269.5817034421455,150.18823691546467
0.0074999999999999,-2.6993517570257324,2.9771965495407655,0.7444545498919752,-0.1670603058377944,-0.3002645629788359,0.0003722580714057,0.0042824549174645,-0.010036692429027,-0.9772708861664654,-0.2117111461689936,-0.1936276844259202,-0.095734845009301,11.729490441029107,0.11375953110004,-0.059862197293132,0.6366009653681677,3.577198384220849,4.948515162482283,0.2313269018721412,1223.8258178625267,1192.1616518376838,1213.8728819024457,1176.4381042765451,-827.8366901084155,574.8685890438992,-691.0294920498018,1334.0235114575535,150.1907983411389
0.01,-2.085986734389772,2.5489979082945826,0.3720105625030157,-0.1745926566452757,-0.2933942411746588,0.0031964269014978,0.0039933888714381,-0.0097101885432973,-0.9772722825475344,-0.2117249145275048,-0.1935306828883512,-0.0956183901471021,11.733257487078763,0.1138832655540305,-0.0606066668596736,0.6412472890827716,3.5769961604268388,4.948801910537944,0.2329103831748497,1221.5775828468609,1194.252833004266,1212.0475492430753,1179.9342675752275,-947.5028611372179,999.7275509620974,-764.6048069495916,1400.2931599956808,150.1931748619652
0.0125,-1.3423911143536689,2.0825736111191397,0.0029558353259157,-0.1803495919789893,-0.2882777682928259,0.0035230854637503,0.0037105784618412,-0.0093844987050523,-0.9772728661165376,-0.2117418396878267,-0.1936255352076466,-0.095497376377812,11.736946810157594,0.1139965394897036,-0.0613459848897398,0.645914299797496,3.576794881882912,4.94909254328297,0.2345018457363325,1219.0883035568409,1197.1602895924943,1210.0498578676977,1183.4395700765235,-1031.202921872455,1266.819857232622,-826.1100036457266,1328.1965427341222,150.1954057945225
0.0149999999999999,-0.543315807959449,1.5891113403031687,-0.2848682780550407,-0.1829137378701383,-0.284550266162622,0.0006864075187223,0.003431921259749,-0.009058253267398,-0.9772732472825983,-0.211759085072803,-0.19387003587519,-0.0953893406064113,11.74051929537056,0.1140986115212584,-0.0620786572666295,0.6506049369718799,3.5765947472152777,4.949385975705408,0.2361032907684003,1216.4215682374986,1200.586932290429,1207.9169992248467,1186.575250288898,-1177.543791844391,1497.5326070079516,-933.2867971980248,1201.0651198629143,150.1974697660802
0.0175,0.3311559921980783,0.9797392950743326,-0.4650902852025006,-0.1815092541211468,-0.2811938283232007,-0.0039923803111347,0.0031535467241954,-0.0087353620053731,-0.977273978767322,-0.2117739054917559,-0.1942039052138245,-0.0951848919530202,11.743930911555799,0.1141897213785938,-0.0627963359205286,0.655320836101158,3.576395263198432,4.949681242986182,0.2377161779754924,1213.200584597619,1204.647952627534,1205.3834238817076,1189.444895675838,-1157.2910320076514,1393.5453679275267,-891.919212688799,854.649554590287,150.19976362676138
0.02,0.8884928578273582,0.461818088995678,-0.4641460003772397,-0.1769187887188461,-0.2793828625523127,-0.0072869903034914,0.0028756935515845,-0.0084194770783167,-0.9772745117402843,-0.2117885957782159,-0.1946544051241664,-0.0948061043420327,11.747132923993563,0.1142659157687071,-0.063491339227617,0.6600623687130232,3.576196987353051,4.949977259943204,0.2393426954006837,1210.6351130774603,1207.5546591300667,1203.4574031614027,1190.8484980618496,-976.7846654322515,984.0385223349136,-695.8074983565897,336.08818643583635,150.2015294152368
0.0224999999999999,1.186480980063878,-0.0634518440968673,-0.333731309128847,-0.169497031550206,-0.2785943953885742,-0.0095329463468746,0.0025921077279263,-0.0081156505154114,-0.9772742324923736,-0.2118057969023208,-0.1951015674624463,-0.0941136470285457,11.750079440705626,0.1143315805624567,-0.0641527835927335,0.6648269198899474,3.5760001595488538,4.950273442222295,0.2409838761053644,1208.3166612704576,1209.5681452392087,1201.9043863899246,1191.1253366080173,-951.1486592074104,629.0128676116182,-569.5303922381753,-108.8428142334578,150.203150985538
0.025,1.2354065659668467,-0.6942678413033297,-0.0961762946945887,-0.1598481771257627,-0.2788951749012735,-0.0106917653417322,0.0022967103520444,-0.0078237828651853,-0.9772733789607996,-0.2118244365061783,-0.1953990429132646,-0.0930881206772718,11.752727381271203,0.1143922767214297,-0.064777854564028,0.6696093693540415,3.5758039810284363,4.950570444390415,0.242641015033422,1205.8793697814233,1210.6997234681248,1200.6097512002118,1190.3042839906823,-839.2288729432039,194.50500730158635,-373.1151867975313,-442.30013205128654,150.20493726797827
0.0275,1.0834294207462187,-1.2072435910344916,0.1068719580861562,-0.1546420689063722,-0.2803643821251964,-0.0098784029777806,0.0019852542908711,-0.0075405222494926,-0.977271711607359,-0.2118457682907083,-0.1954208786254734,-0.0917965088563039,11.755037482113748,0.1144529298753704,-0.065368543117253,0.6744031953285986,3.5756081618986015,4.950869056335993,0.2443149093570806,1204.1205169057416,1210.5406702757164,1200.0388104559368,1188.9138359477608,-659.6449122067955,-266.20040532429823,-130.67421925197783,-625.3857710060405,150.20629744189412
0.0299999999999999,0.8712112880270951,-1.6796580544017992,0.2440756783928645,-0.1549911207216848,-0.2834329119628712,-0.0074599596931499,0.0016573036940768,-0.007266022963616,-0.977269075167086,-0.2118705042281144,-0.1951417316839474,-0.0902446814302923,11.756973841353387,0.1145129345873059,-0.065924137871515,0.67920266316882,3.575412793842295,4.951169397317421,0.2460047283636122,1202.581145220389,1209.368721441503,1199.956380103952,1187.177355135652,-642.9373834686429,-686.4707492801698,52.54300100014006,-760.8009195102112,150.20752953532846
0.0325,0.7058055189403902,-2.1556734202671657,0.2797848092428835,-0.1591978635206913,-0.2892284013115002,-0.0040984810499052,0.0013149897243895,-0.007005285185735,-0.9772649734909142,-0.2119007280223481,-0.1946156151884859,-0.0883402316618328,11.758505061989666,0.1145676690915926,-0.0664385812289645,0.6840034413240621,3.575218216696589,4.9514703311586725,0.2477087828451743,1200.9058299883984,1207.1083165293155,1200.3015254609377,1185.1098313502096,-592.7104009502722,-912.4978047114374,177.88761450492512,-713.5902667585917,150.20886590335672
0.035,0.7012268092054432,-2.4431806006041468,0.1928115835026348,-0.1628354339096551,-0.2955831720173461,-0.0017917893023724,0.000959492555299,-0.0067570242717732,-0.9772596055264176,-0.211935528608645,-0.1938411589055813,-0.0861278641140443,11.759607563945142,0.1146158093942799,-0.0669153205153825,0.6888003852885739,3.575024996838396,4.951770470231278,0.2494268059325382,1199.617593215638,1204.806232417946,1200.8458181764763,1183.6094038018591,-491.04274278729486,-935.1037815993101,244.25770832021965,-533.8241274162558,150.20986537541367
0.0374999999999999,0.8151365899758751,-2.5869915673033983,0.0062342187048644,-0.1639145864921277,-0.3026563062813309,-0.0005036243352858,0.0005892680278724,-0.0065182238120291,-0.9772536922201523,-0.2119716705137925,-0.1927443791354221,-0.0836754301419507,11.760265214335822,0.1146605956911151,-0.0673606555781345,0.693588271266749,3.5748339545530334,4.952068273981745,0.2511580493296018,1198.450616274462,1202.4327976213192,1201.5228140025388,1182.4407107131285,-436.9432054342726,-911.6487954264362,276.2600498448593,-417.38677419725747,150.21075140391116
0.04,0.9589782400471734,-2.600957837327119,-0.2287948988927822,-0.1617297278144509,-0.3097827648027166,-0.0002211181149846,0.0002070504851734,-0.0062855481656416,-0.9772475044011172,-0.2120079947482788,-0.1913472325239348,-0.0810779722693523,11.760464502541303,0.1147004913396705,-0.0677826485140106,0.6983636005565925,3.5746453121916395,4.952362961353915,0.2529015504851004,1197.4328771884664,1200.247988440814,1202.2271184257008,1181.5224699308728,-352.18493246125,-779.0816135988272,273.8081862432407,-327.1059659047748,150.2115470932769
0.0425,1.0350948779119002,-2.46049723101938,-0.4689597712104797,-0.1563419200077466,-0.3167935918862884,-0.001262973743343,-0.0001792456190106,-0.0060568827630493,-0.9772406695482788,-0.2120462479216579,-0.1897970355330786,-0.0784272284264517,11.760192285770044,0.1147271432698693,-0.0681887948047189,0.7031251178212634,3.5744585439201857,4.952654388311081,0.2546563938706265,1196.6896916121557,1198.537389553325,1202.8918549337548,1180.8051808836046,-237.11803602168413,-596.0420822805648,269.9455707004746,-297.8588706891971,150.21223830822976
0.0449999999999999,0.9480331768300012,-2.1348470382751827,-0.6921537689006125,-0.1487640700729203,-0.3247794978599801,-0.0041086581878149,-0.0005669294303209,-0.0058284595180932,-0.9772332930640096,-0.2120860164723538,-0.1881143110197281,-0.0758237061681676,11.759439338012262,0.1147393511444254,-0.0685876793018512,0.7078711977650328,3.5742732893180955,4.952943105556056,0.2564222240758078,1196.247287008358,1197.2677780294111,1203.5768462792032,1180.0331755774268,-70.98698679742486,-315.0877110467265,224.84767803402983,-283.7665633809594,150.21295267017865
0.0475,0.7027686728580435,-1.7632896104879663,-0.7804615030131608,-0.1437044173676905,-0.3303648719174217,-0.0076770350237636,-0.0009552689597085,-0.0055966025019966,-0.9772260019729953,-0.2121244875664481,-0.1862771104937902,-0.0733533382256279,11.758196374474014,0.1147380100563597,-0.0689871924926086,0.7126006565148044,3.5740889936069142,4.9532301105585566,0.258199802392768,1196.3347566781683,1196.9619509980914,1204.0160933239251,1179.3863480666998,142.13306610608913,36.9432984958166,141.48230060559388,-268.62414397951375,150.2134560519349
0.05,0.3082395839054173,-1.3413792984420965,-0.7390155617653063,-0.1416083023891083,-0.3338890294592729,-0.0117945677048624,-0.0013438867286384,-0.0053568581462381,-0.977219676986662,-0.212157707006866,-0.1842539022274766,-0.0711170518338705,11.756451343137796,0.1147243150681754,-0.0693955856305724,0.7173127909144689,3.573905533346339,4.953516951841204,0.2599895766331693,1196.9579523388886,1197.4524945218902,1204.2842577822312,1178.6900548575293,400.0716726770409,374.4894049828874,74.48808092026414,-320.3225158936222,150.21386817904352
0.0524999999999999,-0.2611027692124119,-0.846692236272001,-0.5497975281238161,-0.1424401006968611,-0.3356884330125318,-0.0158996169529165,-0.0017310754505745,-0.0051044313140727,-0.9772147276405,-0.2121839092142568,-0.1820446492037595,-0.0692320222722254,11.75418664369202,0.1146978140451499,-0.0698204522786651,0.7220077429992712,3.5737236165982798,4.953804831265825,0.2617911199016659,1198.3351150415535,1198.8343980230059,1204.3885337285265,1177.7847354872315,600.1456702748785,602.1364738024207,3.010546693349171,-344.32515682769935,150.21426093861533
0.055,-0.7585873599724525,-0.4861078263042295,-0.3129599474929655,-0.1450797196050642,-0.3359862963730104,-0.0178000388046639,-0.0021128679993738,-0.004835252277911,-0.9772119455721748,-0.2121995651457597,-0.1797080812769337,-0.0678110265240655,11.751376837473831,0.1146542052275468,-0.0702684935205914,0.726686860271402,3.5735439141017564,4.954094617610785,0.2636042375996004,1199.958680690263,1200.4631768909023,1204.299310515698,1176.9684290733908,720.954363571945,691.8968931568992,-65.4693906051761,-342.658885270748,150.214505348784
0.0575,-1.2312734970193324,-0.2085883148456701,-0.0607217516012669,-0.1486144619471894,-0.3357657105382162,-0.0177054933832579,-0.0024862010497851,-0.0045505330529709,-0.9772113790757216,-0.2122044176420435,-0.1773117496224224,-0.0668456877767825,11.747987969271112,0.114589182323457,-0.0707370626360258,0.731352875126378,3.5733668001621486,4.954386940184449,0.2654287230181656,1201.9398868594135,1202.2938824887904,1204.0611867755003,1176.071441060878,905.4157683304769,779.5830686411593,-124.14301848884865,-419.8703002913137,150.2146651243844
0.0599999999999999,-1.740713656772956,0.0189947095813008,0.1792097143954632,-0.1533839746774087,-0.3350344377542192,-0.01526284561267,-0.0028542112587194,-0.0042537055984212,-0.9772128973383056,-0.2121989078978072,-0.1747956434814171,-0.0662499909260127,11.743979549480873,0.1145066853071316,-0.0712176419171887,0.7360082479177397,3.573192219453189,4.954681573432933,0.2672639352260319,1204.4857595319152,1204.361092234108,1203.6785954232537,1174.8690775719342,920.4008661182348,690.9510456741376,-141.52626227810293,-465.3600033639125,150.21475948573195
0.0625,-2.1067147093637586,0.1268287755220786,0.285084024523849,-0.1577568678928985,-0.3343122657831088,-0.0117222637051541,-0.0032173905608555,-0.0039465835241922,-0.977216390921356,-0.2121834469049766,-0.1721565057548038,-0.065992552090235,11.7393009196413,0.1144075275366857,-0.0717045880729114,0.7406560267271286,3.5730198172932344,4.95497787095977,0.2691090794272704,1206.5418911900047,1205.748637717161,1203.35355546411,1173.7446410440584,764.1987627709105,450.03815495047047,-111.1601554927346,-473.4078366206173,150.21475656510196
0.065,-2.4016518504092206,0.1683574623723679,0.28447688192385,-0.1626449538219549,-0.3338874236317448,-0.0082363186140064,-0.003576040256663,-0.0036295555275771,-0.9772215968732508,-0.2121591876681226,-0.1693926211458959,-0.06608013837581,11.733892724205155,0.1142929943077894,-0.0721943507069045,0.7452991504366432,3.57284958478342,4.9552752260213,0.2709636727210751,1208.30675334577,1206.6112830088605,1203.12279464579,1172.5020383888311,634.0418018113718,248.04668809142615,-61.72583508036945,-509.7836258240472,150.21466760770585
0.0675,-2.6257929724622207,0.1729378617002118,0.2255690159791972,-0.1682115150459427,-0.3336509782611472,-0.0062721316081491,-0.0039340037308964,-0.0033025442535566,-0.977228141739904,-0.2121277568643554,-0.1664232178162282,-0.0665162565737792,11.727689401788936,0.1141700354407261,-0.0726832807306648,0.7499395604055691,3.572681661746439,4.955573377472583,0.2728270759667698,1209.7121001990615,1206.988871157618,1203.0449262887082,1171.195722914938,461.69206644944967,38.52061704515105,21.434414489567622,-525.8948706187307,150.21450579505162
0.07,-2.7432473190160196,0.154026745776825,0.1636530470056167,-0.174703100592323,-0.3333002891835062,-0.0067468057372829,-0.0042961499867698,-0.0029691414892432,-0.9772357072196248,-0.2120904629377614,-0.1631670076242011,-0.0672174547558036,11.72061907471896,0.1140463046383965,-0.0731627138087079,0.754579046978531,3.572516553780811,4.955871711012382,0.2746989185239807,1210.6152136780172,1206.8038860940862,1203.2299667182378,1169.8725640357375,278.7165495706181,-195.86012169147617,157.37827976167893,-572.4193253052374,150.21425453795828
0.0724999999999999,-2.7306114886795494,0.1292884153668205,0.1737078357629576,-0.1834741269661644,-0.332803747334071,-0.0094854996847149,-0.0046689044453225,-0.002639378193943,-0.97724386178218,-0.2120490083701958,-0.1595437722194911,-0.0679465049228283,11.712605762340187,0.1139301400647356,-0.0736145170065014,0.7592192045919209,3.572354406437847,4.9561695676818465,0.2765802760304282,1211.1056829469146,1206.0095705491608,1203.8318176875166,1168.333626288412,85.59030750766412,-376.5361420030793,290.1584055170593,-549.4571717355949,150.2138484485543
0.0749999999999999,-2.5757777949291847,0.1255848471917721,0.2909497172467674,-0.1913737944975723,-0.3326573806057909,-0.0122957197978536,-0.0050618061716898,-0.0023220333153467,-0.9772520156804452,-0.2120057921786988,-0.1554003837951527,-0.0684797197573935,11.703574332687888,0.113835312671484,-0.0740218123736995,0.7638592416682513,3.572195577960584,4.956466147340857,0.2784727530373016,1211.0431652155555,1204.9212053840708,1204.6807587458231,1167.1252781770595,-114.62814234077985,-519.714720428055,410.9156235092993,-461.99485772599434,150.213422693912
0.0774999999999999,-2.27091326232014,0.1609410248631548,0.5166214116296596,-0.1988325900926673,-0.3329362307716713,-0.0135404203067187,-0.0054797659446111,-0.0020204660698733,-0.9772594820063956,-0.2119638471406219,-0.1506670720467111,-0.0687388947250175,11.693451277346602,0.1137706983572188,-0.0743778413670148,0.7684963905629331,3.572040129442948,4.956760835952541,0.2803773139897839,1210.5325422352107,1203.4109969470203,1205.886395805063,1166.023651999782,-316.68641226005974,-766.083133718984,597.5603425771163,-452.13584356479214,150.21290682709343
0.08,-1.7652713194625802,0.2651403283805787,0.849232805849978,-0.2057438527584361,-0.3334662140855902,-0.0116922595262088,-0.005914058327949,-0.0017301198813552,-0.9772658155482072,-0.2119254926306552,-0.1455499060395947,-0.0688898370638114,11.68216519505666,0.1137268574794479,-0.074693246896114,0.7731270538564268,3.571887081495671,4.957053633918988,0.2822951527431829,1209.4597331542552,1201.090789715476,1207.6685604587087,1164.8645989592355,-457.5912602354488,-940.1278446404824,686.7700455884909,-391.3697084346037,150.2121852410848
0.0825,-1.2704119514008991,0.4045420804139323,1.1154197274740272,-0.2093564169895093,-0.3335177249301224,-0.0077390891204938,-0.0063494636851934,-0.0014454883387251,-0.9772706706823538,-0.2118927749190646,-0.1404001499813809,-0.0691454623616617,11.669652385581085,0.113683916991241,-0.0749834045981172,0.7777468893002907,3.571735439346557,4.957344373113116,0.2842275760926888,1208.2445859340335,1198.710357723818,1209.3202460330056,1164.066803457609,-529.1471965702835,-1046.9315898171762,656.7791104655947,-279.4213346242484,150.2115003142953
0.085,-0.7577951260563426,0.5850945211482058,1.308964437753606,-0.2112777090617689,-0.3323241781787199,-0.0029292856839753,-0.006774229372338,-0.0011623699238036,-0.9772739351429368,-0.2118665814007403,-0.1354963834871,-0.0696628878448153,11.655863545912332,0.1136255527616262,-0.0752617978299037,0.7823496706911072,3.571584606326001,4.957633250545544,0.2861755429179801,1206.8139971714036,1195.85613176639,1210.9524560110367,1163.4674922861143,-583.4745820571237,-1215.0941531000615,616.8115577172097,-209.327368412414,150.21073159760937
0.0875,-0.2712613633727906,0.7839991985960925,1.4184817992210228,-0.2121563907358906,-0.3300109546971255,0.0016284242164507,-0.0071796367427763,-0.0008766674322279,-0.9772755054744076,-0.2118477028836572,-0.131047432395337,-0.0705726155763076,11.640766023788652,0.1135390765394559,-0.07554145301699,0.7869276288279984,3.571434051945414,4.95791971668005,0.2881393382783614,1205.3272130237478,1192.6348869583176,1212.4043038215916,1163.0201666155467,-574.4037598599346,-1358.6591313023316,501.7754958726992,-155.87579934945123,150.20989616295847
0.0899999999999999,0.1409929083483565,0.991218239165681,1.4222214808146028,-0.2114551088233644,-0.3271103476722807,0.0056428102833617,-0.0075582923039883,-0.0005833669563571,-0.9772753424608276,-0.2118366317209363,-0.1272252713037671,-0.0720095221100442,11.624344779154862,0.1134133515731992,-0.0758368170330721,0.7914721643417343,3.571283902908922,4.95820294818921,0.2901187450093196,1203.941978372104,1189.0628361098784,1213.4613334904,1162.688113289367,-545.4721714296749,-1611.9657762113122,346.9278343273352,-146.16759205123373,150.20898378610565
0.0924999999999999,0.5068148198319822,1.2461562458065776,1.316779382994912,-0.2089172634451475,-0.3237385769429348,0.0102003141378611,-0.0079046175325802,-0.0002777707722742,-0.9772738861869664,-0.2118316058400984,-0.1241589941763164,-0.0740811861869696,11.606602962265557,0.1132390173116028,-0.0761617528544629,0.7959746010678433,3.5711341182290934,4.958483161913684,0.2921131211450304,1202.5998521665995,1184.5750580772612,1214.1389429932283,1162.2893286552908,-416.7548791227542,-1638.2553997340879,150.73319543525926,-165.15755397817867,150.2078040730292
0.095,0.6879687263631993,1.4677594414759572,1.154349374610674,-0.205875682559604,-0.3206694274545275,0.0137773003145387,-0.0082183332967128,4.4331874028195034e-05,-0.9772718088918424,-0.2118296123532122,-0.1218560704288592,-0.0768480044322594,11.587562834544595,0.113014229207382,-0.0765274263188108,0.8004261115690641,3.570985035634393,4.958761445055783,0.2941212949813505,1201.8582039764904,1180.871559111208,1214.2149994675765,1161.862325519476,-205.53170158436825,-1416.7351509331625,-45.514318323193905,-203.672531445636,150.20675285283139
0.0975,0.7460099040162029,1.7035917620284509,0.9441006178843088,-0.202633507893816,-0.3168322858443406,0.0164950164826464,-0.0085032848174569,0.0003816699810236,-0.9772692134584914,-0.2118301060624857,-0.1202537693838771,-0.0802193710464296,11.56726369758318,0.1127420555478293,-0.07693365074803,0.8048193689366919,3.570837344579893,4.959039071271192,0.2961422119848918,1201.5721936586776,1177.4913823225954,1213.9113714016123,1161.2709659980624,-23.203825000382473,-1344.756127218487,-172.5550933025714,-297.931978175711,150.2056335474556
0.1,0.7123443417395902,2.0076021919832625,0.6793995998077234,-0.1998048618734136,-0.3115688705138184,0.0183416236387615,-0.0087695766664645,0.0007263164313411,-0.97726624798115,-0.2118320881604599,-0.1191769043630249,-0.0839178008832981,11.54576115479792,0.1124332496076465,-0.0773665430878505,0.8091487069626467,3.570690977265589,4.959316740598052,0.2981745000580459,1201.7421848514884,1174.1477784751155,1213.3522240010636,1160.3726656285976,136.12192820251028,-1064.5672659636139,-200.9377092839712,-352.4717848538327,150.20421413650544
0.1025,0.6415792405661072,2.281851845161984,0.4785250579797816,-0.1989408876875441,-0.3067019683532867,0.0187755509259731,-0.0090268200282969,0.0010697367618782,-0.9772633174407628,-0.2118333901319005,-0.1184613605455387,-0.0876512074092764,11.523123874951967,0.1120978255830265,-0.0778103319017142,0.8134103451629592,3.570545738055123,4.959594602008345,0.3002165545631088,1202.25280329969,1172.1685459927771,1212.9066828551925,1159.5086070737934,259.16382298169134,-591.078699427636,-142.75290819373393,-356.1428486421853,150.2029691785076
0.1049999999999999,0.5767685784837983,2.5798813939051994,0.3223562209123485,-0.1991738266649301,-0.3012065856527187,0.0184057329574776,-0.0092782756621779,0.0014089036161052,-0.9772607925371088,-0.2118322369761596,-0.1180560410786838,-0.0912818668563075,11.499430163202312,0.111738204922981,-0.0782589315969143,0.8176021802383672,3.5704024023851426,4.959873206710892,0.3022675446807031,1203.038003966397,1171.192384977977,1212.6384594600947,1158.5919513853867,379.9084322657116,-190.69598405226353,-67.319836970819,-402.72284814495913,150.20166099825505
0.1074999999999999,0.5385722775274981,2.961759272752561,0.1907285796851108,-0.1993373669885763,-0.2939495930487038,0.0176777334702178,-0.0095242653298799,0.0017416392646219,-0.977258849863858,-0.2118278579843533,-0.1179680709619928,-0.0947061027220986,11.474766278440494,0.1113531291060587,-0.0787076057282782,0.8217238185355396,3.570261926465576,4.960152581458307,0.3043270368409756,1204.1523454610187,1171.215066072516,1212.5700836703384,1157.4949928330686,417.3484721117798,189.484067997091,5.038954241581446,-396.1326996510248,150.20001908365296
0.11,0.5413861768418632,3.291701429874262,0.112710368093116,-0.1989385974313492,-0.2873110332296323,0.0175773303189537,-0.0097698692551461,0.0020670816081323,-0.9772575272230885,-0.2118198913485511,-0.1180878493834169,-0.0978284244582619,11.449227061038876,0.1109501173168787,-0.0791514702567612,0.8257747463879674,3.570125242726041,4.9604321484899145,0.3063945943262157,1205.1247463269558,1172.1398053179628,1212.6636542313029,1156.6112878871315,379.1108291483848,512.8243341119737,36.51503305095499,-343.15529266227685,150.1985914704954
0.1125,0.5623352812060105,3.612659174355677,0.0359691000525066,-0.1981844521113216,-0.2796164971523885,0.0187792024788479,-0.0100184759955074,0.0023835324817295,-0.9772571442561464,-0.2118067575012498,-0.1183449862407829,-0.1005451738984128,11.422911773366915,0.110534111003239,-0.0795848937263642,0.8297556232449997,3.569992995287522,4.960710452034668,0.3084706544193335,1206.0478996067607,1173.779187743076,1212.7526588355931,1155.7792163697573,351.2121295263111,728.5577024405932,4.772467369593865,-321.3749212303807,150.1971034892131
0.115,0.5755443711887415,3.9018498026892816,-0.0607955659105048,-0.1969072063132893,-0.2708424202254098,0.0205464371252259,-0.0102692742863263,0.0026907146442216,-0.9772579602056024,-0.2117873389852376,-0.118753028531798,-0.1028093010893351,11.395922114243183,0.11010414557227,-0.0800058704130194,0.8336679537507956,3.5698648155190287,4.9609862991113935,0.3105550274283733,1206.8808069745871,1175.7825938301655,1212.6875165681508,1155.0044132809796,303.76117746122844,829.9654878857829,-94.91194525839992,-292.26855013239367,150.19556668668764
0.1175,0.5473355262719052,4.117986088781913,-0.1861435150376487,-0.1944383711991718,-0.2608051397818602,0.0215828091057623,-0.0105178913072924,0.002988933505118,-0.9772599221764104,-0.2117621275932803,-0.119398335518809,-0.1046098496999147,11.368361459524627,0.1096538290138756,-0.0804142994805934,0.837513836784929,3.5697397966684306,4.96126001973989,0.3126475337785873,1207.5667054940668,1177.9290151825048,1212.2780991093011,1154.3178736190953,261.8330163819342,910.0905418642031,-280.32726941537527,-277.55695008791054,150.1939729022847
0.1199999999999999,0.4359604299777515,4.251835357877598,-0.3453982864088713,-0.1907882086781853,-0.247632303484756,0.020844136869133,-0.010758889663058,0.0032777203265364,-0.9772630519868108,-0.2117313363366315,-0.1203901272894969,-0.1059292560809363,11.340335205904815,0.1091742866119134,-0.0808092350969972,0.8412955070974258,3.569617127056514,4.961532505580032,0.3147481511553547,1208.189972056497,1180.3330465394868,1211.285880221074,1153.61662853054,192.95778589262264,817.1570103203537,-442.00205003412606,-234.65182891950508,150.19199743219752
0.1224999999999999,0.27824392135007,4.238960839640133,-0.4582353682850384,-0.1884084438072279,-0.2361184673332365,0.0185485438510397,-0.01098788992468,0.0035586783549394,-0.9772672855826132,-0.211695494115889,-0.1217992929712106,-0.1067973014558656,11.311951749506745,0.1086586341466364,-0.0811926300615371,0.8450141160429887,3.5694965408239887,4.961804165505494,0.3168575074805005,1208.53149442353,1182.0148002341064,1210.0680888591305,1153.1446144744975,98.93528939383025,583.1631525136794,-538.379165923197,-164.33732073955963,150.19030128618343
0.125,0.0812602796969915,4.0932480142085055,-0.529128888073129,-0.1873949175032333,-0.2248301472527727,0.0156444092306957,-0.0112043804303355,0.0038345676544726,-0.9772719156748167,-0.211657885752814,-0.12360094555997,-0.1072591236232463,11.283323758226242,0.1081067857595072,-0.0815663734761025,0.8486692210359467,3.569378247956515,4.9620750420077835,0.3189751988394913,1208.684648503466,1183.2488623020552,1208.593984391458,1152.7949419268423,24.727147608382417,435.93725699602106,-653.7459722279431,-126.69600956337479,150.1885567746743
0.1275,-0.1457662362494632,3.7894825152770286,-0.5728167034668593,-0.1880370397975365,-0.2124624409694622,0.0133607625718287,-0.011411005869746,0.0041081771184596,-0.9772760224609252,-0.2116226149999339,-0.1256962788531943,-0.1073529152725318,11.254568436460659,0.1075237374999254,-0.0819311169030598,0.852259005726945,3.5692628290666404,4.962345307446131,0.3211009405546464,1208.6551301615718,1184.1944865190867,1206.7993589979908,1152.5111344266809,-45.23123628141544,265.4743882393629,-619.8162802512337,-84.15361040060807,150.1864119725045
0.13,-0.2861104282373661,3.4628594256144876,-0.5960904034637731,-0.1899722462425635,-0.2034011873735756,0.0128322919322453,-0.0116096062815839,0.0043853156068872,-0.9772789321722132,-0.2115926352513368,-0.1279858746697679,-0.1071934366938417,11.22580695850562,0.1069138085349515,-0.0822931689864416,0.85578021468338,3.569150330555333,4.96261496538819,0.3232351664731809,1208.458492322059,1184.576234243252,1205.4949029902018,1152.3741738748392,-113.1779128416382,84.02540790962114,-439.3567254336172,-38.59824724263486,150.18458531409067
0.1325,-0.3427228126598058,3.111043230144488,-0.6289174020851528,-0.1924347570428213,-0.1956466707195637,0.0126844926787481,-0.0118003234682006,0.00467032619748,-0.9772810940643026,-0.2115658229992368,-0.1304101506652792,-0.1068744537655528,11.197164233610428,0.1062768461477511,-0.0826582444931182,0.8592291250215318,3.569039867929007,4.962884161073612,0.3253798493382898,1208.0892405973636,1184.6146135586348,1204.6025753708227,1152.3181431904677,-202.28354928035495,-40.97463504440381,-269.3507408658204,-9.392306123436347,150.182722084614
0.135,-0.3085020582785713,2.7224461068777095,-0.6837379490841861,-0.1950195941750028,-0.1882011164480408,0.0115686829871746,-0.0119839872782342,0.0049607581087274,-0.9772830652204516,-0.2115396455234835,-0.1329219991769843,-0.1063442675021887,11.168769412860811,0.1056110726824226,-0.0830206978759041,0.8626023288528613,3.5689309125793804,4.963152949667196,0.3275373101807684,1207.447074575657,1184.37136106803,1204.1481492858727,1152.327212344222,-270.3129591955983,-119.46746547791908,-62.72090735710657,18.048825780351745,150.18044892041823
0.1375,-0.2125374627287463,2.466882031487488,-0.7318032873534529,-0.1964145651057341,-0.1834707395196908,0.0096062701184218,-0.0121581065167378,0.0052524690457003,-0.9772848985546948,-0.211514117118365,-0.1355502340359702,-0.1055393107310418,11.140754240209704,0.1049087781912727,-0.0833729122125551,0.865896807082591,3.5688236355933114,4.963420372083078,0.3297092097824169,1206.7376758013856,1184.0172762312452,1204.2889708340372,1152.4083873193695,-324.02491327338765,-148.0325546681341,141.49009265852317,60.382952003556,150.17852723427993
0.14,-0.0853210455770526,2.3117384831219967,-0.7668576779112146,-0.1965833846082504,-0.1792883338005303,0.0071257407360527,-0.012318646157408,0.0055430350118761,-0.9772864894316388,-0.2114900335947511,-0.1383444797023264,-0.104448487116633,11.1132527296237,0.1041603638732573,-0.0837107795516612,0.8691096480113054,3.5687178896515475,4.963685769328535,0.3318952949493264,1205.8269500092904,1183.6311982946893,1204.855599749165,1152.6291271042398,-400.8799534807164,-139.41731886570767,265.031838976847,130.70861063511063,150.1765815978138
0.1425,0.0345291460294997,2.24345027155936,-0.7852887649721492,-0.1955541966403571,-0.1750017047888048,0.0047491522448602,-0.012459829840764,0.0058319814825993,-0.9772882025028046,-0.2114660812090923,-0.1413787965010568,-0.1031159030781816,11.086399104267716,0.1033537408625039,-0.0840347031299507,0.8722388896204347,3.5686132047934858,4.963949205901416,0.3340934717600475,1204.733276033982,1183.3201896369167,1205.6141300289214,1153.061930372545,-482.57633470598415,-84.3468775527985,300.37671025006745,258.2705921960508,150.17461949679637
0.1449999999999999,0.1150866678892428,2.2643202316001294,-0.7856582115589483,-0.1936100315260559,-0.1705072368639025,0.00288943274209,-0.0125765574702228,0.0061194534418863,-0.9772901477576909,-0.2114420729763191,-0.1447067528016272,-0.1016017989468529,11.06032590541398,0.1024786713694974,-0.0843457370134148,0.8752841078729174,3.568509591994344,4.964211041696194,0.3363010866314542,1203.4140683357605,1183.2094639069253,1206.3574833004157,1153.92048006522,-627.1490682008364,15.166246597846182,261.13753362069593,525.9997398528437,150.1726417271039
0.1474999999999999,0.1557779457253283,2.3532531815184,-0.7721486905476622,-0.1916319404040512,-0.164604717837795,0.0011820079190911,-0.0126708265361634,0.0064052041131377,-0.9772925441829564,-0.2114169097034901,-0.1482292680712087,-0.0999285283541712,11.035163264556743,0.1015373481099272,-0.0846417407969987,0.878246019251207,3.5684075030348335,4.964472020728556,0.3385162204089899,1201.597530692978,1183.396020869906,1206.9198176970249,1155.6919290718092,-695.7666278768096,123.52195653384103,116.1883682521874,805.3103859455398,150.17025575437515
0.1499999999999999,0.1570356238230317,2.441883807505075,-0.7511174963039342,-0.1907991187831336,-0.159003871785551,-0.0001763792169968,-0.012750827731254,0.0066883711463209,-0.9772954376963234,-0.2113899434628209,-0.1517186961776132,-0.0980806109981507,11.011035154058357,0.1005434072646706,-0.0849170121537369,0.8811268669685384,3.5683084293594294,4.964732969696882,0.3407376725509984,1199.9352351963764,1183.8270736895945,1206.9384251416764,1157.9470319949476,-679.9450003170926,218.3982314079456,-106.50109824978234,1084.232319517013,150.16826078612962
0.1524999999999999,0.1559963459989635,2.493999419077412,-0.7145938800818349,-0.1907345654802005,-0.1524582622910882,-0.0018670084180005,-0.0128240302348795,0.0069663849143459,-0.97729837339803,-0.2113629352021566,-0.1549758415802116,-0.0960143967539588,10.988052984769842,0.0995101824105409,-0.0851627556691194,0.8839317181573851,3.5682142381366964,4.964993615573229,0.3429639451110368,1198.1978056913924,1184.4880120269456,1206.387312205776,1161.1130906693943,-760.2417731086,317.7660131517766,-367.95782623271367,1589.1837244290386,150.16626325434055
0.1549999999999999,0.190425047133956,2.460737052471032,-0.641234790167216,-0.1912070369210565,-0.1435820019720113,-0.0040220587751576,-0.0128952784634988,0.007240125092143,-0.977300907024646,-0.2113376492917435,-0.1578480896284388,-0.0937748581218354,10.966312072906215,0.0984488232958002,-0.085377459010177,0.8866674108758416,3.5681252763421645,4.965253493596215,0.345193449375119,1196.1340263308334,1185.4159037553532,1205.098636010513,1165.8929506170928,-737.1978709566512,339.70777540557685,-555.4265690413099,1874.3562863945936,150.16386791414283
0.1575,0.2689872625055387,2.3293134087055094,-0.547896028480843,-0.1917197099772619,-0.1359432044776299,-0.005662843235931,-0.0129681809703852,0.00751156015194,-0.9773023007603776,-0.21131725530377,-0.1602119660804819,-0.0914376708803931,10.945889294460232,0.097369786188627,-0.0855624504063353,0.8893423273953543,3.568040878481943,4.965511817776108,0.3474248071867835,1194.5118163366092,1186.1865509039735,1203.6101793605694,1170.4848721013673,-611.6948076120929,282.63602610386414,-642.234870754009,1880.1597797369575,150.16187636836432
0.16,0.4077995075833218,2.090331421772836,-0.4154751089425308,-0.1918127657946556,-0.1290887010789895,-0.0074012751101539,-0.0130467960554158,0.0077775483474812,-0.9773013960547828,-0.2113070126481622,-0.1619670855838434,-0.0889681681433352,10.926841182716547,0.0962832806060256,-0.0857106041758248,0.8919667433382709,3.56796020606894,4.965767040272313,0.3496569968971072,1193.0755522927727,1186.8290838858727,1201.8874616567427,1175.2937495157776,-575.2021703100122,233.74998846843465,-759.8000900407435,2047.334189974252,150.15989305114078
0.1625,0.6332696149295455,1.716191068728032,-0.2136560027984797,-0.1909552670079395,-0.1229814177857802,-0.0095632010043865,-0.0131346603579623,0.0080331799468823,-0.9772976258821376,-0.2113095254856969,-0.1630417486197427,-0.0862931702374378,10.90920298622381,0.0951977868683269,-0.0858132839527452,0.8945514638633378,3.567882462104855,4.966017541798966,0.3518902640440312,1191.635805485059,1187.3553008463157,1199.8111789103657,1180.7215430512383,-476.0857461135852,147.39294204891834,-727.1156057312048,1850.3637169053927,150.15752628109095
0.165,0.8523974595297003,1.373736874453174,-0.0231213059348591,-0.1893420360884481,-0.1200138071679195,-0.0107007035339645,-0.0132335323285533,0.0082773063177048,-0.9772910489764832,-0.2113244703840418,-0.1633946164804775,-0.0834233614773278,10.892989047891652,0.0941196638614544,-0.0858702793894717,0.8971060008857332,3.5678069185555805,4.966262402001923,0.3541260068001026,1190.695123562205,1187.5660485961173,1198.2518836280867,1184.5455681003048,-324.74503437479115,44.606179155743995,-556.4842897641024,1312.108797912559,150.15556745927788
0.1675,1.0774017482006226,1.0478173472069923,0.1588579811033725,-0.1866866217222261,-0.1186864949243845,-0.0102890642326779,-0.013341428062977,0.0085095304041749,-0.9772823330502765,-0.2113489164559503,-0.1630704553834023,-0.0803971496206711,10.878192822429316,0.0930484183616781,-0.0858848418889191,0.8996387560691953,3.567733118993183,4.966501613895296,0.3563662141086808,1190.0120803131852,1187.5783317420944,1197.0287574615452,1187.2820870408011,-238.31066287430056,-12.521217536823304,-421.61812595550106,889.1614789842142,150.1536253402353
0.17,1.288423453108396,0.7580061970596484,0.3054973115735534,-0.1831574759002842,-0.1179856308183661,-0.0086945886791234,-0.0134534192006687,0.0087286348474733,-0.9772726209459895,-0.2113779603065063,-0.1621899681669248,-0.0772436669880088,10.864789050583104,0.0919774331590066,-0.0858599880929858,0.902156746083564,3.567661323491639,4.966736073195322,0.3586129789664719,1189.5035702478335,1187.5034425084332,1196.1437929983094,1188.9913754952258,-178.3145448049252,-23.861998127949825,-273.73674994028056,443.7325437679188,150.15169890936053
0.1725,1.4679464892713443,0.5162487569784663,0.3849662294595616,-0.1789648096029464,-0.1172844470364003,-0.0065087509545337,-0.0135625714232829,0.0089334872399147,-0.9772633455382128,-0.211405482952137,-0.1609252338348722,-0.0739984968827928,10.85273690361554,0.0908959729331014,-0.0857991343275237,0.904665117960794,3.5675920374041405,4.966966984446676,0.3608679526663854,1189.1205075891603,1187.4590217514547,1195.6600737118436,1189.5007497596407,-169.52821837799078,24.977961117428983,-138.27391907534536,0.3122054795312576,150.1497934058428
0.175,1.6440274210297274,0.2663847824249572,0.3948041831803881,-0.1740531642809421,-0.1158170427247086,-0.0041671871049014,-0.0136655379428139,0.009125312969216,-0.9772553671515318,-0.2114276835942391,-0.1593708202308919,-0.0707294783519085,10.841985545554513,0.0898004916465274,-0.085707134337915,0.9071660347089024,3.567525815830808,4.967195551664452,0.3631323123273331,1188.6559291559436,1187.6283323140203,1195.4524234029327,1188.9929365226235,-195.4026053854259,121.7424147999742,-35.02035347528379,-309.1270289918171,150.14753333038905
0.1774999999999999,1.7647682167376195,0.0771103157859781,0.342573236693534,-0.1703067454267846,-0.1141793826682084,-0.0026500762343714,-0.0137649481562504,0.0093086064462264,-0.9772488174931188,-0.2114436087157291,-0.1574890725474784,-0.0675459885139042,10.832477996007883,0.0886994016684585,-0.0855908867847101,0.9096585981598886,3.567463147135988,4.967423173981651,0.3654075743895663,1188.1434945622332,1188.0677338254543,1195.4849719444671,1187.9551146146819,-255.08849782295448,250.84281435170055,26.381000643869022,-451.4886877900629,150.1456735635395
0.1799999999999999,1.8672493739194729,-0.0972580240467152,0.2542024788868424,-0.1666476210622683,-0.1132434772408007,-0.0016404700414558,-0.013866371107421,0.00948665037372,-0.9772436328043592,-0.2114530716551782,-0.1551942264303487,-0.0645168811317206,10.824151446665015,0.0876057566371661,-0.0854530574191546,0.9121408521331894,3.567403949814212,4.967651214904365,0.3676943747105343,1187.3804866668288,1188.8825463857788,1195.584328406152,1186.7354930836732,-404.5606272697111,436.1502530497542,23.979880840215607,-473.8412285606042,150.14383993288143
0.1824999999999999,1.9690042235019112,-0.2720734760945207,0.1470566689273476,-0.1617709764817765,-0.1140341234221205,-0.0012188154375993,-0.0139729846921867,0.0096593238789916,-0.9772396742911288,-0.2114565295724534,-0.1524741623085275,-0.0616490562586522,10.816936501167284,0.0865269734282821,-0.0852905629136601,0.9146117085862624,3.567347999402827,4.967880102340182,0.3699919376316651,1186.1206914258848,1190.2484850907033,1195.6048713486684,1185.5859084718788,-510.83146700129834,541.5712902010449,-32.731917601086,-306.0863202669677,150.14167140913287
0.1849999999999999,2.027589499409267,-0.3711743870869865,0.0877584260914955,-0.1569966405912893,-0.1159610091325985,-0.0015467214899912,-0.0140830966304257,0.009828550293729,-0.9772367043958308,-0.2114551138910741,-0.1494163275661218,-0.0590142573511367,10.810758539644455,0.085462532661777,-0.0851057171007595,0.9170708555196072,3.5672958978722424,4.968109026076782,0.3722980040941945,1184.8263293318223,1191.590402836784,1195.4206688181466,1185.2050614823384,-539.0604741170132,534.2695255344092,-136.8669872049394,14.295778020232307,150.13989185474279
0.1875,2.0446741529551384,-0.4122341813245553,0.0901506535127805,-0.1515084403225847,-0.1181954107030635,-0.0024260416086538,-0.0141913525769176,0.0099986203174042,-0.9772344125401284,-0.2114504182524472,-0.1461790517837885,-0.0567498500036875,10.805539340041136,0.0844062033395038,-0.0849069162483819,0.9195189957025224,3.567248511758448,4.9683365371102255,0.3746094781063133,1183.4253890552995,1192.9198327183751,1194.9205364126435,1185.65738736198,-590.89294020664,521.8527256496141,-301.7272549923288,398.5624885222929,150.13814193377925
0.19,2.0074124801487554,-0.4088594573681744,0.1817404343830499,-0.1447042273417366,-0.1204378208818596,-0.003656060812716,-0.0142961016445452,0.0101717808782244,-0.977232344271422,-0.2114445408022576,-0.1428546203448589,-0.0549315572754427,10.801199739559888,0.0833574593261556,-0.0846982261137867,0.921957897116181,3.567205579328407,4.968561311153722,0.3769243092170831,1181.871864630789,1194.199666465032,1193.9120325431848,1187.1978739249498,-509.2097232476585,377.5114324026159,-430.66152745145666,701.9982803365559,150.13607727554955
0.1925,1.9315028387588289,-0.3880662743849965,0.3275679556662118,-0.1395302487641029,-0.12155647755613,-0.0042346017675052,-0.014401371996234,0.0103479970121189,-0.9772302943659084,-0.2114381533228095,-0.1394267245540845,-0.0535573805391953,10.797660536704415,0.0823245098019404,-0.0844785674388391,0.9243899951369956,3.5671659299233687,4.968782508801901,0.3792422699656143,1180.8793404390615,1194.8073898803884,1192.7672287753865,1189.1673787636628,-292.6877371227417,117.77975064965166,-498.80799778425126,860.6521194083134,150.13438668317676
0.195,1.8239598793946563,-0.3881154066983877,0.5193412219911797,-0.1351682303041001,-0.1215222449491174,-0.0036030872987607,-0.0145107485042344,0.0105277262120479,-0.9772286008164658,-0.2114294261997941,-0.1358850593273685,-0.0526325024838457,10.794840992383325,0.0813140233603753,-0.0842492090925448,0.9268182296311348,3.567128462606576,4.968999933300772,0.3815633877623371,1180.4084259451752,1194.7885652182804,1191.4179925542635,1191.5011345219912,-77.91914070717203,-116.5799964677716,-551.206103907361,926.0487701653792,150.1327277263305
0.1975,1.7040508526285016,-0.4308069323617182,0.7193246493134716,-0.1312447712527383,-0.1207323250446301,-0.0017373337421959,-0.0146256362375617,0.0107130011685561,-0.9772277311547584,-0.2114159977727581,-0.1322556476536214,-0.0522007212034172,10.792659037021801,0.080328599933097,-0.0840160108176902,0.9292455844640428,3.567092387172357,4.969213443386576,0.3838877015075055,1180.4897447355256,1194.2244898980496,1190.0111982558496,1193.7976226144897,183.6319267245015,-341.5375378186579,-549.1597916800852,826.6820086125782,150.13109529814952
0.2,1.5831862265244778,-0.5350023311632722,0.8932384491480178,-0.1275432361244169,-0.1199903660408713,0.0012007151128166,-0.0147477664626303,0.010906763000285,-0.9772278024600826,-0.2113970527901188,-0.1285497819291038,-0.0523198360630972,10.791032943039603,0.0793713718486096,-0.0837867651796626,0.9316744653299684,3.5670570600321128,4.969422792522245,0.3862162443120033,1181.326585578798,1193.080877529187,1188.6721935958633,1195.6345445650543,549.8966045921857,-595.8805543365537,-543.5153325869574,618.0398914712889,150.12949508960256
0.2025,1.4502349821424667,-0.708234083551904,1.0399372592778824,-0.1234743892823152,-0.1202358174972403,0.005160258597765,-0.0148770732691274,0.011111369450727,-0.9772289384959612,-0.2113719010233002,-0.1248136061180958,-0.0530383270415694,10.789881410312484,0.0784414099616304,-0.0835692473973606,0.9341069015423804,3.567022463188902,4.969627889514014,0.388550322549149,1183.2392277584863,1191.2450871263668,1187.2936215929149,1196.887822071846,845.171785362617,-712.2930834804713,-451.97066481209686,268.33025253390565,150.12761223158677
0.205,1.3562184132754436,-0.8536664025067913,1.1013116453401959,-0.1205993538554493,-0.1216889189840211,0.008197396836543,-0.0150107550238667,0.0113255384292078,-0.9772313008124044,-0.2113400639864684,-0.1211603969654437,-0.0543351437542629,10.789124085008298,0.0775308898287413,-0.0833656504922263,0.9365450445943776,3.566989061986595,4.96982868061459,0.3908906362038271,1185.5524445056108,1189.5194121117847,1186.4123402718028,1196.9761958277238,1050.0898871336167,-686.0717940618082,-288.5610452769467,-162.31497728790586,150.12607434348945
0.2075,1.2817714769984399,-0.9397414537011838,1.100996034376302,-0.1181387142684607,-0.1244841323999376,0.0107670592584232,-0.0151447427043331,0.0115429562107973,-0.977234536586808,-0.2113037965967796,-0.1177454149558416,-0.0560857995420886,10.788683403301327,0.0766276458684666,-0.0831687409347351,0.938991184190254,3.5669570714050733,4.970025280490208,0.3932372931884167,1188.4896771941546,1187.8147281560575,1185.85081636653,1196.0762471854066,1389.5422326898888,-703.070755004686,-177.6800730707245,-579.2669588881408,150.12456870065583
0.2099999999999999,1.2054048042372578,-0.9070303463775568,1.0357172080195856,-0.1154061235407983,-0.1290867465080089,0.0138457997429704,-0.0152762895666795,0.0117563943963485,-0.9772377089568108,-0.211268007170353,-0.1146915349702879,-0.0581378395628592,10.788487752745285,0.0757215603324543,-0.0829680451216316,0.9414466483471546,3.5669264549432844,4.9702183092256735,0.395590167351003,1192.5001556690604,1186.004058336761,1185.5239399064492,1194.0798610332831,1507.1526035945296,-602.7904964689725,-73.3726567289981,-833.5585693062552,150.12279917682542
0.2124999999999999,1.135967594841826,-0.7332099042158594,0.9315684195304696,-0.1132051079626204,-0.1332255586299243,0.0163957961112754,-0.0154025181600346,0.0119622804859847,-0.9772397217085532,-0.2112381595559241,-0.1120978266734801,-0.0604130439210305,10.788473099220038,0.0748034634789305,-0.0827588994121051,0.94391112083922,3.566896987984013,4.9704089100918525,0.3979495093720178,1196.0254402121273,1184.800775673713,1185.4839530828851,1191.9084543388751,1389.3539575744387,-401.0667238112088,15.26336514912144,-909.0164128796451,150.1213558191378
0.2149999999999999,1.0301109212306978,-0.399228106922137,0.7825177145317648,-0.1105970375917502,-0.1363711412266791,0.0184911523021503,-0.0155199785398101,0.0121612570632126,-0.9772395741517752,-0.2112190981503793,-0.1100457408401582,-0.0629213511276164,10.788583934793836,0.0738645140373765,-0.0825437849358018,0.9463826379682776,3.5668686021528364,4.970598274025811,0.400316126090229,1199.4469254569326,1183.9987247177053,1185.6002567321948,1189.534778968885,1308.9160994659767,-247.9616858299321,62.91013266582007,-942.6199272705154,150.11994546248792
0.2174999999999999,0.8673152692018576,0.0484697713235174,0.602838684412439,-0.1073312773666953,-0.1380070298845895,0.0200855677008177,-0.0156266551630954,0.0123554325865137,-0.9772366297831016,-0.2112138062633568,-0.1085691140430576,-0.0656938922551552,10.788774111734428,0.0728988807833976,-0.082326694361165,0.9488580285140168,3.566841756356196,4.970787066818185,0.4026911919647647,1202.5700207094571,1183.5609672445632,1185.7985037462142,1187.1953547025228,1136.0195363607536,-87.15525188445093,97.45676313405048,-897.074761255134,150.11856314418708
0.22,0.6113969284678707,0.58773241181994,0.3940592512533203,-0.103846106525691,-0.137453591455531,0.0211207811025666,-0.0157219615917612,0.0125451456655263,-0.9772308791588852,-0.2112223645372109,-0.1076692698346358,-0.0687149368724222,10.789006599922292,0.0719025937769466,-0.082107414507152,0.951333806658982,3.566817349672656,4.970975375036939,0.4050756657115215,1205.1270231387364,1183.562948458283,1186.087540547865,1185.0494051626092,961.3911571257622,93.73597722387775,160.0561928344176,-884.8334480354416,150.1172157542973
0.2225,0.1925640713359108,1.269496044848566,0.1177823045133063,-0.1007584061561413,-0.1341570206572228,0.0217746332262648,-0.0158045947845655,0.0127296693077859,-0.9772228085185282,-0.2112426783566182,-0.1073581431656369,-0.0719476807814919,10.789252744976839,0.0708701716102273,-0.0818838230468813,0.9538066711066584,3.5667963601558466,4.971162841969441,0.4074697384567395,1207.376976495086,1184.0296471306826,1186.5987847103863,1182.7711874623456,680.997815637374,237.14555122287473,229.26234960905256,-789.3740400791551,150.1156411061214
0.225,-0.2290083527836953,1.8166802593020392,-0.1295912615063907,-0.0997680536731808,-0.129478403482065,0.0218721477177877,-0.0158730875782835,0.0129069783411225,-0.9772133597450932,-0.2112706424466486,-0.1076489082093381,-0.0753272413696296,10.789491693848904,0.06979565587661,-0.081651482423874,0.9562739672495508,3.566779304402468,4.971348895355062,0.4098724346684797,1208.5320122169232,1184.7486762143972,1187.2338522959103,1181.1025349622134,320.5701491749548,338.8753543490108,311.3648774628016,-633.5641032254892,150.11436571357515
0.2275,-0.679769730371268,2.2962747629945,-0.3895045676410645,-0.1007450982546846,-0.1235436100149793,0.0216047799845814,-0.0159275374757879,0.0130741738592182,-0.9772036067267756,-0.2113014823590636,-0.108519299989349,-0.0787626619737866,10.789709776695275,0.0686761844278115,-0.0814038424234275,0.958733858808086,3.56676626840936,4.971533206620461,0.412282260949724,1208.9798272409607,1185.7240239024277,1188.1556090977003,1179.603366946218,57.56176723853054,465.7316092083871,471.0147516115736,-637.5995397179844,150.11313078996528
0.23,-1.189026540007287,2.7619961609074033,-0.7048637333825796,-0.1041191438391941,-0.1155409358934685,0.0207687343005083,-0.0159710142680534,0.0132294444363044,-0.9771941958105876,-0.2113321152020202,-0.1098750207364284,-0.0821732204082964,10.78989957967201,0.067515706426051,-0.0811353379325825,0.961185104178014,3.56675701745422,4.971715503960282,0.4146984540498834,1208.819821053116,1187.077334260439,1189.588926053968,1177.9145372636235,-152.37658053997606,509.8205984675128,562.5707375344059,-606.7940820993492,150.11169828367247
0.2325,-1.5423609436266854,3.046772222916085,-0.9555040490701722,-0.1084567401251193,-0.1082826614756771,0.0194038938573011,-0.016010493605165,0.0133727534339945,-0.9771853449593908,-0.2113610367386269,-0.1115282723586448,-0.0854979292327854,10.790058453540079,0.0663269513327437,-0.0808425523446786,0.9636269965601396,3.5667510372120783,4.971895087970379,0.4171208767106015,1208.2179443382608,1188.2731268947653,1190.9684627853724,1176.5693965357211,-308.73182888954005,475.1460774252333,549.1456398441184,-518.536268209345,150.11054727424997
0.235,-1.7830728081863971,3.2182972584372767,-1.1655634661262062,-0.1138890851073762,-0.1007742252281439,0.0169632889586517,-0.0160529346701016,0.0135070473196204,-0.977177030081776,-0.2113876732694252,-0.1132761511972886,-0.088737534584981,10.790185413121668,0.0651243967742872,-0.0805283327096736,0.966059600254726,3.5667480577842774,4.972071333428948,0.4195488050695262,1207.2761619086682,1189.4530646475655,1192.3346542531888,1175.3218559225768,-457.8073895394933,504.16931577287824,534.7834999350193,-500.66028548881104,150.10944204010588
0.2375,-1.9236421560280588,3.290103660667537,-1.331107945687288,-0.1209373846430616,-0.0915906624697087,0.012490649942173,-0.0161033312367484,0.0136367625606098,-0.9771692606764404,-0.2114113410777927,-0.1149495947259716,-0.0919301912531679,10.790278390256807,0.0639197361151396,-0.0801999541221561,0.9684841839731754,3.566747779294899,4.972244126841892,0.4219808462362387,1205.9289073905632,1190.7939734736296,1193.6423802850475,1174.0660951082773,-505.18812986838617,478.0377288062504,378.963950671461,-393.1386826125636,150.1081697157225
0.2399999999999999,-1.9242884822542867,3.235041096343445,-1.3724498376889291,-0.1265877976779686,-0.0834679508746828,0.0076486903638688,-0.0161665827443295,0.0137645529274473,-0.9771623657253156,-0.2114299917462363,-0.1163897576018287,-0.0950720806371627,10.790332907491488,0.0627238135948518,-0.0798622237667913,0.9709034523725076,3.566749492752312,4.972413306909231,0.4244157063750697,1204.7502212593263,1191.8432532915967,1194.229474006546,1173.356162509514,-456.426248668324,409.27979657476686,92.3133232874538,-179.88210708363195,150.10715477520623
0.2424999999999999,-1.83326858607343,3.058504503581399,-1.3039744930969364,-0.1313612364793113,-0.0748108910030753,0.0027257647771788,-0.0162463807930979,0.0138895585416001,-0.9771566334615704,-0.2114420803707656,-0.1174809730834915,-0.0980867052578843,10.79034047213356,0.0615440396436446,-0.0795142896113194,0.9733215595273756,3.5667529574888728,4.972578228650529,0.4268525446052844,1203.6467761472215,1192.8403724565035,1194.1039469014847,1173.1666845728591,-412.37656373655193,392.2259162051884,-176.12120554431368,31.03282500951533,150.10618686498043
0.2449999999999999,-1.6970859333583057,2.7883362922442405,-1.1582200321011789,-0.1351900943786642,-0.0663153555665959,-0.001072125328741,-0.0163438582747347,0.0140085707909749,-0.9771521897605984,-0.2114471573871279,-0.1181750221535433,-0.1008556759667698,10.79028777619404,0.0603823394167382,-0.0791520927140965,0.9757434365720736,3.5667586412700847,4.9727385462097615,0.4292910749893896,1202.6883384406435,1193.8043828726227,1193.3488679788245,1173.5113266345616,-332.6146203931327,373.9642465684025,-430.7873057272896,278.41631491583007,150.1052576010302
0.2474999999999999,-1.5428299000318848,2.433680437285342,-0.9549968868025802,-0.1379086040235115,-0.0591816024148793,-0.0029058226578171,-0.0164558595565998,0.0141205853682061,-0.9771490708574208,-0.2114453672158427,-0.1185075154237909,-0.1033221919397013,10.79015666603144,0.0592335525238139,-0.0787775467521716,0.9781734581508604,3.566766813248792,4.972894648542795,0.4317319356669774,1201.983703045256,1194.7101936893455,1191.9500103728483,1174.5587661474383,-236.49382076996497,370.27517808473897,-695.2311241552246,618.1886657619083,150.1043741096177
0.25,-1.3678287575985084,1.9700569516405035,-0.6905853375899108,-0.1403489700323873,-0.053055122943308,-0.0037380901064451,-0.016575090536432,0.0142291934884037,-0.9771471193297032,-0.2114377604037977,-0.1185845642809015,-0.1055414177893196,10.789925138127956,0.0580866076348549,-0.0784028690445298,0.9806143920292903,3.566777462858931,4.9730468591902515,0.4341771181729678,1201.5058693367937,1195.6557587630464,1189.8727123580484,1176.602269963371,-108.82201513827556,306.6793554603916,-758.6373024970718,863.4196455046541,150.10336538028258
0.2525,-1.2348291100764024,1.6010340845465247,-0.4728316333045372,-0.142253047093948,-0.0498062707606689,-0.0041606391316925,-0.0166912796546824,0.0143400315813745,-0.977146100853918,-0.2114258365649696,-0.1185703904882832,-0.1076218723012702,10.789568864632276,0.0569255113392889,-0.0780451688636807,0.9830673572539858,3.5667906952418975,4.973195197881033,0.4366288822632148,1201.4395929695647,1196.2435904666474,1188.1568238603627,1178.8758643749616,37.26757951490068,171.84561100361847,-597.3423363103842,997.8404424639384,150.10256649613584
0.255,-1.098162792873602,1.2983493750589177,-0.2621679594962941,-0.1446544932899508,-0.0477953938790675,-0.004866863224927,-0.0167919289561658,0.0144589342219731,-0.9771457468392,-0.2114114067374502,-0.1186803138117858,-0.1096841709937903,10.789063068567971,0.055729919189507,-0.0777224835705303,0.9855319743948924,3.5668064145841454,4.973339572846096,0.4390882068930511,1201.692207234368,1196.5149868180645,1186.8860006764965,1181.5914721756908,160.64500579395812,24.420138058712812,-381.0623391712394,1256.9285818134165,150.10180952170325
0.2575,-0.8937734280894774,1.0421422291314444,-0.0107136107379366,-0.1484374680066047,-0.0460046411476726,-0.0059726631566194,-0.0168656657948653,0.0145921287400828,-0.977145718059463,-0.2113964858505597,-0.1191094405435424,-0.1118513819895435,10.78838560205934,0.0544816186775733,-0.0774526073891518,0.9880061929550396,3.566824218557051,4.9734799250875685,0.4415554269886826,1202.2428179985343,1196.365691156941,1186.2515121645067,1185.1605072840287,215.14657758120828,-144.00734828946028,-60.50060878833386,1330.1537187075144,150.10094797371727
0.26,-0.666318478446038,0.9210293769810785,0.1995104582133416,-0.1520206152048045,-0.0446910207365553,-0.0065359768635695,-0.0169050629626383,0.0147450641659356,-0.9771454911580824,-0.2113836789726805,-0.1199788113233234,-0.1142137199696697,10.787519630248374,0.0531696136422838,-0.0772494285193424,0.9904865525543228,3.566844167686584,4.973616587732203,0.444031245741579,1202.7679401222742,1195.7949500766172,1186.5834976325548,1188.2422407692284,187.2314670886224,-322.0806779986102,296.0054109950304,1219.7255853294323,150.1002678428411
0.2625,-0.3723080178181892,0.8803214213519247,0.4010979955016356,-0.1549294378212729,-0.0433373731126611,-0.0059563752763367,-0.0169079141717371,0.0149204095563879,-0.9771444398871408,-0.2113758420161341,-0.1213176709357455,-0.1167824159994584,10.786455483234,0.0517918653769639,-0.0771183213731152,0.9929688111094228,3.566867085904308,4.973750171914769,0.4465160663804249,1203.1789753339776,1194.755287766948,1187.7315392194819,1191.2591352106758,123.50886583471936,-549.1292265546231,628.7603555196249,1275.4196728228624,150.0996255522592
0.265,0.0302832004202819,0.8874895012009107,0.6125823572697829,-0.1564885768158874,-0.0409772239398108,-0.0039638449068703,-0.0168780398567149,0.0151174485535439,-0.9771420384759985,-0.2113751209358912,-0.1230490621016347,-0.1194747688743729,10.785192101398772,0.0503566236159355,-0.0770545109382804,0.9954484542034788,3.5668940463566177,4.973881437435079,0.4490094849822154,1203.3854844514478,1193.049303943844,1189.727299410153,1194.6193391333427,21.99382332760249,-676.7597395856222,769.6783082470566,1165.7335095226233,150.09889690529968
0.2675,0.3692286761524286,0.9068327115085968,0.7506453917063767,-0.1558570655769072,-0.038204166193912,-0.0017190742442526,-0.0168235170505326,0.0153337611892643,-0.9771379728981114,-0.2113824629846202,-0.1250193303452589,-0.122159439297749,10.783737208916927,0.0488796952325995,-0.0770470695891739,0.9979210061017344,3.566925903141884,4.974011220634805,0.4515111294762119,1203.2889444506156,1191.3714890690198,1191.5799307607172,1197.0878027582887,-76.93782552232726,-682.3477871288553,701.7670422821988,895.3954234073072,150.09832358912809
0.27,0.660711511122749,0.90468215761706,0.8429578322648013,-0.1533569640694229,-0.0351728224354477,0.000735170362512,-0.0167535109497603,0.015566151253679,-0.9771324720760204,-0.2113962823477969,-0.1270602500175762,-0.1246912562117127,10.782106299246083,0.0473784251135538,-0.0770822882350046,1.0003824988314185,3.5669627197003875,4.9741400615552145,0.4540209334520037,1203.0007953238362,1189.6375650081995,1193.236134621564,1199.0963162503792,-118.3132450503307,-667.8146751916296,582.9087437079119,712.8815364638278,150.0977840325412
0.2725,0.8828890725205131,0.8676429332774122,0.9001731829884583,-0.1498472846758881,-0.0323004630694693,0.0032449404850715,-0.0166780245560341,0.0158094717336125,-0.9771262117911698,-0.2114130163677461,-0.1289994833868528,-0.1268896287246151,10.780321946106598,0.0458706672145172,-0.0771417176318875,1.0028300329014943,3.5670037192440596,4.974268008145057,0.4565380112406713,1202.697378225364,1188.0324156930617,1194.4944744792567,1200.652210440608,-81.9149198689501,-571.9034176544933,375.595329300813,502.71128133117554,150.09727142195857
0.275,1.0072695752875331,0.780353688249136,0.9259220524004584,-0.146229122872175,-0.0296142395385599,0.0055913904226179,-0.0166061660805691,0.0160578474469741,-0.9771198868864446,-0.2114291525543497,-0.1306915172427579,-0.1285750048480236,10.778412112223185,0.0443720875188527,-0.0772054806246171,1.0052619125889792,3.56704809810208,4.97439470687163,0.4590610184985322,1202.5912207244914,1186.7780479199273,1195.114111268068,1201.609872657035,47.80225016702384,-432.6646032564891,119.38128066740308,284.9026525452698,150.09679004771039
0.2775,1.054241241253874,0.621386088747178,0.9398170972949926,-0.142693568425582,-0.0268787715379701,0.0077707684468866,-0.0165423306485759,0.0163074222100043,-0.9771141065800324,-0.2114418111855292,-0.1320851363750607,-0.1296452332695122,10.776407228810596,0.042889848056987,-0.0772595723449623,1.0076774507507853,3.5670952876005284,4.974519909414901,0.4615894769783859,1202.936389476199,1185.8690926767792,1195.0913808825935,1202.0767237033344,226.03958440345173,-218.1089869248806,-118.1678778724744,72.19138490886499,150.0962469051453
0.28,1.0287391344769004,0.4560349444271211,0.9495719258466018,-0.1404714048831663,-0.0253502405278625,0.0092355340392889,-0.0164868516163419,0.0165539659123019,-0.9771091572946154,-0.2114499712046035,-0.1332202269189126,-0.1300233383549789,10.774338517105347,0.0414230128016066,-0.0772910948957741,1.010077227518004,3.567144641498899,4.97464362706546,0.4641228447256926,1203.7214186465087,1185.687502985303,1194.5232718787056,1201.9708295815794,416.520800724356,49.91694081154488,-303.0730859117736,-114.5005693706479,150.0958218854503
0.2825,0.9622820646662525,0.2782127631043186,0.9620586399905204,-0.1386617330139468,-0.0245327311107509,0.0109777545557436,-0.016438883564035,0.0167902118955748,-0.977105043822203,-0.2114542535493709,-0.1341785099507684,-0.1295878620230451,10.772237184447688,0.0399671468583459,-0.0772819493777564,1.012463197138081,3.567195710900137,4.974765474397398,0.466659450229994,1205.018993479821,1186.1186773808367,1193.5760154530349,1201.5042208564812,655.7827695732152,312.6932666890295,-452.0099115504304,-245.53749013944048,150.09542415331833
0.285,0.856864210202852,0.0775666403603977,0.9717355322090956,-0.1364790597897954,-0.0241270218416919,0.0136347841659705,-0.0163991100353515,0.0170089984360689,-0.9771017947964096,-0.2114550523984614,-0.1350111781998042,-0.1282244276178743,10.77013385724626,0.0385209470759933,-0.0772140239939944,1.0148377171415415,3.567248645041839,4.974884517940048,0.46919845317974,1207.0003324943748,1187.250969318748,1192.2632223209534,1200.7431421308822,755.9103720662727,487.3860453933498,-474.316904229499,-281.9344210995948,150.09497687225766
0.2875,0.756944335283823,-0.0599898089445888,0.9648155301402505,-0.1344555696105247,-0.0243786968120575,0.0160967070914576,-0.0163717298702986,0.0172068929305223,-0.9770995806071334,-0.2114515442908226,-0.1356797481195735,-0.125891026072766,10.76805791533178,0.0370918305525195,-0.0770755677402387,1.0172024416716643,3.5673041251762743,4.97500000184508,0.4717416177742052,1208.7985453401523,1188.5556076078035,1191.2044309318871,1200.0945487509832,690.6999754239292,542.0281808387755,-380.08721804667783,-230.57875236945853,150.09462802526238
0.2899999999999999,0.653398405295956,-0.1471390479679076,0.9302802353036852,-0.1321982295669222,-0.0251943426117697,0.018511217143719,-0.0163616171130941,0.0173862995795669,-0.9770989095683646,-0.2114408280742395,-0.1361053826879316,-0.1226730359972257,10.766035152288936,0.0356912341144933,-0.0768666202012821,1.0195577802729212,3.567363109869495,4.975111770341629,0.4742916168521844,1210.4538323714944,1189.961110222942,1190.36278623072,1199.5902483690347,628.393255400767,563.7792666314966,-289.3352264789912,-156.9252317172884,150.0943026726418
0.2924999999999999,0.5425169580872203,-0.1794763336487013,0.8461589157044713,-0.1293506247786464,-0.02623724567225,0.0212815256488457,-0.0163712431520129,0.0175542653786363,-0.9771002757888708,-0.2114198893745741,-0.1362387891783573,-0.1187719405773176,10.764085467563564,0.034328187354285,-0.0765979308854331,1.0219031879012856,3.567426778331817,4.975220236155719,0.4768504805953258,1211.940511617156,1191.3745039409612,1189.7577547994924,1199.3099225923968,423.488070251096,416.65602769517096,-138.76257873776,-27.889337681744998,150.09393793704157
0.2949999999999999,0.4850576642015023,-0.1432155833994588,0.735033571499045,-0.127259869435126,-0.0267931606568582,0.0235731310241509,-0.0163998019618609,0.017715991693823,-0.9771035721160284,-0.2113889051273688,-0.1361081463706369,-0.1143736721221523,10.76222124077612,0.0330049580786769,-0.0762783973963721,1.0242385467357749,3.5674959451905086,4.975325687535211,0.4794191211012097,1212.5712727227499,1192.0443903614175,1189.6689733370313,1199.4508016806262,102.15600190240356,111.7687503076012,62.20368793301527,154.4761329745596,150.09365434505108
0.2974999999999999,0.5075397645213315,-0.0430117986908797,0.5796586478582415,-0.1261014210315196,-0.0270324509824591,0.0258023652822824,-0.016442365712598,0.0178705149119074,-0.97710820221652,-0.211351138711574,-0.1358554729772218,-0.10955957923369,10.760445713410334,0.031713086224335,-0.0759069176638201,1.0265653696833004,3.567570016282183,4.975427818867953,0.481996574153773,1212.451291626668,1191.9333476924992,1190.0687732391575,1200.0823032572696,-170.4080200879615,-190.52679034220984,243.88068856692348,341.75240831095806,150.09339065466645
0.2999999999999999,0.634993428793586,0.1077810196057231,0.3928518959622932,-0.1257967452615052,-0.0271358857657167,0.0276888749697013,-0.0164896037265283,0.018013300351167,-0.977113448808073,-0.2113110523855059,-0.135728855760053,-0.1043586745675713,10.758752057158972,0.0304332670306199,-0.075477844155362,1.028886833347081,3.5676475577187325,4.97552634831175,0.4845803464647794,1211.71923262231,1191.0917564097067,1190.888376779866,1201.159563722181,-415.47916852200575,-501.3975284395197,422.7354167375775,531.030588156636,150.09314257554848
0.3024999999999999,0.9277611513592458,0.3152860952599852,0.1848898647858047,-0.1261198788183939,-0.0268674836783366,0.0287810182577934,-0.0165303758279338,0.0181388325916729,-0.9771188541544,-0.2112721351944555,-0.1360138471321372,-0.0987864570344655,10.757123858214054,0.0291411160807212,-0.0749851392988436,1.0312075030789531,3.5677274910922927,4.975621266033913,0.4871673861845021,1210.373895784058,1189.4263600503016,1192.1824503228452,1202.7374561980528,-683.6223941100792,-872.9591758050439,651.3514731029767,772.5350187622547,150.09291227090355
0.3049999999999999,1.4871110438897026,0.6202979365231585,-0.0568511332975708,-0.1264471134689783,-0.0258330595693962,0.0289752551038279,-0.0165555910581988,0.0182433868560088,-0.977124515734584,-0.2112349984659257,-0.1369372953173419,-0.0928820698533661,10.755536553931847,0.0278158423418956,-0.0744262708645726,1.033532649243839,3.5678093031320643,4.975712888183866,0.4897553085141168,1208.3011206517597,1186.7269605306815,1194.1451341453808,1205.0222388159923,-795.8506119065524,-1053.1466781469123,750.115216217727,856.8576940335324,150.09265513473088
0.3074999999999999,2.101394928258944,0.910799555719738,-0.2251591002132678,-0.1255154740973524,-0.0244223717721692,0.0282123567875826,-0.0165611062517763,0.0183237071383768,-0.9771308468323074,-0.2111983669449562,-0.1386109027000883,-0.0866663391150335,10.753958701141189,0.026445774972653,-0.0737981924029767,1.0358678897057587,3.5678929233644774,4.975801450930136,0.4923430952351557,1206.3946427245253,1184.160626659567,1195.933026403934,1207.0217446682204,-755.4916352180492,-1022.715718014705,683.4528296660659,751.5040611930992,150.09245594547005
0.3099999999999999,2.7861897926532455,1.22154707777753,-0.3309849944682788,-0.1210837882386886,-0.0224163490292358,0.0266510862016054,-0.0165503965972008,0.0183739987566388,-0.9771381208098516,-0.2111612248311975,-0.1409878575230466,-0.0800666934662886,10.752353607373372,0.0250329364440871,-0.0730899666245894,1.03821885691834,3.567978521437042,4.975886468028333,0.4949306959269065,1204.5236624756694,1181.613381940608,1197.562398293711,1208.7797591219576,-773.7390679463708,-1043.858865929632,599.9722855560316,638.3699153381706,150.09227140356597
0.3125,3.544016542952171,1.5876552596039395,-0.367180349176141,-0.1100557657573577,-0.0190088425881731,0.0243587737434472,-0.0165284965903737,0.0183895708891432,-0.9771466228500258,-0.2111222764481689,-0.1439720272624183,-0.0730194439039405,10.750679263081746,0.0235824507083523,-0.072292704390923,1.040589926878447,3.5680663514098407,4.975967138442208,0.497519823628081,1202.5259473847934,1178.9413323299189,1198.932887831714,1210.2135942449113,-667.4585286196809,-874.9400344537654,357.331649367006,365.57429095619193,150.09206609862775
0.315,4.017701463358112,1.8574622322198489,-0.3218935265097961,-0.097245165063168,-0.0150149550887888,0.0226431346880601,-0.0164971170194178,0.0183716332157422,-0.9771563441366362,-0.2110813299606104,-0.1474981085175443,-0.0655929193218492,10.748889912608107,0.022094884944473,-0.0714113984505395,1.0429828477262288,3.5681564305974622,4.976042700198996,0.5001135046030453,1201.186369832571,1177.2386817683391,1199.349056540546,1210.6076305767388,-444.78512537043525,-541.2671760987446,-11.998788523351312,-42.957591314643615,150.09190826348822
0.3175,4.249034690672346,2.0504030635096355,-0.2148926903755534,-0.0838648982936255,-0.0095805725527543,0.021545236062919,-0.0164579683966471,0.0183277329489912,-0.9771669438853464,-0.2110391775208613,-0.1514590032207028,-0.0579809796262801,10.74694096028373,0.0205731279895068,-0.0704643239760549,1.0453962669316523,3.5682482295024167,4.976112275190707,0.5027144506237422,1200.3020217579412,1176.2349964494251,1198.8728938890974,1209.998806288338,-263.22187136202024,-275.6006100085867,-331.84989324940915,-414.158932803775,150.09176439800703
0.32,4.266878729470385,2.15311068976854,-0.0778572446441351,-0.0717068755666619,-0.003220687387858,0.0210027342829725,-0.0164137668076408,0.0182702470931075,-0.9771779327131233,-0.2109967996102476,-0.1556909636426032,-0.0504660597009266,10.744792940767782,0.0190236869882268,-0.0694793673744891,1.04782604705045,3.568340622538929,4.976175568489685,0.5053246313118864,1199.8702604757607,1175.860678718296,1197.689807074299,1208.5368359127199,-50.12103549215677,-0.9902473062993512,-605.2352058270566,-768.0177827667187,150.0916326178354
0.3225,4.05352679750612,2.1309029178392596,0.0649114652237815,-0.0616002237379509,0.0034677191525923,0.0210355272222526,-0.0163705344330821,0.018211081967245,-0.9771888693457892,-0.2109547353028022,-0.1599493878065121,-0.0432973529269978,10.742414958968263,0.0174591161321423,-0.0684818324655539,1.0502664592709288,3.5684323982750383,4.976233514908045,0.5079450304252807,1200.0514165804805,1176.2300452128936,1195.846717859962,1206.1587173745045,226.7743496580349,313.8415245052781,-889.853460358835,-1197.3041362229185,150.09151643072397
0.325,3.5829902775169833,1.967883003105492,0.2024965493889925,-0.0515087600811869,0.0108682583645532,0.0217654608850003,-0.0163353441692066,0.0181577211000827,-0.9771995205431732,-0.2109128614961505,-0.1639750026770366,-0.0366187968067996,10.739785676441779,0.0158919262732547,-0.0674868638907057,1.0527113518518807,3.568522931338891,4.976287832601477,0.5105744886473486,1201.004132224051,1177.4298863408223,1193.2405397725047,1202.5503152316053,462.5410254202048,542.0874021232062,-963.504250798268,-1386.9980080963148,150.09139687832112
0.3275,3.046623498000747,1.7443115399639524,0.2618127903367165,-0.0439470766207086,0.0157910885435729,0.0229843396066035,-0.0163121702474196,0.0181130534012078,-0.9772095324405494,-0.2108722492012248,-0.1675843054700441,-0.0304872534953072,10.736893353490364,0.0143265977523692,-0.0665005563808268,1.0551546661005002,3.5686124579409046,4.9763403397938255,0.5132107063104149,1202.3641217075815,1178.9404822235097,1191.0291966059708,1199.223727334023,630.9478810286686,677.19146747313,-834.4110101914331,-1312.6600323653736,150.09131553646876
0.33,2.391677787330655,1.4750586709620963,0.2392468954910706,-0.0369825636851949,0.0191238391264473,0.0246461719934146,-0.016302380462801,0.0180796550398083,-0.9772185607192576,-0.2108341547423538,-0.1706418584216995,-0.0249608498305245,10.733738149967593,0.0127628800680944,-0.0655284239426961,1.0575900681692745,3.568701681695618,4.976392112303334,0.5158526530598351,1204.1588716291944,1180.8158436781882,1189.0684847215475,1195.9870150697784,830.9274617437034,873.7197941225977,-763.1852269823859,-1308.983674851696,150.09125561860304
0.3325,1.5058735767630043,1.15155271722915,0.107396024730775,-0.0304963913739295,0.0216479676735887,0.0264794216746755,-0.0163045309127179,0.0180624493258912,-0.9772261904369304,-0.210800181434248,-0.1730559010057167,-0.020157367760055,10.730333245298471,0.011197115943846,-0.0645811540009903,1.0600106312239415,3.5687916994756814,4.976442981701278,0.5185010135893481,1206.5187590163,1183.3090811941227,1187.2132704710589,1192.6788089597644,845.2323828410947,934.3195147584076,-587.5764436475032,-1062.7789584235406,150.09121154131532
0.335,0.7206255768286536,0.9091941070197992,-0.0819269581211922,-0.0274931505760361,0.0229546727779662,0.0272802251412017,-0.016314009760136,0.0180675200170847,-0.9772318387137436,-0.2107728592485078,-0.1747954429761683,-0.0162327994865451,10.726704116383557,0.0096215011942786,-0.0636726533087646,1.0624090211692718,3.5688837293644418,4.97649247919311,0.5211578189912806,1208.3850335434,1185.4874412519803,1186.1306025033102,1190.6731202776607,658.1481981456812,876.8475524003853,-347.8950636401348,-610.6779427318537,150.09120026002867
0.3375,-0.0619229860963041,0.7094346494033725,-0.3289500046895024,-0.0270369988506256,0.0240353651283791,0.0269542814039342,-0.0163252547618324,0.0181004018536531,-0.9772349579805356,-0.2107546737527716,-0.1758554313345145,-0.0133356968192942,10.72288775709138,0.0080281454372225,-0.062815838879868,1.0647779536548292,3.568979361181478,4.976540124971816,0.5238252649396483,1209.8095000070284,1187.6933189561244,1185.4737951528582,1189.6254192461051,459.4988319544423,969.3040336468576,-223.76208977138936,-240.26306957925928,150.0912181234519
0.34,-0.937824653252416,0.5145708556501016,-0.6536468426731745,-0.0289373476663593,0.0254641753468135,0.0253141139591436,-0.0163335703274663,0.0181631692252536,-0.9772356089390026,-0.2107455127196199,-0.1762351537167496,-0.011536409328,10.71893039326152,0.0064114681230615,-0.0620160030884179,1.067111110481061,3.569080077178308,4.976585007673244,0.5265037391780975,1210.682527703172,1190.3339614202143,1185.0117920544533,1189.4718049297644,151.79745223472295,966.1791469012761,-145.16258073213052,102.03156611496516,150.0912764549865
0.3425,-1.5756454152426684,0.3787392410681376,-0.9199306706425752,-0.0323936390246698,0.0267291980169255,0.0231529754986404,-0.0163335941716786,0.0182547864750241,-0.977234216771289,-0.2107438877385822,-0.1759738700036465,-0.0108429510465904,10.714883778989188,0.0047652276087584,-0.0612724859890807,1.0694037916991723,3.5691868411584178,4.976625443378984,0.5291924184623253,1210.568487268202,1192.5242146906307,1184.7479822491975,1190.13557707668,-225.61657857427213,874.2220635572713,-113.77603759465264,379.66299535050854,150.09135817008016
0.345,-2.0784433020598185,0.2570269315788347,-1.152998098123724,-0.0377214227610071,0.0277802050129237,0.020391020202425,-0.0163186302540595,0.0183727716934747,-0.9772313428153788,-0.210747903254615,-0.1751618087005673,-0.011239867992547,10.710801573318047,0.0030816436402668,-0.0605826436098442,1.0716534177483983,3.569300159967958,4.976659596844412,0.5318898714988504,1209.5544448103008,1194.7050717380007,1184.44291186648,1191.3701199065167,-535.483224660356,868.2489418395099,-146.60413407800647,545.5279124537806,150.09147709057612
0.3475,-2.4484953012098507,0.1400300574006287,-1.3407447781903588,-0.0443459286191934,0.0284647572344514,0.0171077577606003,-0.0162852605868032,0.0185129917070295,-0.9772272753682651,-0.2107568151311525,-0.1738487217916197,-0.0126643882688066,10.7067369433362,0.001360598097715,-0.0599394219195464,1.0738602349662623,3.569420506727904,4.976686659578908,0.5345936612607344,1207.8910711449003,1196.8654593998283,1184.0149615788075,1192.8632166389489,-772.6600821647017,848.2657071898749,-208.73355504149893,612.7267392739208,150.09162900793174
0.35,-2.6497524139608943,0.0241320703363732,-1.4570206452096475,-0.0518418780641276,0.0287256196631081,0.0131366123818278,-0.0162344870162341,0.0186707750384917,-0.9772222354602418,-0.2107699006287393,-0.172016923617795,-0.0150230293458692,10.702738867017494,-0.000388172540306,-0.0593330180810276,1.0760275862353084,3.56954830850217,4.976706765625646,0.5373000208179877,1205.6911443994773,1198.9464002739503,1183.3992440912723,1194.4337536028863,-1005.805711133745,871.3035282736743,-304.43584187719665,664.0068197254618,150.0918233332686
0.3524999999999999,-2.7105674913921396,-0.116916737906634,-1.5017649355381615,-0.0606852477290994,0.028801633903376,0.0079800427960267,-0.0161712039427604,0.0188417802546925,-0.9772164559774084,-0.210786064025584,-0.16958959991951,-0.0182110043184399,10.698847814277975,-0.0021465088415875,-0.0587527801803553,1.0781617581073049,3.569683314781341,4.976720386506117,0.5400058200550151,1202.8620425892316,1201.2219770411969,1182.4927823694215,1196.183250737576,-1000.8627761788022,771.8208886141916,-339.1975117138862,598.6409765781962,150.09210896340832
0.3549999999999999,-2.63762953409672,-0.236665150453884,-1.4609505494055508,-0.0671373776453175,0.0287905718687673,0.0039997512238485,-0.0161006744218094,0.0190220289444937,-0.97721026899819,-0.2108037050278147,-0.1665044069855511,-0.0221276656934026,10.695090527642485,-0.0038959688375417,-0.058188765507494,1.080271335955166,3.56982444018196,4.976728656030517,0.5427092477991124,1200.6868305185833,1202.8055047170212,1181.703256532703,1197.4269584857775,-761.9484612097942,534.7311512178288,-285.82326788146,440.74850268134423,150.09239319861388
0.3574999999999999,-2.4768544994733683,-0.3546141703990788,-1.3501638852473388,-0.0723407731923439,0.0284640966042838,0.0007192124110621,-0.0160266837565003,0.0192073475148735,-0.9772039633968278,-0.2108215733157393,-0.1627538228585324,-0.0266728061975917,10.691476371222883,-0.0056225633732626,-0.0576314158927823,1.082366245898838,3.569970074208346,4.976732932931153,0.5454103390574261,1199.0523002831826,1203.895632797286,1181.0636660300142,1198.3869932509829,-545.6668115024054,329.52698113936066,-198.5599501859268,352.10795903672044,150.0927284176287
0.3599999999999999,-2.22050956775838,-0.4810832175530795,-1.153105808588767,-0.0777560086412496,0.0273910307676917,-0.0026216649732057,-0.0159537726344514,0.0193909704776378,-0.9771979269356704,-0.2108381496663261,-0.1583466847673588,-0.031684831260201,10.687996231068029,-0.007313606019869,-0.0570654807349059,1.084456965309738,3.5701187043226446,4.976734231039416,0.5481101468926823,1197.9584964610713,1204.453139622718,1180.7104567817735,1199.187498280961,-250.83715599384936,59.54503025104709,-29.750836278071777,234.61841377070397,150.09319315340815
0.3624999999999999,-1.9677144952409336,-0.5609341647127781,-0.945712854122174,-0.0821584994112387,0.0258819657884318,-0.0051328721866819,-0.0158846625744238,0.0195664019515802,-0.977192734498931,-0.2108511755802269,-0.1533457250537203,-0.0370105644404649,10.684622224350624,-0.0089620475462747,-0.0564772998768577,1.0865530367178307,3.5702693780903028,4.97673306660912,0.5508095752612108,1197.7981145032131,1204.1933579485412,1180.914911848624,1199.5600853198364,63.70728221950225,-265.1937651706701,206.81635719470236,89.94512739682241,150.0936350874331
0.3649999999999999,-1.6758832342358234,-0.6001846293640499,-0.7037065583598611,-0.0863721191022151,0.0240130854142653,-0.0073356428339756,-0.0158196721141296,0.0197250634852592,-0.9771892194475016,-0.2108575827845758,-0.1478866229942841,-0.0424575337434057,10.68130832305632,-0.0105687593839184,-0.0558502041570003,1.08866234419848,3.570421676650208,4.976728873026032,0.5535106014196737,1198.2770328721688,1203.1271707968647,1181.7445385677468,1199.6372239179452,295.4600808470329,-647.7153812381397,504.7619726653006,-26.47042756170774,150.0941368643437
0.3674999999999999,-1.2745220660644063,-0.5917812575022047,-0.3875869196640474,-0.0906433856102535,0.0219297734358493,-0.0092564651614829,-0.0157601908334773,0.0198597512814748,-0.9771879527681469,-0.2108553262629233,-0.1420866852431365,-0.0478511142492597,10.677995034297272,-0.0121332641102504,-0.0551704754894974,1.0907901782679612,3.5705751011497697,4.976720875336629,0.5562163134677935,1199.2754149074483,1200.9547810423503,1183.4387217119504,1199.4277331820279,383.80949944053066,-925.3066118917096,711.5426086331802,-114.7353175129864,150.09481181302857
0.3699999999999999,-0.8924192499864093,-0.5377511864504873,-0.1170694501771515,-0.0934059247433952,0.0205396720123958,-0.0099958296639072,-0.0157063419505628,0.0199661473226144,-0.9771891750284172,-0.2108437300375758,-0.1360828297878637,-0.0530758438420062,10.674611998297705,-0.0136577855845919,-0.0544317104662736,1.0929386802790215,3.570729061468944,4.976708140563782,0.558929139587417,1200.1960803693714,1198.500637737406,1185.302251610913,1199.0635473303803,331.7696531791623,-1076.668425229126,786.5528484499911,-160.34229735773792,150.09543758251277
0.3724999999999999,-0.4563546875266024,-0.4367912495309196,0.14036142492819,-0.0954258584600353,0.0194899510199885,-0.0096511885040677,-0.0156576012242642,0.0200457243796299,-0.9771922259460052,-0.2108257897352854,-0.1300024986155625,-0.0581343463271909,10.67108234825446,-0.0151442113050646,-0.0536408730626251,1.0951066769652056,3.570883216020584,4.976690007258415,0.5616500538489677,1200.9342631733443,1195.571438916205,1187.3714859542004,1198.6260216952392,239.4143261455609,-1214.1481726771403,815.1841911381318,-163.0425541303792,150.09613199489291
0.375,0.0243826594758513,-0.2979429520130605,0.3725087591985098,-0.0968308576229218,0.0186378228823675,-0.008428739978144,-0.0156153272953369,0.0201004914738317,-0.9771963979442594,-0.2108045200050668,-0.1239290076221818,-0.0630228213878427,10.66732628080626,-0.0165911336195737,-0.0528054875959567,1.0972907424112384,3.571037421557292,4.976666285708921,0.56437964483663,1201.3931520000992,1192.4298968740204,1189.3781725666036,1198.2483345597284,110.7760293348746,-1261.3737500044851,736.1775667838166,-106.80629527009832,150.09688523106803
0.3775,0.5490659053655319,-0.1135592321651044,0.5636819187392503,-0.0971694055178986,0.0179806305395951,-0.0066418725794483,-0.0155793074606567,0.0201356717516675,-0.9772012546755878,-0.2107814778023182,-0.1179574783730911,-0.0678013922411239,10.663263819059415,-0.017999870119051,-0.0519405431277979,1.0994852876539356,3.57119194577444,4.976637487479273,0.5671193635309812,1201.4881433200187,1189.2645701661825,1191.0523737881194,1198.0919902188887,-18.55978711273563,-1343.3374042664116,613.4707275514296,11.84514924443646,150.097711324287
0.38,1.1977692453315771,0.1585862388438307,0.7446987044357054,-0.0957165828409137,0.017578883235164,-0.0043758403993411,-0.0155462977828786,0.0201550973088593,-0.9772069197165985,-0.2107559694645278,-0.1122427167380865,-0.0725047049651504,10.658816686722181,-0.0193795817108876,-0.0510589267443879,1.1016835707490635,3.5713470819638014,4.976603861966366,0.5698699670570438,1201.3003530645356,1185.7132098526884,1192.4455262043607,1198.3075603059503,-86.75019869156124,-1227.9042079580436,392.6157484159372,155.55552013429391,150.09878886623267
0.3825,1.71739710045068,0.4225573317535827,0.8612635124803875,-0.0927294623543354,0.0178645612564818,-0.0026004789427159,-0.015514320346057,0.0201642988371517,-0.977213393182312,-0.2107276047505312,-0.1068943844778078,-0.077190270823307,10.653912643393664,-0.0207362317014088,-0.0501760215541987,1.103878422473542,3.571503153521217,4.976565798679567,0.5726309026575571,1201.054392326561,1183.1250491263922,1193.0154525301991,1198.86976781956,-73.31856770556435,-927.4400936768408,106.67710355228328,296.84071770243435,150.09975978471428
0.385,2.1604631947459576,0.7125657194047647,0.9510133813843992,-0.0877937470525193,0.0190058656312391,-0.000980665370825,-0.0154818355800968,0.020165999928385,-0.9772200909384589,-0.2106989289835267,-0.1020136901268135,-0.0818517352951828,10.648486087858585,-0.0220761077327862,-0.0493004366810122,1.1060634168106551,3.5716607070712687,4.976523972757004,0.5754006560775802,1200.9337602260075,1181.076009384304,1192.978911722122,1199.7917638944627,17.24698896414337,-751.3350115467794,-135.30942261445475,457.0933355549183,150.10080734342642
0.3875,2.538398906498085,1.069686487417596,1.0306556863601664,-0.0796345478255697,0.0213897530533487,0.001136491580312,-0.0154455791960013,0.0201634107839452,-0.9772259768654692,-0.2106746663181507,-0.0977217417700064,-0.0864982495647016,10.642478669158091,-0.0234089289855157,-0.0484419642918102,1.1082330712299484,3.5718203704649216,4.976479131208619,0.5781769231351367,1201.1406272713816,1179.3683740686583,1192.3389054171269,1201.1552344973347,151.09052611269348,-489.7896241413487,-309.9658452289074,507.9675185915671,150.10215352851023
0.39,2.687753377113017,1.356905739587735,1.0675700666066044,-0.0714762710339815,0.0242819973667893,0.0033991922510601,-0.0154019885036349,0.0201609505521294,-0.9772302623242374,-0.2106583105857747,-0.0941242400433655,-0.0911624009716436,10.63583994678914,-0.0247445927557829,-0.0476122230847646,1.1103832337954815,3.571982258162448,4.976431833288816,0.5809567074279925,1201.6892128565712,1178.6270612635972,1191.4290824959776,1202.3316014874204,297.6479231504524,-153.56579835374745,-408.2109490244872,431.6248196727425,150.1033496260005
0.3925,2.646541066829821,1.6110609588760023,1.0596224773740832,-0.0632416354223497,0.0280224327622728,0.0064531956672007,-0.0153492925859278,0.0201644064850058,-0.977232608650484,-0.2106510136366867,-0.0912665688261588,-0.095895361888217,10.628527653022608,-0.026088558824901,-0.0468240325424993,1.1125112008884583,3.5721462192283866,4.9763821870427645,0.5837383660858259,1202.6288668871339,1178.6005450768896,1190.2978506720044,1203.3133585956984,480.1462034372885,136.45881795287085,-511.11193230844896,338.04548194220814,150.1046224078596
0.395,2.3947965810658767,1.8540875171962687,0.9847155230149728,-0.0548628062503953,0.0331351001917054,0.0107450453699986,-0.0152889985788508,0.0201789114038509,-0.9772328260796386,-0.2106530539465731,-0.0891128740593911,-0.1007212725514161,10.620507374172464,-0.027439362633727,-0.0460865773612968,1.1146156600902952,3.57231186491622,4.976330159895352,0.5865221930732352,1204.0899438737576,1179.3093553533615,1188.873522834435,1204.0218288971316,561.0764388320144,357.19735782540704,-512.4863947610261,158.15365005964836,150.10623737200677
0.3975,2.049207162108327,1.9897113670124411,0.8696543718404555,-0.0494272464690613,0.0378997211494703,0.0140698345974899,-0.0152193389794217,0.0202084589296195,-0.977231515536947,-0.2106613759020728,-0.0876841015260863,-0.1056565081303363,10.611750188146813,-0.028803145560287,-0.0454072388902133,1.1166958153154058,3.5724785681237714,4.97627577428063,0.5893097849382665,1205.434249081294,1180.3865318660166,1187.7354186981993,1204.1041268459967,518.0859055589276,486.1682373160416,-433.3997290031216,-78.57069217452582,150.10765507809893
0.4,1.610229669985976,2.040341453986185,0.7209028070837277,-0.0452221664255342,0.0433029029671894,0.0162716346876339,-0.0151391385226976,0.0202540021776912,-0.9772291888968996,-0.2106735819281179,-0.086988540771027,-0.1106575563032948,10.602233468081623,-0.0301857741243728,-0.0447860728183586,1.1187514396302185,3.572646599413256,4.976219333534448,0.5921025801797432,1206.6803734015523,1181.740196539942,1186.7065241894195,1203.6289754362588,445.7524462324723,545.2721034638212,-395.7553478958285,-268.6842554904158,150.1091456393193
0.4025,1.129286995054062,2.0135053168894745,0.5692998343084102,-0.0417549123716937,0.0488526890349256,0.017402581981316,-0.0150497571524455,0.0203141661364418,-0.9772265040919919,-0.2106866435885938,-0.086979168266816,-0.1156277562257188,10.591941599379588,-0.0315881402758649,-0.0442163597111482,1.1207828387147332,3.5728166751345256,4.976161032806921,0.5949002729011614,1207.6630113124563,1183.1128923833355,1185.75664195872,1202.7607055685446,291.2642721198605,498.4344719291125,-374.4181740629298,-405.42115667130895,150.1106949537017
0.405,0.640908214386738,1.8944853637743004,0.4438137287367568,-0.0392842106637726,0.0540415321497375,0.0175542156558063,-0.0149556516268099,0.0203864749174843,-0.9772241616021682,-0.2106972259264005,-0.0875384135930586,-0.1204417248948957,10.580866588416049,-0.0330041485764798,-0.0436871512810646,1.1227907909266412,3.5729891374888108,4.9761007008549365,0.5977018069418144,1208.1366947621516,1184.2323688995875,1184.834433319105,1201.6018696529025,58.40198191840495,365.23760927793734,-422.74470909264846,-514.2629475990357,150.11231269242765
0.4075,0.1076152104165368,1.6586607454982496,0.346531124173447,-0.0380891756701358,0.0598113609229061,0.0174299362224925,-0.0148634997250973,0.0204698244588433,-0.9772223097434618,-0.2107042672324682,-0.0884881316656075,-0.1250030868383407,10.56900854965464,-0.0344212207583917,-0.0431895558654712,1.1247762319928687,3.5731646891072137,4.976038562752256,0.6005068257544219,1207.9550212220483,1184.9390804297254,1183.642918413257,1200.1893908305494,-199.0766634941336,111.37421220109889,-466.3540260874466,-474.8046556448112,150.1143294181905
0.41,-0.2442776623871722,1.4022476308386735,0.3120306428994656,-0.0390244003112002,0.0640524902361339,0.017757638239166,-0.0147768865823203,0.020560974697075,-0.9772211305206004,-0.2107069799290068,-0.0897163305750119,-0.1291945167718964,10.55637494995324,-0.0358337447448127,-0.0427115445088084,1.126739875189872,3.573343412467984,4.975974117198313,0.6033137916438704,1207.1413114446807,1184.789239960593,1182.5026631886678,1199.2278463746784,-452.59106533158007,-242.7775174897304,-496.704753886524,-296.99524221196015,150.11606985682545
0.4125,-0.4479535832537469,1.1139648761014804,0.3158024418185902,-0.0416690919484874,0.0671483521182953,0.0186618836420876,-0.014694841788224,0.0206533744346084,-0.9772208476968106,-0.2107050312654828,-0.0912140312825384,-0.1328604157153957,10.542981388313075,-0.0372469944442997,-0.0422362371518015,1.1286817615407012,3.5735251439105715,4.975906481419198,0.6061215006909972,1205.6920658953904,1183.7251928422768,1181.1593946438243,1198.7044146194896,-753.9335060723708,-676.7496483822009,-634.7602402865954,-108.64248309958374,150.1178685457481
0.415,-0.4876470304420374,0.7733674142680402,0.3497246585409591,-0.0453483739525053,0.069405405918267,0.0200445716250883,-0.0146119027326397,0.0207402007621761,-0.9772219262781208,-0.2106973169196001,-0.0930610842456925,-0.1358684800338879,10.528853091226395,-0.0386758152707417,-0.0417484981214209,1.1306004798780696,3.5737101004371064,4.97583497856068,0.6089302000812942,1203.371643914319,1181.405491718682,1179.3288619872349,1198.6846339591805,-918.1467253588017,-994.52535612828,-694.1310841233715,86.4739318159545,150.12008973855404
0.4174999999999999,-0.3518289848459237,0.5230249090018098,0.3953649398868729,-0.0478162347031044,0.0702921733709398,0.0212654914489746,-0.0145222915179533,0.0208158446465406,-0.9772246897350714,-0.2106832958467734,-0.0953349865636587,-0.1381222975195739,10.514027674669858,-0.0401348472452445,-0.0412364054039984,1.1324928573723179,3.5738988129014784,4.975759194421499,0.6117420497942936,1201.1013322685965,1178.7525660616354,1177.6887392232074,1199.1367842785692,-939.3098825208294,-1147.3910868471312,-650.5821033416917,247.2510288789206,150.12198964515923
0.4199999999999999,-0.0707668200892245,0.3332130191381806,0.4565273243392705,-0.0490245064425087,0.0705222063844037,0.0223513065442692,-0.0144277467870304,0.0208767473718975,-0.9772288029540248,-0.2106647489410472,-0.0979481707748815,-0.139544564221169,10.49855910720412,-0.0416209037941715,-0.0406895906419081,1.1343543328445964,3.574091605569522,4.975679359352862,0.6145612655822797,1198.6750945017147,1175.6685362844464,1176.0759514705264,1199.920889103575,-1057.9195531726318,-1366.1508247008885,-657.2335921308417,372.6712841847981,150.12393620284223
0.4224999999999999,0.3769215436166803,0.1900715930737179,0.5491867195241129,-0.0486994914343722,0.0704468882585268,0.023280392599566,-0.0143325975119364,0.0209212337119702,-0.9772340203896444,-0.210642674463189,-0.100751005828552,-0.1400924779429119,10.482517448872152,-0.0431242751179469,-0.0401008234635585,1.1361787035378548,3.5742881202264645,4.975595486798872,0.6173898125985731,1195.811734502733,1171.9218119381308,1174.4025712625532,1201.0001406994932,-1008.9746297762748,-1318.6785716074144,-535.3259937312027,383.9922793049933,150.12632112596975
0.4249999999999999,0.7945573339093309,0.1419061453808902,0.6409140478312113,-0.0468505177011383,0.0703337811743529,0.0239207419126249,-0.014236453157547,0.0209497185114625,-0.9772405227244104,-0.2106162098553146,-0.1036815436082652,-0.1397924337096831,10.465987038773523,-0.0446451274000451,-0.0394698168431017,1.1379579510767748,3.574486779613357,4.975507662825104,0.6202268584730924,1193.6302213528336,1169.075143426409,1173.3993215018704,1201.8408505001,-792.5252514325614,-1025.0891494711586,-289.6146152380422,290.59173455925674,150.12834580635615
0.4274999999999999,1.2057430795611026,0.158452847886173,0.7358755528765013,-0.0434447439197336,0.0703961073485244,0.0249036690624992,-0.0141349963012979,0.0209624278983099,-0.977248592068348,-0.2105843092417525,-0.1067599620795048,-0.1386899971366443,10.449066327954837,-0.0461929268330153,-0.0387979799171163,1.1396830844713828,3.5746864342658373,4.975416087794978,0.6230719331358967,1191.8491082455705,1166.7963661907752,1172.954498186363,1202.4530993722897,-621.2506478762401,-794.5787677291257,-78.19885586441151,189.087761874225,150.1304047177188
0.4299999999999999,1.5813059748180576,0.2167393578006437,0.8156213880210684,-0.0390853438800324,0.0707360556334227,0.0264884983542462,-0.0140262200713841,0.0209594441287353,-0.9772585598952984,-0.2105455546883625,-0.1099610940426836,-0.1368225909637916,10.431868600521723,-0.0477724749507632,-0.0380854230966723,1.141345403013418,3.574886698237292,4.9753217727673515,0.625925413431197,1190.5239681134524,1165.1022495877637,1173.0083272225484,1202.7862893094712,-398.695113618896,-533.0911658362305,127.28093034461368,52.8140078655269,150.1324887628068
0.4324999999999999,1.892894786673868,0.3081028776845927,0.8484847166424223,-0.0341741270334552,0.071515691315592,0.0289332515030429,-0.0139068631322814,0.0209413835852873,-0.977270782400188,-0.2104984428462878,-0.1132851799098192,-0.1342486270425987,10.414518309187452,-0.0493912673468841,-0.037334139988624,1.142936736996968,3.575087460431482,4.975225256039248,0.6287881992625945,1189.855632677476,1164.130910361594,1173.590902838086,1202.7171694116173,-131.69731279363063,-279.38099796169786,336.2200539473176,-128.85143300436528,150.13459998874356
0.4349999999999999,2.182989024508742,0.4346597846187459,0.7997318717890559,-0.0280816877886547,0.0729588457549822,0.0325873723114266,-0.013775978103729,0.020912508701972,-0.97728534212334,-0.2104422216045641,-0.1166725489592518,-0.1310951996388323,10.397148821741538,-0.0510496682357393,-0.0365534067815461,1.1444504264011857,3.5752888037635446,4.975126288130334,0.6316599817033594,1189.8654815494842,1163.7053445979552,1174.6894274922847,1202.142032144449,131.87682352736363,-56.316681274665775,430.67900021801466,-287.6855378293383,150.13716258414905
0.4375,2.354295183128904,0.5420613870001704,0.6715329178636105,-0.0228533770385112,0.0743971289164151,0.0359068379061232,-0.0136355997956077,0.0208761995571594,-0.977301734750406,-0.2103787541205884,-0.1200119369658613,-0.1274637913745605,10.37989812064862,-0.0527411623624416,-0.0357496845432201,1.1458824688984397,3.575490901897464,4.975023503472154,0.6345387829660593,1190.5150167951128,1163.8493269552207,1175.744297839176,1201.2787417224706,367.4994589880949,131.44373656000414,408.9301072214308,-407.65950298109567,150.1393219714755
0.44,2.451996864566516,0.6420488197250702,0.4575705906048609,-0.0174653246433805,0.0756456088377464,0.038797244579567,-0.0134889579083238,0.0208337424159516,-0.9773195385222022,-0.2103096548903601,-0.1231825452011031,-0.1234114058008305,10.36290281957509,-0.0544567612343568,-0.0349242760330714,1.1472320405143772,3.5756943296857298,4.974915887454536,0.6374208664465539,1191.7029788444247,1164.3625632807552,1176.734078028392,1200.1037346295439,600.5424515808949,283.41410937764493,388.67733896804526,-556.3516963116849,150.1415072352465
0.4425,2.478027046558375,0.7437144785638425,0.1401549999202646,-0.0107304178890664,0.0771682040614131,0.040435748285905,-0.0133403446925894,0.0207869368759721,-0.9773376968265224,-0.2102393719127042,-0.1260474698301898,-0.1190064456547365,10.346292376921216,-0.0561838222441634,-0.034079488808198,1.1485016126356051,3.575900165756513,4.9748030393235485,0.6403029040175685,1193.517729053017,1165.2663975021087,1177.6876845340164,1198.496983240912,689.4064743280063,365.0272547171422,300.4199914676971,-592.1460829930305,150.144162639619
0.445,2.4146465359201144,0.8019735567361681,-0.1312698592571767,-0.0047466150104577,0.0791346528753017,0.0397422560976864,-0.0131930223413847,0.0207373692059317,-0.9773552997590071,-0.2101717661223871,-0.1284990221206819,-0.1143204286623083,10.33018250392528,-0.0579112722134096,-0.0332172547988317,1.1496965402912604,3.5761100279093494,4.974685106219662,0.6431831282432747,1195.1500112160647,1166.1876995543407,1178.2361779857304,1197.1430042145787,627.1355603387741,391.3587634938264,167.60592532559698,-507.64231016018994,150.14640662570363
0.4475,2.25085772874255,0.8171883376263879,-0.3586465441835786,0.0014435971309911,0.0819545018851013,0.0374765979667077,-0.0130497951465298,0.0206865550914642,-0.9773713299975592,-0.2101112442357223,-0.130447324199041,-0.1094291758684489,10.314669911344504,-0.05962848930342,-0.0323391483554597,1.1508245480534416,3.5763250353227694,4.974563249305041,0.6460610785847222,1196.6534068547112,1167.223191319578,1178.5257141606444,1195.9587716901112,544.9676000770064,426.14970772801786,77.2334347479954,-421.79565579021937,150.1486886900477
0.45,1.9992090769347215,0.7909093725258712,-0.5255720980426444,0.0075464387128373,0.0848794587443482,0.0348734324607053,-0.0129126363034314,0.0206377762622814,-0.9773850808729104,-0.2100606493226309,-0.131819219466513,-0.1044496920204895,10.299827644869396,-0.0613257151514104,-0.0314503292124215,1.1518949053036216,3.5765456018071182,4.974439148312125,0.64893802292883,1197.8748492164495,1168.318448092981,1178.6223451594703,1195.0340259356276,387.41168562755746,445.07479204626134,-0.9348390802642816,-289.72245743284446,150.15100758977533
0.4525,1.6484746043647096,0.7216309901725598,-0.6148239424850406,0.0130496070584812,0.0872080765606753,0.0326272156324937,-0.0127810783080232,0.020589083788595,-0.9773966087985776,-0.2100199376599999,-0.1326200628682669,-0.0994048319552237,10.285700259820027,-0.0630015191859319,-0.0305445185371614,1.1529177946725435,3.5767714486906126,4.9743134609845905,0.6518142251014886,1198.5904652828488,1169.4485652798091,1178.521039965243,1194.510159402947,173.48925318447058,496.4100527380192,-83.78618646711395,-134.85715931428774,150.15337767700242
0.455,1.14339529784115,0.6122240096972833,-0.6488560224271888,0.018089020506281,0.0890614990523078,0.0305982302445997,-0.0126563615595968,0.020536488045309,-0.9774064560526914,-0.2099869015735545,-0.1328356903567381,-0.0942702091329021,10.27230303847368,-0.0646522512368089,-0.0296095969642279,1.1539041422522491,3.577002354328428,4.974186004899233,0.6546900878694057,1198.742295482372,1170.8004983566711,1178.2034142271348,1194.359740139056,-64.15775856839895,489.0835618688466,-148.0362272818182,10.913614216860868,150.15628949510415
0.4575,0.6888678495709492,0.5196362325367452,-0.635882438037709,0.0206960104471766,0.0899552644267477,0.0293538193788829,-0.0125388472820023,0.0204803821493438,-0.9774149492819664,-0.2099599614347415,-0.1324569310358663,-0.0891157300491609,10.25962056352017,-0.0662749956363327,-0.0286441836996148,1.1548645866171992,3.5772365645775595,4.974056110513128,0.6575654858819552,1198.2696764900068,1171.8939830891536,1177.780858828834,1194.564727474031,-298.2631754424344,423.6197848608295,-205.11536205776773,116.9256533139104,150.15877845624473
0.46,0.2532717428312223,0.44561473443346,-0.6022022574440014,0.0216353979973051,0.0904828289272134,0.0283403371708354,-0.0124283955993947,0.0204245005634653,-0.977422439367412,-0.2099371285689362,-0.1314751074151083,-0.0840806083956222,10.247607247962515,-0.0678674322371431,-0.0276552651671579,1.1558091665673051,3.5774720623409286,4.973923341695073,0.6604401573435204,1197.25097960516,1172.9185972809753,1177.177837416846,1194.9443684056257,-542.1807199104928,424.0757020213092,-314.24367595786833,152.72989848485835,150.16133915610376
0.4625,-0.1825916675936856,0.3901522466769305,-0.5556127061189688,0.0210202787602795,0.0910711942897955,0.0272204698433244,-0.0123215521991283,0.0203718324700986,-0.9774293450441977,-0.2099163681171968,-0.1299550241828736,-0.0793021299974591,10.236187542705752,-0.0694361635037948,-0.0266505268692386,1.1567465838045932,3.5777078906840507,4.97378764560924,0.6633137724418121,1195.5587728904543,1174.01436159926,1176.2096404490446,1195.3283769664556,-672.0784032717796,367.11951977658794,-400.10027138382577,85.3669710987105,150.16450262122197
0.465,-0.431053202254144,0.372555539233946,-0.5181584464570642,0.0192313377376075,0.0917422093800102,0.0263300938093437,-0.0122159633301873,0.0203247386836322,-0.9774361245903068,-0.2098954581508331,-0.127944848949672,-0.0748974770170132,10.22526043134814,-0.070986494479091,-0.0256364622983481,1.157684321741522,3.577943317006061,4.9736488722951915,0.6661864071833081,1193.890587588801,1174.7541948798582,1175.177336059927,1195.3712032611193,-691.866804619894,239.63380212812788,-459.058735220287,-85.49006676184938,150.16721973685364
0.4675,-0.5238598883291316,0.3794916038623313,-0.4828588680619248,0.0162613105048298,0.0927162627940856,0.0252862002315942,-0.0121078508153894,0.0202824371057137,-0.9774433674620924,-0.2098719560177031,-0.1255368071216946,-0.0709227461523825,10.214702060483985,-0.0725290530819931,-0.0246138181632541,1.1586278136542705,3.578177831275707,4.9735073588489485,0.6690585486021953,1192.099438867355,1175.2125306099008,1173.9143467729432,1194.9009266326464,-790.7912068053057,112.07900903573308,-596.477596998738,-354.27122166720403,150.17002693918664
0.47,-0.4435880993248957,0.4085229201312798,-0.4381615441720826,0.0119345357134428,0.0940853413359351,0.0238122819391638,-0.0119918165257996,0.0202432787686749,-0.9774516273149214,-0.2098437701691738,-0.1228611209301528,-0.0674182606365645,10.204370782705768,-0.0740787385744522,-0.023582852057802,1.1595798536403663,3.578411805970965,4.973363481316019,0.6719306996097604,1189.9366315547743,1175.314589925037,1172.194948074933,1193.5998471527832,-782.2426085684122,-48.87593494436256,-647.4262201127652,-598.3456397429103,150.17350641795184
0.4725,-0.2383648615143157,0.4464759601151451,-0.3953955935443669,0.0087868962004507,0.095227586368929,0.0226264166764709,-0.011863747730111,0.0202059665635802,-0.9774610627647228,-0.2098105447941579,-0.1200235389207886,-0.0644199129103762,10.19411378452839,-0.0756471197225272,-0.022544925586826,1.160540616278566,3.578645658384969,4.973216826744897,0.6748042217695658,1188.1882258245128,1174.9681509351788,1170.6772156723791,1191.9091984339318,-678.580364641129,-228.2021462330247,-599.5649111379402,-773.0374195872166,150.1765028119276
0.475,0.0456250611414685,0.497490148002596,-0.3453897512681374,0.0080281689196388,0.0964433802513824,0.0216170252044992,-0.0117273842523739,0.0201669894060261,-0.9774710704627972,-0.2097752270283094,-0.1169870519935088,-0.0618796976802441,10.183774472518904,-0.0772283858672665,-0.0214938304524143,1.1615085221483508,3.578879654006488,4.973066715887254,0.6776818868418913,1186.5437297315689,1174.1735791938715,1169.1971235192436,1189.7346600548472,-637.2573529518371,-381.7680612946784,-568.6679879248909,-912.4665338450532,150.17960436828002
0.4775,0.3274034313519277,0.5598626382425654,-0.2902959847448166,0.0100434306199959,0.097624238706161,0.020803068442081,-0.0115903750648824,0.0201257228814861,-0.9774812184512658,-0.2097394633580019,-0.1136281531130115,-0.0597799341093791,10.173197294371672,-0.078805488341547,-0.0204283607759228,1.1624797533579627,3.5791145166718894,4.9729128518221675,0.6805678379905664,1185.0019390597536,1173.0593106287056,1167.833875732755,1187.3468657647063,-592.4595740468764,-503.1692884597811,-506.06106178084315,-952.0495001591923,150.1827960806255
0.4799999999999999,0.5329847533571687,0.6365753854646682,-0.2315505450133938,0.014077453201067,0.0985290589066882,0.020266975492798,-0.0114590995997689,0.0200789283091932,-0.9774910883213738,-0.2097051638089775,-0.1098655110569458,-0.0580460726295025,10.162230089469544,-0.0803643466767522,-0.0193425772645245,1.163448106604332,3.579351199369175,4.972754254652823,0.6834643206432404,1183.5814318613343,1171.657732751573,1166.6668182103394,1184.9744125540512,-603.0589463309359,-658.5347768819314,-472.1388294456168,-972.929028479676,150.18609938453454
0.4824999999999999,0.6432501953645101,0.739733915531912,-0.159584417122685,0.0187471563147862,0.0997854962930043,0.0198885441329361,-0.0113351352783508,0.0200192433298731,-0.9775010163418328,-0.2096713765103368,-0.1057361019578243,-0.0565295383227604,10.150726950391128,-0.0819025758060691,-0.0182233508008827,1.164405418630366,3.5795906699725273,4.972589790438279,0.686371423279885,1181.9866443280991,1169.766636744296,1165.4731815855268,1182.4822206223082,-573.1734875265824,-715.5309999617649,-419.22075319134774,-816.721497748312,150.19019516338236
0.4849999999999999,0.6245372429579765,0.823019465246166,-0.0987580447051131,0.0216745460153675,0.1015615938527998,0.0197217695608014,-0.0112170020023684,0.0199463865225493,-0.9775103789008333,-0.2096410967235156,-0.1013164859485927,-0.0552275823681356,10.138553924519009,-0.0834202121928772,-0.0170762275185153,1.1653429553498076,3.579832762051713,4.972418613399332,0.6892846272844898,1180.7155644237016,1168.080077751764,1164.5707144443827,1180.8908050653097,-502.9418831598828,-689.5775215105454,-370.9575977733035,-514.2313036691116,150.19371953646174
0.4874999999999999,0.5271771515274554,0.8836845460766644,-0.0349656181310245,0.0232934817668465,0.104330017570133,0.0196334445486551,-0.0111043401576055,0.0198619034393835,-0.9775182703946304,-0.2096184016530643,-0.0966616915335707,-0.0541593000462049,10.125591572844524,-0.0849130429239817,-0.0159106819389594,1.1662530996426959,3.5800771943344785,4.9722403376622175,0.6921994187401777,1179.4719349122995,1166.3187491367432,1163.6183935966603,1179.9110641039626,-541.8911933446902,-787.9508602728484,-464.2998796147363,-303.63638058997793,150.19736019698837
0.4899999999999999,0.3789449593820966,0.9142991845020234,0.0496521579797533,0.0238479797663125,0.1082886118325711,0.0195752608943508,-0.0109977849814219,0.0197699746527822,-0.9775243116376748,-0.2096046165239764,-0.0918028871662463,-0.053380713668922,10.111736108087081,-0.0863727594925108,-0.0147408561323856,1.1671297061868915,3.5803243721629108,4.972055386067588,0.6951137456414416,1178.006108456978,1164.1403234503998,1162.249215046309,1179.3726231623596,-529.2156771187815,-806.3103137687898,-555.8173147941939,-127.79372993559252,150.20186338724312
0.4924999999999999,0.269959218198485,0.9062842726137642,0.1302781154663141,0.0235124396226571,0.1113528815412264,0.0195768381998395,-0.0108954374940547,0.0196749847761528,-0.9775285834690786,-0.2095990404737493,-0.086827478098029,-0.0529536968214039,10.096898276899417,-0.0877965157979376,-0.0135814564117284,1.167967337533223,3.5805749224360524,4.971863959922142,0.6980276651565883,1176.8258565267058,1162.2871975678993,1160.8393070226891,1179.2720954542847,-456.8307169548912,-743.2747816659222,-624.057510835882,-33.35718075377369,150.2057274426572
0.4949999999999999,0.2097860930421394,0.8826506477832505,0.2231827965763739,0.022795039684517,0.1135449923843106,0.0196985803218133,-0.0107982506614115,0.0195828399932379,-0.9775311757384688,-0.2096006356685868,-0.0817666672628131,-0.0529524583643525,10.081004816796058,-0.0891744031630349,-0.0124481360349817,1.168761907347352,3.580829864797969,4.971665594423218,0.7009435967740866,1175.7219548722037,1160.4239495420702,1159.1289274921296,1179.2058372585907,-462.4154023494153,-815.5381385336561,-812.5506905661034,-101.0401835229458,150.20970592471943
0.4974999999999999,0.2076895793240902,0.8685820077503547,0.3455249475450108,0.0220696157133685,0.115552896657157,0.0201304225753353,-0.0107004809192868,0.0194974663146229,-0.9775324745875478,-0.2096075091185892,-0.0767965266662682,-0.0534368818915011,10.063994736236852,-0.090513509118706,-0.0113537004129574,1.1695087999391716,3.5810903687686766,4.971460427051472,0.7038629312246191,1174.5137795149587,1158.2095068752308,1156.7765535698588,1178.76689453667,-421.9307420745732,-807.3776059924049,-903.0852626822699,-264.47851833063373,150.21461043698943
0.5,0.2575960822669225,0.8899116512064965,0.4496677182378031,0.0218076864464666,0.1170492146200184,0.0208637716996507,-0.0105893601342646,0.0194218024221572,-0.9775332974513286,-0.2096162066271764,-0.0722361750703181,-0.0544758165039205,10.045818883498011,-0.0918388859626882,-0.0103101065127328,1.1702028342127313,3.581356106906042,4.971249815961944,0.706784145943739,1173.6123011618308,1156.387061512108,1154.6135011787183,1177.8834446669375,-337.23927869622963,-730.1122505106744,-900.7728021957864,-482.9526303188628,150.21880433107597
0.5025,0.337156414296672,0.9622560700045776,0.5435759055133393,0.022100166129629,0.1184215020815206,0.0221248479670704,-0.0104558470811522,0.0193575625716675,-0.9775343644220628,-0.2096236518970775,-0.0683361270078778,-0.0561021982028317,10.026435543199973,-0.0931696012270998,-0.0093230585729079,1.1708400109760433,3.581625113745968,4.971036631838161,0.7097051880788001,1172.8275831214776,1154.5589456226776,1152.2726895588798,1176.3521313850756,-291.09747062529976,-740.3484766449302,-966.3483994787376,-713.7018366775003,150.22310644603107
0.505,0.4153688717092401,1.0805508076058672,0.6185991277524885,0.0229913405598956,0.1198875060726091,0.0238376904135825,-0.0102948474499522,0.0193031517703899,-0.977536178939321,-0.2096278950031535,-0.0652753719167259,-0.0582705772731146,10.00582750083387,-0.0945203061002277,-0.0083870683319615,1.1714182142069287,3.581895287754312,4.9708240453573085,0.7126248933126186,1172.1568138087043,1152.6853191288835,1149.7817591813243,1174.3149354835502,-232.60165552851484,-769.5526003556544,-1037.0148198636334,-909.0905911086329,150.22749596889608
0.5075,0.4574623394818982,1.245130912553224,0.6613232802157194,0.0245354612315774,0.1218949095043155,0.0258580951991359,-0.0101050320946896,0.0192528311954812,-0.9775386037854688,-0.2096301703393337,-0.0631701511476663,-0.060849396424738,9.983982942900354,-0.095901466860573,-0.007484767089862,1.1719360320736292,3.582165059842485,4.970613908704717,0.7155441818225051,1171.6645748438348,1150.7111826208993,1147.0876154595617,1171.8066784295324,-163.63579674916747,-895.6263599995501,-1234.9520193330125,-1162.6549414169847,150.23198760516587
0.51,0.4272040223137922,1.4678299570716673,0.6711231922884459,0.026745439032941,0.1254617242492647,0.0281264711207382,-0.0098930725799677,0.019200398265969,-0.9775423571848768,-0.2096273680435022,-0.0619692316334258,-0.0636715265216662,9.960902481429905,-0.0973074661666128,-0.0065920034511362,1.172393595930932,3.5824334915631715,4.970407048637737,0.7184644292742712,1171.3386348249585,1148.2071873288855,1143.6069990846595,1168.501660776465,-71.49345656448683,-935.1191091662001,-1311.7821646212456,-1220.6158909390783,150.23749080076027
0.5124999999999998,0.3151632024351536,1.6465078498046293,0.647221347725836,0.028638383294804,0.1295360848802773,0.0297122938504981,-0.0096689513214459,0.0191428418534788,-0.9775478843102688,-0.2096172109047279,-0.0615315543125577,-0.0666284224250984,9.93659858180544,-0.0987249795036982,-0.005690356804842,1.172791648472397,3.582699867313933,4.970204213605479,0.7213863648102489,1171.3071075610123,1146.0355870750684,1140.5287046364556,1165.7035989748372,30.295616790135654,-870.3275529104294,-1249.4359435255308,-1081.7278580918346,150.2421674452688
0.515,0.1044778839008968,1.7858287175250702,0.5955359551285688,0.0301930259162202,0.1343279247654578,0.0310374357481592,-0.009446755496755,0.0190813946520553,-0.9775560819396782,-0.2095947396835594,-0.0616047340295134,-0.0696840330654046,9.91109627327146,-0.1001297005915673,-0.004769103639405,1.1731317787948083,3.5829629207577653,4.970004941364161,0.7243090654078829,1171.4901129089092,1143.8555495643336,1137.3598193670318,1163.093021486006,105.52329052047745,-933.7819707714509,-1381.3120319525283,-1061.2689872686124,150.24693391835575
0.5174999999999998,-0.2506081737795685,1.8813657750764683,0.506291560514716,0.0309891148738283,0.1402737969391241,0.0324491192376713,-0.0092344030177855,0.019015632899735,-0.9775676309786924,-0.2095564343298831,-0.0620511111508792,-0.0728028011154642,9.88443082529628,-0.1015119644528963,-0.0038183465273349,1.1734141899693988,3.5832221029750735,4.9698075973123315,0.7272300949050435,1171.8347240136147,1141.3666772212111,1133.6221444766927,1160.397254038494,120.91679992176967,-867.6023641289696,-1331.2875927299035,-894.5894091269103,150.2527529131566
0.52,-0.6098458938710623,1.89101859443143,0.4107148535901214,0.0303480509801485,0.1453189322613831,0.0334814155904039,-0.0090299843296841,0.018952742353265,-0.9775819894157712,-0.2095042116592382,-0.0628808814425584,-0.0761428259069663,9.85664894345841,-0.1028797623169531,-0.0028535328650135,1.1736369439342091,3.5834779406695865,4.969610482418108,0.7301478045502326,1172.094696908518,1139.5175377436888,1130.7033814033823,1158.6200744403716,63.393286373639,-662.8655884420363,-1094.4643972941767,-603.8937249417808,150.25768158894863
0.5224999999999999,-0.9990514782031124,1.8252172878674495,0.2931303214113452,0.028310736934529,0.1503791720043543,0.0344878281095585,-0.0088302003945791,0.0189012468446303,-0.9775979972367392,-0.2094428203036162,-0.0641143080210948,-0.0798932860680458,9.827810844544164,-0.1042415640026831,-0.001896658016788,1.173796938606959,3.5837321427344166,4.969411384177242,0.7330626200786287,1172.1516904454832,1138.0523492790007,1128.149822490222,1157.3777854137852,-58.2429343258354,-523.7705983749943,-1009.8453318749752,-430.01109184615376,150.26268922087348
0.525,-1.4565479676932445,1.6681608059003965,0.127815683267268,0.0245464049493523,0.1558722161343054,0.0357902113994599,-0.008627878178642,0.0188678938274028,-0.9776151600858592,-0.2093742344160869,-0.0658420738014477,-0.0842179527245485,9.797990411159681,-0.1056127745872227,-0.0009690304935802,1.1738887627586452,3.583987345964363,4.969207916385371,0.735977453259243,1171.8034822368888,1136.8986847518136,1125.6541547440074,1156.4700189811408,-216.7796802641531,-304.7782068643298,-807.6523631410048,-249.34132192552144,150.2687857506967
0.5274999999999999,-1.7996922564190971,1.4861737410173772,-0.0238157322926386,0.0205441944175778,0.1596558864676559,0.0365840764666676,-0.0084179733078262,0.0188502979067477,-0.9776324496747224,-0.2093036433892107,-0.0681446409695024,-0.0890899138574209,9.767276853022553,-0.1070056252493583,-7.27813995211506e-05,1.173905276016808,3.5842465689949337,4.968997169969839,0.7388940959669457,1171.0677920441624,1136.528458244679,1124.111560674517,1156.1310788041576,-400.25426285128526,-17.242588758290353,-502.1777763771747,-69.48841867679215,150.27393628947058
0.53,-2.0705351410203434,1.2711600368819376,-0.1720704719576904,0.0156753739468065,0.1627401533427711,0.0362714329980094,-0.0081970771831372,0.0188440377564651,-0.977649302469275,-0.2092341890378671,-0.0710733094916857,-0.0944258416463392,9.735776096581944,-0.1084269812679826,0.0007941926631009,1.1738379107192995,3.5845119166308628,4.968777297471757,0.7418155376520199,1169.8022109226324,1136.8124718080223,1123.1432658621216,1156.1225768877568,-596.1212433113809,215.03853241647428,-297.1927924773351,36.07678775592827,150.27915648885667
0.5324999999999999,-2.259289298936572,1.042706813013863,-0.3000580871608065,0.0100633168121726,0.1654115310206059,0.0350154223629825,-0.0079653420429174,0.0188442563923484,-0.9776650208646132,-0.2091695506053123,-0.0746107701378327,-0.1001083213314639,9.703611373150473,-0.1098740594320455,0.0016353075479182,1.1736776840791099,3.5847836871249683,4.968547498457236,0.7447419880445941,1168.0871858276055,1137.6036509067617,1122.6255967121303,1156.3114627429372,-786.1705699332099,412.36953940356176,-110.39847390925378,107.06203436939165,150.28443216362805
0.535,-2.327535556508898,0.812700660590396,-0.3881824794793379,0.0039278553638302,0.1675301311748086,0.0333894353459019,-0.0077237442446172,0.0188488720131091,-0.9776790451598214,-0.2091124963748938,-0.0787119197876961,-0.1060558868228723,9.670921749415648,-0.1113401550888438,0.0024474998343708,1.173415615075708,3.585061418553023,4.968307931083296,0.7476730484157096,1165.8713580729664,1138.87431950504,1122.5912734925753,1156.6578870596038,-1067.7447649828073,617.1930613532817,77.52212752352527,171.97539609287543,150.2897717606191
0.5374999999999999,-2.2533777153383574,0.5520694719414804,-0.4426725451146056,-0.0034304580852344,0.1692593793304498,0.0316871115164581,-0.0074736167558231,0.0188549170699106,-0.977691842173497,-0.2090610815178086,-0.0833273165445613,-0.1121526944252191,9.63785954214644,-0.1128184260046237,0.0032309858508992,1.1730433224322612,3.585343463035456,4.968060203011654,0.7506071619678764,1162.7484620026914,1140.689616213528,1123.013207349748,1157.1713397234016,-1200.230719822274,667.7888276459265,215.7760364917065,194.55041699120537,150.29624893516544
0.54,-2.0583459550786407,0.3584221189405384,-0.4500988794043102,-0.0093059669982247,0.1700702497161758,0.0306035307874908,-0.0072196866100986,0.0188565285500143,-0.977704581021788,-0.2090102349799302,-0.0883546675349979,-0.1182003313877792,9.604587861432352,-0.1142968518577808,0.0039955421166007,1.1725543190158743,3.585627358252073,4.967805784197144,0.7535440298653929,1159.8702044738548,1142.2132636432696,1123.6701536750338,1157.6306391445598,-1182.7439983379907,555.0934295360089,302.5724782964514,179.74081452689444,150.3017012251392
0.5424999999999999,-1.7323434600692025,0.1980337722424362,-0.4273700173666473,-0.0143547077505861,0.1704050900092335,0.0297740215289531,-0.0069747706024185,0.0188473907967468,-0.9777180665788398,-0.20895634472662,-0.0935424057450176,-0.1239501133319906,9.571278063408108,-0.1157470421744821,0.0047564792541242,1.1719458550459572,3.585911127819175,4.967546277051345,0.7564840737828566,1156.8347420110015,1143.465083361208,1124.5260697412302,1158.070043796036,-1350.5383209455874,428.113802261441,388.09409896562073,176.87207261078566,150.307205782521
0.545,-1.211244270353833,0.0479652784444268,-0.3739280373366848,-0.0187920575879498,0.1704679234726611,0.028851215630619,-0.0067499960333565,0.0188243308476753,-0.9777319031033276,-0.2089011859708438,-0.0986595952975968,-0.1292147077393947,9.538101871452158,-0.1171453100431698,0.0055209946834575,1.1712176418080287,3.586193516491157,4.967283007564928,0.75942540282427,1153.117512869127,1144.3538326545768,1125.610624169862,1158.5149995076135,-1367.706253476898,187.7753551114891,378.7351533866964,140.6289784411,150.31386598693055
0.5474999999999999,-0.6893600537050555,-0.0426628530412311,-0.3110206210927435,-0.0210791770676876,0.1703493330183561,0.028012046833231,-0.0065466829559692,0.0187836927472959,-0.9777457201156668,-0.2088467817011638,-0.1036571225172935,-0.1338327556700041,9.505222447483515,-0.1184926556861088,0.0062941999342648,1.1703703340232499,3.586473778625927,4.967017043613551,0.7623649862735207,1149.9962107436168,1144.4039601367656,1126.4197455081635,1158.7731886882416,-1251.5927974653084,-152.6412017960864,270.7210144503731,69.94926577817745,150.31945725053552
0.55,-0.1019781097924051,-0.101642063029544,-0.2316216303933436,-0.0220483134012139,0.1701257672467175,0.0270943812707878,-0.0063591170395572,0.0187256945477095,-0.9777582683051624,-0.208799150936573,-0.1085948728765534,-0.1377444461785153,9.472788624227988,-0.1198060743892418,0.007069755018853,1.16940653758788,3.586752020594518,4.9667491238550046,0.7652997341368956,1146.8595488818005,1143.5906266455963,1126.9642292421136,1158.8647458365047,-1383.2998761844908,-569.314534541581,147.8590900564539,-7.192898833318389,150.32508533161015
