t,ang_acc_x,ang_acc_y,ang_acc_z,a_vel_x,a_vel_y,a_vel_z,quat_x,quat_y,quat_z,quat_w,acc_x,acc_y,acc_z,l_vel_x,l_vel_y,l_vel_z,pos_x,pos_y,pos_z,mot_1,mot_2,mot_3,mot_4,dmot_1,dmot_2,dmot_3,dmot_4,vbat
0.005,-2.1540854293384086,1.7888619284055816,-0.7771395676055125,-0.0362493982823743,0.2949098581859734,0.0190002547043632,-0.002112406464669,-0.0155612197838795,-0.0545144228540947,0.9983894712145236,0.2096068593945656,-0.019940463899824,11.363024846099256,-0.1086630618052832,-0.0398920772996685,0.8359048245401896,-1.190984735323768,0.2613575696303799,0.1869680687411574,1162.6932745900758,1184.8151178328771,1203.6969336734796,1130.598064527352,180.4839517747496,-1468.38129062744,-369.13440140469913,-1462.0070165054133,163.6732737359722
0.0074999999999999,-2.6260719477447028,2.358379180230298,-0.6148137974047422,-0.0459278393246845,0.2990346765666315,0.0161644206385137,-0.0021921474879093,-0.015086172217199,-0.0545041463273012,0.9983968421867744,0.2001304846284661,-0.0214388781265756,11.354496914152904,-0.1096080976272422,-0.039945259110146,0.8395051182184046,-1.1913303430653577,0.2612990176754358,0.189051761891046,1163.1444844695127,1181.1441646063083,1202.774097669968,1126.9430469860883,85.2186171502126,-1713.0208037767716,-489.1303158542996,-1388.7806294558231,163.6817880315225
0.01,-2.9273026769081034,3.0854781322415974,-0.3638412027936469,-0.058254842332954,0.3063580099282318,0.0139118143700562,-0.0022718030528836,-0.0146143106862821,-0.0544875509140458,0.9984044377613184,0.1907744704671293,-0.0229012815906484,11.345745898394428,-0.1105559228342995,-0.0400019325755743,0.8431197386907319,-1.1916753167704783,0.2612437411049198,0.1911370087775209,1163.1193676758269,1176.2500138139933,1201.251282094208,1123.6541613800728,-113.00475641082808,-1815.2955450939312,-620.9985010757008,-996.9327202037217,163.69140469345487
0.0125,-2.988566107591319,3.6538949203564126,-0.1409692321711134,-0.0666150110477176,0.3151110517188954,0.0135978974272316,-0.0023499702933502,-0.0141529695730015,-0.0544642717835972,0.9984121411659064,0.1817224850132874,-0.0242712555530852,11.336645464254744,-0.1114945010570778,-0.0400607077422279,0.8467553316696231,-1.1920199107493417,0.2611916195106306,0.1932269254097127,1162.5794606874583,1172.067686880839,1199.6691051645892,1121.95838338507,-322.8739553109336,-1630.4599871623395,-684.3179620572756,-461.70120756473807,163.69892109410412
0.0149999999999999,-2.931304152011171,4.098518994023736,0.0533614539050412,-0.0718679267008849,0.3266564100505091,0.0144931998309049,-0.002426276946108,-0.0137017509354083,-0.0544325773634814,0.9984200234568186,0.1729878043641808,-0.0255237205047516,11.327055223708408,-0.1124245899882143,-0.0401218038487969,0.8504150192419598,-1.1923651024577824,0.2611425027672405,0.1953233996164932,1161.5049978992722,1168.0977138781816,1197.8296922839215,1121.3456553422493,-582.6098725683548,-1639.3865449912023,-842.2550783216137,-50.15774979060552,163.70592544510512
0.0175,-2.8104354687550983,4.422501665210776,0.2175326003553985,-0.0763760880607861,0.3422545371322854,0.0159460824197912,-0.0024995861987988,-0.013257930805453,-0.0543939185795406,0.9984280238631408,0.1645331138835646,-0.0266185169847958,11.316824886633468,-0.1133505883027339,-0.0401842593431415,0.8540990806907011,-1.192711895889882,0.2610949477643354,0.1974272149191627,1159.6664113246168,1163.8707541558829,1195.4578297729813,1121.7075946361167,-749.6438199908424,-1429.9289069215772,-870.9317982971241,279.41342419121605,163.71374477838987
0.02,-2.692550550955933,4.505170442786828,0.2836674064817075,-0.0804952706325344,0.3551680685664364,0.0171942475298616,-0.0025694527343055,-0.0128219555082168,-0.0543502023197048,0.9984360167155568,0.1563961263738204,-0.0275284009322477,11.305799443536603,-0.114271361917318,-0.0402469490171773,0.8578057444749991,-1.1930597249203243,0.2610471057748799,0.1995407549018042,1157.756778799318,1160.9480693435737,1193.475033292436,1122.7427224632052,-819.6009984234029,-1022.4232014306384,-762.3088841859956,514.7728573568204,163.71977777620728
0.0224999999999999,-2.5403894837355754,4.420836057537084,0.2736794910496695,-0.0864155518334661,0.3667535399902461,0.0183803576936935,-0.0026358556578808,-0.0123928509646951,-0.0543025745672635,0.9984439345134392,0.1485846692235679,-0.0282402335615453,11.2938285258987,-0.1151882196156755,-0.0403082309268012,0.8615300444603785,-1.1934078446848675,0.2609973728672109,0.2016665107875041,1155.5684063324995,1158.7586381487297,1191.646285352051,1124.281458922901,-904.496536797296,-747.305415371511,-689.0219711480312,659.2471357536396,163.7253162104608
0.025,-2.327910502066168,4.239402734995127,0.2060178755712437,-0.0938295762328027,0.3769058071916626,0.0193166652310004,-0.0026995563884692,-0.0119597546487902,-0.054249327793703,0.998451987192923,0.1408858013870835,-0.0287748116891084,11.280776379797835,-0.1161196986489368,-0.0403670366699941,0.8652619964667229,-1.1937564308250619,0.260945327507423,0.2038054788645,1153.2342961153315,1157.211542266716,1190.029923436696,1126.0389581419736,-950.1838923995361,-465.94966015554735,-591.2620133566178,712.0459068983108,163.73045022875692
0.0275,-2.013352353260785,3.996023670599439,0.0819525817183549,-0.101625751319801,0.3854516354554473,0.0197924956656814,-0.0027610734670794,-0.0115118656094428,-0.0541898822540617,0.9984603253520524,0.1330887519998755,-0.0291521568535873,11.266524705255442,-0.1170843562533647,-0.0404215629409117,0.868989405879029,-1.1941058330862002,0.2608906315988943,0.2059581838081189,1150.817486870502,1156.428889847952,1188.6899752852682,1127.8416884573924,-1062.7734911946848,-182.298496277872,-541.5741229522157,759.2401226141651,163.73510409397892
0.0299999999999999,-1.5227387594878183,3.6869890689146234,-0.1107428590062919,-0.1092811538330519,0.3944573449256166,0.0197318322773432,-0.0028229608924685,-0.0110469280218474,-0.0541267511848306,0.998468824371785,0.1251775248233282,-0.0294329238643899,11.25097593575258,-0.118085534099131,-0.040473368285607,0.8727003415491357,-1.194455909606491,0.2608334422342131,0.2081249111570339,1147.920428659358,1156.3000497853268,1187.322052821935,1129.8351587550444,-1051.5410376249745,68.75671942202642,-482.423689920506,682.1900187321716,163.74014396325643
0.0325,-1.0571408115656467,3.4337893433653486,-0.2914712584802353,-0.1131736661336276,0.4018751904847552,0.019113233024256,-0.0028877623098012,-0.01056908089097,-0.0540643307613935,0.9984771812333252,0.1172780533249645,-0.0296751137408208,11.2340592126466,-0.1191150215232468,-0.0405242067458005,0.876383492870424,-1.1948065584695513,0.2607746362999078,0.2103050359728546,1145.5597816823772,1156.772673445062,1186.2778568356655,1131.2526385510535,-928.2913169648958,277.88865222096297,-422.6353755135274,508.3656361393873,163.74389769693255
0.035,-0.6017013519807768,3.1830088973738944,-0.4752635963006082,-0.1137683755816941,0.4097448681070364,0.0179014788575052,-0.0029580807868388,-0.0100795078365484,-0.0540054026126105,0.9984852117352092,0.1094469320533941,-0.0299467880201308,11.215736783429588,-0.1201694623264137,-0.0405764840940168,0.8800265771429701,-1.1951581831540892,0.260715580843622,0.2124970859290261,1143.2789720745336,1157.6894930464316,1185.2088759443673,1132.3769869357411,-991.439856488751,462.57700386077,-492.97984316936,437.2263699116049,163.74719788754993
0.0374999999999999,-0.1405360188094837,2.870128468792552,-0.6833813336636,-0.1115261413305195,0.4188758549786817,0.0159342837642024,-0.0030366061380358,-0.0095794961017053,-0.0539551006190934,0.9984926035237348,0.1017390655243705,-0.030321847062486,11.19600502749298,-0.1212447375232843,-0.0406342413387639,0.8836175373616224,-1.1955105237893244,0.260657314657881,0.214699369098601,1140.6025823999335,1159.085558464366,1183.8129576198187,1133.4387704006115,-983.3285233392877,529.6714730272472,-531.5141997195499,358.646743565396,163.7506451294873
0.04,0.1483405611894806,2.5911714199872464,-0.8386156865078918,-0.1089684643664002,0.4256855238817215,0.0141925017648034,-0.0031246897466646,-0.0090700088143687,-0.053916455904364,0.998499166552344,0.0941956765078127,-0.0308476586408421,11.174895232233727,-0.1223372108322828,-0.0406995564768104,0.887144815526733,-1.1958632695265088,0.2606001667591219,0.2169113477917194,1138.3623294578372,1160.3378504115678,1182.5513049457695,1134.1702206535683,-916.3929426227232,487.9386670721028,-515.395704088905,285.9641313958034,163.75309878833264
0.0425,0.3545826212845301,2.288674780011906,-0.9672670610271348,-0.107218958645134,0.4313021886352867,0.0124818620355627,-0.0032235643001832,-0.0085551224760483,-0.0538924854895855,0.9985046839659404,0.0869214275314856,-0.0315668314995353,11.15247215116364,-0.1234373538653471,-0.0407747874468999,0.8905982581176048,-1.196216795681978,0.2605447935591517,0.2191331681933087,1136.0206176868198,1161.5252517997264,1181.2359790993744,1134.8685910575905,-964.5624520126152,447.26379121038934,-525.452532103782,289.96628192430774,163.75512774361957
0.0449999999999999,0.5291107633946946,1.9639367264370724,-1.0650169381229764,-0.1064618215105401,0.4359214661676911,0.0105230798087321,-0.0033322225950656,-0.0080389782738487,-0.0538840086183316,0.998509064998044,0.080012818514206,-0.0324723352669054,11.128832986742756,-0.1245354899817188,-0.0408583335220592,0.893968642731333,-1.1965723196276536,0.2604916805620484,0.2213653402452172,1133.539517197774,1162.5741693676196,1179.9240422852506,1135.6200520631899,-1029.854517717286,372.0704331293747,-516.9523274327732,321.9219037780933,163.75681227165623
0.0475,0.7163702184572825,1.6039387830094365,-1.1079167356333635,-0.1064636943470773,0.4398856359101572,0.0077672594365737,-0.0034457726684288,-0.0075224532696593,-0.0538901113709591,0.9985123525137124,0.0734818069915703,-0.0334740105789139,11.104105011326334,-0.125628029990123,-0.0409418344297119,0.8972471273428103,-1.1969295705316108,0.2604397476660043,0.2236082372522751,1130.8713450982334,1163.385603965373,1178.6512174622103,1136.4782005764807,-1206.3141118634564,287.7384659632296,-552.5591814864124,394.9244608085788,163.7580909808779
0.05,1.0023017733348396,1.1129314364646548,-1.0708147630631153,-0.105996617921362,0.4441364524138552,0.0036482890506043,-0.0035634975515883,-0.0070033552965413,-0.0539094976713731,0.9985146208412502,0.0672702129541267,-0.0345761835336124,11.078441157381512,-0.1267165473842211,-0.041024714949004,0.9004249900352,-1.197287385726156,0.2603876954556159,0.2258618566132424,1127.5079466384568,1164.012861697436,1177.1612463778183,1137.5946743672328,-1241.894786241756,163.78074961244246,-548.3573125105979,407.22782581251533,163.75916863627182
0.0524999999999999,1.3028509145012952,0.6414728724689697,-0.9546890872160838,-0.1044292616359033,0.4469050700315786,0.0003780865959315,-0.0036843807048965,-0.0064758654859025,-0.0539390621261855,0.9985160730076892,0.0612329268034231,-0.0357772353848998,11.05201490782106,-0.1278095060353459,-0.0411059348857234,0.9034940982284834,-1.1976450517187336,0.2603353788395722,0.2281263491342295,1124.6618711670246,1164.2045077134355,1175.9094308996575,1138.5143397055435,-1118.13659962445,4.060658281196085,-516.3946705307355,340.8007808030108,163.75969491561207
0.055,1.6574424114759536,0.0974368185385462,-0.7505871509314316,-0.1015934113228302,0.4486074022033354,-0.0022551535989375,-0.0038050336130554,-0.0059353856788999,-0.0539741595112568,0.9985169997631638,0.0552434199082041,-0.0370170692416619,11.025013520610232,-0.1289137243539951,-0.0411799298693644,0.906448655069856,-1.198002193509432,0.2602830403938386,0.2304005499473421,1121.9172636403343,1164.033164988842,1174.5792730251649,1139.2986782712478,-1148.2539953397,-147.81852065289044,-615.9701829372801,292.3980180045416,163.75984564659527
0.0575,2.1126064161237528,-0.6326154332874984,-0.419839781816377,-0.0970676624761971,0.4491242862222858,-0.004664980065169,-0.0039213041717578,-0.0053828502754855,-0.0540111384245758,0.9985176082747748,0.0492903988434783,-0.0382069190955774,10.997631055952276,-0.130026035469107,-0.0412398262155608,0.9092865819204912,-1.1983592175694433,0.2602305095917164,0.2326840817898184,1118.920601190326,1163.465415110171,1172.8295799849711,1139.9763297955662,-1026.0091457674666,-245.53011242273908,-671.2903587935674,200.92956839457668,163.75960398347854
0.0599999999999999,2.482060336748376,-1.2866108964025742,-0.0928728976403812,-0.0921534803262005,0.4478223193296049,-0.0058394261076449,-0.0040296040467712,-0.0048212759818344,-0.0540470018005093,0.998518060173927,0.0434030226347252,-0.0392620185160322,10.970062390300482,-0.1311392217083862,-0.0412801881418366,0.9120088500363454,-1.1987177915013738,0.2601783494250476,0.2349762311610544,1116.7872179114972,1162.8055144267282,1171.222821231197,1140.3033261132207,-756.8466047167478,-258.7559267925827,-674.4743155176369,93.14608320401024,163.7590587433311
0.0625,2.7893833227711142,-1.9489170037059245,0.253992343084845,-0.0855413137515883,0.4442235253613047,-0.0057223738036162,-0.0041233949657607,-0.0042555022162667,-0.0540795991931721,0.9985184771073748,0.0376414422814565,-0.0400244665172719,10.942496607126664,-0.1322428510019659,-0.0412907843955997,0.9146198862364044,-1.1990797179715027,0.2601279259564202,0.2372750026583539,1115.1363681667424,1162.171635476208,1169.4572084073827,1140.4420602115863,-571.2807605955727,-209.49131095276223,-734.1265535884752,41.16825813389365,163.75816619477428
0.065,3.0040952326324875,-2.5805453469359527,0.5881622934781886,-0.0776640877194886,0.4385737453991206,-0.0045307630950462,-0.004201070656705,-0.0036920391305491,-0.0541077834216926,0.9985189028092344,0.0321036034214822,-0.0404358871615649,10.915110437174654,-0.1333230699229152,-0.0412709670599544,0.917127054407268,-1.1994448333436751,0.2600810135170336,0.2395777182890838,1113.9308141085191,1161.7580578719644,1167.5521884632547,1140.50916740389,-373.0787619210329,-68.28057286647885,-802.7216144111654,31.536825198600095,163.75699260050155
0.0675,3.066678000202347,-3.12954589725788,0.8725169030452533,-0.0693800926078372,0.4306211595359846,-0.0023210487686015,-0.0042621109304344,-0.0031376954785254,-0.0541303858839871,0.9985193837531424,0.0268920411495606,-0.0404544120889125,10.888062623215903,-0.1343660206640458,-0.0412223429627438,0.9195403139977671,-1.1998110485136957,0.2600388820504062,0.2418828737132743,1113.2709743571372,1161.8302326118755,1165.4436003353271,1140.5997443375793,-173.37863420993912,178.9367691998903,-989.568432310215,66.53243087284858,163.7554882663564
0.07,2.9331502869773596,-3.6483163998547465,1.1183075122047028,-0.0597747020086121,0.419102348642832,0.0012635851054402,-0.0043072592784869,-0.0025988358762025,-0.0541464418816068,0.9985199588909812,0.0220997288651324,-0.0400599710633731,10.861489059499876,-0.1353595339980925,-0.0411487721213333,0.92187148241795,-1.2001761127004416,0.2600013097618807,0.2441892910690034,1113.0639209374697,1162.6527417179639,1162.6043463017036,1140.8418295582544,7.629207598938606,426.2888631569248,-1101.748210346843,118.108928992797,163.75331079518497
0.0724999999999999,2.6366691344702873,-3.949573781054773,1.2231882838144204,-0.0518726140130308,0.4086611618025073,0.0050330139420483,-0.004337462936144,-0.0020787036680984,-0.0541562791928578,0.9985206109527638,0.0177528882769949,-0.0392355722944082,10.835499340756122,-0.1362981910876647,-0.0410543999072166,0.9241328499018044,-1.2005389285295711,0.2599676279999159,0.2464960782249583,1113.309120395132,1163.9616769276604,1159.9348592835927,1141.1902889825433,162.34796719190885,624.779286549666,-1129.6349473954726,167.757438872832,163.7511928762079
0.0749999999999999,2.151099839361368,-4.1218295480681775,1.2132630405548708,-0.0442681375411186,0.39828163645431,0.009461237200562,-0.0043567627109692,-0.0015764293427899,-0.0541602171270936,0.9985213247852476,0.0137957527869561,-0.0380327769099963,10.810174482456183,-0.1371848692911345,-0.0409481848730259,0.926335859121215,-1.200899110645341,0.2599351762518277,0.248803837538386,1113.8756607734292,1165.776638150712,1156.9561715647262,1141.6806167526183,295.2422168284099,848.6617841012494,-1356.3158219927107,235.67418442553367,163.74876759153238
0.0774999999999999,1.3866771628259948,-4.209432107979804,1.0822808153804997,-0.0366284608823941,0.3865912229259185,0.014597627663796,-0.0043717123338726,-0.0010920603071912,-0.0541586576705472,0.9985220718699896,0.0102008069795522,-0.0365548645923013,10.785565881250507,-0.1380212318071528,-0.0408420879904796,0.9284917103326799,-1.2012567044784055,0.2599012860257234,0.2511136793914069,1114.785331479274,1168.2049858481666,1153.1532801736291,1142.3686599046707,353.56285906968844,868.8712152305462,-1398.318701463221,255.05844064227836,163.7455098083439
0.08,0.6537846883687273,-4.208268259695264,0.9055018925695156,-0.0329809082442452,0.3776494327145441,0.0176872352323961,-0.0043903450502029,-0.0006277496482809,-0.0541514119498923,0.998522847813517,0.0069941162931325,-0.034935265268591,10.761696311940591,-0.1388052618461263,-0.0407489270860698,0.9306111005227878,-1.2016121907958612,0.2598646644672304,0.2534263176902938,1115.6434750687777,1170.1209942268647,1149.96457805741,1142.95590895583,348.23505688818807,667.5284506191923,-1230.434173046159,217.26259509741772,163.74251073767485
0.0825,-0.0853897817392849,-4.148267576294307,0.7148439924854192,-0.0339799884945812,0.3689882528042409,0.0188991556195338,-0.0044184086378086,-0.0001852990045733,-0.0541394235174908,0.998523594366406,0.0041983263197227,-0.0332618471349238,10.738562567263976,-0.1395356649031087,-0.040676436743334,0.9327032583899264,-1.2019656152009175,0.2598253388856768,0.2557416678504341,1116.526506763715,1171.5426281012626,1147.0011093083983,1143.454972880158,350.3245073623472,441.58805890156106,-1114.3488303598579,166.31773619524196,163.7392223269397
0.085,-0.7613556879702656,-4.03741606932775,0.5555946262745571,-0.0384113248668545,0.359745124328885,0.0189366135482803,-0.0044587799894912,0.0002407133100478,-0.0541210319664487,0.9985244074068012,0.0016856804347416,-0.031575331658943,10.716139368136332,-0.1402246977079943,-0.0406261920818385,0.9347735772087796,-1.2023176164908727,0.2597842113293766,0.2580607338267768,1117.3950976055892,1172.3289345213727,1144.3928339056108,1143.787497636806,339.7294516553299,134.6388803675835,-931.2407265239464,66.47041061260092,163.7356977686667
0.0875,-1.3169096665929632,-3.848529903634116,0.4693458958520211,-0.0440016013837979,0.3494843003206418,0.0184387597274321,-0.0045133294514469,0.0006574252563408,-0.0540943855482091,0.9985253972856458,-0.0007009421581178,-0.0299049779238131,10.694383449752438,-0.1408873774800536,-0.0405975478444391,0.9368246731733476,-1.2026694162199907,0.2597415500661877,0.260385423599544,1118.2251540219916,1172.2158225031003,1142.3449056757788,1143.787324933221,353.09424075376296,-252.31006686899536,-762.1368759271732,-110.3056334377927,163.7318924813007
0.0899999999999999,-1.8510141065971684,-3.514496707766474,0.4635166815101046,-0.0490491003623257,0.3370352439471074,0.017908975943149,-0.0045842779846777,0.0010666708294537,-0.0540597183991525,0.9985265583640028,-0.0029972793366533,-0.0282906639456485,10.673238409945691,-0.1415279295706947,-0.0405904284426022,0.9388581871999542,-1.203022331031373,0.2596973190017548,0.2627176047324274,1119.1605688093582,1171.0673841870275,1140.5821495259747,1143.2359694696172,329.598065949586,-562.3859014763193,-539.6414790769551,-309.98690626561313,163.72700639151583
0.0924999999999999,-2.2146800314027124,-3.1513017078327565,0.5265003561502122,-0.0517337228273948,0.3275817009434818,0.0179747509465916,-0.0046699765784144,0.0014696751684916,-0.0540177669375372,0.9985278713168908,-0.0052242154595601,-0.0266991554864733,10.652640408759416,-0.1421491180848072,-0.0405977496212574,0.9408739186988312,-1.2033768808912828,0.259651629918166,0.2650586697196471,1119.8731443517395,1169.4038929957187,1139.646698280394,1142.2373904018928,263.15411434361494,-763.202119006882,-284.5737824491605,-509.01022718971893,163.72267194406203
0.095,-2.513342865126828,-2.731051484681215,0.6214055658609805,-0.0543761136935545,0.3198349949939697,0.0192329357287525,-0.0047646961176603,0.0018709955288928,-0.0539711483770084,0.9985292267820421,-0.0074728257992013,-0.0250248442701942,10.63252362628222,-0.1427597903634007,-0.0406060514501593,0.9428691181889804,-1.2037328219094137,0.2596052239400735,0.2674088584455288,1120.4763393810763,1167.2513735919931,1139.1592806137292,1140.6909183336686,224.51911563425688,-997.5593292639578,-136.00954202256605,-770.4124491286613,163.71806992556975
0.0975,-2.764366652269275,-2.220033037907043,0.7146005437125955,-0.0603031436224613,0.312962617081358,0.0220784422193574,-0.0048634596311636,0.0022709249645768,-0.0539222324779047,0.9985305306682838,-0.0097378039168695,-0.0231837476361624,10.612825007551546,-0.1433605236625904,-0.0406034393337145,0.9448409079863532,-1.2040897561704815,0.2595591223313041,0.2697676615873184,1120.9957399299108,1164.4160963493991,1138.9666505702812,1138.3853281562497,142.08858889455755,-1038.490382891131,-18.725003915824328,-874.5895353707502,163.71224491609715
0.1,-2.828642084475137,-1.8358204107425689,0.7377807589499368,-0.0683599354754717,0.3090384256184384,0.0248697750335934,-0.0049640998428728,0.0026661164504402,-0.0538761191075689,0.9985315305998488,-0.0119304426286725,-0.0211563854892656,10.593488878300494,-0.143944528205638,-0.0405845314110915,0.9467865300604162,-1.2044471415370792,0.2595145797753561,0.2721342042109788,1121.186782325549,1162.0589216775377,1139.06565559415,1136.3179706568149,8.897617423326658,-896.7546162958563,84.09237657051555,-792.5380697443862,163.70714412579179
0.1025,-2.6758865571411015,-1.5412767858766572,0.6756534623684125,-0.0781098984420121,0.3062717549106549,0.0274770394415799,-0.0050671008424765,0.0030565248163414,-0.053837027114662,0.9985319985489798,-0.0140265444425119,-0.0189907038042857,10.574470966183947,-0.1445111949932527,-0.0405498577353422,0.9487017978268688,-1.2048044556229338,0.2594724109897665,0.2745072912565878,1121.0402280170274,1159.9323232679199,1139.3871124531336,1134.4226378075275,-125.6230109394894,-784.4763926356804,161.04304979762705,-684.095337164173,163.70179474507307
0.1049999999999999,-2.3205215382811404,-1.3421240466503948,0.5338954279648703,-0.0872482207868585,0.3039643535554492,0.0297348467251672,-0.0051711937885034,0.0034403984470107,-0.0538058121714355,0.9985319011377742,-0.0159656376137432,-0.0167016114317575,10.55574112598955,-0.1450573944422534,-0.0404961595152615,0.9505831479768632,-1.2051606102708787,0.2594318865927306,0.2768858717101525,1120.5586672708516,1158.1365397143593,1139.870870843138,1132.897493970994,-282.88635820081305,-611.8492857297052,225.00191208000655,-480.7683620860653,163.6962453354382
0.1074999999999999,-1.7408700143660023,-1.2652605521584688,0.2985757362680868,-0.0939331562542475,0.3016885009028678,0.0314676133566713,-0.005276948664917,0.0038155222718842,-0.053780215739871,0.998531365723684,-0.0176740688710354,-0.0143466451816468,10.53728569268487,-0.1455794171025651,-0.0404231953129772,0.952427204756806,-1.2055145333792818,0.259391727645967,0.2792696145283966,1119.625796226023,1156.873076839271,1140.5121220135338,1132.0187959970974,-521.4798945667094,-407.5896151341564,300.85366634766586,-212.97958922887096,163.6904628528334
0.11,-0.8592338561258385,-1.304964874068904,-0.073638265035996,-0.0983540214427957,0.2983202669049674,0.0328179897353091,-0.0053855751866139,0.0041816967470304,-0.0537567229764217,0.998530578626508,-0.019119573880162,-0.0120013655135576,10.519108952316149,-0.1460775111621407,-0.0403321978039978,0.9542301853340172,-1.2058656802950867,0.25935140746094,0.281658052295815,1117.951267798018,1156.0985916386885,1141.3751391748765,1131.8325960248496,-706.2482926250134,-149.23342439233224,314.19609916606504,73.48682968499809,163.68326553288733
0.1125,-0.040021324420795,-1.4336985298797422,-0.4339255361682274,-0.099142771365921,0.2947916414972045,0.0329953464544296,-0.0054958800675056,0.0045417777741335,-0.0537337298678217,0.9985296253230665,-0.0203375938524727,-0.0096945290026357,10.50123371113203,-0.1465577049076047,-0.0402211299015995,0.9559877809208952,-1.2062143481168999,0.2593113953717775,0.2840508697079031,1116.0945547628983,1156.1269097173097,1142.083102509364,1132.3862301455224,-828.5483604373886,154.0556050017129,259.50058668017823,345.34574685758315,163.67706052324
0.115,0.7817952055881527,-1.6452022116371927,-0.8035189551333608,-0.0973267447932354,0.2906564008821023,0.0313816166081292,-0.0056076477915906,0.0048997599186198,-0.0537135835225958,0.9985283701659178,-0.0213882569251752,-0.0074751225823238,10.483701410947043,-0.1470274029863644,-0.040091571839775,0.9576954618236616,-1.2065614371536784,0.2592724697475016,0.2864481617915473,1113.8085259958311,1156.868869663697,1142.6726421082772,1133.5593247591376,-1076.1846641050388,479.22032040428314,215.9436735979396,618.2547184417666,163.67064966697654
0.1175,1.6854061861067384,-1.9832252205103449,-1.2016746757142072,-0.0927335580082135,0.285562958641971,0.0274200167200243,-0.0057195185937861,0.0052595089255932,-0.0536986553798587,0.998526685373536,-0.02233263635114,-0.0053650806945906,10.4665713934629,-0.1474932636263811,-0.0399434278058746,0.9593489783616016,-1.206908071587808,0.2592351232854719,0.288850983714769,1110.713631442373,1158.523011319331,1143.1628208773539,1135.4775037377312,-1159.4849525557515,713.6644902127514,141.37769352969397,756.534814455928,163.6627289782323
0.1199999999999999,2.319398434998965,-2.329450869587532,-1.4620183170735848,-0.087194979417798,0.2812546118416632,0.0233257907442816,-0.0058278426146124,0.0056209040705866,-0.0536892396531645,0.998524587376907,-0.023154273445036,-0.0033299907679501,10.449919518782089,-0.1479540050401722,-0.0397716590959452,0.96094567860629,-1.2072553779295474,0.2591989979113138,0.2912602113077768,1108.0111012330524,1160.4371921147608,1143.3795305759259,1137.3419988314172,-1055.1400266702803,840.4312190422403,56.53268137784845,767.1657680571585,163.65594593828277
0.1224999999999999,2.784264367098375,-2.7286285362529448,-1.6237933901420816,-0.0799918037041673,0.2762134342869111,0.0189560732944436,-0.0059320821359424,0.0059773353983563,-0.05368678578333,0.99852204497435,-0.0237032077819811,-0.0013876632957027,10.43383658980088,-0.1483948648775301,-0.039577268884457,0.9624851566783896,-1.2076034057688032,0.2591637601940237,0.2936755375061955,1105.4379313090217,1162.7251674145423,1143.445484284243,1139.313332578017,-967.26042795808,943.697315763756,16.390421586311263,786.0742948146701,163.64898185801135
0.125,3.086357797640845,-3.149807533508606,-1.695831473237768,-0.0716907807843422,0.2699166518831421,0.0143410033468792,-0.0060313861575332,0.0063222247120092,-0.0536917190070751,0.9985190839661806,-0.0238369044578903,0.0004570702267077,10.418425709582534,-0.1488007700393469,-0.0393608003228715,0.9639678255059154,-1.2079518317444509,0.2591297297802729,0.2960961572751366,1103.174799093262,1165.1556786935796,1143.4614826838574,1141.2723703054903,-788.5641967672194,965.5687805939568,17.609433630013868,762.5571878384555,163.6418736855825
0.1275,3.182848972410605,-3.5580519807314306,-1.6601231222245592,-0.0626682711266745,0.2617741183468851,0.0095594884586058,-0.0061228318287207,0.0066535345958066,-0.0537035486735391,0.9985157663073356,-0.0235163039272746,0.0022444867240959,10.403799080121626,-0.1491654188056691,-0.0391194377924682,0.9653938988097224,-1.2083003579159308,0.2590977775969037,0.2985213608681457,1101.4951103251856,1167.553011317512,1143.5335314523932,1143.1261185172093,-569.3784471990506,1002.167585558981,72.54351126866814,774.9444414413566,163.63459884799812
0.13,3.0765437742951645,-3.9770813339164377,-1.5071284291190314,-0.0518968186029706,0.2501873990941015,0.0043252332034594,-0.0062047318547856,0.0069719107756478,-0.0537212515668793,0.9985121609946493,-0.0227630789247012,0.0039934980317427,10.390074708291795,-0.1494875668307875,-0.0388532203832736,0.9667638887783624,-1.2086485903174127,0.259068701547278,0.3009513706323804,1100.3279068572667,1170.1665166213745,1143.8242002402008,1145.147092512697,-278.5592630211793,889.7772461967626,154.02377367890935,700.121649361426,163.62568535589327
0.1325,2.835257848585428,-4.231504691411938,-1.3077277203392363,-0.0440908152315334,0.2394744233169554,0.0007993504477538,-0.0062758490012748,0.0072793743099345,-0.0537422287576455,0.998508411931013,-0.0216326264703644,0.0057192954955986,10.37737258090246,-0.1497688257918372,-0.0385629192488844,0.9680791924977304,-1.208996457376505,0.2590428729398552,0.3033860491417714,1100.1023140100797,1172.001897548496,1144.3036503207877,1146.6267267640164,54.661263882371664,642.7132434597745,245.69240096161568,547.0714557250171,163.6181109938775
0.135,2.4920722468095886,-4.358233980948745,-1.0631514354911933,-0.038583469724251,0.2282170116354391,-0.0018707690167823,-0.0063338076347055,0.0075790302818311,-0.0537638227761406,0.9985046670849044,-0.0202094642154718,0.0074662053644774,10.365810617694688,-0.1500133132396635,-0.0382470908109753,0.969342418377917,-1.2093444380605711,0.2590205833497935,0.3058237499537923,1100.6012131766784,1173.3800828386732,1145.0526622450088,1147.8824497913224,356.44170311593336,487.2030543180695,384.5740513379493,503.4292577721312,163.61039278495713
0.1375,2.026187285584488,-4.348790132067684,-0.7514747454102026,-0.033976445085318,0.2144841810022214,-0.0042690996750231,-0.0063782650304433,0.0078706157313899,-0.0537831373852003,0.9985011001504532,-0.0185107216433439,0.0092458531349099,10.355500958607804,-0.1502188808161029,-0.0379073763200982,0.97055857250561,-1.2096926371364207,0.2590019422619024,0.3082622325098945,1101.8845225256591,1174.4379128200862,1146.2265205774775,1149.143873052877,555.1969786970852,286.1395830664603,465.3314653332014,423.9530453295625,163.6009745179019
0.14,1.6219380117793805,-4.210222464859171,-0.4991351077366198,-0.0307464712244453,0.2032288355630963,-0.0055105581227011,-0.0064107695839219,0.0081506550198817,-0.0537997390109025,0.998497762999805,-0.0164894718566796,0.0110390967134149,10.346546203123392,-0.1503774238971293,-0.0375486735125189,0.9717348056515523,-1.2100403433400022,0.258986934649406,0.310700214761394,1103.377198070164,1174.8107807540057,1147.3793195716748,1150.0022150179702,647.7357232429762,51.55547668946378,481.5915772273906,303.4078957869494,163.59300312801778
0.1425,1.2121468212267719,-3.957555861482272,-0.277311883323164,-0.0273273259738422,0.192704846192022,-0.0056288030953978,-0.0064349317487756,0.0084179285929732,-0.0538155521639842,0.9984945486428596,-0.0141464954620112,0.0127847938493646,10.339036156113623,-0.1504856317928542,-0.0371796467443291,0.9728783034712019,-1.210386331336045,0.2589744961246244,0.3131384179517741,1105.1232011418742,1174.6956902035336,1148.6344784636144,1150.6609125318118,715.5528434046151,-112.82180537846268,507.8028593739897,228.8301301575768,163.58491359637404
0.1449999999999999,0.7979766321557811,-3.637732878669561,-0.0913954014584484,-0.0237043709448164,0.1831206177673566,-0.0050641482226672,-0.0064575777336157,0.0086724574363854,-0.0538334987724061,0.9984912664155784,-0.0115062058125959,0.014355021031117,10.333045111815059,-0.1505430246993469,-0.0368141996270091,0.973996070050594,-1.210729140049992,0.2589629110882397,0.315578771117594,1106.954962287187,1174.2466717271132,1149.9183338685448,1151.146365668758,732.3040601363606,-236.6835845929938,510.3654472542099,152.53990889323248,163.57673339994037
0.1474999999999999,0.3881169829252001,-3.279504435815708,0.0521240257246613,-0.0210340861675247,0.1749455486436406,-0.004452052541144,-0.0064841651931485,0.008913942294605,-0.0538555901586647,0.9984877862465223,-0.0085877040835044,0.0156490225585369,10.328629096056748,-0.1505493456848137,-0.0364617466725503,0.9750954004135496,-1.2110684174204536,0.2589501258043476,0.3180226677393563,1108.784721442556,1173.5122722805684,1151.1863056998855,1151.423612076278,792.5695058896047,-358.4152838376664,547.104778752418,82.48554252118076,163.56845311389276
0.1499999999999999,-0.0618401120672597,-2.86329445633668,0.1923753576561247,-0.020439285146405,0.1670591343071549,-0.0041242046537505,-0.0065148307677291,0.0091397886080593,-0.0538820215735884,0.9984841280910648,-0.0053670304612902,0.016674598339573,10.325823590672009,-0.1505008594852067,-0.0361191707581916,0.976184658292924,-1.2114053495375423,0.2589343813835928,0.3204701166315156,1110.917809816635,1172.454595307925,1152.6538577623069,1151.558793381364,772.540210207034,-399.1670037417404,527.0725584299721,30.556238102371903,163.55841338229203
0.1524999999999999,-0.3650154710642892,-2.564217724827379,0.2993758387151981,-0.0219014386091816,0.1619690318873418,-0.0040224486620491,-0.0065494104447173,0.0093481751291023,-0.0539119028776528,0.9984803642774384,-0.0018340670323296,0.0174396421715845,10.324642878718876,-0.1503954618474524,-0.0357815413035989,0.9772721177409625,-1.2117412972120158,0.2589148966271223,0.3229206813843857,1112.6474224935912,1171.51643726186,1153.821668492035,1151.5763932667899,688.5874797229002,-373.9322222828829,453.75078502079265,10.379842482461743,163.54996953562247
0.1549999999999999,-0.5570403950879019,-2.3393908112325263,0.4118482163961714,-0.0243356370553423,0.1577584736018614,-0.0035626177300024,-0.0065885540721904,0.0095402251053821,-0.0539427142283512,0.998476622884463,0.0019648991106476,0.0179258208682564,10.325079689286994,-0.1502367172475905,-0.0354450118533001,0.9783652969350064,-1.2120768779102011,0.2588917964663737,0.3253735342593339,1114.3607472152496,1170.5849341965106,1154.9226116874108,1151.6106925937763,756.7002266220237,-404.0375771371142,462.94853600156733,46.85270549384764,163.54145479047048
0.1575,-0.6404565299407956,-2.151625372050438,0.5620208170265728,-0.0274456631324617,0.1526620324922525,-0.0025717472671562,-0.0066318834025689,0.0097191390591288,-0.05397159807413,0.9984730380730288,0.0059432210663369,0.0181277582425802,10.327105035923692,-0.1500323318323587,-0.0351042180236158,0.9794712930089484,-1.2124121380490496,0.258865918031355,0.3278281871247871,1116.430923626701,1169.4962493761743,1156.1364111720432,1151.810656794259,761.5401778081825,-396.9880068052131,418.75714642874254,115.73716903558297,163.5311646989675
0.16,-0.5912173748978817,-2.0412560490928358,0.7010679677698853,-0.02981045822129,0.1478963604748246,-0.0015634387056282,-0.0066785736612523,0.0098899051639335,-0.0539953202949918,0.9984697507625324,0.009980728757235,0.018042093678898,10.330668926949539,-0.1497936351807606,-0.0347540171153543,0.9805967236397468,-1.2127462804093647,0.258838883843429,0.3302851463812268,1118.1684481042903,1168.5999941624843,1157.0163974195543,1152.1893784389542,690.5212419477715,-363.29413084986265,311.52945854591934,204.8037742390077,163.52253538442332
0.1625,-0.4401407697079493,-1.9406473219564755,0.8490291698029548,-0.0315798057589488,0.1427415159312832,-0.0002832575338994,-0.0067258505287802,0.0100578336452973,-0.0540102661771085,0.9984669327695928,0.0139522445160948,0.0177015478924741,10.335701395260347,-0.1495329464752066,-0.0343868403186182,0.981748125192402,-1.2130782931646849,0.2588126422557786,0.3327442870317822,1119.88352983644,1167.679778721925,1157.6940584647728,1152.834675665454,672.5822079235053,-378.0121464791588,228.44960490442625,301.17418634013086,163.51385602813295
0.165,-0.2298091462716733,-1.820159682567516,0.9934805246156814,-0.0325096237653818,0.1375178039506325,0.0014485984756809,-0.0067710407122857,0.0102222713743249,-0.0540133841348967,0.9984647827118942,0.0178592130846103,0.0171418732129096,10.342114033673916,-0.1492509409457334,-0.033996497091259,0.9829336058027088,-1.2134075577200099,0.2587888826408281,0.3352041691498826,1121.531359143908,1166.7099334300888,1158.1586454440767,1153.695249370655,629.0343630856563,-404.7970503745997,128.73914093697735,386.77917760573985,163.5051391158092
0.1675,0.0168239703405306,-1.6505526784586335,1.112610603053188,-0.0321851032127756,0.1323182325698994,0.0040241920515196,-0.0068141563273723,0.0103800136249946,-0.0540045542185781,0.998463342904192,0.0217615330711084,0.0163475507853102,10.34980287457862,-0.1489427716056731,-0.0335841772438522,0.9841614152917654,-1.2137334877395551,0.2587689139328147,0.3376634171103923,1123.0287016518685,1165.655793470052,1158.3377541694576,1154.7685715534828,608.6924439995522,-482.43006980856035,14.962642644150025,503.277928998386,163.4963808347462
0.17,0.3149061844913613,-1.3758328149005044,1.195669899666076,-0.0306271618506964,0.1266219007668894,0.0081907852117282,-0.0068549349196625,0.0105317474351566,-0.0539867426739696,0.998462445850084,0.0256407589156615,0.0153079284555252,10.358651820966072,-0.148610861511624,-0.033153028832025,0.9854377167467764,-1.2140562370932346,0.2587528056405739,0.3401220250685347,1124.5748213639058,1164.297783081046,1158.2334586572974,1156.2116390156468,518.8780131555627,-505.5098270075173,-82.6196058770619,539.812886789377,163.48582726956312
0.1725,0.5465562308132182,-1.0927791001150886,1.197954998693049,-0.0287239590392606,0.1229462962426604,0.0121499661831112,-0.0068920283068505,0.0106776005853181,-0.0539635690739832,0.9984619008922634,0.0294911083473119,0.0140402641092794,10.368535929062876,-0.1482562109084525,-0.0327049787043189,0.9867674297624504,-1.214376286746906,0.2587397136268482,0.3425812632479447,1125.6230917176463,1163.1282443350144,1157.9246561400723,1157.4676359874295,370.3827732463193,-457.0003395434465,-150.54334503402046,494.87864034904254,163.4769993350079
0.175,0.7541315156776132,-0.775152803504824,1.125651821926932,-0.0265796243070011,0.1206612053024471,0.0156742830978113,-0.0069238025824366,0.0108195690770642,-0.0539382560374883,0.998461520542722,0.0332696820349159,0.0125717150007213,10.379325886583189,-0.1478830022683904,-0.032241885837163,0.9881529834641206,-1.2146942141484935,0.2587292065375028,0.3450428514822687,1126.4267352301374,1162.0127813833287,1157.480741932127,1158.686032217392,309.6053292897082,-446.74501439845,-195.2678309040048,505.04584605364704,163.4681412663441
0.1774999999999999,0.9832450657379364,-0.3873727941213194,0.966093941868157,-0.0241036082688976,0.1193149124231457,0.0188450320069832,-0.0069491872530599,0.0109639545416069,-0.0539132830350944,0.9984611068468598,0.0368459974413297,0.010919907414278,10.390892789098714,-0.1475033033716632,-0.0317671027551794,0.9895932838566268,-1.2150110394012958,0.258721318043328,0.3475093035218412,1127.1711183640948,1160.894519263022,1156.9483169855523,1159.992865217698,252.03911215330777,-346.0608318847351,-169.3900760019468,436.0143064938277,163.4574830693711
0.1799999999999999,1.167170564754216,-0.081701528253485,0.7884269511606354,-0.022172136272391,0.1191172771686272,0.0206668524067697,-0.0069684078318312,0.011115465283928,-0.0538873338875764,0.9984606750190516,0.0401249132132284,0.0090836683856324,10.4031117890797,-0.1471255785900032,-0.0312852638798996,0.9910854903119198,-1.215327516395108,0.2587161777586256,0.3499834106653381,1127.686930790904,1160.282477223905,1156.6337915521176,1160.8661037498612,207.659402296167,-145.65688709608352,-71.12184961006272,283.97782202359826,163.44858290955335
0.1824999999999999,1.3498479870289943,0.1841053135286357,0.5818182622741498,-0.0201173623040597,0.1196645458071029,0.021905710937791,-0.0069815260847555,0.011276383659635,-0.053856299187292,0.9984604185594776,0.0430616628858492,0.007074335308719,10.415865659645176,-0.1467533111852123,-0.0307994018174416,0.992625712126,-1.2156440613008197,0.2587139455406383,0.3524659176661825,1128.2094153755756,1160.1662348275415,1156.592707737502,1161.412754327816,226.6740373427181,55.67451569231702,42.626110866149205,152.71200384468088,163.4396712218773
0.1849999999999999,1.5260873703271367,0.4056343226009098,0.3599496324936117,-0.0175603628999225,0.1207477134601535,0.0228159891539716,-0.0069855501550325,0.0114488468411199,-0.0538167634730173,0.9984605168233524,0.0456102425510134,0.0049740668463394,10.429048115943054,-0.1463899408279301,-0.0303061788190371,0.9942090587636148,-1.2159607306876572,0.2587147847941661,0.354955868624217,1128.8203009776175,1160.5608498023666,1156.8469221064483,1161.6296637690843,279.2649474086827,292.8534434787704,175.65299655802832,4.450562163174251,163.43075636101625
0.1875,1.6740630292955605,0.5663300033634627,0.1254221438180875,-0.0139110953390458,0.12240940147321,0.0232943615206071,-0.0069759318170287,0.0116334191070678,-0.053766956652071,0.9984610904804592,0.0477546359753234,0.0029061033288023,10.442566250510964,-0.1460361698696353,-0.0297986866615246,0.995830580677919,-1.2162769217737237,0.2587183397434212,0.3574524371753531,1129.605740112619,1161.6305020449356,1157.470972720292,1161.4350071386318,388.8143188249611,620.1918382704656,344.04367548490853,-163.56586235874587,163.42184638909575
0.19,1.7828956599721133,0.68790390488194,-0.1662742127444168,-0.0081035206317621,0.1248306737331481,0.0231914714759024,-0.0069509208157299,0.0118309453718801,-0.0537083599532136,0.9984620629934716,0.0494750898106716,0.0009413983062947,10.45634268407788,-0.1456934098976294,-0.0292755021780411,0.9974849958721685,-1.2165919023679936,0.2587236776382795,0.3599553543696671,1130.7643725717423,1163.6618089937188,1158.567140483873,1160.8118344572908,450.22299811225776,848.5513018147223,436.64371224722305,-267.15360620883047,163.41117240655825
0.1925,1.7935685196234443,0.7361453440094493,-0.4156235214607166,-0.0025872300787512,0.1267566971049861,0.0226213888872668,-0.0069139602419163,0.0120415249914999,-0.0536451191292999,0.9984631870314372,0.0507728294696423,-0.0009523258497668,10.470316178093215,-0.1453617272818396,-0.0287450942949312,0.9991672859061445,-1.2169048154153048,0.2587295458211116,0.362464938661575,1131.8568551031804,1165.8732585540092,1159.6541912815283,1160.0992391075877,438.23616665481455,952.6342315436968,437.1782315583456,-286.07018642837807,163.40230144848496
0.195,1.7104688806761477,0.7429087595229239,-0.6682471975204811,0.0026766899096114,0.1281094926039209,0.0217110870597485,-0.0068707697194912,0.0122586438898785,-0.0535826784277774,0.9984642069325844,0.0517905927318953,-0.0028457366790268,10.484440272407895,-0.1450285474462277,-0.0282190722484222,1.0008749191687658,-1.21721408430068,0.2587346804626878,0.3649813588531103,1132.9555534050164,1168.4249801514375,1160.7530316416646,1159.3814835251487,450.64483458791034,1146.6465170629808,451.53194534709615,-275.50232909443343,163.3934654159453
0.1975,1.5143997306755297,0.7167151695869808,-0.9658702529329676,0.00812325663586,0.1297379319937354,0.0200997656725861,-0.0068251740556796,0.0124717331886917,-0.0535255754906931,0.9984649784330616,0.052756159288513,-0.004766109870188,10.498682444835715,-0.1446740795575644,-0.0277036929540686,1.0026076186760513,-1.2175184927807194,0.2587382198486515,0.3675030194410112,1134.11007927612,1171.606491139324,1161.9118510082635,1158.7217274621155,376.1271233556269,1147.8024593671753,383.0962655364143,-187.3648117348692,163.38291300566766
0.2,1.291882660539989,0.6702947296961707,-1.195109148126161,0.0117449673278709,0.1317139461299009,0.018051891734193,-0.0067794898422125,0.0126712717116131,-0.0534764746122056,0.9984654589466272,0.0538766479443231,-0.0067127513219485,10.513023395907824,-0.1442811395752942,-0.0272011763594848,1.0043660649929376,-1.2178181515412585,0.258740145205679,0.3700274700263897,1134.8361890217943,1174.1639924482731,1162.6685129693467,1158.4446594664746,230.7547304657872,966.5223844563105,257.19376476508813,-43.781786726822205,163.3741685946978
0.2025,1.0407285742732264,0.602217458593094,-1.378379204304034,0.0141197640438499,0.1340001321729438,0.0149346138239393,-0.0067360521243373,0.0128522856449736,-0.053436887591646,0.9984656133404612,0.0552662679202114,-0.0086936539670935,10.52745569003355,-0.1438415795457767,-0.0267136528993249,1.0061507601253512,-1.2181141053924065,0.2587411164512948,0.3725535883240684,1135.2638529284488,1176.4391030616057,1163.1978198320892,1158.5028185284812,124.46505648294976,846.1890427774952,182.1817359465056,75.71246572911143,163.3654827489418
0.205,0.7897179644803778,0.5255597568164289,-1.5001582866088168,0.0155276728121894,0.1358331227940914,0.0108814338511429,-0.0066970207993517,0.0130167259603391,-0.0534075159049865,0.9984653642273436,0.056894956389407,-0.0107247201621787,10.541981881888372,-0.1433608150427782,-0.0262434151845251,1.0079610496808316,-1.2184075342327865,0.258741784859742,0.3750814749041248,1135.4585143042093,1178.3949376621608,1163.5794216490792,1158.82322179512,35.292613185492854,699.6782678901576,130.5740432274887,176.80693605461767,163.35685044018612
0.2075,0.55865534498981,0.4591017019731545,-1.5243607610556111,0.0164357763513954,0.1366948030534743,0.0061864820635801,-0.0066643961019513,0.0131705443615528,-0.0533879436743076,0.9984646446480656,0.0586484702363989,-0.0128272903416476,10.556611727808207,-0.1428518795976419,-0.0257927809836191,1.0097955835348436,-1.2186989294333657,0.2587423932418748,0.3776116532344209,1135.4403159943763,1179.9374944010565,1163.8506900482266,1159.3868532087545,-34.17665413021511,591.8560560116048,106.42120794618727,277.5655282163838,163.34828803921826
0.2099999999999999,0.3155563552500519,0.4182776267899415,-1.4275202555080855,0.0177965057938962,0.1367353813958693,0.0006116086536091,-0.0066413463323567,0.0133197566854174,-0.0533771054230609,0.9984634142341074,0.06041146886675,-0.015051545674806,10.571359225110038,-0.1423273315250382,-0.0253666514882759,1.0116530396192425,-1.218988155557236,0.2587429563173712,0.3801454712989655,1135.2876310335582,1181.3542179422188,1164.11152768881,1160.211049436202,-61.762193145932834,459.52242046469325,88.28258173653053,306.08192686636494,163.33810015689417
0.2124999999999999,0.1454488317142339,0.4270629839233135,-1.2476811725621095,0.0191278602013484,0.1364206125030386,-0.0035794560316426,-0.0066312194438292,0.013468890448776,-0.0533752442320493,0.9984615814551882,0.0620978824290103,-0.0174528706188251,10.586239918836029,-0.1417961492588727,-0.0249710092540908,1.013532364459184,-1.2192751803103659,0.2587436848970972,0.3826848519296261,1135.1315050286466,1182.23510650338,1164.2921029569093,1160.9172628430863,-53.42376223525201,303.68301936287,64.28242553665763,264.6143427810782,163.32968717247854
0.2149999999999999,0.0209410564217074,0.4728846016580151,-0.9891516340469806,0.0194405418804514,0.1366677843976981,-0.0066872955915192,-0.0066351965790735,0.0136201257549186,-0.0533826996108322,0.9984590951755578,0.0636659398566104,-0.0200412085509368,10.601268305809805,-0.1412622697455292,-0.0246078590655866,1.015433087167797,-1.2195598919572799,0.2587448340845827,0.3852317593068144,1135.020512222382,1182.8726330390332,1164.4329398164934,1161.5341211501075,-24.96734508818006,230.36517271739265,52.85319983177028,232.75711538558403,163.32135999632592
0.2174999999999999,-0.0529971096873881,0.5394085223739274,-0.6309561896313515,0.0178531347533475,0.1382911425992645,-0.0088416473137502,-0.0066503850588273,0.0137754049378973,-0.0533962274488663,0.998456124947104,0.065071340989111,-0.0227437304691291,10.616455827621701,-0.1407291729313405,-0.0242706719790389,1.0173550360171244,-1.2198422228545396,0.2587469554004814,0.3877869159181759,1135.0066683032055,1183.386932366967,1164.556368956068,1162.0810484200142,25.06250212782104,143.88207051920278,41.708445089489,160.9922768971499,163.3114748074605
0.22,-0.0434909124726227,0.5768814190536141,-0.3259488249330112,0.0160509832872581,0.1403125653569868,-0.0096702180713641,-0.0066695246737188,0.0139374074843456,-0.0534095921414631,0.9984530184371117,0.0662452296701264,-0.0253982185650131,10.631808764530332,-0.1402018825509623,-0.0239440014399742,1.0192984974022723,-1.2201226053672511,0.2587509965859472,0.3903488462268317,1135.145824733021,1183.5920433916292,1164.641482041941,1162.3390825345932,103.08120573290572,28.165658761645293,42.199137792431394,58.907504536728034,163.30333364085155
0.2225,0.0244032257770326,0.5701382646510303,-0.0496461108048695,0.0151571472957051,0.1425418750946651,-0.0098636412360294,-0.0066835960014078,0.0141060270448243,-0.053417397908259,0.9984501273606228,0.0671706224445572,-0.0278014489889645,10.647325356947794,-0.139679437628104,-0.0236092409986103,1.0212654913416717,-1.2204014791286404,0.258757582007054,0.3929155405476846,1135.5220743318703,1183.5277606607751,1164.7673646450303,1162.3755859426979,205.0754382687499,-73.78288618633626,69.95284894524042,-21.899141743733686,163.29530215259155
0.225,0.1125419973338225,0.5172696517836503,0.1800600443782952,0.015207171012208,0.144871872543978,-0.0091806222378894,-0.0066880500996051,0.0142793377405383,-0.0534173869174249,0.9984476278879169,0.0678687211077378,-0.029841006453729,10.662993740256194,-0.1391561891507303,-0.0232578118595926,1.0232594233094623,-1.2206791937319244,0.2587667778019076,0.3954861048041182,1136.1712019243648,1183.2231289606975,1164.991246286667,1162.2295868258743,344.73509243603047,-175.54023671732452,127.46196086613952,-99.16982806439584,163.2873696559299
0.2275,0.1835906814520355,0.4118679384400515,0.3323161340785541,0.0164778252430166,0.146972740495846,-0.0072882489050435,-0.0066831884729122,0.0144569842825991,-0.053410659304349,0.99844545948853,0.0683275383085324,-0.0315075291003476,10.678790477271175,-0.1386288605631025,-0.0228921737347335,1.0252840541094812,-1.2209563781880264,0.2587784125061748,0.3980606039678777,1137.2457497940504,1182.6500594771885,1165.4046744493608,1161.8797368023759,588.8102301470093,-295.9740561278065,232.3959145551269,-190.07386424991617,163.27956741342635
0.23,0.2046849173962037,0.2484136855868823,0.4166274964531898,0.0185690549881894,0.1484132552138752,-0.0046112137353613,-0.0066696099411865,0.0146379942153049,-0.0534008513052437,0.9984434329530866,0.0685439785325273,-0.0327961828629557,10.694678572765117,-0.1380928971705872,-0.0225158539687379,1.0273441062680229,-1.221233492391108,0.2587922857563343,0.4006392187458868,1139.1152530750999,1181.7432586800585,1166.1532258594427,1161.2792175046247,783.2765362629737,-348.4566317604728,308.9007652299185,-234.52417076377947,163.2703707508948
0.2325,0.1520297037613488,0.1087218785336407,0.4168342532051201,0.0200610129099901,0.1483864846449851,-0.002848031655962,-0.0066480290785185,0.0148206980927248,-0.0533931336920841,0.998441287005896,0.068526610714065,-0.033703623637833,10.710606522660687,-0.1375426988496828,-0.0221325873924927,1.0294451101498374,-1.2215104718558396,0.2588084387213879,0.4032216616963401,1141.1621324753653,1180.907776318386,1166.9491782755103,1160.7071159485567,902.4199938495248,-321.7274633379472,331.67481279265274,-214.11344435496156,163.26285688989955
0.235,0.0262996067692929,-0.0026876151065595,0.376179998096988,0.0210438525315162,0.1471783699682948,-0.0019874905366385,-0.0066202756190342,0.0150051307653543,-0.0533909254243798,0.9984388227132612,0.0682473839160608,-0.0342545472209164,10.726508526247539,-0.1369769212156986,-0.0217476186675784,1.0315924987972611,-1.2217866134832929,0.2588270651062601,0.405806995730685,1143.6273530443475,1180.1346213633688,1167.811599923406,1160.20865028285,1138.70151674323,-291.16349647965734,360.39065095951594,-157.1654103006493,163.25551214835025
0.2375,-0.1895685914377815,-0.0857954042512364,0.3241443169291557,0.0214870489545724,0.1453488018429059,-0.001953607680877,-0.0065880643551506,0.015193163245577,-0.0533930200862749,0.9984360632281432,0.0676392521779634,-0.0344781287793952,10.742305100293592,-0.1363993132310621,-0.0213642896785289,1.0337913028358887,-1.2220604339552668,0.258847578566906,0.4083941324421299,1146.8556400590815,1179.4519588359879,1168.751131530308,1159.9212888970535,1189.6425042794417,-186.36811944106827,304.36160001504646,-18.01695676199424,163.2469085937446
0.2399999999999999,-0.399882864357389,-0.1194704435533478,0.3036953197151635,0.0210234906721537,0.1443430811671781,-0.0024832845184137,-0.006552473313328,0.0153886082898028,-0.0533963274646945,0.998433108871209,0.0665944345364068,-0.0343967497700374,10.757904552955255,-0.1358191040084879,-0.0209834682980128,1.036045670453764,-1.2223304980147536,0.2588682351275597,0.4109829630303095,1149.5755655657447,1179.2027807661634,1169.3334079234812,1160.11856549904,1048.4652396699908,-11.63160791393244,169.8852396120409,207.56831324765795,163.23992415054715
0.2424999999999999,-0.6070738310277061,-0.1425407612804499,0.3197069989687092,0.0194281019453223,0.1442381284752281,-0.0030176084532131,-0.0065148340138168,0.0155935841892795,-0.0533997028409646,0.9984299815761296,0.0650446539237035,-0.034040066874172,10.773204623336186,-0.1352432391944005,-0.0206058666464658,1.038359274888666,-1.2225958356504094,0.2588872326697062,0.4135746179949777,1152.0979662574312,1179.393800796418,1169.6005577283684,1160.959130463292,948.0533466911756,158.94279618860295,48.04796987659752,462.398271219126,163.2331432750724
0.2449999999999999,-0.7863463707125378,-0.180741395694119,0.3590853637916592,0.0170194461521527,0.1446806619708503,-0.0031393616747932,-0.0064775523244351,0.0158037570282407,-0.0534032166657539,0.9984267311221524,0.0630666844666372,-0.0334585483034327,10.788094781354571,-0.1346661210737698,-0.0202332119045213,1.0407360599059847,-1.2228555838834472,0.2589039436647966,0.4161702781586146,1154.3158322992003,1179.9974947471064,1169.5736477728642,1162.4305568551358,789.4094428998407,342.3469995346747,-74.23666992858662,746.6689056695934,163.22653921144942
0.2474999999999999,-0.9099640199455398,-0.2583527277687607,0.4014471449008567,0.0141127484909374,0.1450818359514886,-0.0024219742058747,-0.0064434223062527,0.0160112052169517,-0.0534073388287955,0.9984234396136796,0.0608221722986111,-0.032713206302796,10.802460658629805,-0.1340751057164817,-0.0198672719807919,1.043179074034561,-1.2231093816147003,0.2589188301416056,0.4187707820597409,1156.0450134719304,1181.1055357940916,1169.2293743787254,1164.69247499164,628.6596204815845,593.3387681927792,-194.12836958194913,1156.7954995814932,163.2201575172466
0.25,-0.9816962440808839,-0.4069365754654142,0.4132564530387605,0.0106570915969498,0.1447053682061756,-8.658844442984781e-05,-0.006415294337112,0.0162096638766136,-0.0534134069007546,0.9984201174871687,0.0584451849374835,-0.0318746120757753,10.816189289915293,-0.1334608932534827,-0.0195101975339355,1.045688810729211,-1.2233577505995683,0.25893253422753,0.4213772100776596,1157.4591304016085,1182.9641885880703,1168.6030059249545,1168.2145343530433,403.25416670229936,754.2538372638767,-230.2074847996662,1388.5729536018505,163.21276781176084
0.2525,-0.9790801851406388,-0.5742342073044403,0.3650840330805374,0.0079162142482365,0.1437185691065781,0.002729526723043,-0.0063967951954029,0.016396181878951,-0.0534225547917743,0.9984167294513996,0.0560073863401754,-0.031040827856753,10.82917380153291,-0.1328205109351903,-0.0191662454802882,1.048262656549156,-1.2236018614559907,0.258945467294529,0.4239909853771797,1158.061284305442,1184.8768049804107,1168.078336954727,1171.6353397596492,127.0292645460812,813.9227676619605,-161.76226474985907,1403.311783613843,163.2068411058348
0.255,-0.9218368012068732,-0.7780527235631155,0.250333905362052,0.0053317084058296,0.1423795899997088,0.0048107010391575,-0.0063913081235916,0.0165694029024399,-0.0534352860711402,0.9984132513471004,0.0535534981241899,-0.03031308432351,10.84131740812952,-0.1321535815034193,-0.0188395929149759,1.0508954668269903,-1.223843150977039,0.2589579291960696,0.4266141051147577,1158.094276724339,1187.03380242638,1167.7941946012052,1175.2310932711125,-93.95950061739303,963.7818687326208,-18.215853821675392,1535.556827370418,163.20116333376555
0.2575,-0.8092106987264952,-1.049792967861692,0.0622789638900615,0.0027218686122728,0.140301117164199,0.0054051096233067,-0.0064001186779015,0.0167276967478497,-0.0534515131181715,0.998409709434841,0.0511388609471139,-0.0297523613086641,10.852537018243838,-0.1314585183296747,-0.0185304209888023,1.0535804190152158,-1.2240827732018125,0.2589701123765796,0.429248713369307,1157.5914868023551,1189.695714324074,1167.9872576856187,1179.313123896501,-247.59211627592757,952.1935613794985,184.4010852567406,1402.4624205480438,163.19464735340574
0.26,-0.6957022822428555,-1.2825508308716504,-0.1066905757579598,0.0012183050332761,0.137871791188376,0.0046431106025667,-0.0064211584338523,0.0168716971696044,-0.053470224008881,0.998406163198602,0.0487721126998889,-0.0293536425022125,10.862766869654555,-0.1307381076272216,-0.0182325945196889,1.0563089444412623,-1.224321185272243,0.2589820676079493,0.431895718542709,1156.8563161429593,1191.7947702332776,1168.7162000274889,1182.2434053738527,-318.2871854548918,771.5878706823779,416.3404773756607,1034.7775156452362,163.18947174415143
0.2625,-0.5801157623098329,-1.495832846048584,-0.2583057441275612,0.0003864042058617,0.1343122800029203,0.0033458640880908,-0.0064487100378692,0.0170056349322723,-0.0534895711552907,0.9984026805284982,0.0463846083459823,-0.0290390787771655,10.871961081501736,-0.1300026382261393,-0.0179332993764577,1.0590711604125302,-1.2245580787028976,0.2589941128631733,0.4345540421457904,1156.0000508750807,1193.553653677486,1170.068960072497,1184.4870114747275,-328.8486132446448,620.3781781812717,631.5347616819503,780.241353984092,163.1845675959118
0.265,-0.4704142008350621,-1.6723890374209027,-0.3829406247604478,-5.5231274930006136e-05,0.1297315604424894,0.0020512938618149,-0.0064747916962517,0.017136437695115,-0.0535063161691174,0.9983993727487722,0.0438502987909832,-0.028685264334988,10.880094932548248,-0.1292681805970943,-0.0176158114842459,1.0618568316784256,-1.2247926127794326,0.2590071561334537,0.4372214168668461,1155.212073076736,1194.896661124184,1171.8738738358986,1186.1446121437732,-261.28146222340524,417.62527288242336,796.7597030972676,547.0265413169268,163.17989380281466
0.2675,-0.3653841648227629,-1.787639584745065,-0.470374928071085,-0.0002838552531807,0.1244851751093904,0.0009144659927982,-0.0064936295765774,0.0172717194689538,-0.0535168549893362,0.9983963429777384,0.041033271364962,-0.0282157204077657,10.887165088889036,-0.1285520074159659,-0.0172690199021063,1.064656307326524,-1.2250238450701585,0.2590221902681898,0.4398958644836942,1154.6936435639636,1195.641780041898,1174.0527585879831,1187.222144181312,-130.17252882564196,187.1161108417253,987.185867332436,396.08939669078575,163.175503780702
0.27,-0.2259870052785925,-1.852065149293568,-0.5320666277922074,-0.0006372090174277,0.1186458917599953,-0.0003878117797417,-0.0065054153320909,0.0174142636671922,-0.0535197408863745,0.9983936199405088,0.0379107487092598,-0.0276734685196597,10.893188601578144,-0.127860393784766,-0.0168953431945869,1.0674620642588863,-1.2252510982485108,0.2590398588798469,0.4425766373403097,1154.5612104326078,1195.8322416783926,1176.8098031725608,1188.1250591272271,46.19665545551466,-31.26352034014414,990.1792782918156,311.6814290560339,163.17057112712928
0.2725,-0.0765413187200403,-1.853326606757476,-0.5471409258793363,-0.001198568452851,0.1143992659970893,-0.0016077481873738,-0.006513696559573,0.0175619188482831,-0.0535163871553394,0.9983911406446286,0.0345715240739203,-0.0271627005849181,10.898202013359665,-0.1271884585206861,-0.0165051840487898,1.0702687588599222,-1.2254742644272552,0.2590605752615948,0.4452640445986536,1154.9246268412412,1195.4854624401971,1179.0036549794424,1188.7805513265923,243.57298600220903,-204.7420706629508,809.6046737280624,287.07140308006245,163.1667450054036
0.275,0.1357921137080846,-1.8137708179490009,-0.5224428323262517,-0.0021860978803069,0.1101436634583292,-0.0031427222508046,-0.0065216224696328,0.0177126213853918,-0.0535104392001842,0.99838872382394,0.0311015169406654,-0.0267722640955991,10.902260467251748,-0.126531102404082,-0.0161090417433712,1.0730719388778776,-1.2256938250800555,0.2590845114335614,0.4479582502258416,1155.7790753626189,1194.8085313250779,1180.8578265412011,1189.5604161426274,474.00316451039504,-311.5101325489829,701.0478887987568,397.55124083048906,163.1632193463772
0.2775,0.4824344094705043,-1.7317790412065328,-0.4464547956316848,-0.0037978987473528,0.104780905741237,-0.0052594359495768,-0.0065306394724085,0.0178652620478992,-0.053505001481394,0.998386212944117,0.0275628350267739,-0.0265488726130483,10.905435728056748,-0.1258849658897898,-0.0157138204575255,1.0758678123926375,-1.2259106081608215,0.2591112978230689,0.4506592476007237,1157.2946426637932,1193.9279117774524,1182.5088944234362,1190.7683075307448,620.6447501521774,-283.78583334506374,498.57594986556205,483.6958476867034,163.15934107917428
0.28,0.8393107056792944,-1.6446930466216878,-0.3503242625729929,-0.0049388790472257,0.1004567861874329,-0.0068224319826372,-0.0065391487005752,0.0180190606676713,-0.0535005472761456,0.9983836079808138,0.0240052983542689,-0.0264677749591063,10.90781367789386,-0.1252472723909862,-0.0153190458218275,1.0786534087864397,-1.2261253744163916,0.259140177208173,0.4533673385574544,1158.8822991133795,1193.3896021583523,1183.3507062905287,1191.9788953810607,680.1184981557975,-118.94672589451136,230.34978685236615,493.70873291377353,163.1564061358469
0.2825,1.2165758000163007,-1.5543485889184985,-0.2371004097156433,-0.0038556734464817,0.096599753073887,-0.007409427877997,-0.0065431018594638,0.0181732908308788,-0.0534959606181604,0.9983810109704816,0.0204722496255743,-0.026444943214959,10.909491670122694,-0.1246152356545353,-0.0149180421831517,1.0814266212919548,-1.2263386106268015,0.2591706948844198,0.4560823410473749,1160.695235154572,1193.3331781479799,1183.660643357698,1193.2368511953136,744.8191855888118,88.3240822446168,49.043693648718495,471.3244506427596,163.1537825852857
0.285,1.5462777624103143,-1.4755784431134653,-0.1259599566850864,0.0004990634213519,0.0932544882673348,-0.0071908157286263,-0.0065376086617174,0.0183254370036511,-0.0534895179339832,0.9983785967012908,0.0170419536033956,-0.026369936515259,10.910575657337816,-0.1239820357266117,-0.0145012171296385,1.0841866170698502,-1.226550689886016,0.2592026304058241,0.4588031682834537,1162.6063950413238,1193.8312225695756,1183.5959247587723,1194.3355176342748,764.1118124158759,349.1331418722436,-95.09169046646083,347.89247138792206,163.1514191762508
0.2875,1.73850021465106,-1.4261045578115177,-0.0312289202914511,0.0077763037612778,0.0904404810430584,-0.0067401768032159,-0.0065182753991192,0.0184690000656192,-0.0534793642309564,0.9983766179558884,0.0138767239875824,-0.0261330613374137,10.91117732497786,-0.1233320681388832,-0.0140587250544496,1.0869342412389091,-1.2267618594211243,0.2592352227149949,0.4615288527674251,1164.5157942166516,1195.078843857341,1183.1851849053655,1194.9763135522533,803.4559954245733,709.3821261701196,-235.43026114871523,121.1886433563462,163.1493711848371
0.2899999999999999,1.75288357962607,-1.4108030255318216,0.0583533932553057,0.0165204580662002,0.0871586789928005,-0.0062905148692669,-0.0064838008981172,0.0185937460535486,-0.0534649464926229,0.9983753057586952,0.0112203616913231,-0.0256825034421442,10.91141151388456,-0.1226413127921608,-0.013586475335547,1.089671652862381,-1.2269719821427985,0.2592671324750129,0.4642594033786465,1166.6236750184466,1197.378133200426,1182.4187734530287,1194.9414608510565,712.9826905337341,942.6882005214889,-313.02382465596884,-166.05872523600908,163.1472797069574
0.2924999999999999,1.5882536537833563,-1.4329679291825608,0.1160035053044928,0.0223836023561413,0.0840936630636199,-0.0058677255295231,-0.0064371157572296,0.0186919927067938,-0.0534482039350978,0.99837468186158,0.0092625773251318,-0.0250569404957586,10.911394061465144,-0.1218910494477598,-0.0130898225609316,1.0924004517405979,-1.227180388678343,0.2592974487703704,0.4669957945428476,1168.08070766932,1199.7922848599485,1181.620065782086,1194.1460199260732,487.0447019135549,1005.0232877532826,-343.07012088433993,-469.4462702471806,163.14584242564743
0.2949999999999999,1.2862465059693506,-1.480921848336712,0.164312838343137,0.0262940910694355,0.0805406891136219,-0.005524098552608,-0.0063844492439971,0.0187628112668022,-0.0534320778342652,0.9983745675515292,0.0080471310490679,-0.0243717111186828,10.911239394263246,-0.1210774187878966,-0.0125821108668828,1.0951204794288671,-1.2273862737405603,0.2593261850275294,0.4697394929136572,1169.0588985280144,1202.4032496391926,1180.7034228486073,1192.5942294998204,291.425410956617,1104.3103478988075,-425.4052437371225,-811.9076188557294,163.1447223595623
0.2974999999999999,0.843234156011263,-1.5534068117867763,0.2233767500838624,0.0287297641648396,0.0758747409198164,-0.0053800566336212,-0.0063322278616793,0.0188109187138968,-0.0534191158032482,0.9983746994502196,0.0074933082850812,-0.0237513290378376,10.911057819228876,-0.1202096154045823,-0.0120778981469217,1.0978301454361103,-1.2275887978273128,0.2593542791904018,0.4724910245294867,1169.5378347241033,1205.3138365994423,1179.4930395634003,1190.0864818317943,51.91143341985476,965.5124071447053,-459.70859789313135,-975.2348519033139,163.14374421370658
0.2999999999999999,0.4635846420795093,-1.617766250866536,0.279739227608948,0.0292021713731477,0.0718038545516147,-0.0054295076128218,-0.0062843860247214,0.018844206560831,-0.0534107261913501,0.9983748324881218,0.0074474849742304,-0.0232689850437934,10.910952863012856,-0.1193048787253144,-0.0115868876429441,1.100527204705528,-1.2277872369354064,0.2593832906562921,0.475249969818102,1169.3184556951137,1207.230811674916,1178.4048798591416,1187.718055240304,-206.52816873734972,599.590560048909,-445.909404382473,-930.9116833948784,163.14323293573975
0.3024999999999999,0.1263039979666083,-1.6808066611260508,0.3426242373215563,0.0286452430551766,0.0678936189226302,-0.0050832921277647,-0.0062421167932606,0.0188680486988235,-0.0534054132265274,0.9983749418216415,0.0078077655000928,-0.0229358972676107,10.911018485998252,-0.1183759280706132,-0.0111123988510984,1.1032102865919247,-1.2279812056407569,0.2594143929555929,0.4780167615794869,1168.5051938804163,1208.311789399687,1177.263492541488,1185.43192341482,-402.50660754813873,267.0994854156104,-455.81662993513373,-843.5658321041038,163.1430351146062
0.3049999999999999,-0.1510607901669527,-1.7405204652669009,0.4034054812109826,0.0276402282978101,0.0642764803605776,-0.0041248045266252,-0.0062059730952719,0.0188844324750994,-0.053399646514115,0.9983751784415223,0.0085455002453827,-0.0227463013239398,10.91133660910856,-0.1174285057095597,-0.0106559190048511,1.1058792313394892,-1.2281704566866736,0.25944782326561,0.4807925688084407,1167.305922657373,1208.566309101994,1176.125796709466,1183.5002260797835,-533.8312316673632,-101.63385642767926,-434.18723431927856,-627.3095362676024,163.14309534044287
0.3074999999999999,-0.3433346547207158,-1.7896146918762603,0.4500043209489142,0.026326099858936,0.0607691282779371,-0.0027620679442017,-0.0061774642306767,0.0188938976781847,-0.0533930613030402,0.9983755438351338,0.0096639396437039,-0.0227127415373277,10.911974756095407,-0.1164651200934293,-0.0102216367086928,1.1085348807112752,-1.2283549921890105,0.2594834468117446,0.483577885873539,1165.8360377220797,1207.8036201175487,1175.0925563698916,1182.295375733482,-651.0595313161951,-543.925344158833,-395.23729739335033,-312.38767718782555,163.143463899934
0.3099999999999999,-0.4755133314524351,-1.8157894420657967,0.4788375362732698,0.0243533748827731,0.055861075650352,-0.0011437135001505,-0.0061583311885733,0.0188960082570864,-0.0533877366903879,0.9983759236388882,0.011186932165962,-0.0228519188662988,10.912983557392998,-0.1154859077323494,-0.0098144841232107,1.1111793793704745,-1.228535201538913,0.2595211132672554,0.4863724776552651,1164.050625000792,1205.8466823812,1174.1496102224992,1181.9382876938444,-616.8417368634886,-854.76293548354,-267.55547220350286,58.147112362394125,163.14425826405278
0.3125,-0.5129856710928332,-1.788628681416581,0.4764967990163667,0.0224253908325505,0.0509547305383628,9.319757472920067e-05,-0.0061466181425114,0.018894095964589,-0.0533849314176539,0.9983761969553184,0.0130509095998064,-0.0231070138178659,10.914394639488807,-0.1144994262326559,-0.0094310723316513,1.1138155395100109,-1.2287115403303752,0.2595604863571829,0.4891749685838241,1162.7518290377623,1203.5298054401308,1173.754779008874,1182.586111295294,-439.9065327043896,-1014.4840390958042,-47.7488985323816,426.2399539309623,163.14520994996064
0.315,-0.4980064011500886,-1.6877885076280603,0.4450195889312317,0.0205285988201929,0.045743300771394,0.0012692815023412,-0.00613681574234,0.018894416129064,-0.0533852674274071,0.9983762436433284,0.0151224403537028,-0.0233506091001829,10.916218583862143,-0.1135206834965811,-0.0090596692734367,1.1164473560569423,-1.2288845444689,0.2596010693743657,0.4919823391911322,1161.85109233727,1200.7742621857208,1173.9108657298373,1184.0694874634992,-275.8684049187648,-1244.6865207781218,208.79833261715228,771.0136859685001,163.14645734337768
0.3175,-0.4611845328281793,-1.4724834499113624,0.37336313468648,0.0187548681831339,0.0400680520962241,0.0026596074184873,-0.0061235706329899,0.0189008079422446,-0.0533887789067267,0.998376020860809,0.017317752966989,-0.0234601298397049,10.918443123567203,-0.1125587237514832,-0.0086876725693445,1.1190811782230747,-1.229054896871265,0.2596420950745116,0.4947913206828614,1161.3724870131684,1197.3063728362404,1174.7987706719598,1186.4411797251366,-69.32354771738568,-1249.0606099639979,429.7451070866369,898.5002858405996,163.14828950243762
0.32,-0.4524933219601701,-1.2220555565353388,0.2870372042568936,0.0180032567677488,0.0361932554899722,0.0036881153921592,-0.0061039538749019,0.0189134272388276,-0.0533933503578873,0.9983756559774416,0.019632051896235,-0.0233673875089369,10.92103232314689,-0.1116133995554854,-0.008306244554149,1.1217254747196184,-1.22922287997728,0.2596825391049975,0.4976000629049451,1161.5044745986831,1194.528959135901,1176.0595912652705,1188.561988892702,151.5210232441403,-1035.7531924125842,569.3475194026173,796.96816327887,163.15009039439647
0.3225,-0.5113547411040733,-0.9201119588840084,0.178399792961026,0.018208711688837,0.0332765874092697,0.004368635105844,-0.0060796066561038,0.0189315266403024,-0.0533951921446566,0.9983753549448549,0.0220800934148176,-0.0231090952070763,10.923927126905763,-0.110681240189499,-0.0079157406221012,1.124389318513764,-1.2293886072704518,0.2597214856636357,0.5004088087656655,1162.1300921293891,1192.1276068741774,1177.645508268973,1190.4260205415308,311.49190625087584,-868.1200686558886,640.2081226512104,657.1749746543895,163.15216883488313
0.325,-0.6495833352944664,-0.5986122893168039,0.0575406174500774,0.0188276670785952,0.0313320841285518,0.0047188769569327,-0.0060547647176514,0.0189573400327124,-0.0533915734747592,0.9983751950059264,0.0246075132765578,-0.0227874252704317,10.92704721838558,-0.109764412030843,-0.0075225859259791,1.1270805435292683,-1.229552647040011,0.259758679885479,0.5032188964320178,1163.0619341299375,1190.1883587926216,1179.2606318785265,1191.847863765974,412.283856824342,-641.4188429023848,589.2803106395144,437.0027627200212,163.15447178054436
0.3275,-0.8861169150083892,-0.2851104341098478,-0.0690029947037674,0.0190373978925118,0.0305693263710317,0.0047045184924403,-0.0060328767473391,0.0189970569256695,-0.0533807493846745,0.9983751311566778,0.0270646220633565,-0.0224973982475882,10.9302938748811,-0.1088734702126027,-0.0071321366214525,1.1298046732635132,-1.2297157586359206,0.2597945853135162,0.5060323594913465,1164.1915114135109,1188.9205126596655,1180.5919098221705,1192.611034355131,496.18723520388767,-390.9808277230692,450.1275771647211,192.64294748754747,163.1570380376635
0.33,-1.2469135802969185,0.0432234539242226,-0.2151373172309806,0.0177271831789431,0.0308009810640772,0.0043642547727452,-0.0060163418334139,0.0190568101775763,-0.0533613776368279,0.998375105190971,0.0292931086334451,-0.0223162290806768,10.93355342454612,-0.1080185971834028,-0.0067478177069507,1.1325651594218975,-1.2298785307484688,0.2598300236832801,0.508851811346263,1165.5428703059567,1188.2334546540062,1181.51126976435,1192.8110785034119,465.6122274507648,-115.39136703559042,191.93015174087105,-16.489992695778696,163.16041165216728
0.3325,-1.559840682100526,0.2539898027375875,-0.322689641018339,0.0146652515202221,0.0317138444561121,0.0039122834689457,-0.0060049697161731,0.019138765140643,-0.0533341501625749,0.9983750412047065,0.0312092511300529,-0.0222633209250912,10.936701389763368,-0.107201219348758,-0.0063676697531284,1.1353638796378283,-1.2300409464478448,0.2598658654232693,0.5116791915479408,1166.5195725507647,1188.3435558244876,1181.5515605808748,1192.5285843916522,335.61921691643846,172.8416288236984,-144.60794181200055,-160.86142476942754,163.1634601676531
0.335,-1.8093533382684193,0.3810164691076671,-0.402237882232555,0.0091855433299627,0.0329857463707581,0.0031164642876663,-0.00599478159837,0.0192399086902949,-0.0533007001560223,0.9983749335110996,0.0328296829337649,-0.0222718329026021,10.93960738632808,-0.1064116542173132,-0.0059813473602703,1.1382013336144259,-1.2302024465771144,0.2599024567770824,0.5145151579681898,1167.2209663905392,1189.0976627981247,1180.78823005529,1192.0067713795647,231.55091612948104,453.8257810493629,-498.40954856663257,-238.94480133731105,163.1667453662743
0.3375,-1.959670467051014,0.4263710657879501,-0.4473397593237308,0.0009412397615775,0.0344083936131102,0.0013708362772636,-0.005982359007691,0.0193520144591884,-0.0532638441196794,0.9983748077521554,0.0342782134597409,-0.0222818938103504,10.942140479882958,-0.1056287005278022,-0.0055800269865574,1.141076767510815,-1.2303621063144012,0.2599398733206818,0.517359888216854,1167.677327131412,1190.6126847297344,1179.0595128380417,1191.3338603849656,100.70398870939233,627.8011869314918,-732.1234337480284,-231.45566408015816,163.17095042593016
0.34,-1.9324075499540123,0.372265115737628,-0.4323601873204743,-0.0057905807767588,0.0355864975609853,-0.0005451797705982,-0.0059671842638439,0.0194681399863912,-0.0532279671598485,0.9983745631915684,0.0356479027791778,-0.0222974967731518,10.944175204450744,-0.1048342970834344,-0.0051626281721528,1.1439870142976787,-1.2305191848744472,0.2599783908751214,0.520213627946912,1167.724486334086,1192.236668732782,1177.12761288655,1190.849493059164,-48.584187729875296,676.4718004609216,-810.8162951153182,-160.42488628481792,163.17466591854043
0.3425,-1.7506349528364182,0.2229606282903471,-0.3610909309447388,-0.0112954323400047,0.0370799093467325,-0.0022572193834897,-0.0059525224989151,0.019584056283995,-0.0531987537738736,0.9983739561918512,0.0369725288626021,-0.0224059386885274,10.945596622662764,-0.1040168618397705,-0.0047380172074452,1.1469264956502627,-1.2306733129360863,0.2600180619914843,0.5230771785933463,1167.4344061927627,1193.9950437320388,1175.005431362465,1190.5317359535416,-169.84259772157188,681.2233378569084,-822.4811888162996,-89.21008167262691,163.17859162825212
0.345,-1.4643933133865448,0.0007312412743859,-0.2521771596989305,-0.0153052573597232,0.0386136031611947,-0.0033774029136518,-0.0059425911166752,0.0196953667200872,-0.0531811701380192,0.9983727811475412,0.038288595767689,-0.0227120884254509,10.946304119076656,-0.1031651455898112,-0.0043178747429445,1.149888198737214,-1.23082407511772,0.2600588705256403,0.525951535498346,1166.8752733454783,1195.6427854220667,1173.0152069424685,1190.4034426508008,-286.58111530698966,573.6702687959673,-690.7117873431156,7.291657731639126,163.18268498493515
0.3475,-1.0901080973026984,-0.2867636261235093,-0.1173700851936599,-0.0174966119089904,0.0394398516599611,-0.0035905115035719,-0.0059392748156263,0.0197979493029556,-0.0531776249007391,0.9983709794292916,0.0396243577674245,-0.023266672553621,10.94621469376834,-0.102269638494465,-0.003908859058138,1.152864043606418,-1.230971073737707,0.2601010065569272,0.5288370495784214,1166.0015006162275,1196.8633950760188,1171.5518724257495,1190.5681942421995,-453.90775792307033,366.75135467971774,-437.56377818931435,153.7525982887017,163.18697252993977
0.35,-0.5797162789439331,-0.6542831877163711,0.0484417452312517,-0.0187114612713925,0.0384421069356506,-0.0029946571684447,-0.0059424346126908,0.0198894032131404,-0.0531874628393644,0.9983686354794739,0.040970881063213,-0.024073868777498,10.945265447543514,-0.1013258345742354,-0.0035132983940531,1.1558451372264535,-1.231114112865729,0.2601450100867832,0.5317334626461975,1164.605734555863,1197.4765421954653,1170.827388051522,1191.1722056422443,-563.6434924622848,43.2849978031304,-50.687661686789006,290.0248734150439,163.19233189364695
0.3524999999999999,-0.1196999188174397,-0.9301119586050388,0.1769278550649595,-0.0191943976539377,0.0355088346685185,-0.0024594796228972,-0.0059500762162104,0.019969762507179,-0.0532068368823205,0.9983659674360024,0.0422688614319098,-0.0250951915253739,10.943414903316649,-0.1003358444502911,-0.0031294898422299,1.158822204149502,-1.2312531675974077,0.2601916546499657,0.5346403277720019,1163.1832831539164,1197.0798200650345,1171.2984341173155,1192.0183186092747,-606.3564749406003,-366.2040785581249,427.8210448431808,392.30025133452216,163.1969693161409
0.3549999999999999,0.3689194897182315,-1.1222377317436767,0.287229971537373,-0.0194334282746647,0.0312071260854323,-0.0022027769391488,-0.0059586575248182,0.020039334433649,-0.0532311198094319,0.9983632387166544,0.0434579041485609,-0.0262521125887687,10.940642858985772,-0.0993033630302589,-0.0027522692212883,1.161786542872916,-1.231387690136036,0.2602418002191529,0.537556425275702,1161.57395218116,1195.6455218026747,1172.9664932757375,1193.133706898917,-715.4588891572978,-846.2291059990541,975.916500832317,508.83733891187103,163.2017761731684
0.3574999999999999,0.9778849927368592,-1.2261206984913706,0.3888821145684133,-0.0188980843861744,0.0261069216854844,-0.0015915987120713,-0.0059676475354405,0.0200976905155385,-0.053256626430923,0.9983606585264948,0.0445054175979106,-0.0275237226407242,10.9369493709101,-0.0982306839273145,-0.0023833757623237,1.1647306335460528,-1.2315167251671415,0.260295734066991,0.5404803238778076,1159.6059887081299,1192.8486745350392,1176.1780166214771,1194.5625053038343,-689.4932111486463,-1155.159483512715,1319.6473409790983,496.075267202104,163.20773116810795
0.3599999999999999,1.48407648519162,-1.208357126730076,0.4365007916665666,-0.0171243939309479,0.0225540893125622,-0.0003365284821137,-0.0059774051382429,0.0201450776352015,-0.0532813536126746,0.9983583278381808,0.0453747043450685,-0.0289022363483438,10.932353067582183,-0.0971220480340442,-0.0020264098080923,1.167648063853092,-1.2316401005602087,0.2603528895346161,0.5434114009195826,1158.1264861254167,1189.869724385111,1179.5647299806333,1195.6140832349274,-502.2741504237724,-1238.808024219769,1402.3125257624984,339.1130041792164,163.21284302449536
0.3624999999999999,1.9455664160783857,-1.101127295480248,0.4315571798130383,-0.013354992338948,0.0198315850692527,0.0016791288317442,-0.0059860692041497,0.020182429455514,-0.0533048060391842,0.9983562674243736,0.0460222767222263,-0.0303263348555615,10.92688858490234,-0.0959838140060777,-0.0016790986074559,1.170533590000665,-1.231758548353976,0.2604117071078209,0.5463496125242299,1157.094617956011,1186.6546344139404,1183.1895792502896,1196.2580703247304,-295.030254159428,-1250.4824236781576,1405.785608019413,157.93275323017028,163.21810284226555
0.3649999999999999,2.3274527428481644,-0.9380313959050012,0.3798766970222288,-0.007753569027764,0.0175929544127396,0.0037882675747788,-0.0059884579789227,0.020211010977359,-0.0533267729601395,0.9983544956133942,0.046405244833632,-0.0316590685572019,10.920603460938656,-0.0948235268420609,-0.0013301349071193,1.173383217190921,-1.2318729135247293,0.2604701406875548,0.549294763461705,1156.6513348546196,1183.6173122667203,1186.5936580207303,1196.4037470010783,6.46300069961398,-1088.0920518761732,1214.4953805447572,-83.1424651204997,163.22348037333757
0.3674999999999999,2.5631268238381058,-0.727848425022326,0.2838272142624706,-0.0001380759865588,0.0157022474418871,0.0050760600128763,-0.0059806280533393,0.0202327755971512,-0.0533449502016158,0.9983531204037656,0.046479439745256,-0.0327909192436848,10.91355477006908,-0.0936500022829377,-0.0009695033270604,1.1761941611372724,-1.2319840824135475,0.2605267654181065,0.5522463566994757,1157.126932959509,1181.2141741545595,1189.2620561530134,1195.842357999128,445.11203021361285,-830.5882650559845,912.9100444511088,-410.8976352830265,163.228994139362
0.3699999999999999,2.635839710526633,-0.4442820186145554,0.1479367288642602,0.010333190693015,0.0140315937453936,0.0050918712239693,-0.0059615122298745,0.0202482326640081,-0.0533556330182765,0.9983523363950016,0.0462474558056339,-0.0336742179952626,10.905805190186195,-0.0924680475971677,-0.0005924782242917,1.1789652152542272,-1.2320921122080852,0.260581235653456,0.5552038501651788,1158.8768950056876,1179.4643709414404,1191.158208242986,1194.3492588246631,825.2683344927384,-423.1987158097122,442.83127283128994,-665.4878652035671,163.2357611648151
0.3724999999999999,2.521435215130352,-0.1979960221603019,0.039658746463484,0.0189280954428362,0.0134155753759055,0.0042280796470633,-0.0059310578283158,0.0202585643671699,-0.0533545688302766,0.9983523479470342,0.0457094995737889,-0.0342859050906012,10.897419716114731,-0.0912836285562037,-0.0001960799053382,1.1816962197321115,-1.2321962167327862,0.2606338902659939,0.5581667159751287,1161.2532746319728,1179.0981805755107,1191.4762125171699,1192.51491867311,1087.9587475330927,77.755135678808,-132.75610878949908,-815.2281790788486,163.2415209938838
0.375,2.2667698812284263,0.0410856262902758,-0.0508040088857989,0.0258145382559137,0.0135490765211738,0.0032486624829739,-0.0058900390118722,0.0202655959173015,-0.0533405448824737,0.9983531794371424,0.0448622960925176,-0.0346224478759047,10.88846228140666,-0.0901038210019294,0.0002204843838066,1.1843878912672088,-1.2322958080506643,0.2606855759789193,0.5611346414265088,1164.316688743353,1179.8531466198344,1190.4944276990384,1190.273117929269,1406.816147189828,548.4129492511779,-677.9559899383452,-1016.554611459559,163.24740091641848
0.3775,1.8846816171944176,0.3044343329118762,-0.1458669891566208,0.0310683178212602,0.0144953106394426,0.0025945783077201,-0.0058407031509738,0.0202720335622686,-0.0533160208409027,0.9983546328936868,0.0436932879811208,-0.0347145645265848,10.87899274804282,-0.0889371733249281,0.0006539078795635,1.1870415748393803,-1.2323911377233199,0.2607369648314253,0.5641075699130834,1168.287355367922,1181.8402453217668,1188.086432567478,1187.4321456158123,1419.5062028453308,860.1776444912039,-1022.1033503201842,-1015.9035759923416,163.25459057342144
0.38,1.56899458075879,0.4978935475331131,-0.2280534987108985,0.033124989541241,0.0158064346760833,0.0026029074969508,-0.0057849142173115,0.0202780458523233,-0.0532874038285551,0.9983563532391672,0.0422511251273461,-0.0345831611088879,10.869063874379583,-0.0877856843949756,0.0011014317593671,1.189659605404894,-1.232483128766459,0.2607881093013907,0.5670858654841101,1171.4142197575795,1184.1540348422905,1185.3839109474375,1185.1936000493072,1115.3804246937843,995.2321023873072,-1133.7413586814807,-812.5454732115933,163.26069025766245
0.3825,1.3122485307528549,0.6630022818620817,-0.3290308282888964,0.034163008305952,0.0172011244755024,0.0029676286871837,-0.0057256941227807,0.0202784467690614,-0.0532619032505591,0.9983580444532814,0.0407069156840204,-0.0342714843766039,10.858718925412772,-0.0866376965834652,0.0015578584217915,1.192245587320893,-1.232572650740137,0.2608387598955202,0.570069855030025,1173.8642574913908,1186.8164058337031,1182.4177257740707,1183.3694182497543,810.9958857715347,1071.5177257330188,-1166.4079545357697,-629.4792390623564,163.26689920948763
0.385,1.1179591374885407,0.8060839748370547,-0.4483349055213328,0.0357711503095382,0.0185299878094272,0.0032107169445955,-0.0056655528390292,0.0202683201394916,-0.0532450690265285,0.998359496278605,0.0392282195732508,-0.0338165751813631,10.847991016932344,-0.0854813760783829,0.0020189759155372,1.1948032121198011,-1.2326601590248245,0.2608889030812762,0.5730595266018224,1175.4691991864374,1189.5116234709556,1179.5518711747586,1182.0462038539952,401.6954220239765,1024.274714941429,-1066.8409376860827,-390.4850116730355,163.27319684562542
0.3875,0.9875786388411888,0.9210427490985116,-0.576339325398501,0.0388283135881425,0.0199542618838731,0.002619516047437,-0.0056052740839034,0.0202498910832455,-0.0532367940316547,0.9983606624357668,0.037827492352319,-0.0332326881013697,10.83690308735222,-0.0843213405339636,0.0024839033695369,1.1973349741757453,-1.2327456137362443,0.2609387557121509,0.5760544565556283,1175.8727346015107,1191.9377794084105,1177.0835210856403,1181.416993191389,-99.08154999457102,924.8459252469265,-959.2371056056882,-122.7362344197444,163.2795996067584
0.39,0.8851435811164124,1.013524149093328,-0.7054809258373175,0.0430735493695597,0.0222145383738245,0.0006071787038054,-0.0055442277717935,0.0202287635418657,-0.053234582658664,0.9983615635146412,0.0364422099080917,-0.032511232464208,10.825467046243707,-0.0831699781051048,0.0029542490902918,1.199842736266616,-1.2328285159229777,0.2609891555645952,0.5790542644276612,1174.9737914364644,1194.13585309719,1174.75568564673,1181.4325226818967,-526.5890229812153,630.1461334676327,-746.6055633712577,109.87952321966065,163.28740273646332
0.3925,0.8438680174412972,1.0353463599403772,-0.7639306325440505,0.0455589484071996,0.0248633321779288,-0.0019659626928355,-0.0054832177770094,0.0202111210283066,-0.0532359942371829,0.9983621985429284,0.0349969229464856,-0.0316770178461093,10.813683692472871,-0.0820406015163599,0.0034272732172456,1.20232807960196,-1.232908395032443,0.2610411495438495,0.5820584235483846,1173.2397894866046,1195.0885100757487,1173.350493268784,1181.9663908074874,-829.9312542769705,143.74262523160712,-470.4888501194087,276.7847018314112,163.29400424109164
0.395,0.8621029407940374,0.9770632595545184,-0.7452788311199547,0.0461213700076529,0.0283694044868744,-0.0051522967268144,-0.0054218694454274,0.0202021218289249,-0.0532407485280088,0.9983624788222156,0.033433125282903,-0.0307280218412996,10.801543395660797,-0.0809440284391427,0.0039021905906288,1.2047922898210432,-1.2329848691700969,0.2610958062135493,0.5850665475235587,1170.8241351650795,1194.8545662233482,1172.4032413961331,1182.8164461910535,-1126.2945259714331,-402.96619380374034,-348.48479730680964,387.5927326644156,163.3007069664407
0.3975,0.9573996379514323,0.8019900269880804,-0.6270231245297275,0.0458420512020863,0.032887285037513,-0.0089621536110945,-0.0053602992531739,0.020202890189014,-0.0532493060392352,0.9983623547617756,0.0317748250961977,-0.0296682805194149,10.789027126464696,-0.0798810592514843,0.004376978378475,1.207236566688761,-1.2330581365938351,0.261153554331045,0.5880794082861429,1167.6083168567475,1193.07367910673,1171.60806928225,1183.9043544708095,-1167.5689704844433,-884.0006663728664,-264.97438742198915,369.56071153731466,163.30886463578435
0.4,1.073562357237152,0.5788002200714703,-0.4644205100295019,0.0468791560687157,0.035982095942821,-0.0112013323725311,-0.0052989607336387,0.0202143322551149,-0.0532632978226304,0.9983617169975648,0.030044624579802,-0.0285083859679331,10.77610870820953,-0.0788516292706873,0.0048485642367369,1.2096611408999836,-1.2331288893620451,0.2612145350316327,0.5910982794732039,1164.9862903126575,1190.434562891484,1171.0783694590232,1184.6642497487403,-978.6510739616906,-1224.4375047258006,-216.73221101400463,234.22589478464013,163.31575545873832
0.4025,1.1666286200406049,0.3133078410886138,-0.2748033744743137,0.0506821274164044,0.0372004169845723,-0.0116909155531413,-0.0052398684339722,0.0202364238804176,-0.0532833174820804,0.9983605218948725,0.0282799860251991,-0.0272920898681291,10.762756799873449,-0.0778529350175133,0.0053105785295676,1.212065315839926,-1.2331979101639503,0.2612780998441583,0.5941240762258855,1162.715061486939,1186.9514915831007,1170.52440822718,1185.0754839447327,-826.1439377082745,-1452.303459792664,-243.43780016711185,86.69271374556038,163.32273873490564
0.405,1.1913617478143004,0.0520401218502092,-0.0965683824915506,0.0558475637975992,0.0366396192021568,-0.011090014063823,-0.0051829961356145,0.020268533777248,-0.0533098317721643,0.998358755689902,0.0265214948874657,-0.026018902241152,10.748937084146844,-0.076880842783679,0.0057622463323929,1.2144474069860371,-1.2332653480999696,0.2613431015969334,0.5971569767262664,1160.855570624116,1183.1730455925203,1169.8611804581876,1185.097713317468,-640.9907550030306,-1472.1632392640445,-303.75366967423327,-94.26703617978083,163.32979515818744
0.4075,1.1001166220936505,-0.1630784960063078,0.0378827090653595,0.0606683709486111,0.0348496835395233,-0.0100892624394466,-0.005126696161845,0.0203106878313681,-0.053341758159089,0.998356482919417,0.0247862990050725,-0.0246560137066966,10.734614504563673,-0.0759330741839418,0.006207593121,1.2168046987624603,-1.2333308993366967,0.2614083317374604,0.6001966551903489,1159.5101077119239,1179.5906753867807,1169.0056398788088,1184.6041487638336,-498.7232631664024,-1402.6700871240323,-427.42237982629337,-325.4541515931575,163.33693467353027
0.41,0.8566460520873147,-0.3419472589272431,0.1308869998765581,0.0648911271209859,0.0325239781903817,-0.00875610103782,-0.0050689962272659,0.0203616411927534,-0.0533786635474229,0.998353761504114,0.0231109051812035,-0.0231634758226284,10.719755017405996,-0.0750046176733454,0.0066523541377463,1.2191339250353113,-1.233394623374774,0.2614728268601004,0.6032436486869297,1158.361954308284,1176.1596951569004,1167.724068559056,1183.4704425595023,-377.4264219137873,-1046.9104838100511,-514.0942297760826,-481.43108864674053,163.34559043898147
0.4125,0.5652368014224431,-0.427067206953069,0.1524473827746968,0.066912736244193,0.0308768805799859,-0.0077741030896153,-0.0050081274458216,0.020417522767149,-0.0534193739417606,0.998350741998358,0.0215813455237763,-0.0215053189111206,10.704327150476123,-0.0740844594420259,0.0071028752660171,1.2214316728178483,-1.2334567717083946,0.2615359065530885,0.6062989058974699,1157.6229756023547,1174.3561229677305,1166.4351687299284,1182.1969933206,-296.47091846186385,-468.3751892924643,-561.7547436019772,-534.7827156347189,163.35287099316713
0.415,0.221618360820034,-0.4657740533084596,0.130208129301386,0.0674687658156031,0.029683063802969,-0.0072511867976827,-0.00494346973763,0.0204729484924503,-0.0534633638131192,0.9983475660633376,0.0203106299531418,-0.0196707339596899,10.688303453738454,-0.0731583372734423,0.0075632409044484,1.2236945211656431,-1.2335170256077015,0.2615970126142758,0.6093623931937696,1156.8795997159748,1173.817819210438,1164.9152948410463,1180.7965289813287,-369.70254045400367,33.47213380957362,-716.7892507709057,-592.0588318513243,163.36021428556535
0.4174999999999999,-0.2058041636137629,-0.4908250555027106,0.078316671834977,0.066850259016667,0.0286829744993806,-0.0067879590651142,-0.0048759182751157,0.020523835791547,-0.0535089528292391,0.9983444036168926,0.0193800820691956,-0.0176861524341027,10.671661662794367,-0.0722156531049013,0.00803380048562,1.2259190145462793,-1.2335743660218,0.2616561757464297,0.6124335687531485,1155.7744629000847,1174.5234836367783,1162.8512224760739,1179.2366991613435,-453.92116783792073,432.5812182925391,-785.7275237465809,-519.9277983711961,163.36909110187065
0.4199999999999999,-0.5479109894496162,-0.5159634118116851,0.0348668881959429,0.0653866483939749,0.0279469032718173,-0.0065308643221762,-0.0048047194241871,0.0205683874362898,-0.0535522820493723,0.9983415031821284,0.0188160922599539,-0.0155493725092647,10.654385156370084,-0.0712523400854712,0.0085184739844871,1.2281018151031229,-1.233627039047728,0.2617143278038343,0.6155109590947394,1154.6099938767852,1175.9807253019007,1160.9866572223132,1178.1968899894728,-508.04418547054365,676.3745929558348,-753.920559658672,-341.2403978460585,163.37653739860738
0.4224999999999999,-0.8533161473154839,-0.5651628509185792,0.0180237029195301,0.063199399763844,0.0270174778883146,-0.0068312247380547,-0.0047296566724041,0.0206063558239345,-0.0535884406524058,0.9983391358353124,0.0186093099332949,-0.0132746615655127,10.636463048302433,-0.0702687006018911,0.0090190962938763,1.230240094718828,-1.2336737221601937,0.261773147113249,0.6185927870014151,1153.2342419727322,1177.9053566015575,1159.0816196777805,1177.5304971721132,-563.4665580839278,777.4247101695885,-749.6169040784928,-204.81578867224908,163.38402898966643
0.4249999999999999,-1.1187850539345359,-0.6436189110336084,0.04201682390628,0.0607580826925993,0.0258965405420759,-0.0075564288461839,-0.0046516470989715,0.0206339731205472,-0.0536124591436874,0.998337642206045,0.0188236205412275,-0.0108987069213887,10.617889659439756,-0.0692565514923743,0.0095344322334318,1.2323322751314656,-1.2337137043553223,0.2618340254808768,0.6216776226395357,1151.7926610863656,1179.8678488527487,1157.2385727019207,1177.1728110461115,-555.6539067018998,719.7434912661713,-702.4206610119558,-86.72120153628377,163.39155443435402
0.4274999999999999,-1.3290368852660723,-0.7632872986004494,0.1290726357962918,0.0579605942200151,0.0245956148239889,-0.0084786960467558,-0.0045709418875551,0.0206479830517643,-0.0536235020149101,0.9983371330052068,0.0195077193818815,-0.0084444216123214,10.598664554697669,-0.0682089821002873,0.0100638698598963,1.2343771957317793,-1.2337475586040503,0.2618976551657599,0.6247646672382382,1150.4559724392227,1181.5040740578884,1155.5695163727207,1177.0968911644316,-519.6347612348741,573.3161211473538,-678.0694353977191,-8.80779615276878,163.39911668405227
0.4299999999999999,-1.5075696605275444,-0.9551443569418664,0.3048275379236929,0.0537823323229516,0.0227813928831157,-0.0093718333797585,-0.0044901365460588,0.0206476440159484,-0.0536224538065091,0.9983375644650216,0.0206567009477743,-0.005987844546056,10.57879257143017,-0.0671243698646706,0.010600297288576,1.2363735890058352,-1.2337770470675231,0.2619637484921791,0.6278541159531061,1149.1944872801912,1182.7344294584855,1153.8482255249323,1177.1287720653477,-386.66285180352094,297.3345433834763,-580.2310304934502,-4.443890038237438,163.40822930163043
0.4324999999999999,-1.5870554871090174,-1.1491099398063425,0.4925077449686773,0.0498320964634944,0.0209361799236682,-0.0095102336629169,-0.0044136786340198,0.0206356243257851,-0.0536121723847356,0.9983387088045886,0.0221928618891066,-0.0036478703586473,10.558283693332584,-0.0660084126385363,0.011131492918412,1.2383196061649244,-1.2338040156318133,0.2620317066849511,0.6309469456318064,1148.522658180205,1182.9907467748055,1152.6683612202535,1177.0746717142404,-192.99804332040347,-71.9532447078563,-422.3145525214473,-81.50922568979686,163.41585182439584
0.4349999999999999,-1.5879785061524512,-1.3612048594075676,0.6817551646626813,0.0460147178109015,0.0183351787543993,-0.0081433188208376,-0.0043468810093188,0.0206158088904791,-0.0535967058251048,0.998340246252898,0.0240113203881786,-0.0015627482573204,10.53715263444312,-0.0648688161754269,0.0116431614480309,1.2402128286573544,-1.2338301650462584,0.2621005481233253,0.6340445922133695,1148.2294970635892,1182.374663234946,1151.736652762325,1176.7212259368987,-78.87479544338012,-466.3013199151006,-362.93283658228546,-261.2083596229693,163.42350144506673
0.4375,-1.4931252402364903,-1.605480075829072,0.8511755215951837,0.0417236115488861,0.0139052046697958,-0.0045761430901094,-0.00429218140405,0.0205911605959198,-0.0535803240151923,0.9983418770910054,0.0260210113309618,0.0001907745589099,10.515418147323627,-0.0637106748960443,0.0121286826691501,1.242050341027453,-1.2338562477225887,0.2621694251186987,0.6371487599203906,1148.128284202988,1180.6592401752303,1150.853697037342,1175.7686299161255,-38.92267870860447,-776.1271328982269,-293.9121374968178,-448.4099290147238,163.43271058660605
0.44,-1.329341857012183,-1.7758104500120375,0.9087014837298164,0.0380572105493595,0.0092799032593454,-0.000761699620725,-0.0042505207678378,0.0205674395293049,-0.0535650617507551,0.998343369833798,0.0280686496988231,0.0015626712808135,10.49310305860022,-0.0625458009640619,0.0125853758732867,1.2438284319809496,-1.233882430204652,0.2622376042359694,0.6402600716286936,1148.034883670046,1178.494027570455,1150.267092074841,1174.479176291825,-95.39647259794029,-992.8071811685176,-214.6691050969364,-611.991157048032,163.44040925632513
0.4425,-1.0728453111655156,-1.8884690464857563,0.8612135215333279,0.0345315270617886,0.0043766753122213,0.0029095322863011,-0.0042189846931877,0.0205475076408676,-0.053550578633798,0.998344696028406,0.0300562938991898,0.0025852279946068,10.47023291315118,-0.0613793549085723,0.013020952855741,1.2455435574174287,-1.2339083860878106,0.2623047724844481,0.6433781799822499,1147.6513018399985,1175.6952042693877,1149.7803515118571,1172.7086741308856,-234.48794955552313,-1201.5094575591763,-185.44186059830264,-771.8351644320586,163.44813405070306
0.445,-0.7414872728218813,-1.9430182671134784,0.7338549979730689,0.0316170551249058,-0.0004746996837218,0.0058223899541133,-0.0041937407470248,0.0205285594312036,-0.0535359527014609,0.998345978818912,0.03200220847955,0.0033153122837339,10.446834928298232,-0.0602030071179748,0.0134462158290978,1.2471930913469966,-1.2339331841347665,0.2623713150594844,0.6465021253188081,1146.8624439222683,1172.4864802826592,1149.3398827718495,1170.6200004696648,-429.15900902648866,-1350.4512151896947,-171.7565574218041,-886.9755112771591,163.45588194933694
0.4475,-0.3326789410992103,-1.9210704215881556,0.538259145139679,0.0296949093890124,-0.0054025738556826,0.0074322267595333,-0.0041713059768479,0.0205071012955802,-0.0535228253834163,0.9983472167789116,0.0339376946571232,0.0038044096791124,10.422937502873255,-0.0590075645618605,0.0138707766739982,1.2487750284025585,-1.2339551680346035,0.2624380027040128,0.6496308432352648,1145.505506794866,1168.9429481934392,1148.9215687247483,1168.2737965744996,-710.7458162983669,-1591.3853327127968,-182.994290104625,-1060.8291997806637,163.4636604276434
0.45,0.2173460639376079,-1.803680393224404,0.2704097595804941,0.0286053849557555,-0.0114518641495324,0.008019271528509,-0.0041494273740528,0.0204815365340524,-0.0535109856866638,0.9983484639595096,0.035856213463204,0.004075934263898,10.39856934545175,-0.0577892862164411,0.0143006658792327,1.250287918571201,-1.2339728617530497,0.2625051421650999,0.6527635690583288,1143.3087148407767,1164.5295536190952,1148.4249113213264,1165.3158544707615,-861.6888011113125,-1610.55344354845,-179.79563622156985,-1089.9126289828919,163.47303466556687
0.4525,0.6930503733031035,-1.6343459062571903,0.0501914354406014,0.0287906824290365,-0.0161776365263111,0.0077565975302337,-0.0041265824217016,0.0204493148822835,-0.0534989399431538,0.9983498598393916,0.0377735409343903,0.0041402623051444,10.373757756850251,-0.0565428112129088,0.014739828297832,1.2517312878112228,-1.233985506746834,0.26257289511225,0.6558994544855618,1141.1970627893095,1160.8901809756967,1148.0225905436405,1162.824233429585,-837.3148500637844,-1405.3529433783283,-151.90543245139435,-985.4270041801545,163.48088412801044
0.455,1.1347244101814515,-1.4058267176731711,-0.1405123043517889,0.0303700279140119,-0.0200329100792046,0.0068479649578463,-0.0040996560780888,0.0204111081410106,-0.0534881143323743,0.9983513269187472,0.0396391404609308,0.0040415357441194,10.348527647983447,-0.0552718698731291,0.0151951064983849,1.2531050819130007,-1.2339935638462391,0.2626414726017191,0.6590375685847393,1139.1221405904575,1157.5027889022035,1147.6653841590692,1160.3887194498607,-824.8662026029244,-1381.996558603804,-136.04532190774978,-1043.359450515071,163.488778134029
0.4575,1.5490421498356024,-1.0892927375429489,-0.3202337706001887,0.0343352066635158,-0.0234990466569904,0.0052172021128806,-0.0040642242427097,0.0203699702090541,-0.0534768726811379,0.9983529078719784,0.0413568992699818,0.003850143390826,10.322900298845894,-0.0539866842647616,0.0156760789362148,1.2544097014460887,-1.2339972219763171,0.2627110518444991,0.6621773262998651,1137.0727317762949,1153.980198182678,1147.3423639341015,1157.60743617701,-633.3309249478128,-1166.9021279692959,-94.61497750307889,-986.4388739296819,163.49830899222508
0.46,1.7379175997444571,-0.8102501795438957,-0.4295237762787276,0.0396064475917491,-0.0254022434070578,0.0039155861442994,-0.0040157471698579,0.0203277860393931,-0.0534626342410899,0.998354720642425,0.042860661540181,0.0036438745146748,10.296892017521811,-0.0526947933123198,0.0161924624083853,1.2556462430521609,-1.2339961333524858,0.2627818553596866,0.6653184000650578,1135.9554859657187,1151.668278262357,1147.192309271554,1155.4565250802123,-301.75708518440814,-765.0026329847144,-34.73121138399617,-815.5910736902109,163.50630455521244
0.4625,1.7050473754219824,-0.5349226100222902,-0.5076491695391507,0.0466141773347828,-0.0265557872407718,0.0030312751778409,-0.0039535798759769,0.0202890383963956,-0.0534455318527952,0.9983566679788626,0.044041069474963,0.00342432156408,10.270514280141365,-0.0514099090884495,0.0167434175145699,1.2568160120104668,-1.2339911338803564,0.2628537905281227,0.6684606182039021,1135.5639463503728,1150.1551850177543,1147.1687078771815,1153.529480808559,-47.37501173813139,-464.23593397871593,4.2672190043049305,-728.4444977118702,163.5143610435464
0.465,1.4695229403251047,-0.2720152814664608,-0.56954543936152,0.0540738118899267,-0.0274689528888162,0.0023721890618925,-0.003880312726498,0.0202539535375465,-0.0534284409606986,0.9983585786896356,0.0448861686903058,0.0031396445686492,10.243772470876849,-0.0501346574327455,0.0173202046907893,1.2579209677385463,-1.2339831667836427,0.2629265434276077,0.6716043088149068,1135.718610907028,1149.3470985924635,1147.2136453665755,1151.814302591653,148.26832782755432,-165.31340648002683,16.014063823149613,-633.3891464559196,163.5224722989767
0.4675,1.0165578831605175,-0.0316222505154614,-0.6169138173305329,0.0603089208191738,-0.0281019851299579,0.0014752896478928,-0.0037992797668763,0.0202192153326689,-0.0534150676140068,0.9983603071637694,0.0454634624053015,0.0027348370866333,10.216665940784402,-0.0488625312433816,0.0179125081163153,1.25896329619977,-1.2339728206432303,0.2630001523482804,0.6747499649581227,1136.3052879895104,1149.328617985354,1147.2487781962975,1150.3625350762793,272.2823510734995,129.63424383219703,-19.356048271538366,-582.5274922883631,163.53065466376708
0.47,0.3236861884178964,0.2184458463657972,-0.6522779327944931,0.0637124600125112,-0.0281352471045316,-0.0005915645504222,-0.0037124628641106,0.0201836846489011,-0.0534103733095024,0.9983616028676938,0.0458000969117992,0.0021887509726726,10.189189278848241,-0.0475926097235555,0.0185129632999506,1.259944597225119,-1.233959312634946,0.2630749227325946,0.6778974319478717,1137.0800226623955,1149.9952698116244,1147.1168651252178,1148.901665130211,227.42869448825311,309.2456725881217,-103.3503512635888,-495.6935185112338,163.5405621229891
0.4725,-0.271498869679871,0.3818061299172843,-0.6581095949863703,0.0619160361871251,-0.027368887620923,-0.0029692161062409,-0.0036231477516597,0.0201499548182595,-0.0534171189321522,0.9983622529540308,0.0458550632534188,0.0014562855127142,10.161333721346836,-0.0463330283401944,0.0191104831193818,1.2608657837445012,-1.2339420653361457,0.263150793218626,0.6810466335386266,1137.4424314619519,1150.8748463482948,1146.7320264399796,1147.8840674837231,16.716337980142256,349.1124320560172,-239.2214917370891,-375.3193169260609,163.5488965025415
0.475,-0.7641160237820843,0.4811694696480205,-0.6410684266713907,0.0567423804696686,-0.025822422705033,-0.0050284342998816,-0.0035347189741659,0.020118931744376,-0.0534343598229754,0.9983622769438596,0.0456283267399755,0.0004979875887054,10.133087604646004,-0.0450873873374412,0.0196941246274717,1.2617274759300403,-1.2339205047770967,0.2632276331921267,0.6841972336356414,1137.1636043522963,1151.7408319719043,1145.9207576665324,1147.0250685455808,-316.11090576761825,301.927785385669,-479.2209202220416,-351.7537777409413,163.55731561810083
0.4775,-1.157780969946809,0.5122825938300689,-0.6097520808073453,0.0500052325095455,-0.023560699108983,-0.0065157191056297,-0.0034478502133157,0.0200926182079804,-0.0534586942540065,0.9983618139807992,0.0451001570773762,-0.000666093510929,10.10443816964628,-0.0438620520468648,0.0202597960592767,1.2625295165311077,-1.2338945604472775,0.2633056242441135,0.6873485979725698,1135.8618769331135,1152.3844852752231,1144.3359218388691,1146.1252985950184,-640.307583088231,130.0880213123505,-691.0476242644179,-314.10529154350434,163.56751782083404
0.4799999999999999,-1.314723543131105,0.462851483842432,-0.5875694339865064,0.0452945395060075,-0.0218581974965934,-0.0072324078229988,-0.0033657825388756,0.020072963837222,-0.0534862809905545,0.998361018722397,0.0442590525243717,-0.0020617873207018,10.07537349949806,-0.0426624821709855,0.0207970991997229,1.263271176312024,-1.2338655667141647,0.2633842843169748,0.6905012350520878,1133.9620664368551,1152.3912720784663,1142.4655195452103,1145.4545420878633,-895.7307213433614,-128.3455446845905,-857.6236325127953,-257.24201481948774,163.57610131672573
0.4824999999999999,-1.3289543134288526,0.3430979654005198,-0.5764881070878679,0.0419873070342399,-0.0207056683868134,-0.0077700562262615,-0.0032889156506382,0.0200579215162246,-0.053513010713374,0.9983601501099576,0.0431739879833508,-0.00364830827496,10.045883510908071,-0.0414839158989916,0.0213035611811028,1.2639511173012272,-1.233834089948895,0.2634636627215351,0.6936562178297372,1131.383223326397,1151.7427575518,1140.0478036763054,1144.8390885209208,-1101.0499626152512,-364.2085444010714,-1042.9471593857206,-240.81691818796548,163.5847658977333
0.4849999999999999,-1.2642015611371529,0.1756648742177938,-0.5699974861170481,0.0395454508526317,-0.0200778836891974,-0.0083826525269002,-0.0032160957864732,0.0200449339750022,-0.053535232526597,0.9983594589410556,0.0419237009515756,-0.0053495893227338,10.015962440812787,-0.0403200502584935,0.0217809407308211,1.2645671281727755,-1.2338002253989855,0.2635439135405944,0.6968140660210516,1128.4568166237789,1150.570229356461,1137.2507837482815,1144.2504574969234,-1196.9788547275118,-574.2289853595589,-1181.37247242007,-235.51752344510513,163.59349321723104
0.4874999999999999,-1.1478378925111694,-0.0350703729264734,-0.5511931610889365,0.0374961991817609,-0.0200741087276605,-0.0095662680331835,-0.0031466117514186,0.0200291608789812,-0.0535529789945114,0.9983590430846492,0.0406325151874224,-0.0070925555310903,9.985610470954192,-0.0391585593931171,0.0222303917525318,1.265116485000711,-1.233763222211356,0.2636253844740668,0.6999750049429719,1125.3983290527594,1148.8716126250024,1134.140941314205,1143.6615009036955,-1315.6004889372969,-834.8637028294426,-1398.1508166164974,-271.11292050585666,163.60228863492796
0.4899999999999999,-0.9894090509482624,-0.321593237722205,-0.4830472108640229,0.0354817524722928,-0.0207538043982063,-0.0117685002815126,-0.0030806573923446,0.0200089630955247,-0.0535656794735866,0.9983589661001536,0.0393606961727868,-0.0088262100612012,9.95483596386739,-0.0379947129023937,0.0226507943485372,1.265595788552233,-1.233722846438016,0.2637084396777744,0.7031392112852212,1121.8788141790924,1146.3959108423137,1130.2600296651992,1142.894892894394,-1239.500736541048,-959.1144758582678,-1419.4538169510436,-301.57471233624136,163.61290922135626
0.4924999999999999,-0.8592153525341218,-0.5785749296375755,-0.3685479889632959,0.034119775592034,-0.0218424342173394,-0.0137826821380128,-0.0030183430184384,0.0199868216900251,-0.0535710357325406,0.998359302743124,0.0380853315080263,-0.0105052592101996,9.923656607214674,-0.0368337828234625,0.0230413051687959,1.2660011775001556,-1.233679583070936,0.2637935821265441,0.7063056678339767,1119.200825370054,1144.076040245711,1127.0436722294498,1142.1536273420143,-1011.9398144494872,-965.0562953825549,-1257.8890226475312,-331.0786858030039,163.62180369511012
0.4949999999999999,-0.7368878752462832,-0.8443744798769288,-0.1839469584368507,0.0326605642595677,-0.0233397676333592,-0.0152159150729874,-0.0029619419831689,0.0199664270104446,-0.0535672770232214,0.998360069660602,0.0367603991634158,-0.0121322430574562,9.892099816840586,-0.0356835333278552,0.0233962248320824,1.266328935981992,-1.2336344578247551,0.2638804525741038,0.7094734108827556,1116.8191151068447,1141.5706293654007,1123.9705845519616,1141.2394994653791,-913.0714710322984,-1027.782576945082,-1195.3229442733107,-403.81509830949614,163.63072977986985
0.4974999999999999,-0.6169047741118256,-1.1089973132608923,0.0551143725127429,0.0309724758591257,-0.0251699272475834,-0.0159795128201,-0.0029134483160837,0.0199483582335616,-0.0535528216938443,0.9983613371234992,0.035399090322597,-0.0137064626850842,9.86020241029384,-0.0345437096774711,0.0237119962206749,1.2665758122986106,-1.2335881014111647,0.2639679192535733,0.71264166704466,1114.6354680148927,1138.9371273609856,1121.0670575080833,1140.1345518504668,-843.1786094764894,-1083.7233374559664,-1118.6643889485813,-497.48814421213814,163.63967175050513
0.5,-0.4917565143309172,-1.3565497280584264,0.3447563998612275,0.0291743987301115,-0.0277398214359523,-0.0161181996008342,-0.0028710947273674,0.0199328883788269,-0.0535297158941912,0.9983629982929803,0.0340132966313283,-0.0151590107869006,9.828010822336948,-0.0334139973931444,0.0239957026006738,1.266738650578952,-1.2335405563956672,0.2640549573535288,0.7158102964521955,1112.6032220594625,1136.152012678121,1118.3772626072187,1138.7520587443184,-873.2217033841503,-1263.9848796845247,-1142.3639259999936,-680.8031407974713,163.6486206906108
0.5025,-0.3312573976907093,-1.6050446533581009,0.7193197693677587,0.0272005465418475,-0.0320145582762728,-0.0152314457053107,-0.0028347719920518,0.0199166116292147,-0.0535016113090669,0.9983649293979736,0.0326855796446218,-0.0164578182665024,9.795579633904497,-0.0322848990997198,0.0242518105782632,1.2668144091166815,-1.2334916832375475,0.2641406427302146,0.718979268031489,1110.269359497972,1132.6172029625627,1115.3552378780832,1136.7305361464792,-835.7490043071258,-1332.1293410242547,-1084.1283643421311,-804.4195251600279,163.65935205144677
0.505,-0.1939448444031833,-1.74778374597261,1.022515938075615,0.0260271229319322,-0.0365795512314191,-0.0131156381559396,-0.0028062808661771,0.0198889490648588,-0.0534752561887506,0.9983669750309162,0.0316354998760265,-0.0176134553027362,9.762973804966393,-0.0311291085029284,0.0244819833054653,1.2668016843124728,-1.2334405349547009,0.2642235951087064,0.7221492136084644,1108.4244770379269,1129.4913659729998,1112.956620785508,1134.7299611185183,-699.7150206404962,-1290.2385528219827,-946.7343961696307,-864.2708326558014,163.66827765434175
0.5075,-0.0690659810095101,-1.8001632769736808,1.2750363928501107,0.0257288426812185,-0.0418025333536571,-0.0095365172552886,-0.0027858024771405,0.0198461187308164,-0.0534539925676655,0.9983690284770363,0.0309433494208357,-0.0186244491481756,9.730265077520007,-0.0299371274109031,0.0246916524469313,1.26669843251218,-1.2333859515596417,0.2643030747220309,0.7253201923822343,1106.7707843947694,1126.166010198453,1110.621565897235,1132.4091819832004,-655.5911598920824,-1502.4730607776733,-1021.4353359684528,-1085.527976821867,163.67717242482018
0.51,0.0421330279566576,-1.7474240214883037,1.4806449884734791,0.0263507428987903,-0.0479654784625185,-0.0044313275311449,-0.002772802091092,0.0197894503285716,-0.0534349624240558,0.9983712149392332,0.0305862211079946,-0.0194960758060813,9.697531814209112,-0.0287126271664684,0.0248875477267413,1.2665027786004608,-1.2333272028675175,0.264378973553877,0.7284918144206946,1105.1465212384664,1121.9790006691114,1107.8494441056655,1129.3023212344087,-519.2593144957409,-1552.6553119731363,-1012.9661804748354,-1179.7077424113263,163.68779566984554
0.5124999999999998,0.0887543612232247,-1.612091781439178,1.554923297207076,0.0273583571798628,-0.0526814599703802,-0.0001539461470717,-0.0027643497976187,0.0197245889631478,-0.0534139478892963,0.99837365449723,0.0304528682718314,-0.0202041471272431,9.664857176106484,-0.0274707210569687,0.0250814253118177,1.266213202866654,-1.2332638412070986,0.2644518085512771,0.7316629638082285,1104.1744878222908,1118.4027336385875,1105.556734994861,1126.5106432711439,-303.77284340675004,-1417.34517896857,-909.9501818997843,-1135.4294570415723,163.6965957075942
0.515,0.0829514456629121,-1.4009193601858831,1.5230070883659697,0.0283261480556982,-0.0568632860778501,0.0038649180480714,-0.0027581438943319,0.0196604896769757,-0.0533863996039599,0.9983764185450326,0.0303675079085819,-0.0207509407294289,9.63232723487651,-0.0262347564828852,0.0252820371030407,1.265828915651366,-1.2331961664625928,0.2645223170766516,0.7348329657544599,1103.6276570214327,1114.8922747742683,1103.2996931961668,1123.625173949201,-157.31598972192828,-1363.5424049637993,-890.7136957549475,-1146.9940501967349,163.70532953225063
0.5174999999999998,0.0404852954074427,-1.1491796861243195,1.4053807296359004,0.0289659492157975,-0.0603231316897678,0.0076248814540129,-0.0027525040631086,0.0196020861358773,-0.0533520578324702,0.9983794269887422,0.0302308721727905,-0.0211530620123419,9.600028191693967,-0.0250177340831806,0.0254957412414152,1.2653502617452743,-1.2331248975616012,0.2645923938022197,0.7380013097661428,1103.3879078736811,1111.5850216137685,1101.1031665160863,1120.77567302016,-48.9766644710016,-1238.1121857891671,-852.9668447314172,-1099.2880437882823,163.71400129439363
0.52,-0.0284715030918093,-0.882747456009347,1.1917018517092055,0.0290514705213243,-0.0623946920381665,0.0111731501231752,-0.0027469075306076,0.0195497486526096,-0.0533137832091833,0.9983825200805532,0.0300296954005205,-0.0214491844812717,9.568044337684665,-0.0238205985320477,0.0257250601833967,1.2647786886078192,-1.2330513597541963,0.2646634814998769,0.741167973404267,1103.3827736990777,1108.7017138453227,1099.0348589725097,1118.1287337302597,2.621858944894482,-1134.9950762084509,-863.8690778234823,-1077.0053908518084,163.72259140017772
0.5224999999999999,-0.1140440537829194,-0.5897637695412492,0.840682544335909,0.0284766572360362,-0.0634541607102535,0.0150958013532202,-0.0027406644632112,0.0195037725286623,-0.0532740857480005,0.9983855597434184,0.0297484638453596,-0.0216781190569401,9.536456602999806,-0.0226435194008918,0.0259714534386632,1.264116372203039,-1.2329762077210924,0.2647364248770079,0.7443319292753307,1103.4010171684056,1105.9100462327262,1096.7838211269689,1115.3906460659011,-28.80261997020168,-898.0737385446438,-775.2417786434755,-906.6895626622672,163.7327986377432
0.525,-0.1691173547705916,-0.3910676911868882,0.4904476754220617,0.0275270133809977,-0.0635935941586465,0.0176711491536459,-0.0027288908673649,0.0194618887468002,-0.0532371967274987,0.998388377963853,0.0294121763293475,-0.0217961938378135,9.505340447167853,-0.0214803843503561,0.0262459929738907,1.2633659726767552,-1.232899608612796,0.2648122083401734,0.7474920739943217,1103.2387605992267,1104.2113451525995,1095.1586500792923,1113.5952859169483,-143.4645137605911,-547.3649384794949,-586.9387150262804,-601.7244970227688,163.7412175817265
0.5274999999999999,-0.1930746862595678,-0.25074706532548,0.1203166873848537,0.0264061542684617,-0.0633407129624568,0.018747691585394,-0.0027075615685198,0.0194188255985639,-0.053207009136167,0.9983908814328236,0.0290991682719234,-0.0217721452924048,9.474764395412176,-0.0203171014154804,0.0265569436868239,1.2625306613569407,-1.232821529785105,0.2648911899532293,0.7506480471246156,1102.6836945996026,1103.1732215403288,1093.8491275518375,1112.3820235807873,-365.8100549728257,-318.5480211431238,-495.4800437342324,-404.3358675691248,163.749544548314
0.53,-0.1830954268142719,-0.1410776611190132,-0.2867044090978535,0.0254375538694869,-0.0635110758974874,0.0176392662410785,-0.0026789296777789,0.0193680861716617,-0.0531877384170957,0.9983929649299924,0.0289122046226082,-0.0216882745594705,9.444789093586403,-0.0191356347686214,0.0268962550775091,1.2616140272740295,-1.2327414971567796,0.2649728801961196,0.753800472603451,1101.4097103243623,1102.6186050468839,1092.6812498606212,1111.5736065791027,-573.9959044230086,-107.54133383152283,-359.16395031977083,-208.36456123106447,163.75943122800885
0.5324999999999999,-0.1478784558115487,-0.0828043657589912,-0.5535402867817774,0.0252101594644462,-0.0643710674758891,0.0149052412560689,-0.0026438614728516,0.0193062365289299,-0.0531812751271973,0.9983945910650504,0.0288904172897611,-0.0215981918512914,9.4154666537372,-0.0179258459930431,0.0272586988998073,1.260619256359527,-1.2326591133376523,0.2650568796858407,0.7569498542183829,1099.8137150774876,1102.6355148711712,1092.0533078002384,1111.340200774632,-733.4108664617808,74.53256105968642,-182.7977633086901,-41.42263921125956,163.76758410506247
0.535,-0.0926523350431255,-0.0423721770971551,-0.7168729812919159,0.0253496662362496,-0.065308442174509,0.0114869506401978,-0.002603637340051,0.0192350252014079,-0.0531874794603951,0.9983957289754772,0.0289729791517555,-0.0215615554613728,9.386840204597569,-0.016690682447295,0.0276373475120275,1.2595490531187963,-1.2325745094331315,0.2651423733941379,0.7600962919536738,1097.7426559920536,1102.9912678521823,1091.7672610440777,1111.3664933830464,-880.0595481602605,169.1610032867628,-65.35825911960268,17.063709207377528,163.7756514457535
0.5374999999999999,-0.0231158364385546,-0.0130244032922735,-0.7960809028583931,0.0252691108967518,-0.0657760414915403,0.0087795868680596,-0.0025616141122047,0.0191547151392963,-0.0532073840943061,0.9983963093935468,0.0291275057954844,-0.0216659689599993,9.358942702188868,-0.0154294229006874,0.0280205588471801,1.258405918379882,-1.232487931036982,0.2652287371670652,0.7632401058752811,1095.4134173366863,1103.4813198876047,1091.7265165046404,1111.4255193206689,-949.3157485730072,188.67981764155937,26.019104528540968,-13.393150367028271,163.78365113946197
0.54,0.0644549298717406,-0.0016001378101404,-0.7966604689821581,0.0247611496329353,-0.0655443288232067,0.007567547734531,-0.0025228434782895,0.0190623915521788,-0.0532412759200901,0.998396360182092,0.0293820729048903,-0.0220181969858024,9.331796356789942,-0.0141334634901931,0.0283932825270451,1.257192169875304,-1.232399462418526,0.2653152459747993,0.7663823278290756,1092.9960772491886,1103.93466694039,1091.8973565667204,1111.2995276312113,-1024.4445818422255,141.25415232633702,92.58627282811167,-146.91661765864396,163.79157366598483
0.5424999999999999,0.1857897005227256,-0.015324511685052,-0.7358661178041876,0.024386270060318,-0.0649504800693681,0.0067617671666655,-0.0024897140010447,0.0189593236574174,-0.0532860255315447,0.998396017435862,0.0296847364215389,-0.0226713930140306,9.305413012796127,-0.0128053345071228,0.0287469754792611,1.2559096143015667,-1.2323092735938033,0.2654013692527856,0.7695231594702646,1090.2911944274751,1104.1875906492367,1092.1894478687811,1110.6909362323756,-923.9546489023716,14.15202594776018,93.33276185493553,-322.155424272523,163.80099773314157
0.545,0.2887164839740999,-0.0491148186663593,-0.6418324556490858,0.0248188384992503,-0.0647646322610252,0.0055007729341804,-0.0024587557935064,0.0188494658267898,-0.0533354543032832,0.9983955425832546,0.0299306383912328,-0.023565283649785,9.279793633262122,-0.0114554511091303,0.0290876696232487,1.2545596754533157,-1.2322170501373608,0.2654872452928438,0.7726627437081324,1088.3763040046767,1104.0054270701287,1092.364020375995,1109.6887505098487,-673.449260459119,-177.99104216464895,20.087388859701587,-510.12483743693286,163.8087869174194
0.5474999999999999,0.3733176406715256,-0.098882794581044,-0.4984681392541393,0.0262093025469367,-0.0650132889664441,0.0035726310772256,-0.0024274535840697,0.0187386017130316,-0.0533817189734326,0.9983952492146586,0.0299865250372374,-0.0246526497951943,9.25492803759248,-0.0100992197018481,0.0294188488619304,1.2531441389377227,-1.2321222552335704,0.2655731949371195,0.775800874978531,1086.9239481251795,1103.2976354384134,1092.2898848130797,1108.1403120451907,-536.7223682191702,-440.64447145224176,-125.96797612122816,-788.2285603330722,163.81651575022192
0.55,0.4352492366466979,-0.1665628841990008,-0.2659753444629669,0.0285694766286006,-0.065358165126677,0.0014194240879412,-0.0023916435210671,0.01863221971772,-0.0534202333960166,0.9983952875622372,0.0297286854344747,-0.0258475611569126,9.23079431354424,-0.008752414460961,0.0297483139151401,1.2516653485253868,-1.2320237531374119,0.265660185351978,0.7789352628995021,1085.692692163581,1101.8022047128677,1091.7341804953887,1105.7476077081833,-387.32512859892233,-647.1002215761467,-299.2607863537157,-939.3422895572704,163.82572834499817
