t,ang_acc_x,ang_acc_y,ang_acc_z,a_vel_x,a_vel_y,a_vel_z,quat_x,quat_y,quat_z,quat_w,acc_x,acc_y,acc_z,l_vel_x,l_vel_y,l_vel_z,pos_x,pos_y,pos_z,mot_1,mot_2,mot_3,mot_4,dmot_1,dmot_2,dmot_3,dmot_4,vbat
0.0025,0.4594508201918179,-2.504511003021426,-0.1082204023372167,-0.1010307139818712,0.171382459533797,0.0286198230869475,-0.0051662105052456,0.0047235616306107,0.0695702342084889,0.9975522479045604,0.0636063751264589,-0.146736676978917,10.824363942228837,-0.1007368586085378,-0.058895408570194,0.9212264091018144,10.980621231527566,-0.0105284703793454,0.3545626167485196,1161.945064732439,1163.640166032978,1146.3495637510064,1163.286556704708,624.5979934070419,-346.05209008086604,-420.19360124913874,-145.84424296353973,155.78453778730892
0.005,0.3229956094271417,-2.4463068971296,0.0104262840467366,-0.0997398257963046,0.1675861167014415,0.0276326319253256,-0.0052904873802489,0.0048530257698872,0.0695702123166356,0.9975508704365637,0.0614220155860872,-0.1450650429608673,10.829277789091059,-0.1004301544627399,-0.0591091488264478,0.9236848744533122,10.980417503820346,-0.0106805634010439,0.3568767474126385,1163.5065597159567,1162.775035807776,1145.2990797478835,1162.9219460972993,593.5283015889582,-268.23406850376165,-400.49560421589376,-63.73675722052213,155.78093590019455
0.0074999999999999,0.1370752887662129,-2.435301777005422,0.151869468917008,-0.0980761971493816,0.1632131488264527,0.0276677111207851,-0.0054167850243681,0.0049868155411617,0.0695813665852404,0.9975486847463776,0.0591202421394864,-0.1434160234023776,10.834177126877892,-0.1001312336648776,-0.0593231865914963,0.9261468663661993,10.980212911602086,-0.0108341851345918,0.3591946270105575,1164.9127062403838,1162.2989956904592,1144.3470857299271,1162.9678729186055,507.91717296469864,-125.67401765772956,-327.314002792491,100.71025754264156,155.77725516875688
0.01,-0.0848806168737149,-2.431537439603334,0.2811599588959287,-0.096975234118011,0.1576340216831274,0.0288922041458165,-0.005542696005476,0.0051288719840385,0.0696067112356442,0.9975454738079838,0.0566030283083343,-0.1417155498136459,10.839045093772267,-0.0998451008334039,-0.0595306044789092,0.9286150459934638,10.980007244676584,-0.0109900803534989,0.3615187340188939,1166.04614558078,1162.1466657194871,1143.6625097339213,1163.4254973850125,358.04346285976857,17.841186153555096,-173.59597123581804,286.5674245772879,155.7735151778206
0.0125,-0.3281902000628813,-2.38489815994411,0.3626759131643231,-0.0972905656837638,0.1505213258180948,0.0312758141136665,-0.0056723117199931,0.0052708518056014,0.0696403940364486,0.9975416527650676,0.0540240494166414,-0.140041971668104,10.843851662484466,-0.0995537381376127,-0.0597397962282743,0.9310938656545912,10.979800892946752,-0.0111474789018315,0.3638494787914909,1166.7029235546827,1162.3882016212272,1143.479105873748,1164.400710041492,158.40984714295703,199.66161502497928,56.92911661253675,535.8927612738627,155.76971158377614
0.0149999999999999,-0.6052886782269009,-2.2257249502138166,0.3866218843904798,-0.099244021649234,0.141259203933619,0.0341613366669966,-0.0058106190053006,0.0054043676295628,0.0696746814904812,0.9975377639402172,0.0515326514667101,-0.138490441282254,10.848557906240508,-0.0992390503884174,-0.0599615193506706,0.933587927954543,10.979594663419435,-0.0113056440326935,0.3661864061902433,1166.8381948164947,1163.1449737946123,1143.947155316984,1166.1049611913816,-56.07934615577504,356.31630347384083,279.29451658014835,690.9832059388008,155.76508448028943
0.0175,-0.7971726621178039,-1.9933462126078607,0.3537167171972536,-0.1017228931404675,0.1340380171331699,0.035669678431792,-0.0059641951806421,0.0055233237414601,0.0697064887883784,0.997534007960957,0.0492227781052658,-0.1371877956903744,10.853116601148047,-0.09888834520478,-0.0602088589934926,0.9361014210568792,10.97938855508166,-0.0114636603510398,0.3685268719475793,1166.4225268239038,1164.1697831385964,1144.8755784566488,1167.855626071186,-250.5423637906005,487.79865416108794,448.4624249202169,729.3985909085221,155.7611843638614
0.02,-0.9281431987243908,-1.6779529729928175,0.2943778007424658,-0.1044880849782538,0.1285367106084471,0.0360253013852375,-0.0061331522610334,0.0056277350946255,0.0697345860454838,0.9975304621893872,0.0470641397243924,-0.1361119416119915,10.857475370928528,-0.0985004204496599,-0.060482274419918,0.938638245157587,10.979183090093072,-0.0116211239956349,0.3708703389839855,1165.585482997542,1165.5839670654177,1146.189467441585,1169.7519541459244,-373.8876696155332,619.8545587273205,550.3563017617128,750.4580373414686,155.75724798260634
0.0224999999999999,-1.0030122357932603,-1.3306993610094493,0.2364144312007864,-0.1070814016030103,0.1249828727448695,0.0356681937929626,-0.0063154634699474,0.0057222450261769,0.06975842090272,0.997527147639454,0.0449294091902236,-0.1351877338878932,10.86157674946628,-0.098083524217155,-0.0607779443633916,0.9412012893792576,10.978978657043053,-0.0117772240992504,0.3732168741119782,1164.553088475826,1167.2690559322327,1147.6273599654571,1171.6079162578933,-417.7910873023392,713.9564152606907,555.3209765728296,700.1208548959764,155.75328849726216
0.025,-1.0108740324765715,-0.9976891426054068,0.197516684067335,-0.1095373504774936,0.1235209215508016,0.0351948870506434,-0.0065021370457351,0.0058134249986062,0.0697749607874292,0.997524292346516,0.0426619679446198,-0.1341858841272743,10.865360348749059,-0.0976494871299152,-0.0610794246064198,0.9437931001753668,10.978776104442744,-0.0119305777583832,0.3755672437449713,1163.4965275610302,1169.1537491417212,1148.9660723244492,1173.2525584204043,-421.49007488592355,825.5479222942083,517.2510853304174,650.3756828766652,155.74930933532312
0.0275,-0.9465192555858932,-0.6672100889964041,0.1756203787062956,-0.1127344710810288,0.1231645565512124,0.0353765587953456,-0.0066861145291373,0.0059069875729414,0.0697832929661233,0.9975219712592762,0.0401243078442432,-0.1329224847733874,10.868763133809525,-0.097210149898951,-0.0613735289121917,0.9464147651366142,10.978576228770583,-0.0120810983546535,0.3779229100324277,1162.4456381013963,1171.396795543704,1150.2136153921094,1174.8597946722766,-323.51184013296023,774.0172875820466,382.7384894459557,526.1130350790611,155.7445218851983
0.0299999999999999,-0.8365639613535503,-0.4664398294955595,0.1708739245339922,-0.1153289986966025,0.123283696324675,0.0362511856223342,-0.0068646781335841,0.0060018701487164,0.0697827406003273,0.9975202559346846,0.0373245626195875,-0.1313206353649731,10.87172064601401,-0.0967661014290502,-0.0616557387636889,0.949066358812556,10.97837932296021,-0.0122288608369444,0.3802845625080688,1161.8789683603654,1173.0238355796312,1150.8797647716788,1175.8831235957996,-148.1707395411831,544.18423206057,201.49454816901195,358.8998512403577,155.74052927709667
0.0325,-0.6805917791727208,-0.3363240442147029,0.1730150800444384,-0.1171782618558385,0.122969139502141,0.0372681191423196,-0.0070373203490544,0.0060948726244517,0.0697746064486784,0.9975190801013882,0.034320584130862,-0.1293592080472146,10.874171893123316,-0.0963150065216829,-0.061924996340824,0.9517461755936536,10.978185192745064,-0.0123738016478265,0.3826523498526557,1161.7047844036906,1174.1177167040069,1151.2210881329545,1176.6542939284784,10.00172642702636,302.79893824977046,122.99513427383305,312.49769076975974,155.7365419917448
0.035,-0.4595335345640342,-0.2314918474099877,0.1863566939505464,-0.1183167380505035,0.1214246092590348,0.0376961642441845,-0.0072077675098465,0.0061817255520228,0.0697591454232753,0.9975184285847412,0.0311948120703826,-0.1271153679087215,10.876062553494563,-0.0958532742775245,-0.0621877060835988,0.9544501505121527,10.977994412477242,-0.0125171790000768,0.3850273124746591,1161.9289769925003,1174.5378302708802,1151.494740443048,1177.4456120496484,140.31369854828887,-20.01312115876318,124.18215175675874,290.5051188989093,155.73177300987615
0.0374999999999999,-0.258336205781377,-0.1648503428753627,0.2122512174290262,-0.1185398234152332,0.1197032454126065,0.0374708731787016,-0.0073766486476046,0.0062656495717721,0.0697398660868225,0.997518032130248,0.027879881823182,-0.1245953864880559,10.877351013913575,-0.0953916249523307,-0.0624417086011774,0.9571713351201356,10.97780824292703,-0.0126614467399881,0.3874129273602728,1162.406352896432,1174.017651098213,1151.8419988917383,1178.1068195229727,226.21580769969125,-393.0220383806956,215.26197053476616,281.56851731178006,155.72781877964596
0.04,-0.0436084395520642,-0.109477641622534,0.2537823590642167,-0.1184696247645569,0.118632365069926,0.0372891978548183,-0.0075428559567875,0.0063489819944299,0.0697203375677667,0.9975176361153976,0.0243382805169592,-0.1217766897225811,10.878008333780718,-0.0949387121681618,-0.0626805888778819,0.9599016247891508,10.97762775641804,-0.0128085189584298,0.3898125512413788,1163.060056030999,1172.5727200789768,1152.571050295722,1178.8534546362073,269.4528285606791,-711.2662709995668,379.1738106558111,315.5874484136345,155.7238928615646
0.0425,0.1863623080444355,-0.068927092185944,0.2993885501450352,-0.1185680074963121,0.1183684450587802,0.0375863341380765,-0.00770015778649,0.0064348829546265,0.0697018890403307,0.9975171743638191,0.02052987873577,-0.1185317224838402,10.878020476001295,-0.0945032007458135,-0.062887712267588,0.962632741447235,10.977452585803483,-0.0129588346243188,0.392227082899446,1163.7536170392355,1170.4613197432152,1153.7378679450171,1179.6847567650411,262.137982537388,-951.3365533444816,574.8311349432246,348.60318751702846,155.71999573033906
0.0449999999999999,0.4408202797652949,-0.0591927984546736,0.3308868471863414,-0.1185764823085269,0.1186261822143951,0.0388553374718937,-0.007846643127688,0.0065242136438226,0.0696885153808876,0.9975163752060864,0.0164642041028329,-0.1148396914085391,10.8773864954998,-0.0940891092090955,-0.0630544362330862,0.9653565916394888,10.977280221700955,-0.0131111146030158,0.3946535759429273,1164.370745943686,1167.8160373122544,1155.445205970438,1180.5964705737924,226.64286171830113,-1185.8128906937516,844.1606949962083,411.38253590779664,155.71613929100766
0.0475,0.7717328459807956,-0.0957743212997966,0.3304406953443065,-0.1170960946174076,0.1189784920778038,0.0412592684010826,-0.0079816427465889,0.0066188361796468,0.0696832949124188,0.9975150167666031,0.0121321854833441,-0.1107132975639497,10.876119131204652,-0.0937010337433565,-0.0631749949795028,0.9680660539937652,10.977108426146584,-0.0132637011525688,0.3970890059588738,1164.8868313478267,1164.5322552897464,1157.9586714199984,1181.74166944458,137.8118689708116,-1135.0405274152752,955.4423069271245,421.73832926291607,155.71156572913594
0.05,1.0597670506222223,-0.1694711960549485,0.2946445215558317,-0.1146650974054758,0.1190544453664905,0.0430592735329448,-0.0081079221984396,0.0067215221073853,0.0696924277988165,0.9975126281724804,0.0075033469565053,-0.1062470687394593,10.874242931968203,-0.0933447535541533,-0.06325037700895,0.970755259205982,10.976935873269678,-0.0134156626221018,0.3995313051115705,1165.05980528854,1162.140834675178,1160.2224175050735,1182.705162220107,8.474119784341386,-784.4522626260189,876.2075253446714,376.97001020578693,155.70780432538479
0.0524999999999999,1.3502289811423087,-0.28433568224014,0.23710041759779,-0.1119311607547516,0.1187518686156587,0.0436469239767239,-0.0082313670003488,0.0068348892875604,0.0697230072242565,0.9975086540667152,0.0025479875308405,-0.1016100996341826,10.871791991798219,-0.0930251484133161,-0.0632884015138313,0.9734199857962816,10.976761162159343,-0.0135660433472003,0.4019775723632089,1164.9292019467487,1160.6099939766164,1162.3397090467215,1183.626519495609,-122.03320259573051,-390.6084386485419,824.6839315292624,380.2723161412816,155.70409989369807
0.055,1.6902499105812696,-0.4587018463825625,0.1707301984057597,-0.1082047185434333,0.1179439851012882,0.0428869429947738,-0.0083516480266643,0.0069641588848885,0.069777349152803,0.997502904826919,-0.0028099230562005,-0.096836082488279,10.868808945859776,-0.0927501017505301,-0.0632860963543386,0.9760582796026648,10.97658376575742,-0.0137153631076142,0.4044277460339552,1164.4496392755611,1160.1877924819353,1164.34583716272,1184.6065238008134,-215.41163836104693,105.09412994874756,605.7920762016687,326.6559706802124,155.699725840398
0.0575,1.9528990791401344,-0.6231195214130718,0.1294896936514829,-0.1043225377900481,0.1168613828653494,0.0417387526262796,-0.0084659379393001,0.007108339456243,0.0698490559913098,0.9974958612134152,-0.0085085625650824,-0.0919146943194579,10.865340209685982,-0.0925139541693119,-0.0632385016400025,0.9786710952064404,10.976404271629503,-0.0138640957668137,0.4068825552012583,1163.8521437549434,1161.13546462636,1165.36866942773,1185.25979934901,-252.4047044374585,625.7917099995216,253.08193674518415,215.67430349227843,155.69614373576408
0.0599999999999999,2.169319411756843,-0.7905751270003459,0.0944577177902436,-0.0994761189369429,0.1149963203194201,0.0413756969577751,-0.0085690334021828,0.0072628315653443,0.0699295749528248,0.997488201404892,-0.0144055701579608,-0.0867909315863647,10.861433961273908,-0.0923037472146089,-0.0631372663396103,0.9812614396175212,10.976224164260104,-0.0140124424136357,0.4093430288462339,1163.187615753374,1163.3167510319329,1165.611246846446,1185.6848953182748,-251.46015935647492,1025.310694809787,-22.94119808125289,127.85818252118592,155.69263077671815
0.0625,2.324932263967761,-0.947542368084882,0.043973308151535,-0.0936218520264824,0.1123468451380029,0.0420900690375833,-0.0086631096650281,0.0074142194056592,0.0700089871761378,0.9974806962112692,-0.0201803233144898,-0.0815829481403957,10.857136612929354,-0.0920907330880186,-0.0629903408185687,0.9838336712950424,10.976045607078188,-0.0141602127303214,0.4118087584592857,1162.594842958161,1166.262018100409,1165.2539634373238,1185.899090261616,-190.17916274742657,1273.2087708016923,-247.21949431395817,38.902742232630736,155.6891777064682
0.065,2.382954787383173,-1.0818687170387615,-0.0507783328412254,-0.0867759249193758,0.109183324135392,0.0433865553398607,-0.0087555391657235,0.0075529298686361,0.0700832968926165,0.997473629486142,-0.0256042835548372,-0.0765155511962855,10.852493386318702,-0.0918557542034024,-0.0628149381434678,0.986391397012454,10.975869508924673,-0.014306801793053,0.4142793451272796,1162.2367199396367,1169.6827948859411,1164.375149374876,1185.879409029438,-76.35889405978553,1491.4065615292188,-432.32843769601413,-42.285367857994025,155.68579956792252
0.0675,2.3258388753670367,-1.2169932506870271,-0.2294030500698198,-0.0784648451396059,0.1056425800864627,0.0443681820196601,-0.0088562846117031,0.0076745407855478,0.0701525376915556,0.9974669450480396,-0.030564610028629,-0.0718589076469104,10.84754734257896,-0.0915912862303744,-0.062632693608085,0.9889373881194324,10.975695486767057,-0.0144518922906853,0.4167537563216198,1162.213048487862,1173.7190509080551,1163.0923212488435,1185.687663422326,65.9922577793622,1387.5583253881348,-450.44720639029913,-72.59625731676344,155.68183547747492
0.07,2.180071538118212,-1.3144205899163814,-0.4248512710213561,-0.072266910191543,0.1029436130837071,0.0443768170019282,-0.0089668815935824,0.0077795808646056,0.0702154239663994,0.9974607149888804,-0.0350426946045619,-0.0676870514799079,10.84233911537638,-0.0912989104163288,-0.0624488217661382,0.9914748181898432,10.975523714669595,-0.014595017860202,0.4192317435751001,1162.5666812285335,1176.620586512882,1162.1229133429247,1185.516427742854,210.62088069820717,993.4139648356468,-309.906924088819,-32.16077156330363,155.67860870468868
0.0724999999999999,1.9586981699414368,-1.4027621502547627,-0.6433940466095923,-0.0672250419809454,0.1000570514231239,0.0435144294036534,-0.0090909016604621,0.0078713117082073,0.070274768819549,0.9974546862465296,-0.0390807743493239,-0.0641077582406888,10.83690561633658,-0.0909868898867604,-0.0622719912138598,0.9940057992761144,10.97535470087022,-0.0147358128692468,0.4217129489335874,1163.2661528913532,1178.6861207322331,1161.5427866283997,1185.5268595645096,319.7788144022531,658.5582649325273,-141.49192372133282,62.64848368505239,155.67546339139787
0.0749999999999999,1.7003264308403896,-1.4841553961396123,-0.8541738605901937,-0.0631182919583933,0.0967920229615806,0.0416522789077262,-0.0092278134848449,0.0079531734132772,0.0703339308849274,0.9974486087531048,-0.0427172712843558,-0.0611313452635233,10.831280716342592,-0.0906636874693223,-0.0621030037501592,0.9965322269517086,10.975188761562572,-0.0148740789621793,0.4241985171594933,1164.165575300545,1179.9133778375447,1161.415453724318,1185.8296701612794,377.3307226724679,284.7714346879909,65.21767361546148,215.13040163836172,155.67238679958757
0.0774999999999999,1.4268431371107744,-1.5536122335917086,-1.0205012897134886,-0.0599171212933534,0.0929483723441069,0.0386167387879979,-0.0093704954004676,0.0080270027336274,0.0703925351733848,0.997442572584946,-0.0459451439739964,-0.0586178261750144,10.82549628918552,-0.0903333149428531,-0.0619305607269522,0.9990560552824896,10.975026049793955,-0.0150110878539791,0.426690839953699,1165.1528065047155,1180.1099779056733,1161.8688749964767,1186.6025115727011,410.25354656508136,-120.04410001518396,313.75184577400404,454.3542906132184,155.66939410066843
0.08,1.1107971918759283,-1.619164812280864,-1.1326955723838987,-0.0566315400035,0.0878308097977884,0.0345367933656186,-0.009500142519537,0.0080922075094569,0.0704438519355881,0.9974372354745816,-0.0486872831334452,-0.0561674025717348,10.819583826869456,-0.0899923403390417,-0.0617213952098326,1.0015799928937847,10.974866124006619,-0.0151463475383075,0.4291911653070255,1166.2168430333704,1179.3131573374687,1162.984212953188,1188.1014416143455,340.19446201000363,-418.7870748297879,473.65230582631693,626.2739030207734,155.665900000815
0.0825,0.8732113281727785,-1.6607930689822636,-1.1383612078651717,-0.0541808504867349,0.0833790914014522,0.0313088485485623,-0.0096077142110287,0.0081501374786897,0.0704858787512101,0.9974328080811564,-0.0509227537279763,-0.0535796216217446,10.813575551563405,-0.0896425017584124,-0.0614605201043782,1.0041039474430675,10.974707679886446,-0.015278996612603,0.4316986996571616,1166.8537788147655,1178.0160425315244,1164.2371365256083,1189.7338810878052,177.0608425862518,-578.3529121209534,522.5373599134849,681.9131483414816,155.6630680500252
0.085,0.6788926834107812,-1.699530644179474,-1.046140894175473,-0.0523599782547628,0.0791575931004857,0.0283155604034204,-0.0096917514865058,0.0082075960506665,0.0705220486076275,0.997429002882842,-0.0527596914164874,-0.050800452623183,10.807506485779413,-0.0892974225570285,-0.0611464053443509,1.00662494000995,10.974550279019635,-0.0154096261847851,0.4342138776138874,1167.1021472463017,1176.421392776864,1165.5968997527555,1191.5110073560527,4.925997785812792,-680.6148647660387,571.2006157895297,729.1980775992664,155.66031598360803
0.0875,0.5151066011460957,-1.7625022256179623,-0.8241144101259585,-0.0510251401399837,0.074759494198412,0.0248204514874138,-0.0097515551392807,0.0082709311112207,0.0705562132519155,0.9974255041026568,-0.0542989882084549,-0.0477829427789583,10.80141590437241,-0.0889693083304655,-0.0607789814812862,1.009139243583636,10.974393436496952,-0.015538634899071,0.4367371503116432,1166.8784088036944,1174.612968207694,1167.093139604556,1193.3798714758016,-170.79595841078148,-587.7800030103128,496.50104327647654,573.4753649808692,155.65710047143324
0.0899999999999999,0.4483256954854448,-1.841100512041164,-0.5549642171637253,-0.0504406147083311,0.0714607510950126,0.0220686679490223,-0.0097869920920335,0.0083418692644402,0.070586788555438,0.9974224146911111,-0.0555465083761695,-0.0444887325592586,10.795348367473627,-0.088659930199359,-0.0603607346062489,1.0116433524097692,10.974237004939596,-0.0156655001800622,0.4392689976194402,1166.2481674542476,1173.4824927618124,1168.0794049691378,1194.3783841809573,-338.76216727753734,-326.16684683030206,320.86301916215297,218.1576556102304,155.65448814820815
0.0924999999999999,0.4606536613241649,-1.9489337122418324,-0.2233385431855091,-0.0500386512329379,0.0677315866742372,0.0201223159137332,-0.0097976949382434,0.0084204166961924,0.0706142388268981,0.9974197105355777,-0.0564744731633102,-0.0408692797611726,10.789354613670191,-0.0883671430998521,-0.0598934046719301,1.01413392419378,10.97408034340694,-0.0157902878061331,0.4418106451219002,1165.184597967307,1172.9821339735427,1168.6974547003667,1194.4706597538527,-487.75962016356925,-79.74303491214407,185.60147653820405,-136.03485614044064,155.65193808405297
0.095,0.535807182821106,-2.070822171859146,0.1281052495204082,-0.0494702380989977,0.0630056803928774,0.0195436041182845,-0.0097911555023762,0.0084984136183254,0.0706376866273365,0.9974174501674312,-0.0568968253004342,-0.0370504728008681,10.783491517351807,-0.0880727168038207,-0.0593957834331575,1.0166082322189118,10.973923077480299,-0.0159129342699671,0.4443611775105675,1163.80936935343,1173.0837775872517,1169.0074123518289,1193.698209900255,-604.9860608909961,180.97854076968343,66.1780231658667,-500.77693674293135,155.64943300477094
0.0975,0.6735537142585701,-2.190650164810192,0.4536250899334214,-0.0483178932781789,0.0571258464942233,0.0206600043546781,-0.0097782653125263,0.0085684937228968,0.0706565996420075,0.9974156293251776,-0.056655999934819,-0.0332248690590071,10.777822345708852,-0.0877601296335843,-0.0588931440290126,1.019063719489668,10.973764881438472,-0.0160328937810156,0.4469185901830814,1162.159667662852,1173.887026677391,1169.0283448161963,1191.966775070138,-749.4135902153622,482.626831150264,-20.045894306394967,-904.7547325871155,155.64697305279253
0.1,0.8857196453123202,-2.3154320838937954,0.7506155555860218,-0.0458812418281543,0.0496477238668722,0.023406210773068,-0.0097726752943579,0.0086239727400346,0.0706717044220187,0.997414124320818,-0.0556197641110494,-0.0296402987294063,10.772415990828163,-0.0874146327491308,-0.0584156931581739,1.0214983593181206,10.973605133539476,-0.0161493826351955,0.4494797275138557,1160.0623014023531,1175.496911743003,1168.907182880297,1189.1744362373195,-750.1589674592643,658.8692692407216,-37.2805120264729,-1055.3693106097844,155.64406138170727
0.1025,1.0821183107309151,-2.402896058876239,0.8821923928373834,-0.0429211739956869,0.0435907268682202,0.0267322894749884,-0.0097821446679472,0.0086628196830451,0.0706812820416195,0.9974130025687424,-0.0537542304951166,-0.02640942611704,10.767345753004268,-0.0870300821027876,-0.0579806559005016,1.0239110056145486,10.973444722983318,-0.0162629794445577,0.4520441600087783,1158.4088728255556,1177.1813730235947,1168.841942256064,1186.6899285170891,-590.1091555351297,688.6922738093302,11.90347389019737,-913.5325470344033,155.6416603754735
0.1049999999999999,1.2825408134408962,-2.483045690122302,0.8671020757140931,-0.0393937097982944,0.0380509285932747,0.0307664438936577,-0.0098123586691435,0.0086857042428915,0.0706854003787153,0.9974122039502356,-0.0510865766242272,-0.0235986296621306,10.762687717668566,-0.0866062779631344,-0.0575992722543892,1.0263008644444656,10.973285320640096,-0.0163753571272002,0.4546128187570322,1157.1117556246775,1178.9403731120497,1168.9667002497479,1184.6067735021475,-433.4339323949288,726.1576618277571,113.88939544790468,-722.3247450662725,155.6392766703129
0.1074999999999999,1.5227094477922736,-2.5831204557904286,0.6844518178956238,-0.0350574050994501,0.0318081530511946,0.035489428103994,-0.0098599465126494,0.008693330775691,0.0706845185883342,0.9974117288119256,-0.0476370900752185,-0.0210846217571099,10.75851875151164,-0.0861425162623141,-0.0572628974818764,1.0286684830164239,10.973128245729708,-0.0164878191757092,0.457187282842388,1156.2417031635807,1180.8121613327335,1169.4113892333035,1183.0783047917575,-176.33748627968072,605.9799181565717,207.298035382564,-365.1617903891289,155.63642661583006
0.11,1.725615693264818,-2.670218056601533,0.4273368734945617,-0.0315233162935162,0.0264955950167374,0.0383082399542322,-0.0099185399858813,0.0086893449860075,0.0706806898800388,0.9974114690675528,-0.0434901584465116,-0.018683179765265,10.754914959075451,-0.0856444887883399,-0.0569547740313987,1.0310143370895417,10.972974187295048,-0.0166014315720338,0.4597686847221492,1156.230068193279,1181.9702727028323,1170.0031904266607,1182.7809645502018,156.67260523086935,344.49336915677094,262.22937949978564,66.10710447230298,155.63405376667967
0.1125,1.9343662074486063,-2.746012520314575,0.1293403478624125,-0.0279147897942637,0.0204253852630845,0.0385670409003577,-0.0099726888364737,0.0086755367610945,0.0706736192076965,0.9974115830425084,-0.0386826129226402,-0.0160270568399786,10.75194926988737,-0.0851130048155911,-0.0566390510223787,1.0333404552564216,10.972823927580356,-0.0167166252913043,0.4623591894389841,1157.0250661897353,1182.534628178517,1170.7225361308024,1183.4088403141193,445.0744712146384,112.7599084931261,288.61319721527224,353.72775006189806,155.6316761329328
0.115,2.143312610438827,-2.7917625775533415,-0.1436335568782492,-0.0239665479062301,0.0135890610177433,0.0365632423579522,-0.0100148499767962,0.0086547326421097,0.070666763827793,0.99741186874044,-0.0332900029681446,-0.0129292924037073,10.74969016883411,-0.0845527019417463,-0.0562948103234921,1.035648121932563,10.972676857602549,-0.0168332855990114,0.4649581421624488,1158.4554405493523,1182.534072245298,1171.446256412737,1184.5496033005113,699.2371626612105,-137.12590396944495,268.028812986631,491.6793789641356,155.62928979417592
0.1175,2.333691976272356,-2.774409673552336,-0.333548914076832,-0.0192993157311727,0.0064567091651927,0.0335119734012077,-0.0100392618631936,0.0086267114010016,0.0706594392716327,0.9974124256789788,-0.0273314176766265,-0.0092565980853668,10.748199021801392,-0.0839617141523354,-0.055905835535237,1.037939713714432,10.97253204289397,-0.0169495922012747,0.4675627678200127,1160.5212520030411,1181.84899865867,1172.0626801957355,1185.86723720894,1005.6103509243732,-438.5412236107194,226.85826999477328,503.03046867388827,155.626887936195
0.1199999999999999,2.5005079645748407,-2.6528491654809616,-0.4421763310138832,-0.0123388529558117,-0.0017739449590548,0.0305496267270949,-0.0100430165608867,0.0085926293371562,0.0706520794322136,0.997413236043208,-0.0208647539770224,-0.0049473204703179,10.74752818553504,-0.0833412624020534,-0.0554617480210225,1.040218039268446,10.972388873635552,-0.017064182255655,0.4701707885021069,1163.483492303974,1180.3413661272443,1172.5805477627107,1187.0647556438807,1124.9123610256922,-637.9966699973023,147.0461293345582,304.32366567979494,155.6239824194206
0.1224999999999999,2.553590475141229,-2.4529116647886675,-0.4447446784517554,-0.0051861237325865,-0.0083790421181952,0.029032824677127,-0.0100246164285742,0.0085575448389082,0.0706471976772028,0.997414089579288,-0.0140383405121866,2.3178748979696406e-05,10.747719135784166,-0.082700705292792,-0.0549546561568969,1.0424859974905476,10.972247243103515,-0.0171773345343278,0.4727826609914625,1166.1458138081698,1178.6590153086836,1172.7979108424083,1187.3888555373387,1060.5987817405085,-714.9274334006343,44.84690218914689,-62.64247648000486,155.62153882479723
0.125,2.48557943429344,-2.139777034231983,-0.3863499504120876,0.0027968891528141,-0.0146086589722944,0.0283445003182116,-0.009986010011956,0.0085283932680489,0.0706495797012416,0.9974145663805644,-0.0070505133168735,0.0055962452881713,10.748800668917296,-0.0820536551209116,-0.0543837194478241,1.0447464011799437,10.972106740854864,-0.017289483208209,0.4753990063000935,1168.7864862126767,1176.7667289602412,1172.8047822736567,1186.7515432614807,1030.480138624579,-751.623073749169,-24.472175842220143,-425.3390387590112,155.61906975106055
0.1275,2.31207299112154,-1.7321717509761683,-0.3015475977742151,0.0105168809748864,-0.0201157749174071,0.0280522263401721,-0.0099295472367009,0.0085125674677782,0.0706635053931862,0.9974142768226352,-0.0001152846458706,0.0116948893302429,10.750786954506472,-0.0814143508539767,-0.0537495229717802,1.047002374811068,10.97196705140305,-0.0174009034366861,0.4780211456369272,1171.2982145012927,1174.9008999399375,1172.6755499631972,1185.2621603435439,963.5010088657501,-691.7298175557784,-69.81102953909607,-781.2291797808023,155.61657865915825
0.13,2.0347836209968166,-1.2218753232725748,-0.2075792023872935,0.0165847170174052,-0.0243438137239316,0.0279909913288566,-0.0098568995000346,0.0085140049671531,0.0706931535190718,0.9974128759742809,0.006623453042234,0.0182422434805979,10.753675434458167,-0.0807894250470671,-0.0530524395620217,1.0492580221306647,10.971827454899037,-0.0175118186970891,0.4806501016497114,1173.6039912570054,1173.3080798724625,1172.4557271259612,1182.8453973625767,969.364481157253,-589.1759311257823,-95.52189383725808,-1217.3979044709984,155.6140609061016
0.1325,1.6388312262627347,-0.5204122553016368,-0.1025743614377914,0.0211566880361725,-0.0274799338526593,0.0280657677546336,-0.0097701433359677,0.0085306529082336,0.0707361181685086,0.9974105308283848,0.0131430855202126,0.0251385264397663,10.75744523330464,-0.0801722780904004,-0.0522963130368292,1.051518741090942,10.971687384062532,-0.0176216921044662,0.4832849249894858,1176.1450369070787,1171.9550202843088,1172.1979404940107,1179.1751708211889,900.136670145229,-386.27502868785047,-79.15161310506838,-1413.3723166757122,155.61101001828732
0.135,1.2994169930431458,0.1078806567355422,-0.0278576382819497,0.0232634674470007,-0.0282409825047271,0.0281589931256537,-0.0096729994650791,0.0085570526473381,0.0707902264645343,0.9974074055832376,0.0194877771609266,0.0322378864638018,10.7620568806814,-0.0795494578050985,-0.0514897822626651,1.0537907442193557,10.971545856829975,-0.01772925262348,0.4859237450921417,1178.1046746077316,1171.3767047290232,1172.0599690604358,1175.778535779198,756.3039875395126,-124.1789814293496,-30.23794286814333,-1349.921431530537,155.60844489402703
0.1375,0.9839526471621582,0.7392500451284162,0.0319904867025942,0.0246369810089524,-0.0271004302106512,0.0282540476464074,-0.0095731231076195,0.0085846977296279,0.0708504383715101,0.997403855131863,0.02575756808805,0.0393026947826425,10.767452641959304,-0.0789017935694601,-0.0506514805217756,1.0560806332620503,10.97140320863046,-0.0178335183549619,0.4885652172265045,1179.9265568447763,1171.334125377162,1172.0467507796702,1172.425563663536,770.3529376155977,69.75704792066603,18.39155606271559,-1384.2755292860136,155.60585963917896
0.14,0.6425459548298357,1.4499493947644275,0.0884302644076198,0.0261467950836146,-0.0236093197768209,0.0283358416258891,-0.0094745012406216,0.0086082938104875,0.0709106953099025,0.9974003149509914,0.0319876830506174,0.0461774047072158,10.773557087691811,-0.0782169773276618,-0.0497926461543273,1.0583949936539063,10.97126087791285,-0.0179344218598864,0.4912094912142584,1181.9564392958096,1171.7254899686263,1172.1519268407494,1168.857158132768,716.6573761020111,183.93562463802465,45.58349487087976,-1191.6610373590163,155.6027389956572
0.1425,0.3814389880888784,1.9686000538799495,0.1240009530293441,0.0272693222087235,-0.0187761551270632,0.0283805474547939,-0.0093804690449345,0.0086238892228828,0.0709668908756878,0.9973970791493008,0.038186863295031,0.0527215279217396,10.780278385143603,-0.0774866253330036,-0.0489230376113612,1.0607399036653746,10.971120327699811,-0.0180324880680495,0.4938574547689348,1183.5098437252866,1172.2538035003522,1172.2746682540246,1166.467258476741,592.5472936695796,219.4809914791232,33.17861568143614,-814.2085633863226,155.60012713699757
0.1449999999999999,0.128573627693642,2.3789000743234703,0.1468373257057565,0.0277553660131826,-0.0120344255616911,0.0285823365317457,-0.009294572397107,0.0086298980953978,0.0710157427028151,0.9973943635842404,0.0443156231473287,0.0587946183813275,10.787510575520603,-0.0767085771267155,-0.0480525552983771,1.0631203094569768,10.970982118276313,-0.018127649560716,0.4965091770220417,1184.9191757641574,1172.822894926022,1172.3178199191564,1164.7861153158365,543.2095150938519,221.06595130949347,-14.77454092487285,-559.6965102769472,155.59750861807075
0.1474999999999999,-0.1309961525264402,2.689475815284273,0.1562780406604114,0.0276454124842927,-0.0044247821381824,0.0290477231371202,-0.0092193582879873,0.0086283804756469,0.0710566234602404,0.9973921748722572,0.0502631036494048,0.0642848197881162,10.79513619031518,-0.0758895553001551,-0.0471881077550642,1.0655396683750469,10.970846986368883,-0.0182205270578636,0.499165660648501,1186.2258913007558,1173.3591332568997,1172.2007955494003,1163.6687759253564,506.44868576723593,207.74705873877772,-103.95757702040092,-334.6424450554875,155.59488864721493
0.1499999999999999,-0.4166212215979673,2.890990471068866,0.1459863342796733,0.0273803092940297,0.0030612143846301,0.0297484389138679,-0.009154179579926,0.0086225889975947,0.0710898009375122,0.9973904754563228,0.0559042830667741,0.0691544717478498,10.80302821159225,-0.0750393722011203,-0.0463294827531884,1.0680003357584082,10.97071609580416,-0.018312142596087,0.5018299255530322,1187.4514191929936,1173.861630219716,1171.7980320340544,1163.112903090559,532.8609290377694,231.0292304797256,-253.83662518152028,-156.7628470163525,155.5922722237966
0.1524999999999999,-0.809169929550642,3.0432349471462707,0.1107582696412095,0.0268642408583423,0.0113963987968455,0.030382027570446,-0.0091046965893613,0.0086121707084752,0.0711205636046329,0.997388839568804,0.0611919518595701,0.0732273067648647,10.811054309252771,-0.0741621812150582,-0.0454898731954197,1.0705032938341783,10.970588938672035,-0.0184026505508587,0.504501192741409,1188.8901959459447,1174.5142794092983,1170.9316124234927,1162.8849616902746,527.2119275655764,264.738469089252,-375.6968320923985,-41.86172374734266,155.58914396831474
0.1549999999999999,-1.1815612766692996,3.126149561667804,0.0662520687552011,0.0255441768786392,0.0179979654799425,0.0305701944297419,-0.0090761442409708,0.0085980132583615,0.0711537803111387,0.9973868647880504,0.0660618079061251,0.0763441779507014,10.81908008078108,-0.0732650571650546,-0.0446817890816404,1.0730483107767543,10.97046413617048,-0.0184911593278582,0.5071772211253645,1190.0874788308215,1175.1853225651623,1169.9195478735924,1162.9035944718223,473.5714588624883,309.19812853194315,-441.3580532351257,19.36396682476696,155.58655236971427
0.1575,-1.5878822379990631,3.1915092730286307,0.0122501591927775,0.0226466651922612,0.0243007376665077,0.0305169598088409,-0.0090704700959562,0.0085820665931519,0.0711911591190943,0.9973843959729568,0.0704401352763566,0.0784271025742526,10.82697186822301,-0.0723568598686466,-0.0439113960958896,1.0756342087693989,10.97034142046642,-0.0185773000524217,0.5098575592943281,1191.2580532402571,1176.060270051958,1168.724822157317,1162.9817815243985,486.9434775181157,429.0307812539591,-526.0868630708042,23.763355572145866,155.58398390436997
0.16,-2.0837673858977874,3.259949026885712,-0.0581259425480623,0.0172366854456492,0.0321760621477301,0.030264613146298,-0.0090838081806238,0.0085654540020911,0.0712289076597675,0.9973817278516972,0.07428764384236,0.0795335054835115,10.834599071241737,-0.0714436027533568,-0.0431735660688177,1.0782591106988029,10.970221513069331,-0.018660134989491,0.5125429393962585,1192.522196218412,1177.330476471432,1167.2891135582383,1163.022411249683,416.0476639333861,483.5906680080366,-494.6469788428199,-4.185908707540872,155.58093725015615
0.1625,-2.478872900502419,3.2984467214977724,-0.1196367316563221,0.0114345087080464,0.0396265785525846,0.02991066870884,-0.0091125490832489,0.0085558218225504,0.0712653818235226,0.9973789407021384,0.0774341472102761,0.0797338075360684,10.841841118157836,-0.0705456552746163,-0.0424626271094525,1.0809185774688244,10.970105556598188,-0.0187393910144072,0.5152341817108447,1193.338291559924,1178.478223391998,1166.2515872631027,1162.9608519808608,245.9393879593788,440.4872417520433,-351.6430771278007,-49.913785486205555,155.5784344118393
0.165,-2.8294748272739016,3.291997253442348,-0.1846422053807069,0.0049280257115302,0.0479922086877018,0.0293896403427997,-0.0091518411787227,0.0085615240284274,0.0712997289916677,0.9973760642868305,0.0797050554621426,0.0791360771268827,10.84858866372324,-0.0696847699957668,-0.0417700609338471,1.0836064341536356,10.969994180892408,-0.0188147415551,0.5179328202993424,1193.7518931582088,1179.5329126801923,1165.5308981725996,1162.772842322252,79.16143711399846,376.95499637402423,-223.7914892702063,-95.41085444138835,155.57597673674078
0.1675,-3.1272449699624345,3.228760690009992,-0.2548727213770973,-0.0020608319897765,0.0565235538587798,0.028725978857869,-0.0091958263488708,0.0085889746775214,0.0713319651193656,0.9973730938364096,0.0809772245996533,0.0778771554133438,10.854745319313947,-0.0688780336738645,-0.0410852266523265,1.0863151341220532,10.969887523831668,-0.0188864872607017,0.520641739718206,1193.734098745494,1180.3629983738683,1165.132629816752,1162.4837977086538,-123.76356394474884,255.30759408893553,-82.33237536019253,-130.21662974474555,155.57356235582475
0.17,-3.3421063617369726,3.0822567696640366,-0.3365177627841082,-0.0100338123405645,0.0646962104116657,0.027965711246958,-0.0092387270331458,0.0086423638280805,0.071364192299784,0.9973698946724848,0.0811825203599396,0.0760981094506227,10.860229442773134,-0.0681370195908367,-0.0403974736466465,1.0890360357642144,10.969785001330887,-0.0189558870451389,0.5233635813390253,1193.1330753384852,1180.809450650637,1165.1192362957986,1162.1217591735283,-397.3030454520991,110.44654340648766,66.18316245139789,-148.44878321182463,155.5712073214512
0.1725,-3.480405196791067,2.8042456439171426,-0.4559791834068617,-0.020837193169743,0.0739868047721086,0.027188177868968,-0.0092785161904088,0.0087287096799618,0.0714017527171677,0.9973660401927464,0.0801913209747494,0.0738716996634716,10.864977140291884,-0.0674789993569234,-0.0397032149011325,1.0917591527062251,10.969685469304999,-0.0190242327776853,0.5260994854942783,1191.7475835182336,1180.9152310909008,1165.4635456290089,1161.7415537925947,-604.589115806811,-5.542098598380102,167.56124137395983,-100.86983358751232,155.56845921759268
0.175,-3.4860207985412126,2.492354696510311,-0.5776827836414685,-0.0302215526217349,0.0811354394403375,0.0267070753156771,-0.009316578216586,0.0088493036124888,0.0714471129233661,0.99736132555621,0.0779938018342551,0.0711991656391932,10.868939054154012,-0.0669076997282519,-0.0390074767494009,1.0944753285858675,10.969587154157654,-0.0190914383563673,0.5288491577006184,1190.1101297594512,1180.7817401576451,1165.9570425026684,1161.6174100055907,-727.3586386530985,-46.35282289195879,217.80403004086213,27.24560489455156,155.56624096691496
0.1774999999999999,-3.3815909514621354,2.1152704202352446,-0.7185904432779434,-0.0391272216491101,0.0871329578639857,0.0259976498208239,-0.0093518115069369,0.0090030100812621,0.0715005865499101,0.9973557438738604,0.0746361477906084,0.068142223273151,10.87207828836096,-0.066419545157605,-0.0383106516231377,1.0971773995167775,10.969488386175229,-0.0191569616929618,0.531611542830555,1188.110790324968,1180.6834669764407,1166.5525657792132,1161.8777818170674,-834.353414978845,7.862802693580343,242.7779980198932,188.69388199805232,155.56410558906668
0.1799999999999999,-3.199772988018682,1.7059120799419596,-0.8624544305661213,-0.0471627538162709,0.0919160318799431,0.0246295781862046,-0.0093906535043656,0.009182262267124,0.0715585687097282,0.9973495521694156,0.0702895108836184,0.0645996350363696,10.87436916160397,-0.0659965478423514,-0.0376313639159187,1.0998607893041614,10.96938839259376,-0.0192192993486278,0.5343830873437871,1185.9383626845568,1180.821054171113,1167.1709324927679,1162.5608794155808,-878.817731115577,144.3868071490213,246.57659078688968,385.1725769917717,155.56204511187255
0.1824999999999999,-2.94737888980236,1.2890902202013717,-0.9837958250353096,-0.0538930460790139,0.0952094887781544,0.0222677896457211,-0.0094408136733966,0.0093773567830226,0.0716180037268127,0.9973429780536036,0.0651672761088565,0.0604463530399136,10.875793864902688,-0.0656153170652001,-0.0369916174716178,1.102524125663387,10.969286151462809,-0.0192771131369236,0.5371585909784382,1183.7167016693902,1181.405401012186,1167.7854487331476,1163.8036447020263,-950.622889715486,363.3907645864834,271.76729209882046,667.1418503856324,155.56008220323474
0.1849999999999999,-2.5864117856316198,0.8193347354845,-1.0667635725758027,-0.0610121801486363,0.0974630856910527,0.0185793774657227,-0.0095099161731041,0.0095759070320753,0.0716750195963084,0.9973363372217776,0.0595378160396675,0.0555616075278937,10.876338766651068,-0.0652460326227114,-0.0364137738176204,1.1051694030377643,10.969181799408211,-0.0193307482093563,0.5399347524049835,1181.1852482359795,1182.6380079940454,1168.529768953262,1165.8965886675091,-882.0649222277544,512.7327613084158,280.0056625745581,845.8435888071554,155.55784853450635
0.1875,-2.244708973421155,0.4753004813231858,-1.0622790615195896,-0.0667421871196722,0.0981894436463492,0.0150963831236427,-0.0095980760976268,0.0097668122468539,0.0717250802658868,0.9973300526409292,0.0536500634640074,0.0499945605701562,10.875991005409444,-0.064860535452317,-0.0359030839042201,1.1078014532774476,10.969076611345168,-0.0193812432478487,0.542710882802796,1179.3063770582514,1183.969064818728,1169.1854770460204,1168.032862646062,-682.6532163136557,536.0724639981522,276.27690309764125,895.248994528628,155.55609500673788
0.19,-1.8624806848321656,0.194029011822652,-0.9689032497358712,-0.0723015741571073,0.0983471428680714,0.0116368818813717,-0.0097050474771483,0.0099436821701069,0.0717688618656988,0.997324132686525,0.0476508699786165,0.0438099502896184,10.874738509669342,-0.0644418417599932,-0.0354618327541195,1.1104259570148756,10.968970895005471,-0.0194293284625941,0.545486444104115,1177.7719821544113,1185.3183703140362,1169.91115346875,1170.3728336401523,-583.6294333549171,518.8136860956542,338.2999240682236,1019.5629521210312,155.55446073420393
0.1925,-1.3652733913193988,-0.0708234217795357,-0.760691873863288,-0.0780263793366806,0.0982968413541992,0.0078254658839321,-0.0098285476416855,0.0101043855879574,0.0718070087465183,0.9973185697113136,0.0415966987477713,0.0371243724709122,10.872567931816596,-0.0639830751790146,-0.0350860613450168,1.113048582482198,10.96886532331798,-0.0194757535699857,0.5482625629905971,1176.3882298914768,1186.5631332492064,1170.8769766663615,1173.1306774066672,-432.76004007116126,347.69767679745166,368.9642966080552,962.6206398762398,155.5526456070648
0.195,-0.9362005756709676,-0.236387076854325,-0.5270142900253594,-0.0813924539489961,0.0979103862468602,0.0052496473692693,-0.0099684392467933,0.010250622522863,0.0718405844757612,0.9973132708418976,0.0354584415510676,0.0300125573742117,10.869464731946566,-0.0634876014970998,-0.0347747822406532,1.1156737263049032,10.968761706729689,-0.0195217560170581,0.5510419667049887,1175.6081819540555,1187.0568586980235,1171.7559749517904,1175.1859368395335,-249.3065479383856,60.42703476659875,364.4775893609673,735.8437155758104,155.55126038697233
0.1975,-0.5249262872704791,-0.3528244852870935,-0.2723436399112351,-0.0826620716015776,0.0970047973909229,0.0042070761690378,-0.0101233465229286,0.0103844171113055,0.0718694122301546,0.9973082454354008,0.0292044819352494,0.0225739736081789,10.865412388631349,-0.0629608227572855,-0.0345233168454258,1.1183045046837483,10.96866107390056,-0.0195674884666972,0.5538264756531713,1175.141697151785,1186.8652684230394,1172.6993646131664,1176.8098959845463,-153.94898516315135,-180.52948853637628,386.4835100419892,566.0334195923947,155.55001398060256
0.2,-0.1546893105058599,-0.4357987498075656,-0.0389818601354519,-0.0821659997431433,0.0957576277603715,0.0046403928966702,-0.0102936414675915,0.0105081518965273,0.0718938492267811,0.997303445380782,0.022798216538583,0.0148653735247126,10.86039452156768,-0.0624108013400836,-0.0343299660735096,1.1209420975376807,10.968563303006976,-0.0196121479873541,0.5566151422114957,1174.8384370282397,1186.1542112553416,1173.6883925020004,1178.0161039374955,-111.47459527983293,-369.92225457865936,405.16871671816233,387.5380850543021,155.54888743426386
0.2025,0.1480181702159136,-0.4908517752414623,0.1273314227519766,-0.0803731309508347,0.0944613866537133,0.0059265524370803,-0.0104709244250318,0.0106208844485093,0.0719107288183053,0.997299197471424,0.0162951681846568,0.0071230368853476,10.854395441815022,-0.0618380095430975,-0.0341736553704274,1.1235866862689547,10.968469065874952,-0.0196552580982402,0.5594088993879335,1174.5843241753855,1185.015657150146,1174.7252081967572,1178.7475864098178,-137.02804139315947,-531.0738716654664,463.6646094164458,239.0104214909568,155.54791095196762
0.205,0.4411755920837858,-0.5452703982342025,0.2163310916437578,-0.0782650803937665,0.0930692651781483,0.007851679300573,-0.0106465364249935,0.0107212678235031,0.0719186758390242,0.9972957082320896,0.0097696738715797,-0.0004211246547727,10.847405116270147,-0.061243224123027,-0.0340319432183025,1.1262361778515735,10.968380013960216,-0.0196973857800655,0.5622109641679623,1174.153296821274,1183.4988418970142,1176.0067155490826,1179.2111560449503,-196.20123791542008,-531.4404064640707,469.9761613186179,124.828509610188,155.54691953447815
0.2075,0.6529918402143041,-0.596549736766596,0.1908206930687325,-0.0772889288304071,0.0918985408662408,0.0097125734711782,-0.0108105804530646,0.010807077080954,0.0719155501983919,0.9972932654129116,0.0033268128206598,-0.0075189938678886,10.839422008999284,-0.0606258124647118,-0.0338792811223688,1.1288863697909317,10.968297616165914,-0.0197387325153233,0.5650233726058415,1173.6033179858086,1182.3584551178255,1177.0750890033503,1179.3717289578688,-259.0478954274216,-382.98471490197875,413.14140914342,37.11260379332106,155.5462484790893
0.2099999999999999,0.8681348178291589,-0.6701923370222762,0.0744381992300526,-0.0769939787478308,0.0906610174237954,0.011280240490429,-0.0109574188553474,0.0108764406225416,0.0719006737132787,0.9972920049966916,-0.0029320282247066,-0.0140246151736378,10.83045633879818,-0.0599869301488528,-0.0336992037507404,1.1315307884442032,10.968222112663375,-0.019779889978242,0.5678470806691723,1172.8580573441368,1181.5839183225044,1178.0724225947995,1179.3967190639169,-342.5193745917129,-222.55683072307977,395.7704483530069,-18.482980994758776,155.54574397705565
0.2124999999999999,1.153190230452953,-0.7980321580306599,-0.1278247618569381,-0.0760836525845611,0.0890758629345623,0.0117471556831835,-0.0110834529945018,0.0109257570537925,0.0718734254580845,0.9972920570143972,-0.0088617933767691,-0.0198484535753843,10.82053144735916,-0.0593237324186298,-0.0334801930667697,1.1341617375804451,10.968152772608018,-0.0198203327790735,0.570681616918143,1171.89072111285,1181.2456709642104,1179.0539412451153,1179.2793140528947,-330.50831286031973,-15.804010732790616,300.1360382545042,-79.25266058705341,155.54533728589803
0.2149999999999999,1.4067405204749903,-0.9422275440026646,-0.3054174248703176,-0.0737189514042384,0.0876093481244186,0.0105326177914589,-0.0111933048776083,0.0109569396713791,0.0718359498337963,0.9972931983428132,-0.0144406529516483,-0.025079643941483,10.809686084073448,-0.0586462520718956,-0.0332286129576478,1.1367696948891912,10.968088226200672,-0.019859344998162,0.5735255521562583,1171.2055157798352,1181.5048982688404,1179.5731027860722,1179.0004557609816,-203.89384916738877,210.9622094224958,118.5537426319114,-168.89539588669308,155.545168293795
0.2174999999999999,1.6490686811211734,-1.1223861442571184,-0.4433596246539926,-0.0696841560553025,0.0858888892261233,0.0082021094392695,-0.0112893536958457,0.0109734798547798,0.0717912786740723,0.9972951506370245,-0.01967115485889,-0.0297639000009078,10.797973374795832,-0.0579662902645835,-0.0329461446983394,1.1393451419845646,10.968027427121228,-0.0198964452504847,0.5763776494258169,1170.8712518670131,1182.3004820113229,1179.6467099582749,1178.4348370734615,-52.10964051889272,391.7626832880156,-57.770854370482944,-283.74185190300494,155.5451806538086
0.22,1.8583897099315247,-1.3214031147116498,-0.5249203423996691,-0.0650384798049597,0.0836863123519563,0.0057860920401611,-0.0113728633844374,0.0109815092739793,0.0717447658729624,0.9972974534498356,-0.0246072495582821,-0.0339253416112547,10.78546040224368,-0.0572997448074688,-0.0326320806682951,1.1418787655348217,10.967969414126165,-0.0199321198961376,0.5792384640067624,1170.9449675772407,1183.4637116852805,1179.2842485142198,1177.5817465014663,133.06000276052134,522.5358432303888,-250.99657535765775,-406.6890612291896,155.54534711956435
0.2225,2.005161164326135,-1.518686078895457,-0.5305624380650439,-0.0600410794003953,0.0804814890959438,0.0037414152477238,-0.011441776845669,0.0109858882720074,0.0716997155692938,0.997299845388017,-0.0292708389282275,-0.0375219314612435,10.772226184012789,-0.0566569609728969,-0.0322793479111592,1.1443624116121855,10.967913726129343,-0.0199667682777813,0.5821093627902625,1171.5365518808155,1184.9131612274748,1178.3917270814864,1176.4013917673155,354.50957014754715,651.460032668046,-492.5529634587288,-565.5741848318935,155.54570408623235
0.225,2.0875061487155695,-1.713360393437742,-0.4589229521435037,-0.0536803318371956,0.0752995622602869,0.0017629142108319,-0.011496115908062,0.010997165243803,0.0716618891302974,0.997301800249242,-0.0338120162543914,-0.0405508660474684,10.758359884475938,-0.0560595855356283,-0.0318853255186847,1.1467884064971772,10.967858300402652,-0.0200003493209908,0.5849899536878636,1172.7175154279785,1186.7210118486207,1176.821483696926,1174.753875577307,474.4808730275959,633.4940688114324,-626.451851104411,-606.7859371831668,155.5463589686543
0.2275,2.067599395002276,-1.8129781242816665,-0.3495421527596818,-0.04812345430714,0.0701977123794281,0.0005998139037065,-0.0115367207270662,0.0110236556334316,0.0716350566229705,0.9973029506423096,-0.0383407843964528,-0.043030112559753,10.743956566453498,-0.0555222342758775,-0.0314507768428711,1.149151054602207,10.967800845464463,-0.0200318759068776,0.5878781135917788,1173.9089562459535,1188.080631571532,1175.2594678259643,1173.3674620813997,465.01346716941,472.3698407483876,-626.7735058744614,-508.2476233911616,155.54709823690743
0.23,1.9515628289370717,-1.8262158539244673,-0.2125592426197899,-0.0422904481511398,0.0645667576431263,-2.2660027476529444e-05,-0.0115663676339809,0.011074414554479,0.0716249423667826,0.9973027578515448,-0.0429945561716085,-0.0450172633513171,10.729113482426047,-0.0550599797515322,-0.0309815697805639,1.1514466162930332,10.967739065533616,-0.020060923843983,0.5907720563984779,1175.0425827638255,1189.0828610523627,1173.6876161675539,1172.2126374603513,404.1700582496102,322.8072154423441,-591.1754061020468,-391.847904351334,155.5480442603712
0.2325,1.76245762138012,-1.7652622883437978,-0.0716027786293726,-0.0367878179008035,0.0587173334424416,-0.0002332286432513,-0.0115885259879582,0.0111491290774254,0.0716321102794398,0.9973011444375564,-0.0477236551498887,-0.0465944015100088,10.713925133958412,-0.0546652958925493,-0.0304879489571772,1.1536745861412467,10.967672487155872,-0.0200874425862135,0.5936709285048491,1175.9298065372016,1189.6946676487437,1172.3035907954543,1171.408222559643,258.8708223675892,144.6611369744913,-469.95368974607993,-216.7763367214318,155.5491662629684
0.235,1.508746539430064,-1.633308267611306,0.0527296980761185,-0.0325788781597211,0.0534557122727475,5.469252720060697e-06,-0.0116057321765282,0.011245753059055,0.0716563201836934,0.997298120216337,-0.0524533416840329,-0.0478219871576478,10.698479709295318,-0.0543262280413567,-0.0299789050684429,1.1558369400194053,10.96760187187942,-0.0201113854487948,0.5965751218122903,1176.3369368756635,1189.8061667372351,1171.3378477188235,1171.128755776744,43.866232012669535,-56.76357079773874,-301.50751488831673,-5.96447755683584,155.5505061307749
0.2375,1.1722901107858408,-1.4432058609863108,0.1591541839584683,-0.0290797152597792,0.0490838643515177,0.0007738378922063,-0.0116258893507164,0.0113530798523642,0.0716943478723586,0.9972939448796404,-0.0569361007890312,-0.0488834027605983,10.682854648440872,-0.0540110164095662,-0.029477856173861,1.157938390440426,10.967528557594875,-0.0201322481135398,0.5994828803920126,1176.1491376972651,1189.4108497947548,1170.7960532210127,1171.3784001718589,-181.04364996897945,-219.26614387503025,-97.10055617983971,164.16672057189393,155.55237326025195
0.2399999999999999,0.896367888600363,-1.3031834470789672,0.1995031310998676,-0.0270149041485068,0.0469802029746958,0.0017772133615527,-0.0116565788723739,0.0114621867197119,0.0717406127450378,0.9972890259108832,-0.0609868949084799,-0.0499457843498984,10.667113877196853,-0.0536941902788774,-0.0290073303236971,1.1599854053075522,10.967454460889432,-0.0201495152644377,0.6023923861988622,1175.4317186258183,1188.70983601786,1170.8523449379243,1171.9495893796036,-384.4765490034224,-342.20607123647983,101.31640518616268,256.54378895756173,155.55414999948658
0.2424999999999999,0.6557608160847002,-1.2249231842747124,0.1826912680835069,-0.0253801538212437,0.0456299571924681,0.0030040015270116,-0.0117041402154711,0.011565371922888,0.0717907433603566,0.9972836876339672,-0.0644564359160253,-0.0511437458874476,10.651304934263607,-0.0533545611449154,-0.0285863745560695,1.161985974739378,10.967381270594387,-0.0201634749503507,0.6053017498648221,1174.226754952248,1187.6998194385726,1171.3026352469435,1172.6611191166467,-607.488988756449,-507.4859985797498,233.32149643183564,285.2323698803955,155.5561592011424
0.2449999999999999,0.4366533909245745,-1.221385192587141,0.1027070902889333,-0.0238809735268288,0.0436532498260411,0.0042578374460121,-0.0117666660608304,0.0116569284397228,0.0718402912892665,0.9972783329394522,-0.0672346897179727,-0.0524303903258065,10.635457450661985,-0.052975978447215,-0.0282139174304464,1.163949334174606,10.967310945018703,-0.0201750526537511,0.6082117123772721,1172.3942736820363,1186.1724060249612,1172.0189524200835,1173.3757512290056,-708.8869844509638,-612.6543990039403,243.19920415796307,203.3614609447339,155.55883928565547
0.2474999999999999,0.331447098645414,-1.2865044001257087,0.0012861662378017,-0.0233437880173274,0.0409764522699089,0.0046468891911777,-0.0118438788933261,0.0117350282758813,0.0718856283752989,0.9972732433553586,-0.0693028315403157,-0.0537866550832023,10.619582460881212,-0.0525532991424597,-0.0278910097615967,1.1658844173451983,10.967244917848006,-0.0201853069799086,0.6111231516343497,1170.6823200299932,1184.636547443553,1172.518631267733,1173.6779264213703,-695.2054883081468,-669.3999168492604,125.1744231559768,38.664391931888495,155.5612948745301
0.25,0.3260304913355544,-1.4001760397163936,-0.110269586800444,-0.0236720098459192,0.0371685224360339,0.0040758181028361,-0.011935593547891,0.011799306633489,0.0719239960434308,0.997268623209914,-0.0706764856129349,-0.0551939654193775,10.60367325938482,-0.0520862419995004,-0.0276176486730118,1.167799605485176,10.967183122208194,-0.0201941026234201,0.6140357005045732,1168.9182462404956,1182.8254064407147,1172.644824535863,1173.569073188665,-699.3909674223681,-764.4092009366879,-41.00781091683526,-108.7648902796899,155.56397597837915
0.2525,0.408930190849183,-1.5386971495402169,-0.2115257886923757,-0.0241059473113432,0.032998828667393,0.0029922850858816,-0.0120402452734912,0.0118546682464686,0.0719544810221712,0.9972645008071837,-0.0714809597286691,-0.0565995262028561,10.587707774934216,-0.0515876451754686,-0.0273886891679392,1.1697018959289442,10.96712556891013,-0.0202016008907293,0.6169492654140851,1167.1853651928811,1180.8145014388695,1172.3135922131491,1173.1341019699719,-675.277550909322,-832.6380477432385,-258.0274238229774,-228.8039872421448,155.5668381660898
0.255,0.5868371240854685,-1.6979248744445496,-0.2864028813951096,-0.0237844924581537,0.0290099578142144,0.0018216803318591,-0.0121526259116143,0.0119076795568841,0.0719767003090007,0.9972608922713572,-0.0718690173586968,-0.057875921539141,10.571652177619733,-0.0510742715488346,-0.02718930879734,1.1715968572263145,10.96707180563256,-0.0202079746390084,0.6198639181503997,1165.5418584859488,1178.6622162019987,1171.3546874167484,1172.4250532524543,-695.3513914561421,-937.0167842796029,-559.1613420073368,-330.05859023610327,155.569908960467
0.2575,0.8743461627170708,-1.9079437136380113,-0.3402298056421234,-0.02209082288291,0.0245246757625911,0.0006004471302311,-0.0122685018284163,0.0119590373106225,0.0719926747221873,0.9972576986109059,-0.0718670639538271,-0.058932801338412,10.555465268639322,-0.0505496500009603,-0.0270069868081513,1.1734885142942963,10.96702054006494,-0.0202133591236141,0.6227792873352159,1163.7086082356007,1176.1294175174714,1169.5177855031125,1171.4838090187911,-644.6568413224207,-880.8473350475643,-765.2847590662526,-326.97826316798427,155.57381929258605
0.26,1.1409049038603956,-2.0916369669144808,-0.3569492901481721,-0.0195457347639536,0.0205760528524931,-0.0002647843946964,-0.0123782264332327,0.01200338060942,0.0720002333295351,0.997255260496394,-0.0713625843883259,-0.0595825502933787,10.539104123010455,-0.0500020140421904,-0.0268171338708387,1.1753791432276168,10.966971026240278,-0.0202172886566942,0.625695798133806,1162.3185742793369,1174.257979526761,1167.5282636214172,1170.7901619366144,-519.8527502323482,-650.0748614324033,-850.3502565945374,-231.69798060712287,155.57725278193507
0.2625,1.3928426835580812,-2.263879913126537,-0.349158200423278,-0.0158703631964023,0.0157852463803978,-0.0010691537051178,-0.0124719440717139,0.0120339674923061,0.0719974863376667,0.9972539202111746,-0.0702098041137787,-0.0596459061438979,10.52252962283348,-0.0494160645552396,-0.0265941380844664,1.177267928131588,10.966923671323318,-0.0202204182570424,0.6286163182724916,1161.109344484439,1172.8790432103094,1165.2660342201395,1170.3253191157555,-478.84297135483354,-445.4548200577842,-1002.581027232326,-147.44628263861145,155.58085263914984
0.265,1.637324690532822,-2.4202735525116608,-0.3168119294792798,-0.0104299691670959,0.0086230783941831,-0.0020411593576953,-0.0125394372625026,0.0120443052793811,0.0719832123843564,0.9972539765422171,-0.0682637515545823,-0.0589474336856247,10.50571208298259,-0.0487767041751212,-0.0263107546151038,1.1791505022356732,10.966878235560944,-0.020222740169055,0.6315435414760957,1159.9243594225627,1172.030705426472,1162.5153584852555,1170.0529305234213,-382.8820721659664,-155.35479566824492,-974.4006506336509,-68.8723491306518,155.58534830701365
0.2675,1.773892099615172,-2.480945429785899,-0.2743178613079184,-0.0055773764032409,0.001670499101288,-0.0027922469522344,-0.0125749259586774,0.0120318047319362,0.0719601066638939,0.9972553434662674,-0.0654637234696115,-0.0574119694089982,10.488636185732087,-0.0480785037344328,-0.0259486905392343,1.181018427987802,10.9668349845597,-0.0202251867052866,0.634480882276876,1159.194934123609,1172.102269231968,1160.3940309669715,1169.9809573701025,-234.17914840183565,191.93822046559015,-773.9550050540394,-33.50407648449615,155.5892299652198
0.27,1.8324672277784468,-2.4484391262977727,-0.2203832936604159,-0.0008846090356867,-0.0054101454975656,-0.0033997065906401,-0.0125728188228989,0.0119975908393469,0.0719292072313784,0.9972580075455064,-0.0618241317344704,-0.0549738420570992,10.47130537207536,-0.0473244283946337,-0.0254892822442813,1.18286006788961,10.96679490071624,-0.0202282932096004,0.6374309577290473,1158.7534636805535,1172.9903965288,1158.6455834599851,1169.8854101409988,-129.8552734189342,469.848788691797,-619.2727429096516,-74.06041571398411,155.59323955301227
0.2725,1.827707897587023,-2.337333500299763,-0.1607903130068545,0.0037662997756646,-0.0119356542925348,-0.0039857074974504,-0.0125357895144788,0.0119500464121642,0.0718937441843313,0.997261599571955,-0.0575203112716883,-0.0517404106596749,10.4537445608876,-0.0465356596196324,-0.0249320690671166,1.184660860875281,10.966758232632,-0.0202323723038201,0.6403948826886053,1158.5456577565144,1174.4515131754272,1157.2976672524233,1169.6106552915323,-31.630372444851645,668.6768164069684,-435.2873872457162,-183.96776200456756,155.59734662331698
0.275,1.753209337039444,-2.144695049430553,-0.1001147589160512,0.0085881187878999,-0.0174603540579821,-0.0044152289353314,-0.0124700394683658,0.0118921544289116,0.0718543879491529,0.9972659527212206,-0.0526189304546623,-0.0479082236070819,10.43600123956714,-0.0457206846572384,-0.0242866234308792,1.1864061241770871,10.966725001238231,-0.0202370974646501,0.6433725532029757,1158.5953118183293,1176.3337806108348,1156.4691465237568,1168.965571330976,72.59716870566983,824.688050099939,-251.0294382120262,-385.6114355231508,155.60156168149018
0.2775,1.5998504248222418,-1.84484684165413,-0.0358042450396706,0.0142261943014284,-0.0229506033344048,-0.0043422158104093,-0.0123843802793849,0.0118281309626049,0.0718146134663961,0.997270651212461,-0.0472159203869914,-0.0437328276250344,10.41814483654152,-0.044890711203363,-0.0235693911199356,1.1880819577223232,10.966694089487708,-0.0202417552291849,0.6463627380995373,1158.9086436000428,1178.5749534259269,1156.0425200613631,1167.6825981139168,149.48541866519903,732.0565253668058,-74.80411076303417,-545.5864314902096,155.6067332994361
0.28,1.439632481544601,-1.5559863773223228,0.0043705503651673,0.0180303527387368,-0.0267236657350106,-0.003902505352003,-0.0122914635414868,0.0117569178036919,0.0717775189849957,0.9972753213473574,-0.0413055626629387,-0.0395598984801306,10.400263540428284,-0.0440442564968844,-0.0228083162474742,1.189677112418425,10.966664363583089,-0.0202454462644634,0.6493622739651917,1159.3427389116553,1179.9940632376688,1156.0951259699416,1166.2376391735247,198.12054995691125,374.5068717200408,84.95106293826206,-621.9125817551679,155.61113018116347
0.2825,1.277620022284938,-1.2435253081079087,0.0291626300236971,0.0204917466005954,-0.0297095097633274,-0.0033613553603248,-0.0121997096848787,0.0116780070354664,0.0717447908828689,0.997279739120334,-0.0348921250987114,-0.0356451837823778,10.382459838610995,-0.0431795216179173,-0.0220229610739032,1.1911839584589672,10.966635308479258,-0.0202472051613863,0.6523683590400859,1159.8992463498273,1180.447487784527,1156.4672753760544,1164.5730352051407,232.24243838521923,-34.58959262543428,184.51437067046737,-667.8325955423128,155.6156098965742
0.285,1.1344704208314995,-0.9197170620891976,0.0463315685379376,0.0222185262809196,-0.0320907623492508,-0.0029986035615889,-0.0121160066797676,0.0115926819550308,0.071718697106925,0.9972836402128292,-0.0280208939062443,-0.0322065518789112,10.364844326154389,-0.0422979523545306,-0.0212305624413428,1.1925988680945656,10.96660668184327,-0.0202467186335585,0.6553782007857855,1160.5039511035811,1179.8211152745416,1157.017697823294,1162.8984761958131,238.94197537488236,-537.4815281958486,241.2591995529508,-634.5806920776334,155.62015351677823
0.2875,1.023799554891333,-0.587628945811504,0.0663556781013478,0.0238519661114553,-0.0338175135179166,-0.0030709557960096,-0.0120436358204613,0.0115035974559925,0.0717000602287508,0.9972868955216306,-0.0207682369301554,-0.0293780930690731,10.34752861570582,-0.0414030215053089,-0.0204411675710706,1.1939225590843527,10.966577615845411,-0.020242870652401,0.6583873361899065,1161.0939562267015,1177.7600801435478,1157.6735713738192,1161.4001317447528,238.0204997674379,-1211.7541359782658,284.12916796797,-590.2905657134003,155.62476954449738
0.2899999999999999,0.9204774636924846,-0.1837958141278799,0.1092504037617374,0.0264869822868101,-0.034933658548548,-0.0034760877989654,-0.0119854422532022,0.0114153881108844,0.0716893365980483,0.9972893865726544,-0.0132597053956079,-0.0272724090830036,10.33061818606082,-0.0405024535914323,-0.0196647800799916,1.1951595926919123,10.966548246988276,-0.0202357743568671,0.6613933698804633,1161.6940536024183,1173.7623445946504,1158.4383436631335,1159.9470233672464,190.69900670842995,-1661.2758370213385,256.15006152598005,-472.202862327554,155.63038789671876
0.2924999999999999,0.8454460196331329,0.154323389759861,0.1666116866147706,0.0293498115403976,-0.0349418837025716,-0.0037360255219361,-0.0119361401723621,0.0113314739401266,0.071683332501494,0.9972913682796236,-0.0055942955217962,-0.0258230427725875,10.314204912546723,-0.0395994754817712,-0.0188934367715405,1.1963182326482455,10.96651995475154,-0.020225900218167,0.6643970985003793,1162.0474512602439,1169.4537009584412,1158.954321681449,1159.039117433115,99.92431166074304,-1827.7676995744043,159.1547391186849,-311.63389551757035,155.6351334467264
0.2949999999999999,0.7711066408983962,0.4911070715388323,0.2437436630282286,0.0323836488475916,-0.0342990469562687,-0.0036509607524683,-0.0118889180344114,0.0112537258894525,0.0716812830354492,0.9972929595889904,0.0021534707709926,-0.0249219019825089,10.298360964533956,-0.0386933416788489,-0.0181164080439485,1.197409251763752,10.966492384419247,-0.0202123686127791,0.6673977612751034,1162.1936751607223,1164.6235060967783,1159.2341173587272,1158.3888538896583,5.333106074385792,-2125.8321836065966,48.91362717007719,-247.80681066786175,155.63994337479204
0.2974999999999999,0.6898285840154784,0.8889829954423853,0.3453380447337369,0.0352245346665093,-0.0327985322815249,-0.003087004846915,-0.0118393008685936,0.0111855684886641,0.0716839522500992,0.9972941268866328,0.0098638792216676,-0.0244922210329734,10.28313460922779,-0.0377874490320562,-0.0173287064846162,1.1984446525856887,10.966464421051894,-0.0201942648429101,0.6703947037904263,1162.0741167906156,1158.8245400404082,1159.1988898172995,1157.8000833797755,-101.27401240674764,-2054.63491698856,-83.61637931193393,-200.78946105754747,155.6457892125245
0.2999999999999999,0.6464056813027756,1.207696306534194,0.4228066146117449,0.0363306867008149,-0.0305577363634846,-0.0022257988810914,-0.0117873920523497,0.0111376926458769,0.0716941755726483,0.9972945487152974,0.0172527796526524,-0.0245251146069849,10.268548263735841,-0.0369035514866477,-0.0165351238263299,1.1994362996491474,10.966435906549515,-0.0201721221262748,0.673389391286023,1161.6873050986885,1154.3503315118355,1158.8160354621675,1157.3849065843708,-224.00084800792663,-1661.9122119046083,-230.75271274014972,-171.89142892834738,155.65072266093463
0.3024999999999999,0.6505477316686787,1.4983880593183114,0.4728572300780011,0.0365571906132749,-0.0271344179852375,-0.000859101269902,-0.0117355959804448,0.0111145397810377,0.0717131310653054,0.9972940635956768,0.0241527615101957,-0.0250505144008614,10.254594681531668,-0.0360492800821958,-0.0157469229180959,1.2003962005843587,10.966406482219684,-0.0201458388608631,0.6763821777950346,1160.954112550576,1150.5149789808852,1158.0451262535987,1156.940626235134,-355.59849997212007,-1414.1375881149074,-372.2453548236441,-199.37275276720337,155.65572092042203
0.3049999999999999,0.699842300062902,1.7540372341391135,0.4865230779733738,0.0369380099075252,-0.023166152143863,0.0007878766258707,-0.0116850826783052,0.0111169869247571,0.0717410515722499,0.997292632961,0.0304645626029296,-0.0260614976666054,10.241236925048083,-0.0352242380135726,-0.0149724907646368,1.2013357179383835,10.966376133861756,-0.0201161427599202,0.6793745199389993,1159.909312598828,1147.2796435712607,1156.9548086880493,1156.3880428205348,-492.0550693105265,-1155.4678816061812,-509.89848037506766,-265.3810904116651,155.66077319317017
0.3074999999999999,0.791116337178727,1.9547930498758237,0.4458127413408426,0.0381180466430228,-0.01875279143433,0.002522651377405,-0.0116419255226147,0.011136804473624,0.0717743174703633,0.9972905346356864,0.0362622503466402,-0.0276477202510179,10.228408707956806,-0.0344080823458398,-0.0142327832500085,1.2022651381205438,10.966345858270053,-0.0200834136784483,0.6823659328296923,1158.4938372040235,1144.7376395728543,1155.4956338517231,1155.6137207830757,-694.7374881936861,-978.9454853467296,-721.3307437798442,-406.8837152556167,155.66589070310437
0.3099999999999999,0.9156383920678136,2.116105169499469,0.3317469031909686,0.0406436032825039,-0.0127873508358264,0.0044178746194323,-0.0116097514701056,0.0111663597805554,0.0718085779349762,0.997288121383502,0.0416087342932007,-0.0298340932970126,10.216018852671175,-0.033582801606719,-0.0135416344319915,1.203192751628681,10.966316705972332,-0.0200476285801243,0.685355609700427,1156.4356251578595,1142.384916144527,1153.34815496915,1154.3536242442567,-795.1080824112971,-762.5167812566808,-848.0587848714086,-519.1337912720878,155.67210696203335
0.3125,1.0035476280774187,2.1725524493058432,0.1896163971279568,0.0433497069592456,-0.0072874170213896,0.0056717519680834,-0.0115868185874861,0.0111978148951459,0.0718402263179395,0.997285759688555,0.0465798630134452,-0.0325260050135763,10.203955315245135,-0.0327304578717924,-0.0128985842998801,1.204124441247959,10.96628994653338,-0.020009778994961,0.6883449711979565,1154.518296791967,1140.9250556665709,1151.2553399273663,1153.0180518267152,-775.9500528001802,-496.0780290676207,-891.0225048351997,-584.8743951154114,155.67734951775455
0.315,1.045569709130712,2.1379044532973794,0.0178580468413768,0.0466892460270445,-0.0014801432387082,0.0062872361656117,-0.0115667025051415,0.0112267172802783,0.0718663492295262,0.9972837843028626,0.0511933817491202,-0.0355214858432875,10.192091328497808,-0.0318419330977223,-0.0122897628754672,1.2050629441447516,10.966267294212843,-0.0199712988379961,0.6913375657065066,1152.5558748938583,1139.9045259991892,1148.893042444974,1151.4292522686796,-827.9638286594029,-363.7950864779665,-1085.5109907197848,-736.4494227046628,155.6826560362412
0.3175,1.0230644885865259,1.989952304136472,-0.1896198623397307,0.0516147720791356,0.0055339440371742,0.0060523281373705,-0.0115443357257858,0.0112522439638298,0.0718861569097175,0.997282321691075,0.055398603972588,-0.0386376773333118,10.180291434351068,-0.0309184100681138,-0.0117023949946873,1.2060075676585462,10.96625034342832,-0.019933589979331,0.6943366443749067,1150.37847764867,1139.106080234181,1145.8277849737672,1149.335804713192,-735.0670978479222,-235.33225186351936,-1145.9144912713773,-778.3682408153246,155.68909653441534
0.32,0.9471359574322884,1.7881302481254095,-0.3368834821779022,0.0556218138490509,0.0110169779362218,0.005079424536854,-0.0115141725632204,0.011272974498871,0.0718961937427692,0.9972817026992026,0.0591666245576612,-0.0416800248097862,10.168416064727571,-0.0299605543325853,-0.0111216299546956,1.2069549131248687,10.966240110303668,-0.0198969005357517,0.6973443944772832,1148.8805394046187,1138.7278647398716,1143.1634699886172,1147.537411064603,-500.75907069422055,-112.66477344656768,-1064.1540044020066,-703.5185758192705,155.69452310322615
0.3225,0.8438668626371235,1.5321668953987055,-0.4286275669711546,0.0580341389329539,0.0153648088331626,0.0034553624284515,-0.0114716840619334,0.0112942578234721,0.0718974958652267,0.9972818441107512,0.0623422094458324,-0.044468088203439,10.15632874862882,-0.0289859980170619,-0.0105330999564881,1.207899193478536,10.966235883942607,-0.0198603648187791,0.700359801890354,1147.874682295199,1138.542756366948,1140.5070149517571,1145.8182118340956,-307.4270863021408,-60.95082116057705,-1041.0414042488346,-654.3368643421667,155.70001038429209
0.325,0.7549889064017515,1.2605332532616018,-0.4591763781812774,0.0587234476820981,0.0184535533053461,0.0015263597052455,-0.0114142775696181,0.0113209776407334,0.0718940530637117,0.9972824342763899,0.0647905064803221,-0.0468661510014191,10.143898758068044,-0.0280115837887204,-0.0099269261999016,1.20883355138838,10.966235996303473,-0.0198228112576839,0.7033815194491394,1147.3434039731083,1138.4231106340687,1137.958262967373,1144.265726742892,-100.36912213063252,-55.98212560034876,-969.8047280905021,-558.3651205563906,155.70554757042973
0.3275,0.7206638035118944,1.0060267789007415,-0.4096708981620452,0.0578719989713162,0.020185575290235,-0.0005647048162425,-0.0113411510531713,0.0113576192224507,0.0718896954037623,0.9972831582527064,0.0663959025025904,-0.0487801720466824,10.131004650264163,-0.0270531309997545,-0.0092977551618731,1.2097508103080838,10.966238809729612,-0.0197841754250902,0.7064088876750692,1147.3728366845455,1138.2628457389465,1135.6579913113048,1143.0263862313136,115.63469858479029,-106.40662447231068,-929.5104062739475,-449.9906146596909,155.71114479603276
0.33,0.7505587883222264,0.7536206013346957,-0.268863998205257,0.056780090209767,0.0211996408136886,-0.0029625809472505,-0.0112574297419188,0.0113999325520912,0.071883050825678,0.9972841018015172,0.0672234820007978,-0.0502518410082319,10.11753449369952,-0.0261058962560886,-0.0086564613058596,1.2106443900833872,10.966244052750344,-0.0197435609952829,0.7094397106405563,1147.9215774660322,1137.8910775117072,1133.3107109360033,1142.0157736695935,253.24900567388767,-177.7981292655111,-780.0385207443006,-282.8459186603593,155.71793114700904
0.3325,0.8025123887399344,0.595778067386122,-0.1078417247649767,0.0574491272242671,0.0216917239288095,-0.0041200575081694,-0.0111696603286689,0.0114466930379097,0.0718738469167571,0.997285220355256,0.0672883334164583,-0.0513542970262686,10.103390992380996,-0.025172083713873,-0.0080170809636385,1.211508133224694,10.966251269468385,-0.0197002595361171,0.7124719293740963,1148.6390817129152,1137.373855092619,1131.757798707583,1141.6121566380118,292.0806647111928,-248.86284785447944,-533.9824628555557,-75.96874096484491,155.72364498051004
0.335,0.8112858689129303,0.481952593475851,0.0539976850397485,0.0607874905481736,0.0225391456326697,-0.0034977638474477,-0.0110852784383823,0.0114976206416282,0.0718648249664947,0.9972862331786734,0.0665981401545122,-0.0521861034890919,10.088492096009555,-0.024255746095406,-0.0073957521634569,1.2123365077842803,10.966260078833075,-0.0196546259548958,0.7155041915341155,1149.381980789588,1136.6467632724348,1130.6407986217255,1141.6359299647695,263.76292116938174,-311.7966488455292,-381.14871374041246,63.70470585002289,155.72942047223813
0.3375,0.7304710948451479,0.3862722456216836,0.1822338837034223,0.0652754088272489,0.0238765755890261,-0.001720367807373,-0.011005700947491,0.0115495056949096,0.0718555982858767,0.997287185840311,0.065238979163766,-0.0527352383244121,10.072770548548393,-0.0233523280123741,-0.0067946344527605,1.21312472536578,10.966270875612734,-0.0196065638351508,0.7185362072059815,1149.957896318762,1135.8148718483912,1129.8520551388813,1141.930680167262,149.83921506427563,-328.06648925184135,-255.25344634406767,151.39715196737583,155.73524800712997
0.34,0.5069985695124021,0.2891368909391348,0.2450742680791728,0.069064796493717,0.0253004211017531,0.0003162090059046,-0.0109289967112177,0.0116026851895963,0.0718458706366584,0.9972881158561564,0.0632402380631754,-0.0529264154215113,10.056175759158865,-0.0224648180171336,-0.0062069616834134,1.2138680637809047,10.966284970641071,-0.0195570964504318,0.7215695722180832,1150.1311768649095,1135.0064308261756,1129.3645313900051,1142.3929157246064,-55.19957880906072,-305.04357911613596,-178.80623071596327,194.25827016548263,155.7411396350587
0.3425,0.0780666307105244,0.1503881409510016,0.2428562419397383,0.0717895422996332,0.0265737239618214,0.0022633419802038,-0.0108512795317346,0.0116600931211631,0.0718358017922961,0.9972890225393422,0.0605906751164926,-0.0526514958848603,10.03867302542652,-0.0216016635095527,-0.0056204870039044,1.214561717558806,10.966302539512998,-0.0195070665073638,0.7246061441873956,1149.6818984247168,1134.2896539528103,1128.9580239853015,1142.901971518089,-288.81103627472805,-191.99718205127263,-146.20548049110752,145.25808980115457,155.74828542768472
0.345,-0.382669881458212,0.0095791217966569,0.1930724264799627,0.0724974984706537,0.0272155971168909,0.0030824251570369,-0.0107714079618814,0.0117270859291284,0.0718277386807551,0.997289689789945,0.0572342361127856,-0.0518651627604322,10.020242451032573,-0.02077704008011,-0.0050289511512764,1.215200813223145,10.966322617271638,-0.0194566670266009,0.7276460359082612,1148.687121683536,1134.0464449159192,1128.6335039875496,1143.119206173612,-526.1115752820838,-6.064813781676998,-154.9510145580824,12.061007739794139,155.7543045885171
0.3475,-0.8923882028182593,-0.1571589186955995,0.1246440954546995,0.0713926525439205,0.0272807297043466,0.0028629139648896,-0.0106910038712068,0.0118001946441773,0.0718215608292832,0.9972901475565962,0.053292526177597,-0.0505984978461138,10.000874667007844,-0.019983573759345,-0.0044343264875668,1.2157811069760425,10.96634504706799,-0.0194062737700409,0.7306890612791687,1147.0513405483064,1134.259329883902,1128.183268912511,1142.9622765567883,-846.7250423776924,189.8869566381107,-248.51762778766877,-175.1967946414878,155.76039167582644
0.35,-1.4773230423133215,-0.3795173342731704,0.0537464675941756,0.0675605892689714,0.0266240482991761,0.0020453823310517,-0.0106075645766589,0.0118776593071247,0.0718183680926735,0.9972903611308807,0.0488622985256399,-0.0488078483117544,9.980572280938967,-0.01921660715737,-0.0038284115018529,1.216298870396042,10.966369213003468,-0.0193558415707187,0.7337350666412825,1144.4534964716474,1134.9958796991095,1127.3909158486113,1142.2432222004047,-1032.6492683573736,323.3240754381801,-338.76794782186494,-352.8661102962396,155.76777576295677
0.3524999999999999,-1.880830287506884,-0.575276669867842,0.0171886547540564,0.0623281255967496,0.0255574430684199,0.0014012586622985,-0.0105206017264275,0.0119573712597541,0.0718219545328739,0.9972900861935592,0.0440465155049174,-0.0465007986223799,9.959347401361917,-0.0184703375160465,-0.003208264042676,1.2167511406693252,10.966393994214817,-0.0193048687830498,0.7367828096831288,1141.8880942065196,1135.875950261093,1126.4894291734015,1141.1979460053071,-1070.8942539788604,358.66608605042893,-407.12031609478305,-496.2453441290614,155.77399603726775
0.3549999999999999,-2.1373946903852628,-0.7709965731331039,0.0057665817186601,0.0556865206957761,0.0240795862492285,0.001109258616865,-0.0104326878901724,0.0120325695604417,0.0718335158406319,0.9972892888847016,0.0390358678053882,-0.0437593265968333,9.937218706330288,-0.0177278181852807,-0.0025796865717222,1.217136037584422,10.966419035726615,-0.0192528090359437,0.739831576180695,1139.0990252017532,1136.789210129362,1125.3553142681371,1139.7619954797594,-1120.76323722108,330.5594586541244,-482.7491485704281,-619.6607328889053,155.7802860827472
0.3574999999999999,-2.24638098707116,-0.9572749150983698,0.0094508399460152,0.048634334947553,0.0222693594997372,0.0011858698490052,-0.0103477832753511,0.0120988635507387,0.0718537958814969,0.9972879263397672,0.0339704796204312,-0.0406963796954013,9.914211237527613,-0.0169779462037756,-0.0019519636100974,1.2174525862638628,10.966444684160487,-0.0191993474310581,0.7428812252900066,1136.284278020414,1137.5287475543637,1124.0756834305496,1138.0996423408626,-1092.3953713301207,211.6925829538557,-530.7847414984276,-691.0384097665424,155.78663402017688
0.3599999999999999,-2.173907037110974,-1.1178175114902,0.0224370066147277,0.0417540254544333,0.0197566524423528,0.0016510617378715,-0.0102709539811945,0.0121508647368373,0.0718814533140564,0.9972861086393662,0.0290060928444841,-0.0374532313319773,9.890353680900873,-0.0162075313525693,-0.0013377420189337,1.2177008531033167,10.96647180596364,-0.0191438528443634,0.7459307347920746,1133.6370483451024,1137.8476730441312,1122.7013905606452,1136.3068034309267,-1078.23531435124,7.4713633307055645,-606.0146412010903,-783.6208633597373,155.79305149258084
0.3624999999999999,-1.9056951859689757,-1.2602751456286168,0.042625573815552,0.0344585934730547,0.0155871680829772,0.0023799949649153,-0.0102071651796016,0.0121842284283206,0.0719153267453222,0.9972839236759176,0.0242750897454681,-0.0341728609773566,9.865677118011101,-0.0154061648656953,-0.0007496327002229,1.2178818063513817,10.966500667262572,-0.019085450661608,0.7489781386092005,1130.893101448658,1137.5661043710172,1121.045610224544,1134.181538024064,-906.5261283672489,-223.0110355786108,-597.5067359990584,-754.940641249231,155.80083205731216
0.3649999999999999,-1.5715766232844184,-1.3267888668101273,0.065733754005427,0.0296605386997209,0.0113826107836828,0.0027434894095586,-0.0101593639225971,0.0121991329817153,0.071954169030477,0.9972814321053834,0.0198206514878541,-0.0309565490667064,9.840214231337164,-0.0145743960810617,-0.0001947547999082,1.2179969651358367,10.966531498678712,-0.0190240130078486,0.7520225207345576,1129.1044177032663,1136.732617866238,1119.71385688065,1132.5321002246803,-596.4077539126714,-450.3719420948524,-518.5866295172668,-622.1958601837736,155.80738129065665
0.3674999999999999,-1.1855727684706188,-1.341428150663704,0.1048468710897404,0.0265194336691596,0.007294168121087,0.0025001984757893,-0.0101228285586262,0.012198893817717,0.07199537236229,0.9972788309533004,0.015632468555157,-0.0277545805023508,9.813997751936034,-0.0137193813153542,0.0003390102112231,1.2180480422576576,10.966565034077856,-0.0189597664035063,0.755064423128537,1127.9110626790944,1135.3142446605427,1118.4526770769576,1131.070558723145,-399.2789522105792,-736.7352534732157,-546.3072641856338,-600.6288408537324,155.8139969619913
0.3699999999999999,-0.7400470528384719,-1.3227966887708948,0.1789826108838019,0.0247609089589249,0.0034074069956797,0.0020298005637985,-0.0100936012519173,0.0121852667684043,0.0720372068528616,0.9972762654231374,0.0117274923485761,-0.0245400202110975,9.78705931579239,-0.0128448065253174,0.0008619333658086,1.21803660007477,10.966601002603111,-0.018893331769155,0.7581037881484379,1127.1080229422134,1133.048941598872,1116.9823205597215,1129.528956020412,-218.96381626697783,-905.3350706091795,-544.9453086648641,-538.1018363495964,155.822010295308
0.3724999999999999,-0.4331803282782764,-1.3010119560189848,0.2612946317348731,0.024756879727144,0.0010204915028232,0.0020109161614319,-0.0100687583592604,0.0121630423908666,0.0720762081337806,0.9972739594151404,0.0080590327433611,-0.0213057627162871,9.759430600211616,-0.0119620397540591,0.0013827478394448,1.2179635386018404,10.966638984555187,-0.0188256707778246,0.7611411342174255,1126.8162435977597,1130.787569307497,1115.7279505336335,1128.380049541397,-90.78710102576215,-960.3405759067293,-528.7153666608442,-445.21395018314206,155.82874810589547
0.375,-0.232930886784286,-1.29502266856241,0.351581252824291,0.0256046546831683,-0.0009948156212486,0.0027257196416671,-0.0100490092260764,0.0121390152624138,0.0721105998843195,0.9972719540857232,0.0045344922226793,-0.0181172058419638,9.73114396790357,-0.0110879374179037,0.0019021793414685,1.2178288168737714,10.966678345560856,-0.0187573210468903,0.7641761275727683,1126.6540874370846,1128.2472387193384,1114.3387437264175,1127.302886269496,-86.30461894822467,-1046.4695243389988,-594.3986684317217,-429.65187482636753,155.8355452387236
0.3775,-0.1314741255215275,-1.3072032969983851,0.4345296021121423,0.0266044498327388,-0.0032152639901399,0.0040853415753021,-0.010039362216357,0.0121147822553328,0.0721387963503092,0.9972702942290732,0.0011539743398134,-0.0151329371815012,9.702232600460173,-0.0102275146593439,0.0024100019061996,1.2176313313805416,10.966719262338124,-0.018689240797695,0.7672087071112086,1126.3847205030183,1125.555221685802,1112.7559571914749,1126.2317901672652,-176.02029325125824,-1091.5952932413338,-695.0516193909147,-438.79319872685267,155.84238892520304
0.38,-0.1381961307034191,-1.332256884621604,0.4948225977387807,0.0272400763249116,-0.006176598353981,0.0059130995036124,-0.0100373516253354,0.0120930529737272,0.0721579205912409,0.9972691769907016,-0.00209702801629,-0.0123660504057573,9.672732306837315,-0.0093872987999236,0.0029145836928275,1.217368442918138,10.966762773222712,-0.0186217895847673,0.770241025079795,1125.7739859708283,1122.7892622531317,1110.8634856294627,1125.108920275862,-376.7804977997454,-1200.3440805264731,-911.1977483448745,-519.3983061226841,155.84928508905278
0.3825,-0.2342445070258604,-1.3555800544916703,0.5346184968428223,0.02714018389815,-0.0106935974822985,0.0077285943206753,-0.010037478501423,0.0120748542079225,0.0721659357922433,0.9972687911998184,-0.0051997995820187,-0.0097754361641132,9.642682442063741,-0.0085692478221957,0.0034312812687047,1.2170359275332685,10.966809827396313,-0.0185550318828901,0.773275749501307,1124.5008180140198,1119.5535012831697,1108.1999684497505,1123.6347986366516,-557.1016119778501,-1144.7433080412327,-1034.5741182472002,-570.0786588269234,155.85761622926807
0.385,-0.3513192830312524,-1.3561408361811769,0.5430849926983328,0.0262507011307694,-0.0147635688529919,0.0084111852875432,-0.0100316466723353,0.0120594714791603,0.072161236693801,0.997269344453055,-0.008103057428648,-0.0072735736430421,9.61212688164011,-0.0077705563005745,0.0039809968547455,1.216628218202268,10.966860888402415,-0.0184883468190679,0.7763142771219863,1122.988477910939,1117.0655457129255,1105.6906150382267,1122.2585269817273,-678.8766889468656,-919.4629040770443,-1039.239378525689,-590.2780549564335,155.8646018325086
0.3875,-0.4625608896028942,-1.3330686742584037,0.5260706786027058,0.0245458971707143,-0.0184809662528112,0.0088217969088798,-0.0100111604758485,0.012042161943075,0.072145641609491,0.9972708527731032,-0.0106825561200136,-0.004768114619382,9.581114311838196,-0.0069781270979009,0.0045845125297012,1.216139020949072,10.96691564446713,-0.0184209793174822,0.7793570344273025,1121.1064345692855,1114.9561867627845,1103.003771557122,1120.6834083618696,-790.5381537068472,-761.8967697311283,-1076.141968276851,-668.9793496734177,155.87162811459712
0.39,-0.5414702207316067,-1.2960183196920527,0.4787450928463884,0.0223861233126081,-0.021803589594446,0.0098368990254084,-0.0099748344487244,0.0120182062910926,0.072123915039292,0.9972730426823004,-0.0128316033228126,-0.0023087796043225,9.549699150016554,-0.0061795772367388,0.0052432490912486,1.215562072292331,10.966972827112752,-0.0183520987463671,0.7824032879210103,1119.0357871424048,1113.25606186427,1100.3099051968427,1118.9136302333602,-841.9942258968596,-570.9627858661856,-1039.7254204711307,-758.9049967406473,155.87868531332688
0.3925,-0.5611255407761555,-1.2541326520648697,0.3758666262132527,0.0201660419209498,-0.0247280690693637,0.0117677732853476,-0.0099224676662394,0.0119859715438563,0.0720994935332713,0.9972756914898524,-0.0145119244828051,4.66468488042604e-05,9.517940443419288,-0.0053694624030904,0.0059555927444565,1.2148918728686684,10.96703139375867,-0.0182808090807053,0.7854522442941579,1116.8964634398012,1112.1013728334535,1097.8051444547664,1116.8888833781664,-918.3164469664908,-389.87438945887294,-1009.9843595448864,-945.3496615654321,155.88577650839153
0.395,-0.5084564555784469,-1.2137753903167208,0.1721858840259379,0.0177991173259436,-0.0277614135048067,0.014483967788045,-0.0098605649286041,0.0119446883474689,0.0720775161486409,0.997278376935307,-0.0157185291825597,0.002122066694314,9.485900249624434,-0.0045447408901569,0.0067026193024296,1.2141245179855236,10.967090182702565,-0.0182066926481128,0.7885017250463722,1114.4442049075724,1111.3066899169755,1095.2599833991183,1114.186881925533,-855.4910781066602,-213.744017607314,-829.122995083889,-1022.2334732399748,155.8943211186789
0.3975,-0.4065770275591653,-1.1957431084955363,-0.0581163187002059,0.0159206542270146,-0.0299843616007369,0.0162928289082591,-0.0097973531979248,0.0118903061886446,0.0720580010158969,0.9972810671633668,-0.0163966309977042,0.0037177218424981,9.45364044636668,-0.0036941966397995,0.0074597800173119,1.213258216069438,10.967148560956792,-0.0181292679580335,0.7915484652325018,1112.619008049268,1111.0326527454167,1093.6595294793467,1111.7777160119665,-662.5733400450366,-66.64223564375783,-514.7017623597088,-966.678867134623,155.90146798867988
0.4,-0.2632855469935431,-1.1933311267916409,-0.3162239164742896,0.0144548295761739,-0.0322463034482507,0.0164272823217126,-0.0097308677961104,0.0118259533661726,0.072040765749282,0.9972837518847816,-0.0166221937255928,0.0048484516609047,9.421220066866585,-0.0028217267481936,0.0082277293555675,1.2122931683545253,10.967206807433737,-0.018048124277347,0.7945912618942632,1111.1313382073472,1110.9734787387567,1092.6864745873197,1109.35348758986,-564.3787551583041,-26.195070519361227,-285.99772274401374,-1024.8971808316119,155.90863873436507
0.4025,-0.0802952199435327,-1.1943677106113997,-0.5936549965802596,0.0144862080286496,-0.035394578838037,0.0141062455538589,-0.0096639229415783,0.0117577936615335,0.0720279732667123,0.9972861658129372,-0.016541879747333,0.0054543144493168,9.38869330568438,-0.0019390073517997,0.0089955766852565,1.211231683067566,10.967265160784393,-0.0179634541399636,0.7976288534406973,1109.7971142734764,1110.90167739282,1092.2295408656269,1106.6532301078084,-417.4914883154084,-60.582991869432526,-66.91401450825646,-921.1347613676016,155.9172671910664
0.405,0.0529346279214098,-1.1822071595261832,-0.7526598348180644,0.0159898982584637,-0.038389402087316,0.0106033938323541,-0.0095987170618978,0.0116883657864417,0.0720188836290191,0.9972883041418122,-0.016241173001669,0.0054960075638961,9.356105850521665,-0.0010488178034864,0.009753258460885,1.2100778380087107,10.967322834977546,-0.0178749743004747,0.8006604472668392,1109.04388076577,1110.6705637794096,1092.3519045147784,1104.747813783022,-247.1744346197281,-160.70732119760564,116.0421029234384,-656.3457129457214,155.9244742347408
0.4075,0.1492552932960828,-1.1363512318717868,-0.8062070204518781,0.017637728318058,-0.0415614835542449,0.0067837087471964,-0.009538737274737,0.0116180548446455,0.0720132359074088,0.997290143865612,-0.0157736776292948,0.0049198847819424,9.323493257024952,-0.0001490579259575,0.0104874700107216,1.2088370528634396,10.96737942287995,-0.0177833021110749,0.803686253040014,1108.5612421003775,1110.098140786832,1092.809751380244,1103.3715015430798,-173.69841107301895,-301.82902858259666,202.6410624488106,-447.6890453633128,155.93169496736425
0.41,0.2211889518778671,-1.0507152820287327,-0.773972702231204,0.0186131534931218,-0.0449147426200915,0.0036065987605988,-0.0094885360078079,0.011542343022736,0.0720086958467771,0.9972918598026131,-0.0151096862670953,0.0036589886999301,9.290879363449983,0.000773477878347,0.0111821527930988,1.2075156022928633,10.967434849289134,-0.0176888936701984,0.8067046758789631,1108.175388710405,1109.1614186364964,1093.3651098270225,1102.5093685562051,-168.37469167262483,-471.4723300510737,199.0673805900768,-222.29511887580864,155.9389242892786
0.4125,0.2859511948008561,-0.9115336823823575,-0.6649447626793011,0.0186128784855704,-0.0482533782011286,0.0015924715475588,-0.0094469567307208,0.0114607689031543,0.0720027322191898,0.9972936479110256,-0.0142917262396735,0.0017685458280231,9.25827633577714,0.0017223770503024,0.0118366007150731,1.206119872802888,10.967489299884386,-0.0175917880682963,0.8097143543833696,1107.7193686420146,1107.7407791365767,1093.8050882831944,1102.2600259487008,-263.1917257732764,-735.8210365940971,113.21949788207338,0.8246761910413616,155.94616051316044
0.415,0.3817791387776967,-0.6928287831217194,-0.4939433051375442,0.0180156278744762,-0.0515749038670058,0.0004367772779438,-0.0094135352634201,0.011375439169642,0.0719940965451152,0.9972955771031878,-0.013411815004168,-0.0006980096519281,9.225685778889604,0.0026938353539414,0.0124499152545976,1.2046557948431382,10.967543467255128,-0.0174931288150792,0.8127153893023169,1106.8594300815387,1105.482313453526,1093.9312073164328,1102.5134919371603,-393.1455276650508,-910.5659627147454,-49.07496626829066,143.80718358011256,155.95484731844442
0.4174999999999999,0.4821849310877706,-0.4881361315244188,-0.352408592586221,0.0179824847979128,-0.0533862834742698,0.0002799151200998,-0.0093865117908706,0.0112884920696014,0.0719803949042827,0.9972978132133866,-0.0125594376516939,-0.0036569576790333,9.193099907245427,0.0036827354820373,0.0130255481370556,1.2031280276960983,10.96759927667526,-0.0173939053800523,0.8157087914729498,1105.7536410036892,1103.187949323003,1093.5597134518528,1102.9790618666011,-537.7419707502268,-979.8610741763341,-263.52290570885356,177.0475941257264,155.9620855697318
0.4199999999999999,0.5901965174323643,-0.2950925503179773,-0.2416268917379064,0.0192218616318714,-0.0540418579945823,0.0005920822937369,-0.0093596991572222,0.0112017678154279,0.0719600659543173,0.9973005080578232,-0.0118082638108428,-0.0069407806887173,9.16050374744368,0.0046839463067697,0.0135786312014998,1.2015391965910212,10.9676584105902,-0.0172941493701103,0.8186965854872492,1104.1707202277876,1100.5830080826445,1092.6135927878884,1103.3987299077892,-800.1618923457947,-1177.0712595831344,-545.192458103747,100.14773379093631,155.9693186364338
0.4224999999999999,0.7007377475782387,-0.1185567101193072,-0.1584561995027174,0.0216557671542367,-0.0536221344531525,0.0010172336440141,-0.0093296760439424,0.0111165033566752,0.0719344740129692,0.9973035832122232,-0.0112173094590778,-0.0104338182355718,9.127878675862794,0.0056920092217624,0.0141183993992422,1.1998896507024308,10.967721658835124,-0.0171937161999664,0.8216802709726652,1101.7528315419604,1097.3025930250872,1090.8337511613342,1103.479800535556,-954.1107443354113,-1195.251172687948,-745.5238530336367,-86.91001761872022,155.9779871556067
0.4249999999999999,0.7596076409730251,-0.0398979688715543,-0.1277533137647471,0.0240964947742592,-0.0525951921547947,0.0010372484443996,-0.0092902417184728,0.0110319872192189,0.0719059355183996,0.9973069398933424,-0.0107976943068589,-0.0139737785110457,9.09520507845036,0.0067055023416011,0.0146611428064763,1.1981771666749943,10.9677893509114,-0.0170921748651845,0.8246616731798122,1099.4001665061105,1094.6067522192047,1088.8859735227204,1102.9641798196956,-978.8002685193069,-1038.4754166318535,-850.1270971295971,-363.3416965354169,155.98519794373976
0.4274999999999999,0.7733420112825818,-0.0415943428212584,-0.1235237174767785,0.026682384612099,-0.0515462283971745,0.0006114164105221,-0.0092390060055702,0.010949855055451,0.0718792638194725,0.997310237426478,-0.0105976632722726,-0.0174683084180651,9.062466388920173,0.0077160693050387,0.015214943115257,1.1963973536026409,10.967861900108694,-0.0169901079141162,0.8276434117906213,1096.8588301993639,1092.110215941928,1086.5831156756863,1101.6630920528787,-1022.8527910508536,-955.0041576082086,-958.8363175394979,-658.2440748640232,155.99239098462343
0.4299999999999999,0.7509069058261023,-0.101765140286134,-0.1292318571976023,0.0290853042022568,-0.0509281176331786,-9.380871783477711e-06,-0.0091797572558982,0.0108692448672193,0.0718576356235297,0.9973132222335406,-0.0106173564982358,-0.0209425574113382,9.029651068985357,0.0087198293573534,0.0157732473156834,1.1945442314025068,10.967940161330196,-0.0168884805443435,0.8306269746774445,1094.2859025508562,1089.8317314311637,1084.091791935023,1099.6729594453755,-1014.5549691862007,-865.7071141925819,-1017.907997248266,-945.875886736666,155.9995661741365
0.4324999999999999,0.696490017038146,-0.2078992420909112,-0.1357870165436069,0.03105327748809,-0.0511835994020507,-0.0006789160554959,-0.0091136270460635,0.0107908101012368,0.0718434171678272,0.9973157077552418,-0.0108695287409139,-0.0243744191552699,8.996754448704062,0.0097098361956834,0.0163363868104742,1.1926108607467851,10.968023535120972,-0.0167873357535057,0.8336124521825415,1091.7860553534329,1087.7816803709652,1081.4935756894447,1096.9337126191956,-1072.7299637147544,-876.9087880224099,-1142.3735939970802,-1329.7210247726969,156.00671608708697
0.4349999999999999,0.6167548485332774,-0.3488234413234017,-0.1370009186427486,0.0327557985227606,-0.0527840126556223,-0.0012887905918248,-0.0090435494738773,0.0107182422662536,0.071840380810201,0.9973173564128192,-0.0114121378409978,-0.027774206552056,8.96378001877084,0.0106723195335532,0.0169007498424189,1.1905905129212089,10.968110803555472,-0.0166865386761802,0.8365979473294359,1088.9222527322825,1085.4471874910516,1078.3799239650375,1093.024354321512,-1035.0905594854785,-860.539137508612,-1127.4266575230731,-1488.9857084375294,156.01526193023216
0.4375,0.5553133522897004,-0.4526741055689336,-0.1307691664590137,0.0335995404937559,-0.0550272665648039,-0.0014635794847774,-0.0089715181377492,0.0106511585091725,0.0718467521416035,0.9973182815977206,-0.0122193540800784,-0.031141804201349,8.930738276985073,0.0116040855299548,0.0174641169426089,1.188477356383923,10.968201299786472,-0.0165859957627375,0.8395819753315746,1086.6106025560055,1083.478984683422,1075.8564424018296,1089.488784077008,-932.9915998902371,-817.7273555564163,-985.0338886474666,-1412.3418144853515,156.02235155060896
0.44,0.51319851267707,-0.5294786252187553,-0.1153412551753234,0.034233617825965,-0.0571412808341129,-0.0014554876981353,-0.0088974491115857,0.0105897304608103,0.0718606029915227,0.9973186214578438,-0.0132643028641617,-0.0344419447158714,8.897646247609748,0.0125021981370121,0.0180286177212239,1.186267174531439,10.968294231119549,-0.0164851133369818,0.842563771806121,1084.2572947328313,1081.3585507132696,1073.4547545218,1085.9626452490852,-970.6252516222313,-883.590379342194,-938.5221643981814,-1372.0865471333116,156.0294038167624
0.4425,0.4900005983846085,-0.5886850854298725,-0.0882724375584452,0.035215806105914,-0.0583837743865415,-0.0015617094442023,-0.0088268140789387,0.0105366517785415,0.0718825957523894,0.9973182492054956,-0.0145652090933154,-0.037737220833039,8.864526006345177,0.0133583312478921,0.0185826522853658,1.1839582218692875,10.968387872282676,-0.0163829971103964,0.8455399669089465,1081.7574762978943,1079.0610327867112,1071.1638315798386,1082.6283513413412,-1056.2599957305329,-959.6931331657281,-893.5274590749478,-1261.4792432336787,156.03642206574804
0.445,0.4867048735833388,-0.6388018032127094,-0.0390209293205142,0.0368440930016467,-0.0588347738783323,-0.001965817207119,-0.0087620255079138,0.0104918393197541,0.0719112685778863,0.997317247273889,-0.0160832387189807,-0.0410384753455767,8.831401550971645,0.0141725202388976,0.019120607909991,1.1815510157836122,10.9684811060021,-0.0162789203314184,0.8485070437573906,1078.9759947541786,1076.560085047441,1068.9871172264254,1079.6552490329168,-1295.165551288618,-1128.1307553797424,-942.3625494477155,-1218.9288076911896,156.04339588532457
0.4475,0.5051305950644621,-0.6918129013861095,0.0545915716489387,0.0387144144515327,-0.0595751406827059,-0.0027376210777788,-0.0087012700623554,0.010451883313825,0.0719436777172291,0.9973158779688368,-0.0177145980803371,-0.0442849220737105,8.798296475812942,0.014954437170224,0.0196455179523261,1.1790480177768567,10.968573845112028,-0.0161730327671491,0.8514639340122081,1075.2816485414512,1073.4203790098125,1066.4520188326,1076.5337073028854,-1399.3859560911449,-1153.0262399999162,-926.5302341603264,-1083.2915409838267,156.051709029527
0.45,0.5447808507590657,-0.7181257420287922,0.161274561270915,0.0393741715499933,-0.0611326698334987,-0.0033513808643171,-0.0086445871815146,0.0104075555732727,0.0719764514386635,0.997314479158132,-0.0192579165807561,-0.047454046096859,8.765231618114123,0.0157279207912232,0.0201543798013929,1.1764532519688227,10.968666623760146,-0.0160657810992004,0.8544104808326994,1071.9790649737229,1070.794953847441,1064.3544660556236,1074.2387913279977,-1329.595683724982,-1027.6574798374886,-846.2644841355988,-881.6455686261171,156.0585876830187
0.4525,0.6146060733765756,-0.7022671940540332,0.284731382604366,0.0391224253139888,-0.0642110758902705,-0.003331175750061,-0.00859205371367,0.0103498924421151,0.0720062979622751,0.9973133801916028,-0.0205217062332213,-0.0505208125401082,8.732224107502585,0.01651668232844,0.0206435875327562,1.1737717598821336,10.968759080009,-0.0159568776791476,0.8573459919944624,1068.6336701228263,1068.282091610625,1062.220696411922,1072.1254794597548,-1422.924760287286,-1062.9677655834703,-954.5065601229901,-920.4777674684002,156.0654124150021
0.455,0.7151247289198319,-0.6205995070119604,0.4224794206673391,0.0392135982697954,-0.0686902280729382,-0.0022402049489725,-0.0085427355742199,0.0102772277296404,0.0720314229447834,0.9973127332014886,-0.0214464366195235,-0.0534304598965204,8.699287163396377,0.0173279054346137,0.0211126119450819,1.1710091160849216,10.96884980646532,-0.0158454288229406,0.8602698182377536,1064.8644411722864,1065.480115019524,1059.5819332550088,1069.6364024906557,-1298.5327103219777,-989.6220098547464,-981.2735264184076,-921.1942964563597,156.073536398047
0.4575,0.7767921866099581,-0.5156499525536188,0.5036079191349033,0.0408339930517118,-0.0713867043867341,-0.0007029257651865,-0.0084971985064093,0.0101878262654848,0.0720512978236818,0.9973125868030984,-0.0219791143600159,-0.0561512789087586,8.66642901453713,0.0181688492470836,0.0215571026386215,1.1681706428031526,10.968938765819937,-0.015731345574984,0.8631829234549617,1062.1410065712164,1063.3339815613513,1057.31432877983,1067.519507977473,-964.9908921255235,-825.7385984885325,-914.7322036700637,-861.093831767811,156.08024932003715
0.46,0.7582561226855324,-0.4203127330148341,0.5243120193579269,0.0446070198255706,-0.071748473203918,0.0012577823094212,-0.0084558883793726,0.0100795215371155,0.0720644189349307,0.9973130660003084,-0.0220658413983852,-0.0586463242796501,8.633653547008093,0.0190474334347807,0.0219730774649613,1.1652606617999504,10.969026622310132,-0.0156144274042871,0.8660850881528201,1060.0394867116588,1061.3514220270813,1055.0082722366585,1065.3309333318164,-725.8140520779754,-774.1939527412336,-917.2524431838601,-880.988088352796,156.0869003325068
0.4625,0.6401551797721216,-0.3738866144209322,0.4830086541441178,0.0495398562893004,-0.0706345057815023,0.0034743021527469,-0.0084147756039381,0.0099557324736442,0.0720688656816888,0.9973143052462226,-0.0217498076009859,-0.0607923115778163,8.600962539136587,0.0199586904583802,0.022368333849477,1.1622819257732873,10.969114758615996,-0.0154945567303946,0.8689777305327727,1058.5119363108265,1059.463011797645,1052.7280665639107,1063.114567535709,-481.8421100367227,-742.7921738295473,-884.4620006635515,-876.875271189737,156.0934979128476
0.465,0.4017583114448459,-0.4144499547160095,0.3659485457611569,0.0541815458256131,-0.0689775371338438,0.0057273447478229,-0.0083696028587207,0.0098185053411717,0.072064169524984,0.997316350395908,-0.0210554174031189,-0.0624642934158331,8.568356742120805,0.0209002145709108,0.0227515362657874,1.1592351714556774,10.969204500594119,-0.0153724843867907,0.8718638575769857,1057.6302761614752,1057.6374611579336,1050.5859622333408,1060.946556975868,-276.0919679428296,-798.7459946904884,-879.1453145533061,-918.599332310304,156.10002822495665
0.4675,0.0422702785320817,-0.5528185134327358,0.1590837367748709,0.0566929970031867,-0.0679545355251768,0.0076413166072123,-0.0083172864720799,0.0096683492021963,0.0720500248181455,0.997319243002869,-0.0199871743488393,-0.0635612035788339,8.53583796932837,0.0218721663199755,0.0231292870663823,1.1561191003313227,10.96929653908004,-0.015248799242894,0.8747456992681996,1057.1314764711124,1055.4692818241926,1048.332339991144,1058.5215708741575,-128.65286827732223,-795.4500652630024,-753.7123672866976,-845.9643751894865,156.10778275866397
0.47,-0.234855520354792,-0.7018259690425047,-0.037325204472759,0.0550392932826636,-0.0690203852964557,0.0077757072510786,-0.0082564054601768,0.0095107868600986,0.0720285949473245,0.9973227842300578,-0.0186408908906398,-0.0640085380537042,8.503411927824446,0.022862336566325,0.0235061157948142,1.1529310048455628,10.96939098737382,-0.0151236991147872,0.877624528570689,1056.9870118200884,1053.6602108316183,1046.8174003969073,1056.7167350999205,-51.225206537537765,-725.5102721144788,-518.5080294007998,-671.4777864757701,156.11417338493922
0.4725,-0.3880324117722941,-0.8162256676218594,-0.2134607807986981,0.0507164704127125,-0.0723188829872154,0.0063267489312852,-0.0081890636302909,0.0093529521894819,0.0720045827466034,0.9973265486128776,-0.0171459167563315,-0.063795907768242,8.471089601470807,0.0238539767318811,0.0238797297508594,1.1496674010553072,10.96948807137658,-0.0149985843333376,0.8805007264043827,1056.8753504384247,1051.8417304636203,1045.73979984414,1055.1641819417787,-91.77799347839928,-801.5873974836261,-379.95446126728854,-634.8184296769881,156.1204854516074
0.475,-0.3649537613221295,-0.8439124012264416,-0.3613788923426525,0.0457287076407824,-0.0772224064870377,0.0039562300694572,-0.0081200750834929,0.009198882122358,0.071980776407502,0.9973302582887054,-0.015583716944414,-0.0629690390404482,8.438888065948886,0.0248366517277698,0.0242424611744978,1.1463245679796277,10.969587767135675,-0.0148744822168998,0.8833722646269933,1056.5281218526964,1049.6522738442004,1044.9176280905708,1053.5426429515355,-188.91055456460876,-804.2405540020802,-242.30960748168377,-570.840393715252,156.12796344577802
0.4775,-0.1754151993513479,-0.7503241853446674,-0.4198434634128592,0.0431210176840291,-0.0811819845559059,0.0021769999131619,-0.0080515385335881,0.0090536292973343,0.0719593801497199,0.9973336933684416,-0.0140502957961692,-0.0615354706550457,8.406831905059251,0.0257979191277606,0.0245941217834732,1.1428991201782086,10.969690040022329,-0.0147516013579493,0.8862374321920372,1055.9307976656016,1047.8205276936098,1044.5282518067315,1052.3099799732024,-317.80484461437806,-737.7378923342878,-130.24256209064467,-493.60548956206503,156.13411014608255
0.4799999999999999,0.1444667280515527,-0.5405510242728416,-0.4149660337278489,0.0424452731550252,-0.0843214771943488,0.0009174267082881,-0.0079864834484275,0.0089224020627228,0.0719453105651728,0.9973364310940724,-0.0126450768648263,-0.0595302234731636,8.374952974382923,0.0267250868837371,0.0249329440849778,1.1393886120239947,10.969794666073748,-0.0146303432136806,0.8890950700691767,1054.9390976296247,1045.963584382529,1044.2664152801176,1051.0746155037252,-460.9463818777432,-752.5498603921355,-115.35733113992256,-513.1106076123212,156.14016277412912
0.4824999999999999,0.5201694672708002,-0.2617496783253331,-0.3679689125606045,0.0434202440326667,-0.0861544049703427,7.495090146452846e-05,-0.0079284689530261,0.0088055944882009,0.0719383089437174,0.9973384602796584,-0.0113877582333359,-0.0570139987097723,8.34328924520148,0.0276161592344294,0.0252559660762624,1.1357915140019677,10.969901431717393,-0.0145104222986625,0.8919436081815058,1053.6260657562127,1044.0577783916492,1043.951465151032,1049.7444269351408,-588.6245109311398,-782.9623413067559,-176.54922831334244,-572.4791398344673,156.14613308993873
0.4849999999999999,0.8965087523499513,0.0485675469934101,-0.2839657494975592,0.045858750848896,-0.0861286474296983,-0.0004058864996068,-0.0078719880210993,0.0087049109150794,0.0719378047992266,0.9973398512152912,-0.0103092822131138,-0.0539088353109328,8.311884828055494,0.0284678246726304,0.0255810586068892,1.1321070498775687,10.970009889451328,-0.0143912173730623,0.8947827930789749,1051.995975074969,1042.0487726759952,1043.3836691385509,1048.212219804553,-761.4392474410573,-917.243109403352,-348.89160286948,-734.5529216832339,156.151999810943
0.4874999999999999,1.2727873501465947,0.3863487484120966,-0.1538502065018928,0.0498073832438905,-0.0842208611087541,-0.0007621167959969,-0.0078107231472182,0.0086207703122858,0.0719455663354968,0.9973405236953312,-0.0094182480191991,-0.0501415828582231,8.280787898941314,0.0292802135853219,0.0259271221135934,1.1283354631029123,10.970119329570103,-0.0142721984269248,0.8976117610722713,1049.8188695190076,1039.4715628446324,1042.2070071366848,1046.0716623267247,-810.4908424482794,-974.6058954364335,-534.4191032971136,-838.8778528615595,156.1589157989611
0.4899999999999999,1.4779492608307503,0.5966745120433615,-0.0269662733631941,0.0538401877767628,-0.0814757266625707,-0.000971725139358,-0.0077441612734129,0.008548511808078,0.071958631779445,0.9973407340892976,-0.0086473662076326,-0.0457553092481998,8.250048626886857,0.030063798737338,0.0262989933588032,1.1244780571376622,10.97022982198546,-0.0141529833285462,0.900429039044345,1047.9435208627276,1037.175743198813,1040.711573622065,1044.017830540245,-735.4647550293059,-943.3647476800608,-716.3592749504908,-876.2145152193161,156.16457348601023
0.4924999999999999,1.5284136777132775,0.7053851357387951,0.1141868170973599,0.058562305492725,-0.0782316163077568,-0.0011038375807589,-0.0076680578822485,0.0084847232202832,0.0719740158669214,0.9973407578107656,-0.0079471169194404,-0.0407442958557375,8.219718843020889,0.0308268826025774,0.0267095660412395,1.120536753464421,10.97034115783654,-0.0140328846654482,0.9032333901167848,1046.1415457438611,1034.754739106232,1038.6252107619323,1041.690589750628,-752.8318506741009,-1079.882934839724,-1050.5017535615016,-1079.4553656058715,156.17011990367652
0.4949999999999999,1.3812553887739467,0.720948651124981,0.2919819902746999,0.0645487274454379,-0.074981969989008,-0.0010196744103087,-0.0075814538690257,0.0084270743538979,0.0719923775814704,0.9973405728570168,-0.0072907156328719,-0.0351699776224434,8.189850699545179,0.0315750715124818,0.0271636698225171,1.1165140891796435,10.970452853499056,-0.0139121576584532,0.9060247748126488,1044.179361609357,1031.7763285246144,1035.4590648542578,1038.6205537122155,-677.5451234213044,-1092.3696321584875,-1257.1312973799184,-1161.5502492909843,156.1766463774757
0.4974999999999999,1.0828354751392506,0.6590003382625307,0.4364651759970274,0.0693356460812546,-0.0732570856273045,-0.0005099438482564,-0.0074872035183651,0.0083686262537891,0.0720124426775212,0.9973403067563869,-0.0065823965182336,-0.0291721984768474,8.160495104407604,0.0323234054327568,0.0276565707583208,1.1124124827273023,10.970566224815254,-0.0137919842897493,0.9088048856088364,1042.7538201267544,1029.2928909454397,1032.3395542750327,1035.8828385041732,-527.3539940086262,-982.1223053360418,-1318.4190509781263,-1113.4750760493707,156.18197781922115
0.5,0.6263921019243104,0.5528744368809476,0.5579248659789994,0.0731820703829435,-0.0723826579078304,0.000859558757885,-0.0073861557196818,0.0082995674004726,0.0720287073016392,0.9973404319096184,-0.005680570402469,-0.0228691678335352,8.131701226858404,0.0330930747696238,0.028187401800323,1.1082336685822203,10.970682454742272,-0.0136715794010045,0.9115748338373488,1041.542591639314,1026.8657169979342,1028.8669695993672,1033.0531783319689,-456.9045855355344,-956.6663595906333,-1418.0941793374416,-1128.7340031624672,156.18719930628816
0.5025,0.0801734001507733,0.4323670354734829,0.6443765098774042,0.0754514151118648,-0.0718283651798542,0.0030952002532169,-0.0072807116248373,0.0082162942198682,0.0720382471992064,0.9973411710387532,-0.0045489264804668,-0.016404777041785,8.10351722853388,0.0338913234850673,0.0287519934472661,1.1039793805338851,10.97080150697426,-0.0135499359855471,0.9143354010578094,1040.469297199077,1024.5095591474865,1025.2490833783454,1030.2391684883607,-411.84159779518234,-923.5356381669808,-1441.2749473318383,-1096.7198409622133,156.19233118226379
0.505,-0.5002151516060933,0.3121123355377115,0.6768769400121736,0.0748674819517002,-0.0714244963697348,0.0058867374936973,-0.0071754612831424,0.0081203753337051,0.0720419147853274,0.9973424163446408,-0.0032384361426766,-0.0099578053288577,8.075989837008958,0.0347141947690328,0.0293411863245746,1.0996514713842545,10.970922476684244,-0.0134267800610554,0.9170862632625366,1039.483383650338,1022.2480388070992,1021.660594862708,1027.5695791271576,-436.2609008675004,-972.6731440440961,-1520.7177423590097,-1109.9951292424967,156.19735732559928
0.5075,-1.1293252363788704,0.1798652193211326,0.6586210916535885,0.070645528303249,-0.0709547643971574,0.0087361917815499,-0.007070918470256,0.0080147932156738,0.0720413083136953,0.9973440270361248,-0.0018186195424343,-0.0036419373908965,8.049163100128263,0.0355559281048376,0.0299542871899066,1.0952514742044583,10.971044264333687,-0.0133023384433653,0.9198272029143584,1038.2879926947392,1019.646193427266,1017.6454946665503,1024.6891928421483,-454.72235053966824,-933.7054043191066,-1393.4111866565431,-985.0115836486784,156.2032699897286
0.51,-1.531002025604889,0.0833868253368005,0.6135561214679147,0.0652278196752865,-0.0704041679327512,0.0102495770368896,-0.0069612009546512,0.0079065758401284,0.0720389819766564,0.9973458088110524,-0.0004165461596175,0.0025356818880848,8.023077859494919,0.0364036984196222,0.0306043814254334,1.0907807678922357,10.971165067430343,-0.0131765276764282,0.9225575034470954,1037.2097718976397,1017.5795117855037,1014.6935389294252,1022.6445212089144,-459.0058051623244,-800.0321091883222,-1078.1740239065132,-736.6241608841322,156.20810122416654
0.5124999999999998,-1.75905944843734,0.0057499959046635,0.5651773621879507,0.0592547958891258,-0.0698737360265815,0.0111143435624263,-0.0068429377839409,0.0078072704307875,0.0720413935379304,0.9973472318896288,0.0007671015600318,0.0085328601000348,7.9977718552617185,0.0372353933570086,0.0312985996253925,1.0862413129628192,10.971283228526604,-0.0130496661691428,0.925277148018214,1035.9929636689278,1015.6460328813243,1012.2546245470178,1021.0060720377276,-511.4443061961988,-744.7088655280362,-888.7675119227416,-595.1877311952097,156.21283673995103
0.515,-1.8358112074608828,-0.0487474149716261,0.5315831139564066,0.0532631782549459,-0.0697415112140175,0.0114599231012692,-0.0067219853564721,0.0077205788557594,0.0720523974879966,0.9973479476616806,0.0016474576922153,0.0141563101256526,7.973278275687557,0.0380445468604143,0.0320224644861847,1.081635358702875,10.971398840733723,-0.0129219536395675,0.92798518628705,1034.6525503666587,1013.8559674578636,1010.2497013698116,1019.6685825529383,-560.7987248242803,-673.0622639666075,-711.15236506107,-484.7217975456256,156.21749608968892
0.5174999999999998,-1.7497438943754875,-0.0616641929170874,0.5252194833706946,0.0476314961208509,-0.0702283054580336,0.011505351668433,-0.0066011208832143,0.0076423020166366,0.0720698452280405,0.9973481219509742,0.0022686217414068,0.0192624362577345,7.949624018887346,0.0388412336645052,0.0327671627229189,1.0769645980701903,10.971513420418525,-0.0127928778948156,0.9306812317127168,1033.1889700448064,1012.2807215614914,1008.6988627217124,1018.5824630499995,-659.7248365959325,-635.7929117681346,-609.3384394796425,-456.5680742547552,156.2220678016969
0.52,-1.5127604673992308,-0.0136937291834249,0.5392529693137486,0.0420912711438552,-0.0711086127223075,0.0123488679330586,-0.0064824058609866,0.0075718707240205,0.0720917317999328,0.9973478894586624,0.0026189607246163,0.0237328874745973,7.926830753362599,0.0396266882558533,0.033525647778844,1.0722310855465784,10.971628853352476,-0.0126623518820512,0.9333659045509513,1031.353926183679,1010.6770028990228,1007.2030091724132,1017.3857421816645,-675.572670341989,-538.1627930988084,-515.1005177434622,-446.23101918118624,156.22745828473785
0.5224999999999999,-1.2580695257846106,0.083422256220338,0.5490026232080436,0.0389815199386896,-0.0716663549511901,0.0140472670472336,-0.0063742951398315,0.0075086534547803,0.0721180681456509,0.9973471993567172,0.0026838471379824,0.0273594768222344,7.9049145459774595,0.0404001882981488,0.0342767526906325,1.067437500673408,10.971746312824036,-0.0125305733555043,0.936038424829123,1029.8111066930965,1009.5899075959971,1006.1233601329952,1016.3513079540936,-610.1374418371955,-384.58372566553834,-426.85400273946885,-442.3052192702012,156.23187484970927
0.525,-1.0122294925213575,0.2341731225760716,0.5313837914511359,0.0374260246159268,-0.0717105271477374,0.0162302175728949,-0.0062843177906632,0.0074485668418907,0.0721463353357771,0.9973462171200148,0.0025077673694159,0.0299598152435328,7.883883657213634,0.0411670465091535,0.0350009362923492,1.0625863716571509,10.971866548544115,-0.0123971528362743,0.9386975515354627,1028.303238974493,1008.7540842706952,1005.068739158716,1015.1742160853136,-650.1428120280701,-315.7297274895424,-479.7985925376448,-558.1489290156919,156.2362175050661
0.5274999999999999,-0.7916899258510279,0.4590853568775615,0.4627619532661249,0.0365010287400262,-0.0712049945869306,0.0185955305300472,-0.0062102920864661,0.0073899819088979,0.0721726475065228,0.9973452491504124,0.0021123599799406,0.0315227031888307,7.863737125025459,0.0419276043426676,0.0356995751308226,1.0576797338719552,10.971990966760014,-0.012261928909565,0.9413445850726602,1026.560392632956,1008.0112589585495,1003.724367170307,1013.5605633090152,-628.5449884168878,-235.85981231899476,-509.6186774114808,-618.1979322214369,156.24134768612734
0.53,-0.6986721313837057,0.6640370395355698,0.3663412550062951,0.0360015050534649,-0.0702723046733237,0.0200643638345794,-0.0061502343274585,0.0073320000686101,0.0721950767449063,0.9973444551900138,0.0015141863416139,0.0320494268008415,7.844464958376893,0.0426800601787686,0.0363730855437003,1.052719657678005,10.972120093679676,-0.0121247016994231,0.9439807106411898,1025.1605140324086,1007.5747852091002,1002.5206457716585,1012.0832264242064,-553.7825971055095,-146.80019920879187,-488.7475559398122,-597.6788346622919,156.2455580682181
0.5324999999999999,-0.7111935385219175,0.8576601973769344,0.2401171708715426,0.0357307643736952,-0.0685919564423373,0.0208906817824346,-0.0061067853952689,0.0072713553661394,0.0722144782093322,0.9973437827569828,0.0007688259927709,0.0314819546222723,7.8260475839386014,0.0434268763927579,0.0370111209793426,1.0477084707697326,10.972253230046215,-0.0119850462425465,0.946605936208105,1023.7914796474284,1007.2772579625056,1001.280629390608,1010.5721691357036,-547.449583151069,-103.9439655752175,-486.8470144824637,-589.256168432848,156.24970386949335
0.535,-0.8024717100776008,1.0161468111321643,0.1012855560001447,0.0353116411596172,-0.0661027394199995,0.0211793422852312,-0.0060783041887802,0.0072041524514622,0.0722298096771963,0.9973433480177268,-4.772027024141368e-05,0.0298463509435582,7.808454012969186,0.0441725106286761,0.0376121111190479,1.0426484119501442,10.972389728475466,-0.0118426897995668,0.9492197031875994,1022.4232661166532,1007.055065381224,1000.0864106992462,1009.136945582042,-552.3923613224038,-79.98781031965329,-445.13745083663673,-532.1178530787615,156.25379763480822
0.5374999999999999,-0.9568139022687882,1.1020446713806595,-0.0382744796322904,0.0337957283079666,-0.0625970488900967,0.0209923238486812,-0.0060604706125718,0.0071297138905361,0.0722397680832732,0.9973432790790622,-0.0009010764194618,0.0272311062740205,7.791641949855107,0.0449157078546894,0.0381802673649,1.0375422624838275,10.972528331231956,-0.0116966989519481,0.9518211429042412,1021.0295178408164,1006.8773189109074,999.0549421364248,1007.9115798703098,-622.5750703930311,-79.87599492726069,-392.7461045419019,-471.1339223203364,156.25782993522785
0.54,-1.155244099605036,1.0950708520445411,-0.1919103722603792,0.0301535972050381,-0.0578188809490339,0.0204176386281722,-0.0060546312500239,0.0070495884032697,0.072246641917796,0.9973433908935788,-0.0017923211414008,0.0236547947347973,7.775558285104446,0.045651063130615,0.0387079250497302,1.0323940818537742,10.97266742013627,-0.0115469012441387,0.9544086772953864,1019.310390764688,1006.6556854065878,998.1226801765368,1006.7812759704404,-637.4572263559452,-91.83593035713776,-281.2347116490853,-355.0675952447133,156.262598554768
0.5424999999999999,-1.287599050614346,0.9949490676514222,-0.3009177289314614,0.0260164766244828,-0.0542221682925437,0.0196896387534357,-0.0060593745179311,0.0069659376585494,0.0722526820797693,0.9973435127413448,-0.0027255338185065,0.0191957602871776,7.760137330937816,0.046373508981158,0.0391935377287812,1.027208361700396,10.972807096910177,-0.0113947137903846,0.9569821694600436,1017.8422317090368,1006.4181392591216,997.6487685781792,1006.1362418940864,-590.9722698889703,-117.04002792391736,-126.53094246757053,-207.1182202390672,156.26651418966156
0.545,-1.3481746915949115,0.8144008022741007,-0.3842389877066832,0.0214566220206106,-0.0516677514718223,0.0186957359306058,-0.0060736343642112,0.00688100925756,0.0722585405339537,0.9973435875963672,-0.0037051339820568,0.0139422441322644,7.74530125116569,0.0470787935105715,0.0396355631806609,1.021990084864406,10.972947529080708,-0.0112413581161559,0.9595415343269262,1016.3555294152432,1006.0704852669681,997.4900254641988,1005.7456848692452,-653.3433325098936,-189.74599618359187,-9.874505449602102,-138.3128292161017,156.27036935846195
0.5474999999999999,-1.3224254863594018,0.5407344061017108,-0.4510069109256473,0.0162383580621998,-0.0498382052931124,0.0172518558743341,-0.006092423090858,0.0067959332808066,0.072262580332323,0.9973437557410973,-0.0047143519234152,0.0080553159137295,7.730959980378786,0.047766435586654,0.0400411413087085,1.0167440766549836,10.973087703060012,-0.0110872935261663,0.962086689445188,1014.5755150464872,1005.4694092782036,997.5993960509312,1005.4446777480058,-650.0466411622476,-257.31015075123173,74.98444257143994,-103.941236074911,156.27492524427083
