t,ang_acc_x,ang_acc_y,ang_acc_z,a_vel_x,a_vel_y,a_vel_z,quat_x,quat_y,quat_z,quat_w,acc_x,acc_y,acc_z,l_vel_x,l_vel_y,l_vel_z,pos_x,pos_y,pos_z,mot_1,mot_2,mot_3,mot_4,dmot_1,dmot_2,dmot_3,dmot_4,vbat
1.6825,-0.038958259377826,2.7376756280147654,-0.0151988732019362,-0.0995670038727443,0.1393570090508327,-0.0070966287333359,0.0005248209722765,0.0091484118397171,-0.2264076006870953,-0.9739889644164436,0.0241286735877293,-0.1461055849468363,10.400943558112177,-0.0693629011683806,-0.0132765178758016,0.8225542316055409,-0.1818551890901892,1.555177997625368,0.1906442161706721,1207.2473818647284,1205.2305981744007,1244.9554130335648,1177.1484765944151,-44.21497143603017,-854.8142534654546,-391.5263029934886,262.39418788254017,160.61232142873945
1.685,0.0842218181274959,2.394693494337594,0.269737999745092,-0.0956061466644972,0.1445839811281658,-0.006418703235767,0.0007058180160466,0.009015041572566,-0.2264319328460877,-0.973983892166083,0.0148208928411816,-0.1454807211855953,10.455614449833243,-0.0703317297397636,-0.013668891645871,0.8239048718992715,-0.1820247963458672,1.5550743925883683,0.1926894731468541,1206.8037963233955,1202.9583012154947,1243.5062995530689,1177.5803079796892,-296.2190817715117,-829.2143593908979,-665.1011124333451,55.4674001382421,160.6208985261275
1.6875,0.0836064618112051,2.092775800389198,0.4900826644336051,-0.0932473912948724,0.1495630928051271,-0.0041998158949431,0.0008927038703013,0.0088622064281897,-0.2264412115704689,-0.9739825365449464,0.0062734631025918,-0.1443782822467676,10.51104772570234,-0.07136039495029,-0.0140485781249233,0.8254291867715674,-0.1821960212779987,1.5549657744678327,0.1947358247780156,1205.766286455871,1201.0845263774463,1241.629907471398,1177.4258135951063,-555.6712792126864,-768.2569588757069,-862.5962433317183,-140.1129316357158,160.62773593022493
1.69,0.0327826611336066,1.775761699532802,0.6672511961857835,-0.0927381313868214,0.1552367571324539,-0.0015856974190925,0.0010844551435129,0.0086932891254736,-0.2264380529331254,-0.9739842516557224,-0.0016595877176496,-0.1428884132768372,10.56711095524006,-0.0724390044559415,-0.0144181364565298,0.8270967328222519,-0.1823685827574183,1.5548530144663963,0.196783080828686,1204.0254399273324,1199.1170164211162,1239.1933183364104,1176.8797433215107,-799.9724219761716,-815.1589830254845,-1035.7508100103348,-248.60783449871056,160.6342528979862
1.6925,0.0001567094326015,1.4505431754523794,0.8057288829695256,-0.0935776486469706,0.1605329813499168,0.0004811151641681,0.0012833677312888,0.008497822506051,-0.2264176626561562,-0.9739904557035762,-0.0084731083658163,-0.1408121054754072,10.62324098637382,-0.0735763350602864,-0.0147555180105157,0.8290118273800806,-0.1825473969616662,1.55472820186099,0.1988314225516868,1201.76642434599,1197.008731462319,1236.4511534213464,1176.1827744226127,-997.9260542432936,-880.5213209303271,-1124.1399352180192,-269.87595250911284,160.6405048646892
1.695,0.0579730968690324,1.1392390668024717,0.9055433792230932,-0.0957150471791739,0.1643393232483345,0.0018334341714585,0.0014848276010737,0.0082929122857095,-0.2263911430791527,-0.9739982564678644,-0.0149261717808212,-0.1385493471662956,10.679394204973848,-0.0747359452778867,-0.0150823682074011,0.8310142583175278,-0.1827284352622471,1.5545991021402807,0.2008801504487018,1199.0358096561158,1194.7144098164645,1233.57261866032,1175.530363558965,-1261.4408468597771,-1038.4102169655073,-1239.1537863298515,-230.8626014892574,160.6464376281432
1.6975,0.2883265445847496,0.8328549242581753,0.985895886118798,-0.0983582721290896,0.1664739506790591,0.0035705592204968,0.0016672709792981,0.0080652620449136,-0.2263746502919456,-0.9740047282586326,-0.0196196953035972,-0.1351287751638986,10.734379861929476,-0.0759120644925054,-0.0153109774075803,0.8333330172869124,-0.1829164916233147,1.5544627260216979,0.2029323038688163,1195.4592201116911,1191.8166803774916,1230.2553844896972,1175.0284614151667,-1324.9637602345329,-1064.5982693725043,-1159.2304403787487,-120.35717273115807,160.65318768550412
1.7,0.6215098907601092,0.6721607335069688,1.0130256513636302,-0.0994577329251329,0.1668448242145448,0.0057342314995671,0.0018462310582058,0.0078313213347663,-0.2263599845963342,-0.9740110734583582,-0.0240518758073222,-0.1315092616685446,10.788969659632208,-0.0770930686027764,-0.0155204356948078,0.8357131367293401,-0.1831058682450219,1.5543261161143835,0.2049866996862591,1192.4109908549433,1189.391418469602,1227.7764664584265,1174.9285776953093,-1193.3914730376907,-936.9711809920557,-910.8715281513712,24.57872849286048,160.65850441411453
1.7025,1.0698734420522944,0.6389345295850629,0.9816528099316464,-0.0983486207687656,0.1671675181790544,0.0089124035587916,0.0020101965162697,0.0075635222412693,-0.2263531535760242,-0.9740172464705233,-0.0272097849437104,-0.1269114432020897,10.84127180798302,-0.078286522688398,-0.0156364175204776,0.8383746019011075,-0.1833010390604971,1.5541920060585217,0.2070559004531567,1189.4922627465028,1187.1318244725312,1225.7010268489403,1175.151355057631,-1213.667251497572,-913.3043881267683,-825.00988729851,151.272928977911,160.66350022937334
1.705,1.6719507766383699,0.752422711719628,0.8625492483191534,-0.09444446778704,0.1679801749254881,0.013226340848694,0.0021804730715908,0.0072796997670273,-0.2263466626545554,-0.9740240853370824,-0.0301869687844039,-0.1222439079594785,10.892395901483177,-0.0794917207544174,-0.0157413872866325,0.8411194597535501,-0.1834987915707264,1.554058878551445,0.2091347125458171,1186.3426545974553,1184.824896528968,1223.6514170219339,1175.6849423401989,-1071.3446003301897,-755.0885763750263,-698.3958926464005,219.67284764032695,160.6691233295107
1.7075,2.169907761885204,0.9637985074564231,0.7008477070785841,-0.0893710711808395,0.1690766297492906,0.0161617570196064,0.0023649449589412,0.0069598364585785,-0.2263409367056066,-0.9740324218868208,-0.0326835872786766,-0.117393671263435,10.940868819815195,-0.0807199835247572,-0.0158203617279775,0.8440532025945857,-0.1837023509973666,1.5539279610572492,0.2112351430599486,1184.135539744852,1183.356381590656,1222.2090473857083,1176.2497192958326,-776.6570274524548,-485.38950457474255,-554.0451061658705,228.78221220381,160.6734988433881
1.71,2.600598368758353,1.2676446548719407,0.5012803299124244,-0.08261994969872,0.1709032896196836,0.0174377280208604,0.002544317332317,0.0066335655373695,-0.2263362148963036,-0.9740413305968652,-0.0345224745213053,-0.1122190501986217,10.986910847511604,-0.0819240381285191,-0.0158718789736369,0.8471004017790964,-0.1839109538172966,1.5537987737373695,0.213350998947283,1182.459369460193,1182.3979490060944,1220.8811914911043,1176.8288534012179,-579.2274143920488,-312.4817136142993,-533.397694858319,220.89418367949693,160.677551699472
1.7125,2.9376814136613194,1.6154904529696164,0.2969790790142659,-0.0743599096383623,0.1736464756000625,0.0173458241733459,0.0027185452643982,0.0063008305515757,-0.2263325060732351,-0.974050816508016,-0.0356933496950518,-0.1067137331420295,11.030502125751887,-0.0831039744541527,-0.0158956306223049,0.8502621193451587,-0.1841246444634064,1.5536713318348452,0.2154824161071783,1181.2394026728916,1181.7939730225846,1219.5420589114167,1177.35419021423,-391.8847517452742,-193.88233965864407,-554.3427263308657,182.98108419443935,160.68133672323847
1.715,3.137037305619782,1.9654549944495363,0.1100541163683144,-0.0646779707946401,0.177754099076177,0.0163663978602769,0.0028562046246961,0.0060027933121427,-0.2263500050703821,-0.9740540683582186,-0.0350744896561217,-0.100321000524331,11.070147514614774,-0.0841689616383088,-0.0158574509868371,0.853556773420673,-0.1843374594120511,1.553548095563808,0.2176302498074882,1180.4999457014667,1181.4285373078012,1218.10947785945,1177.74375882219,-254.57876121541264,-166.1867848920373,-660.6391944230068,121.60268679890837,160.6847985415244
1.7175,3.225716296659495,2.314339740097742,-0.0894754610508552,-0.0533350862735111,0.1842633854942591,0.0154325037890524,0.002977269155887,0.0057205019206654,-0.2263771281828567,-0.974054491189648,-0.0336624651064618,-0.0935280020519777,11.10800652157572,-0.0851838398884629,-0.015791347759621,0.8569113756240041,-0.1845498769689172,1.5534267678096312,0.2197855333388806,1179.9665088668144,1180.9630390981245,1216.2388629393015,1177.9622036482247,-177.25271270910903,-213.673093541006,-712.4394304918194,27.966025831938765,160.68857885311797
1.72,3.210640393844148,2.4929413775475124,-0.2476601714754777,-0.0453776014867607,0.1911679265992454,0.0154357116739822,0.0030140742147701,0.0054944269567202,-0.2264441658695962,-0.9740387633395272,-0.0297727045757139,-0.0847779741007767,11.140250520351696,-0.0860285780819079,-0.015596525226643,0.8604106955837244,-0.1847507463177191,1.5533148590020418,0.2219418795929304,1179.6136821379212,1180.360171840096,1214.5472807069912,1177.8835889513496,-172.01674511906788,-308.3391486441471,-704.7910709426396,-87.53530402095545,160.69141753295335
1.7225,3.164573309672135,2.5047843836931234,-0.4159991628406291,-0.0387539699370974,0.1998185182246954,0.0157806680521317,0.0030338215665651,0.0052792447008388,-0.2265177085430236,-0.9740202887566072,-0.0254182825632527,-0.0756156644774,11.171250856432096,-0.0868423246118972,-0.015375555205143,0.8639390574303631,-0.1849494730590856,1.5532047300221299,0.2240979488397319,1179.1064251412192,1179.4213433549037,1212.7149075845884,1177.5245271281199,-299.5382473584799,-476.7830984292576,-840.8954101338882,-206.727566140348,160.6939333406798
1.725,3.1372108314627614,2.3088485681071447,-0.635169130346373,-0.0313449053705725,0.2104017738135258,0.0153546419791453,0.0029803343309539,0.0051062302421498,-0.2266043311393003,-0.9739949493489855,-0.0191631731438354,-0.064552254314979,11.195851280447744,-0.0875234690733062,-0.0150481782479499,0.8675956091470867,-0.1851408409877564,1.5531010457879526,0.2262481903559091,1178.1159909011287,1177.9762563479499,1210.3428036563216,1176.849951120648,-434.53849605367407,-547.7356787563284,-899.7296622724853,-267.6112582828466,160.69658073503325
1.7275,3.1677969939811534,1.9985402386261608,-0.8215422250194653,-0.0254252182666185,0.2173972161609384,0.0137644237242174,0.0029271644730706,0.0049344212712665,-0.2266838854027738,-0.9739718436217067,-0.0127961994470464,-0.0533345135621578,11.218611225250292,-0.0881962366396468,-0.0147220205301362,0.8712774565806223,-0.1853341310422831,1.5529970402612039,0.2284029395204748,1176.933732660951,1176.682664961122,1208.216259273226,1176.1864708367057,-527.7577777989449,-474.8248356725172,-878.9272460341822,-262.9051796998339,160.6984792200869
1.73,3.2648337724839815,1.610055409161025,-0.9905127264415762,-0.0194741578584428,0.2213939085819841,0.010906102543135,0.0028749074403111,0.004766079460989,-0.226743110099306,-0.9739551622883176,-0.0060830275130164,-0.0416856979507454,11.236075220372715,-0.0888407897991315,-0.0144023118519076,0.8750328843231274,-0.1855329494140727,1.5528921106496647,0.2305706533461864,1175.477202012134,1175.602132169587,1205.9481674261508,1175.535425222149,-657.523370387676,-350.23652186933595,-1018.2645967815675,-269.6977155549633,160.70006154949678
1.7325,3.435405524508868,1.1557951589399365,-1.154111912884042,-0.0115892755523001,0.2229647311494842,0.0069408326781771,0.0028578178252548,0.0045791390745865,-0.2267823627410415,-0.973945272098884,8.704814898111146e-05,-0.0304115386149346,11.250315549215712,-0.0895145860241811,-0.014132377700494,0.8788100188726298,-0.1857382666226361,1.5527823571826063,0.2327526483744317,1173.6461158090124,1174.9314823517755,1203.1249362893184,1174.8379822589309,-647.3359043877132,-96.63943750260617,-1036.259036438399,-243.3322773306316,160.70159960290033
1.735,3.583701947382213,0.8455914121902708,-1.2539967374058028,-0.0038890952219195,0.2225681034008728,0.0039329621434792,0.0028840536452591,0.0043692856779389,-0.2267970102789723,-0.9739437484397692,0.0055899164340198,-0.019602636131082,11.260587261861824,-0.0902245943328129,-0.0139249051397345,0.8826139429003759,-0.1859515902459153,1.5526666608385122,0.234952237509762,1172.2405224901954,1175.1189349820743,1200.7668722439587,1174.3187638354957,-500.46246721111606,257.06084733155285,-921.6953206861731,-206.5919502689619,160.70258482519588
1.7375,3.674469913294744,0.6352016026284873,-1.318977293360668,0.0052309012103323,0.2220166542797287,0.0013983467695238,0.0029784212846678,0.0041144151571799,-0.2267828838729936,-0.9739515897817084,0.009666253202423,-0.0096551883226634,11.266367566949912,-0.0910072771720482,-0.0138001038882455,0.8864163106836622,-0.186168245977547,1.552541405357564,0.2371652310820791,1171.1438034729567,1176.2167865884333,1198.5164596858874,1173.805022507586,-370.89787904734175,584.9108349595679,-868.6350097025028,-215.60527863958217,160.7032680270991
1.74,3.6675800018671354,0.4964729411891888,-1.3551370746144116,0.015237609980277,0.2224468830481318,-0.0010487315512376,0.0031114336317357,0.0038340106991775,-0.2267524367425677,-0.9739647429989386,0.0129323246728686,-0.0001965324069284,11.269606983560676,-0.0918337607902329,-0.0137232216784733,0.8902174505290252,-0.1863867916976494,1.5524107278865311,0.2393858277178872,1170.3860330949587,1178.043489156872,1196.4236971954463,1173.2407374422978,-214.235859519481,869.2990936184926,-794.5080438154206,-247.2579100103356,160.70370569753436
1.7425,3.495267785108169,0.4064340514488085,-1.3470282744675144,0.0255646532868509,0.224377376038193,-0.0039335782436545,0.0032954589700521,0.0035425932546501,-0.2266840654427915,-0.9739869937937516,0.0153997257328994,0.008619079169711,11.267311168490384,-0.0926508974768569,-0.0136898779672121,0.8939912164227439,-0.1866051266356012,1.5522750134035208,0.2416235755517311,1170.0726241753596,1180.5632820565256,1194.5439194668104,1172.5687329575344,-37.17444324683952,1191.8765373001131,-791.0878075994605,-320.97155585601456,160.70385421474134
1.745,3.0660827549447167,0.3076966648042577,-1.2636965835788672,0.0373549778289413,0.2273069182830622,-0.0083887668087138,0.003489880968472,0.0032490742210383,-0.2266075391338136,-0.97401107573568,0.0176985699043638,0.0173130150843499,11.263764736815356,-0.0934685943185037,-0.0136656463650131,0.897757686127238,-0.1868233931829932,1.5521383506790283,0.2438652595252104,1170.2001608787243,1184.0028718433728,1192.4682581574489,1171.6358796630177,123.87172708767763,1264.5586055579931,-750.884096164719,-352.4283860707247,160.70370851460672
1.7475,2.526849104595604,0.2164861827415727,-1.118243803819549,0.0459949958313721,0.2292789520504793,-0.0127968738194454,0.0036739802349083,0.0029655059983316,-0.2265156717008272,-0.9740320750915844,0.0197446925325886,0.0264708544216075,11.254162394397175,-0.0942069803900187,-0.0135541724765079,0.9014627993688676,-0.1870403280626073,1.5520069396464282,0.2461272851231764,1170.691982810798,1186.8860750843155,1190.7894989859867,1170.8065910271807,262.5466986903176,1083.3248469292134,-685.4390535501954,-318.089112736568,160.7033257589015
1.75,1.836018088605388,0.1210541509204139,-0.8942584400082512,0.0525671992569504,0.2301840766885666,-0.0168287768761136,0.0038440341220483,0.002684163778858,-0.2264301011185319,-0.9740503771697164,0.0217800587506206,0.0359290099265354,11.243422941767836,-0.094929364293562,-0.0134003168774765,0.905148855139602,-0.1872565043337903,1.5518765452272452,0.2483922558591551,1171.512894372176,1189.4194960780187,1189.041062889698,1170.045434099335,411.5879122719067,973.1030403523824,-798.8944590439756,-285.09086552640537,160.70268314415327
1.7525,0.9095775928994476,0.0271528823164084,-0.5684475353995752,0.0572497503538928,0.2298095401902897,-0.0194775458605997,0.0039606770486894,0.0024112864764404,-0.2263684758378508,-0.9740584221950828,0.0237551422846489,0.0465096700071957,11.228323576956404,-0.0955770393700287,-0.0130793641547479,0.908763839016756,-0.1874697958124665,1.551750016727087,0.2506684261965642,1172.7499223721575,1191.7515902860775,1186.7950266907667,1169.3811366995487,471.3347855175817,715.6206982746716,-841.2315385570115,-181.2537742762246,160.7016261572236
1.755,0.1275692747447893,-0.0150600823603596,-0.2888794667807774,0.0578842612432317,0.2286248238538935,-0.0196085474234954,0.0040541408099745,0.0021430993285455,-0.2263197827494396,-0.9740634641863418,0.0256664259560033,0.0574278821398033,11.211348386153105,-0.0961953308160153,-0.0126785804255574,0.9123332255886591,-0.1876824345678785,1.5516235352416534,0.2529500631077737,1173.869568299764,1192.997599569392,1184.8349051969128,1169.1391652279535,435.13363020332594,355.0682808945485,-774.418057613939,-19.603991014218536,160.70051873287375
1.7575,-0.5806926910972235,-0.0115874144328,-0.0440517032234294,0.0552280601061935,0.2275823632378603,-0.0187523202215747,0.0041125825928014,0.0018819986519772,-0.2262906292325421,-0.9740639688185448,0.0274772260804667,0.0688510416409782,11.191532224653603,-0.0967666350155936,-0.0121561517198456,0.9158339215091618,-0.1878940871074472,1.551497124791939,0.2552399596015409,1174.925590523174,1193.5269316905503,1182.9229364026971,1169.2831167444776,390.920805468758,109.84682579242197,-726.4728779029765,119.55960428436155,160.69919116798087
1.76,-1.181286354537353,0.0219097448288424,0.1530395875446097,0.0508149696433411,0.2271424242327388,-0.0177936438449025,0.0041469826570497,0.0016349653051491,-0.2262749861339579,-0.9740626179837486,0.0292845848770439,0.0802815178734788,11.169451503891608,-0.0972917441211663,-0.0115376020775058,0.9192573610208342,-0.1881048415040227,1.551371610147982,0.2575386878011349,1175.8241723271078,1193.5468336983542,1181.202540807398,1169.7369632493755,303.3889132668329,-84.99167681007017,-604.5440507751792,242.1429749346368,160.69769313332995
1.7625,-1.6291028877591216,0.0710444153289041,0.2854171446139532,0.0455801684590231,0.227345299216435,-0.0167902281729803,0.0041645583517391,0.0013977762609851,-0.2262687976120029,-0.9740599686950832,0.0310971842343894,0.0917142595901201,11.145785574609766,-0.0977851741227489,-0.0108513939078485,0.9226266302263568,-0.1883149673810691,1.5512467223879591,0.2598435964192451,1176.4425350895083,1193.1019733065,1179.9002161488213,1170.4938316191508,196.3924116521821,-267.6991906385803,-441.31599376945707,376.90990188511057,160.6960043782786
1.765,-2.0005502002485955,0.118789973448934,0.3725257612569572,0.0393684573969908,0.2282202320970952,-0.0155598673040761,0.0041597467804877,0.0011618856198985,-0.226264555945841,-0.9740586115291852,0.0325103475540439,0.1027545624946858,11.119831107783078,-0.0982603632781399,-0.0100587448254055,0.9258788552428824,-0.1885225878615808,1.551127360330906,0.2621579798659936,1176.8061343853688,1192.208337745161,1178.9959608385507,1171.6215127588011,71.63990101202961,-372.05903682601325,-213.54667240397663,429.5933934126779,160.69377572186204
1.7675,-2.1982534176203385,0.1320629959412492,0.3924211336509422,0.034584855817689,0.2292162278515585,-0.014437780004759,0.0041485600128072,0.0009263647235893,-0.2262608686836037,-0.9740576223196286,0.0338272873594659,0.1136776665483143,11.093225250167372,-0.0987324238036593,-0.009235132251378,0.9290974268314184,-0.1887294948831518,1.5510095718220456,0.2644750614489886,1176.8007345945684,1191.2416781223699,1178.8324827868012,1172.6417985862142,-55.947582875934415,-429.9116581496128,40.7754053459948,402.0200286270296,160.6917626927444
1.77,-2.316186524823811,0.1075335525257024,0.3695559923117476,0.0302568753927284,0.230120435844509,-0.0134006745164396,0.0041184325057045,0.0006631415011254,-0.2262177556260747,-0.974067210638518,0.0340508205492584,0.1237744878122688,11.064664292440867,-0.0992449107116385,-0.0083102492728977,0.9321533010769614,-0.1889416012825774,1.5509010502302811,0.2668138878454509,1176.526396470989,1190.0587794544133,1179.1998378652806,1173.6316129019363,-166.77484260776865,-581.2957164104897,233.81656809770487,406.8323575483278,160.68960214477767
1.7725,-2.3935924176173446,0.0363962155711517,0.3098117107158684,0.0251861703586866,0.2307936700722968,-0.0127385583183612,0.0040889194710159,0.0003956387360759,-0.2261658516851724,-0.9740789530555044,0.0341077549851422,0.1335695880840173,11.035863856162223,-0.099767864736565,-0.0073771456756866,0.9351757792533052,-0.1891555676255522,1.5507938961709096,0.2691564810623032,1175.9668603815296,1188.3351995403175,1180.00156562729,1174.6759603739558,-233.22902463109503,-691.9267045064611,303.3295784165078,349.22114186428286,160.68685434214376
1.775,-2.407270509624452,-0.0490614497819135,0.2444553286255854,0.0203750553670654,0.2308830873658842,-0.0124797601169636,0.0040659535348308,0.0001102072398973,-0.2260740891959831,-0.974100303409789,0.0333587212933971,0.1419459976430185,11.006131660450762,-0.1003261616354116,-0.0064224022260671,0.9380514928735548,-0.1893785117863661,1.5506923993853978,0.2715153123965969,1175.3602513478336,1186.599145931881,1180.7164857573632,1175.3777186112577,-262.8440688036729,-758.594764952232,232.6627414412943,244.75261767574355,160.6844457438858
1.7775,-2.351457942099332,-0.1474859356309748,0.1706290859809083,0.0143351195705459,0.2305191525509627,-0.0121626680021551,0.0040524901016292,-0.0001819461518146,-0.2259804411133711,-0.9741220093227576,0.032340041298824,0.1495479224599499,10.976310716902589,-0.1009016210956485,-0.005476361734187,0.9408673589573778,-0.1896038016841941,1.5505927667820052,0.2738772086354598,1174.6526400375112,1184.5422257155562,1181.1648793344964,1175.8997234623344,-294.32643356331647,-864.7439365565973,96.5382017894647,187.0119847148584,160.68192559700464
1.78,-2.220924631351058,-0.2460755951087801,0.0916606482538672,0.0073983131210736,0.2298016165534856,-0.0116896767603895,0.0040567921380802,-0.0004866665094427,-0.2258832678066379,-0.9741443799729032,0.0307940341890399,0.1557117693827377,10.946324419523915,-0.1015061950348979,-0.0045475841896528,0.9435719104882226,-0.1898334770707517,1.5504966193730845,0.2762448348876895,1173.888619180017,1182.275426249098,1181.1991767663103,1176.312778534832,-311.4982584079892,-924.6502998136943,-113.21627155889713,156.60530573018482,160.679321086968
1.7825,-1.9933709008476237,-0.3350416844477145,0.0086338920511401,0.0003448059265959,0.2286277954952008,-0.0111041465876049,0.0040881456480477,-0.0008064663646964,-0.2258010622109384,-0.9741629939400178,0.0287579517908835,0.1604525727765329,10.916614123811643,-0.1021471309256039,-0.0036601521988482,0.9461911053506222,-0.1900653407701163,1.5504009979490732,0.2786147965657927,1173.0951487454713,1179.9189742164879,1180.598797976702,1176.6827499909855,-344.44157497881974,-993.8069000558925,-417.39771689334646,179.61364673687552,160.67662396860192
1.785,-1.6340658809630813,-0.425540537776095,-0.0864770918502908,-0.0062962758163271,0.2266973360564729,-0.010861052150454,0.0041426796449322,-0.0011391878856482,-0.2257316824906791,-0.9741783887944357,0.0263107012447008,0.1639766538020592,10.887140961276488,-0.1028198203801391,-0.0028084128849772,0.948737120266169,-0.1902990796411368,1.5503058272430723,0.2809867594771698,1172.166411305123,1177.3063917488184,1179.1121881818435,1177.2108467685164,-329.6322816798162,-866.9279699032159,-658.5871599623108,226.64503054429065,160.67329132339762
1.7875,-1.3046346165338925,-0.4920225551870591,-0.1497305764478978,-0.0094515959747443,0.2248225076437095,-0.0114251849272211,0.0042249060014182,-0.0014593127325066,-0.2256896986206886,-0.974187110738794,0.0240543881061592,0.1656844587498509,10.858518953636713,-0.1034741965245533,-0.0020179938897179,0.9511908216604243,-0.1905320828646015,1.5502099055759533,0.2833613321578583,1171.446987337072,1175.5843343669717,1177.3058621768903,1177.8159751437067,-273.3912102893159,-531.0747827146429,-804.9275356423722,295.92838508115796,160.67044144595613
1.79,-1.000828092292125,-0.5672322903850144,-0.181557009950625,-0.0107845207887381,0.2232729316331399,-0.0124022673131453,0.0043174488620044,-0.0017747448178307,-0.2256579207932923,-0.9741933467590568,0.0218920053053799,0.1667181614111264,10.830215368821086,-0.1041237414775862,-0.0012506462358969,0.95360993351576,-0.1907648120301261,1.5501137041459836,0.2857368770812949,1170.7994552536763,1174.6510178352453,1175.087550503632,1178.690488693922,-273.0906762095459,-174.44324626476745,-1012.9012153976633,464.1506705762921,160.66752422979283
1.7925,-0.7132155985106873,-0.6994349178227219,-0.1751569652758524,-0.0116385667987888,0.222467424820363,-0.0132914032134578,0.0044027138179849,-0.0020605847191013,-0.225667924775883,-0.9741898325379784,0.0205784367216484,0.1664467589358138,10.803466820863784,-0.1047059146807317,-0.0004932793225963,0.9559369128931148,-0.1909927366494272,1.55001984927767,0.288112962942308,1170.0815339560245,1174.7121181356479,1172.241356099902,1180.1367284965884,-261.9341670898904,236.11123490150524,-1025.6424562791144,603.4657094772357,160.66395416176485
1.795,-0.5531536023346335,-0.8637920391746281,-0.1327560088735632,-0.0119963812469064,0.2221938494153397,-0.0139309289350943,0.0044834140760404,-0.0023406917299702,-0.2256848483169159,-0.9741847566407013,0.0194816417681266,0.1659962948430387,10.777088129713748,-0.1052757970664839,0.000266812482511,0.9582459987190404,-0.1912198173658377,1.5499266328448835,0.2904904179990134,1169.4897844182267,1175.8315740097528,1169.9593382222365,1181.7078172413082,-250.40006859666724,655.005064216933,-838.997881618278,703.7137847527284,160.66092680666375
1.7975,-0.4733715994262078,-1.087076453841088,-0.0567487690316695,-0.0124041391318944,0.2209413133801079,-0.0147031581635344,0.0045319610524753,-0.0025952777347356,-0.2257281690449743,-0.9741739560430284,0.0193417683675436,0.16501175139976,10.75259848603688,-0.1057761154954884,0.0010576541664371,0.9604771084884596,-0.1914434671652766,1.54983694804959,0.2928787107347838,1168.8295336130411,1177.9871434567326,1168.0463666918104,1183.655297420352,-327.8834552161167,1125.9279436643478,-712.1507556524938,929.3805809622211,160.6578510621003
1.8,-0.4467704792906206,-1.3984280289485038,0.0589068447591929,-0.0132067275408289,0.2174458945413662,-0.0154246667181837,0.00457053220715,-0.0028406353391643,-0.2257725524698391,-0.974163251302238,0.0195640763562967,0.1638980687440544,10.72884954705964,-0.1062528951398832,0.0018535450773095,0.9626821741316716,-0.1916678219728517,1.549749672485658,0.2952740041233867,1167.8503671421463,1181.4612137280747,1166.398584443974,1186.3547201461195,-405.8034943260368,1353.6785821294247,-486.5817887273,1030.7404552307837,160.65411017311055
1.8025,-0.4564351570753533,-1.6680512856945493,0.1568952027094441,-0.014144319618809,0.2131161951477937,-0.015192510063942,0.0045856830757391,-0.0030643273824807,-0.2258194307932521,-0.974152771605125,0.0205988935025209,0.1624816627680566,10.706836125319525,-0.1066711742277308,0.0026612435054041,0.9648264918189188,-0.191893831931515,1.549668053086111,0.2976857329792694,1166.8005161414108,1184.7555363673796,1165.613457748174,1188.808999696506,-481.2097662551071,1309.7543650130144,-212.02551752344783,993.2825179316509,160.65095478764928
1.805,-0.4639816655907924,-1.9228999176629569,0.2290060120549405,-0.0158106058165464,0.2080052275194804,-0.0137641608637199,0.0046042657634229,-0.0032751120346583,-0.2258538728775812,-0.9741461165314454,0.0220653949734547,0.1605707399089056,10.686177503944192,-0.1070576906822268,0.003434966953114,0.9669247514334792,-0.192124048408387,1.54958993332961,0.3001089233287476,1165.4443183108708,1188.0099855531396,1165.3384568563567,1191.3211327357776,-593.5677064442506,1233.8969159974736,-60.30670206491638,988.891020456208,160.6477633832813
1.8075,-0.4457937476983065,-2.155956704220084,0.2643664043926606,-0.0179778354182163,0.2026287073294469,-0.0119787981971942,0.0046264381510732,-0.0034723954910391,-0.2258753065935232,-0.9741434620330388,0.023979459745269,0.1581439724693743,10.666935966802368,-0.1074107538905335,0.0041730285547632,0.968974920728738,-0.1923586649243799,1.5495154742172688,0.3025441024579487,1163.8326776091897,1190.925020947367,1165.3119242378496,1193.753454798787,-690.5973954569913,1031.8626407236695,-3.501542247795361,924.9267866075811,160.64454384660743
1.81,-0.3801014021819449,-2.361244095272367,0.2530613936961649,-0.0199958895629584,0.1973260380000882,-0.0106634848839706,0.0046685787988495,-0.0036725743200655,-0.2258842574672708,-0.9741454579090014,0.0259574190630843,0.1549712992925144,10.64971881359436,-0.1077555852122696,0.0048437582872178,0.9709568026763667,-0.1926000955417033,1.549441759593858,0.3049870717678746,1161.9913313335855,1193.169298756758,1165.3209491451175,1195.9457666688156,-822.1017864338767,798.8277688357072,-47.52482672538565,879.0788733433789,160.64129152135345
1.8125,-0.2457444821156311,-2.576984004650994,0.2005452558912058,-0.0214202599137263,0.1907747581024612,-0.0097116623456603,0.0047201680743681,-0.0038741231882506,-0.2258873016807327,-0.974149654259918,0.0279722977897445,0.1514465588619237,10.633461390694622,-0.1080973985429863,0.0054825342021642,0.9729063460920978,-0.1928447504713336,1.5493683972494503,0.3074337272536242,1159.7221686770204,1194.9191597915456,1165.0743001042226,1198.1488491655039,-800.8451310109364,482.4853289097167,-159.3164702872434,720.2199291197002,160.63735107957518
1.815,-0.0974823385870565,-2.728321537730176,0.1419450319338454,-0.0215519217750004,0.1845912058258694,-0.0092526468637705,0.0048048671484407,-0.0040913845645885,-0.2259046203997402,-0.9741525346496192,0.0297236086235334,0.147026432139008,10.619907008308703,-0.1084429374718678,0.0060379794871947,0.9747772284436562,-0.1930935504473104,1.54929419097155,0.3098864866555665,1157.9871056785312,1195.5817254013064,1164.5243667936816,1199.546866314414,-608.9433395488727,118.70502156357087,-294.9438919402314,455.0483546243308,160.63403532915711
1.8175,0.0753917903305822,-2.841553721943547,0.0912022998130563,-0.0211392641888743,0.1778555049714495,-0.0093062761937347,0.0048958200152646,-0.0043104109936497,-0.2259253615384239,-0.9741548894032668,0.0314588224963201,0.1424309450115432,10.606948335248584,-0.1087866632500123,0.006577073053712,0.9766328413150348,-0.1933427687587279,1.5492196874067796,0.3123402845934012,1156.677451979276,1195.5126848993634,1163.5995806445214,1200.4240909386256,-426.41029209275,-159.58908295046595,-465.2147955681705,259.5236139207313,160.63068454255168
1.82,0.3034311752212004,-2.9225422246566937,0.0630024460739001,-0.0208648699356195,0.1697422100946769,-0.010466231396831,0.00500684182559,-0.0045197417285011,-0.2259663602621486,-0.974152018845981,0.0334209160260029,0.137169981547212,10.596947353050256,-0.1090707155393033,0.0070595712313187,0.9784344222201397,-0.1935886735190381,1.5491424689254731,0.3147959546235489,1155.8550542180672,1194.7837799865542,1162.1982928158407,1200.8444843840175,-154.45900561722155,-340.4607504492633,-526.6978937608768,53.14425403844439,160.62661993752957
1.8225,0.5062672799351011,-2.935842613676947,0.0733828394080545,-0.0205675747836419,0.1629184199900634,-0.0119794517556273,0.0051173445606291,-0.0047266122608053,-0.226008760441558,-0.974146759837061,0.0354368191681078,0.1318640779567452,10.587710933566113,-0.1093383227206582,0.0075422343197997,0.9802307413533432,-0.1938319388501621,1.549064320591706,0.3172500581205714,1155.9051569511898,1193.8103811471171,1160.966091175717,1200.6898122088176,173.48579593586152,-425.37500851345607,-456.3992953009444,-148.23884953894182,160.62319386266176
1.825,0.7099617021909826,-2.880245355550839,0.1030676328775399,-0.0192427504703033,0.1558471213384779,-0.0128001049472881,0.0052262812150025,-0.0049260602173388,-0.2260553888951883,-0.974134294729094,0.0375958959805956,0.1264185049829646,10.580775331084396,-0.1095530716497768,0.008026265332835,0.982011066897724,-0.1940672408682052,1.5489833668383794,0.3196994352950262,1156.7224831977467,1192.656904943987,1159.916296339336,1200.103290136323,433.26687751158624,-465.973744981364,-354.2368073045882,-282.4342317252493,160.61972547450455
1.8275,0.8998231293156443,-2.7575581696974525,0.119354240805221,-0.0168029977197911,0.148585628237194,-0.0123676991008589,0.0053248133524157,-0.0051186922653043,-0.2260866830270719,-0.9741218642875756,0.0398650487752685,0.1210631038296043,10.575107377315389,-0.1097319776298056,0.0085320768199442,0.9837983280812714,-0.194298862533082,1.548902207377436,0.3221471146363005,1158.0714913387478,1191.4805124222103,1159.194907139194,1199.2776410501915,618.6573733945663,-453.3798483358973,-176.47993498753343,-350.13046039625,160.616221734413
1.83,1.058500936779171,-2.5468144744376278,0.0775633049074662,-0.0133309763036902,0.1414591760140414,-0.0104881838007466,0.0054100486271907,-0.0053026136542043,-0.2260983800579375,-0.9741094781494116,0.0422718174190254,0.1158223959724331,10.571058737694306,-0.1098646253447269,0.0090659436860175,0.985594425975544,-0.1945257807455355,1.548820785024334,0.3245926241647257,1159.8157700647196,1190.3900057023075,1159.0338966643983,1198.3526378343415,776.0987081377774,-440.8042186792138,82.58668825833587,-376.5658527419044,160.61267651921287
1.8325,1.2110164356322908,-2.196254133379594,-0.0741790966054119,-0.0090505736374849,0.1335650656672925,-0.007719822268255,0.0054774141183381,-0.0054696763859774,-0.2260806665171436,-0.9741038382027472,0.0449091336026765,0.110694747738848,10.568668435372256,-0.1099345021331777,0.0096372330127286,0.987417061270016,-0.1947529501115389,1.5487401815155897,0.3270422742523258,1161.9519848794366,1189.2764913288142,1159.6078405804856,1197.394811786482,728.1252383564762,-368.77377872584344,340.7951815319466,-288.5431215458145,160.60837769683016
1.835,1.3191830750833933,-1.8378394796593749,-0.2824356523443703,-0.0060382873206689,0.1278795710604015,-0.0061893041215231,0.0055342408652106,-0.0056267966875577,-0.2260456080269003,-0.974102176837387,0.0476824988586127,0.1056341928537443,10.567257161832988,-0.1099678633401347,0.0102306112525467,0.98925539895079,-0.1949802675959019,1.54866006092211,0.3294943662438239,1163.4563962565019,1188.5461368086783,1160.737872572058,1196.9099222266127,485.6656354987424,-251.1885643217225,572.6588560304531,-92.83335529180259,160.60476205200857
1.8375,1.4300109979387599,-1.4431243737879191,-0.5365605219231085,-0.0036757325950176,0.1237229356822303,-0.0065131884340177,0.0055682146547616,-0.0057568779533397,-0.2259801205243424,-0.9741099942906972,0.0507800349755982,0.1006298628472418,10.567766709490227,-0.109912307110576,0.0108670056551511,0.9911350289431176,-0.1952129738711632,1.5485835237318035,0.3319610765397535,1164.3803130569304,1188.0205485072056,1162.471134860638,1196.9306450100228,243.42370368021312,-194.32142698105517,865.3578246518263,148.56208226724104,160.6011180830492
1.84,1.5821720698880593,-0.9767821260644504,-0.821778455487832,-0.000783847071108,0.1206671316481623,-0.0092359410750961,0.0055970913229939,-0.0058810820611347,-0.2259077856926441,-0.9741199605927762,0.0539438038460568,0.0956370103997403,10.568721026483352,-0.109837880447348,0.0115131141316912,0.9930241540660238,-0.1954469494749823,1.5485078599827504,0.3344311693897572,1164.6735147749027,1187.5745296737728,1165.0646616953172,1197.6527326379487,-16.458900264615647,-145.533226148203,1000.0839683388436,379.28221003986334,160.5967218321771
1.8425,1.7216335891611996,-0.6297527406065501,-0.98973009674223,0.0023144768524632,0.1194495474964761,-0.0128985331207666,0.0056206313942847,-0.0060156645636836,-0.2258217773120038,-0.9741359101227915,0.0564540499402203,0.090424017036799,10.571710476854152,-0.1097521129453322,0.0121745483749286,0.994945836487182,-0.1956895083743853,1.5484410953044496,0.3369179417011636,1164.298018555607,1187.2928823764646,1167.4715547023322,1198.8270560602223,-229.6298950918348,-110.42964856246962,965.299899200702,562.409842360251,160.5930462629892
1.845,1.8532812035759176,-0.3590978512020668,-1.040198760905155,0.0065179329973959,0.1191421948695063,-0.0171692970769522,0.0056416546525341,-0.0061596077157545,-0.2257406280863205,-0.974151099496904,0.0586890373476201,0.0852386112553444,10.575057332277169,-0.1096799719827766,0.0128417778562953,0.9968695660740526,-0.1959317727589235,1.548376973064426,0.3394062095667982,1163.5253652994438,1187.0223814309606,1169.8911611913206,1200.46478184975,-350.44162295479606,-128.26563248090383,1014.3000680848438,772.6373106269242,160.58936684181919
1.8475,1.9683429015219835,-0.1445172299226593,-0.9481985088631978,0.0127595140265337,0.1193445324490928,-0.0222454851795047,0.005652557874263,-0.0063411897839703,-0.2256790173900449,-0.9741632323048856,0.0598152915066981,0.0801595970517925,10.579834527674947,-0.109658886569642,0.013531978342719,0.9988012023116813,-0.1961728529072315,1.5483234759965667,0.3419004910151492,1162.5458104408333,1186.65155421406,1172.5430550427564,1202.6902426133568,-309.55616520226806,-142.5681510902417,897.3533119700525,812.7733972839262,160.58495605601897
1.85,2.0077392792918847,-0.062316988057185,-0.7582541853189633,0.0184071195495701,0.1197286870287461,-0.0258136433314665,0.0056567065486766,-0.006528258026086,-0.2256279816856452,-0.9741733498462772,0.0606829493631431,0.0751554307202008,10.585222419626357,-0.1096424076869645,0.0142216494146207,1.0007322205362343,-0.196411840578697,1.5482760856525315,0.3444022230997928,1161.9775844734324,1186.3095406755094,1174.377927751171,1204.5286488361699,-125.03581955116071,-130.01621952030567,623.7809408095604,684.0884103564949,160.58129002169835
1.8525,1.9768514549110652,-0.0745295204677069,-0.4952217494514358,0.0238654867037741,0.1201114795843333,-0.027788830615914,0.0056502552574112,-0.0067239357652313,-0.2255935414014425,-0.9741803048135256,0.0611446269332276,0.0702681565924134,10.591567149394628,-0.1096322633712359,0.014910416567605,1.0026622057190249,-0.1966475445093461,1.5482382786395357,0.3469156475281721,1161.9206313430775,1186.0014731164583,1175.6619597468043,1206.1106846651392,78.23434830857134,-102.00053999265253,402.7464397377657,568.455349986892,160.57764019020544
1.855,1.8892131679490465,-0.153261504662477,-0.2181889853743877,0.0288906851863604,0.1203533121549736,-0.0279423489013712,0.0056366434620521,-0.0069003978614506,-0.2255641006116607,-0.9741864776053336,0.0618034825573128,0.0654143694888383,10.59871082013866,-0.1095823236515978,0.0155677432279533,1.004587583481164,-0.1968827142453689,1.5482050494472794,0.3494473107826686,1162.3687562149753,1185.799537975546,1176.3916599498596,1207.3709255861042,292.39408749227266,-38.43266752137506,142.03944106434696,421.1220090242567,160.57400788161135
1.8575,1.743388451927253,-0.2901028089620951,0.0212511512226622,0.0333383668958265,0.1202450586302928,-0.0264975479135787,0.0056178305978502,-0.0070629025769588,-0.2255382912302717,-0.9741920822600022,0.0626043329111997,0.0605856101727403,10.606435405098537,-0.1095036617932848,0.016202371553922,1.0065096164261242,-0.1971174959663875,1.5481751453785764,0.3519922219019814,1163.3826017805388,1185.8093097788517,1176.372156952126,1208.2162947102606,539.1827491940478,61.1772919892232,-186.04101393293172,291.84638402929755,160.57040095003617
1.86,1.5190382434149388,-0.4840818133327635,0.2194335829281016,0.0380279139867693,0.1194323609370896,-0.0242733547800796,0.0055857249516003,-0.0072040542379376,-0.2255066244277434,-0.9741990951638196,0.0636636801892163,0.0560859200028233,10.615069321085116,-0.109381438970664,0.0167979910467345,1.008424283975471,-0.1973560491919111,1.548141624840218,0.3545542992452695,1165.0646699609456,1186.1054244354923,1175.461454880195,1208.8301575062508,659.2697356757828,147.804547522079,-467.8105266528638,179.55656785665764,160.566106572175
1.8625,1.304943646093567,-0.6385187726045927,0.2996665120846612,0.0412412952114106,0.1179682818644178,-0.0225592340476738,0.0055496330335533,-0.007338802493012,-0.2254732010875235,-0.9742065303768156,0.0647980367900949,0.0516869150254655,10.623977687141975,-0.1092468230473496,0.0173823084465364,1.010336731821263,-0.1975957334253745,1.5481070197861468,0.3571215244375366,1166.6789504589178,1186.548332516462,1174.0331043188617,1209.114077549544,653.6683769020468,193.7741277003211,-671.1188238687697,93.20454202675337,160.56255886149265
1.865,1.0779394480419624,-0.7465644791481701,0.3014283478431734,0.0439136588778433,0.115513312139851,-0.0212878254579728,0.0055031444121123,-0.0074665459750986,-0.2254345923024038,-0.974214532668847,0.0659120977398434,0.047905440548391,10.633790002645528,-0.1090987293044595,0.0179226751477351,1.0122628450343507,-0.1978317820030356,1.5480694732488907,0.3596741368180662,1168.3330118454555,1187.0742950739939,1172.105860760851,1209.2961802163843,713.2407334403222,216.6072212947302,-896.428834919262,79.51121422688799,160.5590453892545
1.8675,0.8049143264256088,-0.7875783693796774,0.2415415828459789,0.0468911020125002,0.1116077282338054,-0.0204224701931961,0.0054563235470084,-0.0075936937631603,-0.225395383535738,-0.9742224404543623,0.0670068330232803,0.0442506841264742,10.643735989623083,-0.1089508385821058,0.0184543196778231,1.0141992395839574,-0.1980665328287226,1.5480316640197689,0.3622217850700709,1170.2451541261191,1187.6313686229355,1169.5509601442654,1209.5116336206784,685.5163692186876,173.07719781374144,-923.857383789324,85.77423214364701,160.5548698604972
1.87,0.5880303297332304,-0.7380059942867251,0.165198784108866,0.0489757604248714,0.1081656981205927,-0.0202278619957981,0.0054101195526883,-0.0077191399373414,-0.2253540097576998,-0.9742296733035904,0.0680131257797671,0.0411537068034786,10.654214050597044,-0.1088031188744304,0.018944137389777,1.016190973792156,-0.198294771694292,1.5479930688117238,0.3647446942346621,1171.7605936915493,1187.9396810630626,1167.4865738419046,1209.7250513771028,598.7938774870006,84.13005191918988,-756.6918416655251,89.70934965068201,160.55142396178687
1.8725,0.4009143332843643,-0.6152629679298738,0.0893321060081557,0.0502955159533445,0.1054110783569353,-0.0204788989560907,0.0053596982334338,-0.0078424236047016,-0.2253158560589709,-0.9742355239458228,0.0690529989320015,0.0384246853704442,10.664768337621519,-0.1086492482907797,0.0194332655600997,1.0182224607965686,-0.1985212618467697,1.5479535963143791,0.3672619142927517,1173.2391235135544,1188.0520188825317,1165.7675009359375,1209.9601803689316,596.9579054917758,20.438845794570152,-602.1372533049217,90.45323647278758,160.5480117827484
1.875,0.2562051238622525,-0.4598420838449299,0.0294761559351636,0.0508196515664655,0.1036371056033889,-0.0209925072460221,0.0053010697354595,-0.0079614988982137,-0.2252839688364551,-0.9742386847265871,0.0701620731362979,0.0364087540095468,10.675468792894687,-0.108482463768699,0.0199205292832353,1.0203313033710484,-0.1987443488939385,1.547912416557059,0.3697680629929218,1174.745383219008,1188.0418752920355,1164.47588757538,1210.1773175594667,622.4089166939071,-11.765396616056272,-400.6025443790434,75.36842541758394,160.54462582071872
1.8775,0.183094662670088,-0.3110983618998329,-0.0014900090451691,0.0503202618126021,0.1033181235692323,-0.0216287920118357,0.0052434891257738,-0.0080898911748963,-0.2252635969043742,-0.9742379792272792,0.0710319957174078,0.0349212907860461,10.686050191448151,-0.1083283750307744,0.0204077249895994,1.0225114871776149,-0.1989692935969886,1.547869394397694,0.3722789065057765,1176.351168097024,1187.9931918994514,1163.7644882140423,1210.3370224960197,737.8606849014261,5.164107565997137,-188.12626705534527,58.6385007171416,160.54126840827695
1.88,0.1910743165786396,-0.1971992900638334,-0.0058862350341852,0.0490249805041748,0.1044417754757808,-0.0221456817779506,0.0051868397122594,-0.0082265629019279,-0.2252534579279258,-0.9742338379941816,0.0716882170398091,0.0339037242548125,10.6965257830522,-0.108185807919195,0.0208949728996962,1.0247550764228883,-0.199195889088642,1.5478247350049052,0.3747939220202129,1178.4346866435153,1188.0676958298654,1163.5352562401033,1210.4705100630524,786.7770563349768,75.52512334909632,-0.659296794037785,49.711493692710725,160.53726739236652
1.8825,0.2690206253210874,-0.1825149318362422,0.0095762806761506,0.0479469073393105,0.1061024127373864,-0.022149828900601,0.005138300478495,-0.0083690572276201,-0.225246779007484,-0.9742283191737332,0.0720987891250527,0.0334561952516272,10.706533294715337,-0.1080402407461106,0.0213711619002837,1.0270851601776831,-0.1994284757302863,1.5477800284739327,0.3773320816548206,1180.2850533786989,1188.370817516197,1163.7611917300724,1210.5855799644833,748.1983377661139,197.05943025142423,145.05784518405872,65.45227536958149,160.5339521239597
1.885,0.384540580098475,-0.2518218276487317,0.0316043426960271,0.0476753416837115,0.1073481157496612,-0.0217669104596542,0.0050929226147659,-0.0085138212180425,-0.2252414488262461,-0.974222263366004,0.0724104136550568,0.033232579072832,10.7163589963513,-0.1078943064275806,0.0218434766291114,1.029448984412888,-0.1996633977384259,1.5477353035683692,0.3798792629301638,1182.1756783323456,1189.0529929811223,1164.2605454660236,1210.7977714399003,812.4464365835311,404.60493396609263,248.98148454840873,133.73228787031903,160.5306513088891
1.8875,0.4962873464325961,-0.3921806415975771,0.0536692812725973,0.0492630152400106,0.1068239015105171,-0.0211349819420851,0.0050323744784282,-0.0086329231592454,-0.2252336357148538,-0.9742206334960126,0.0731486837516074,0.0340727054341703,10.725286290662488,-0.1076561395645736,0.0223404762263891,1.03188636547559,-0.1999012054449925,1.5476964557581407,0.3824705130335847,1184.3472855616164,1190.393842186027,1165.0060991528144,1211.2542414038348,757.5645033198094,578.2711998846347,281.193138152178,204.41953048115903,160.52670134388964
1.89,0.5100566626163954,-0.5129269746361478,0.0650989513878644,0.0523246724386322,0.1044536295837117,-0.0206556728677768,0.0049688632464626,-0.0087469752688816,-0.2252254068550998,-0.974220212404749,0.0739550630938602,0.0351263804157724,10.73400728800884,-0.1073997881632648,0.0228432632045772,1.0343336385959563,-0.2001391526564223,1.5476588544143792,0.3850694416624485,1185.9635008489447,1191.9443489805456,1165.6665111567845,1211.819869092306,584.8579740547713,691.2182416990913,265.3100842737724,253.5709407677528,160.5234149785985
1.8925,0.3914817061079204,-0.5936143380697629,0.0718432202168352,0.0560764233354095,0.1012017077876216,-0.0203106717149027,0.0048922020658792,-0.0088384443689813,-0.2252156514079939,-0.974226739695852,0.0750188249088284,0.0371318981405344,10.741665683301086,-0.1070548658862931,0.0233700093667483,1.0368042393255519,-0.200375767722951,1.5476272380999687,0.3876981724973361,1187.2715754318904,1193.8499333945228,1166.3326495741833,1212.5220961076736,463.5926698749344,792.8248702124334,270.49827690075864,285.449973493002,160.52012975079123
1.895,0.1538328388165765,-0.6281343221859206,0.0800288256708844,0.0592298040255042,0.0981982344970819,-0.020067585734244,0.0048171868030634,-0.008930853458059,-0.2252015206149758,-0.974234710083059,0.0759292075283633,0.0393262708782559,10.748970490076905,-0.1067029462346888,0.0238970418176316,1.0392698256626272,-0.2006105928526678,1.5475975868579148,0.390328177453758,1188.2814641983196,1195.9084733316079,1167.0190025412883,1213.2471189597711,332.41573411369956,811.7816306738122,287.4644123157002,268.37141604219715,160.51684248201832
1.8975,-0.1996693770506689,-0.6175685957180296,0.0983052926391478,0.0606298726681176,0.0961196346334873,-0.019895271307383,0.0047462078171437,-0.0090255676779696,-0.2251766601804381,-0.9742462193684897,0.0764667639728536,0.0419791072544362,10.755407748292708,-0.1063328520060733,0.0244233653920391,1.0417231928086619,-0.2008410285282202,1.5475727545541502,0.3929613069328096,1188.9336541024588,1197.9088415478918,1167.7699716357615,1213.8639531878844,217.2151457194964,795.4455163628878,350.74415673078977,216.5413781595312,160.51354946255813
1.9,-0.6846959797589351,-0.5861342460295121,0.1427795247092797,0.059386992627582,0.095011548784795,-0.0196928257818096,0.0046859295138508,-0.0091162996951894,-0.2251461731130165,-0.9742582478600494,0.0767834889162085,0.044670966405446,10.761298438565294,-0.1059485259373146,0.0249334859193886,1.0441638796752293,-0.2010687726072228,1.5475494295437016,0.3955926420005841,1189.367539926917,1199.8857009134224,1168.7727233249423,1214.3298258505688,117.4977024731079,605.6656229773895,379.0584224660873,115.0735587264963,160.5095873702156
1.9025,-1.0757129027203811,-0.569139659636929,0.2054732609728469,0.0560895275636467,0.0949033512935463,-0.019484479152089,0.0046372572060252,-0.0092027126023123,-0.2251095833811179,-0.9742708394842792,0.0768610836263407,0.0474042679752037,10.766596268194961,-0.105548683504613,0.025425796167924,1.0465908491485885,-0.2012935973717811,1.547527739348526,0.398222030844003,1189.5211426148244,1200.9371696627788,1169.6652637480922,1214.439320981517,43.217362556516505,255.49967968473172,348.54125210791443,-4.7716836174914645,160.50627448971417
1.905,-1.3874850853279477,-0.5761410942565581,0.3002852026164875,0.0513994285284574,0.0946971911724066,-0.0192246794767973,0.0046071275323579,-0.0092811362643035,-0.225070776783973,-0.974282455424844,0.0766284336780916,0.0499789395227991,10.77123630477972,-0.1051337331633775,0.0258927617585035,1.0490046726443665,-0.2015157572754163,1.5475039292414448,0.4008518886138173,1189.5836267396996,1201.163199311846,1170.5154295854816,1214.305967432481,37.71607091130216,-108.28286807214,328.13218711072085,-75.86542625681594,160.50294784708825
1.9075,-1.6252457002207374,-0.6034703245012787,0.4516413188431928,0.0450188731504114,0.0934403387323287,-0.0189111820608303,0.0045861410114135,-0.0093556205243868,-0.2250308770768989,-0.9742935902673788,0.0762421512664234,0.0524754731071268,10.77555190182548,-0.1047116829889156,0.0263473627763044,1.0514120652672232,-0.2017366031677738,1.5474790738309752,0.4034819776056691,1189.709722969381,1200.395755322418,1171.3059246836456,1214.059993850233,76.01785479418874,-444.2986071577605,223.68636117429952,-62.99659566738992,160.49893844419412
1.91,-1.7013090509434967,-0.6248424473538017,0.602465743967626,0.0395785886094583,0.0914150796944989,-0.0185452061081885,0.004564681678302,-0.0094254366371721,-0.2250066165034049,-0.9742997493930674,0.0754581902338891,0.0551346187277903,10.779180495610216,-0.1042796442031608,0.0268314787381328,1.0538122952933646,-0.2019505417693085,1.5474531490264658,0.406114531213521,1189.9637160136704,1198.9417062760572,1171.633861391353,1213.9909844541444,151.63950573864545,-714.0825315641284,37.99272832525188,51.45165830881405,160.4955823461355
1.9125,-1.6672853548324584,-0.6261338743415223,0.7583824897670596,0.0347284321365092,0.0886388251439269,-0.0175337210413428,0.0045425473669181,-0.0094945211557539,-0.2249856406439248,-0.974304894361795,0.0745841745970375,0.0578344535336377,10.782666241558424,-0.1038467606982031,0.0273238145031978,1.0562114806023764,-0.2021631149190852,1.5474270876202427,0.4087479497585431,1190.467920498074,1196.8253426645974,1171.495888325272,1214.317252141777,289.497373277033,-1017.919012718652,-173.5197021638706,273.53490401938546,160.49221112581034
1.915,-1.5426198463877343,-0.6023131062724316,0.911806641967102,0.0301883226853493,0.0855437437392967,-0.0150115921978857,0.0045090157546836,-0.0095641701545788,-0.2249786671810023,-0.9743061734234674,0.0732451435507362,0.0607973575955509,10.7855702507439,-0.1034193642116586,0.0278752814096878,1.058612144940689,-0.2023711297021725,1.5474017463654828,0.4113901953172843,1191.4112028800555,1193.852111212464,1170.766262880534,1215.3586589742413,400.1554361334996,-1105.4736409988216,-344.6777468798319,493.0776137935132,160.48814970949988
1.9175,-1.4058627268556816,-0.5768890891210317,0.9789861038119124,0.0275743414714089,0.0842410990011159,-0.0117218894840615,0.0044725381717724,-0.0096335869673585,-0.2249733117294985,-0.9743071577832594,0.0718171958506099,0.0637907021572136,10.788367988860916,-0.1029945642109618,0.0284399199819629,1.0610146444675415,-0.2025796405617001,1.5473780995227011,0.4140361028073911,1192.4686976787416,1191.2979744596034,1169.7724995908727,1216.7826402107446,466.3308004976088,-971.9116971083829,-433.58114004932776,654.0562214050309,160.4847537581869
1.92,-1.2704980744383083,-0.5728168766446917,0.9539221968463956,0.0260508480054255,0.0843563904981149,-0.0077379428153554,0.0044267259803669,-0.0097022680749782,-0.2249730831121659,-0.9743072083500914,0.0701092958456399,0.0668793487801797,10.790830259686544,-0.1025766731893623,0.0290453179380871,1.0634228854413033,-0.2027897232900146,1.5473598215970534,0.4166936135004427,1193.7428568825435,1188.9925527269222,1168.5983571802872,1218.6289400812664,528.3311695516081,-843.5853154096353,-454.6480626253364,763.4389743591606,160.48134903549777
1.9225,-1.1469459959457342,-0.5976555369144452,0.8471248902121297,0.0249715141164739,0.0846746381467732,-0.0040299852281381,0.0043768035179046,-0.0097788202552891,-0.2249777070299482,-0.9743065973610744,0.0681158980616732,0.0699931779504347,10.79316414427878,-0.1021811494746602,0.0296692491577724,1.0658330854778086,-0.2030017199617072,1.5473472347587796,0.4193582936522432,1195.1103535264997,1187.0800478825552,1167.4992592777462,1220.5998350825405,540.0614362070758,-649.4165658811958,-366.66839285902887,749.2614217955006,160.47793997217755
1.925,-1.024052885582245,-0.6469779206888048,0.6597020525745797,0.0235361846905966,0.0840701054180664,-0.001405799542449,0.0043214310853689,-0.0098658090004936,-0.2249887651149158,-0.9743051091891348,0.0657441586716884,0.0731402861202843,10.795327842233618,-0.1018151959945938,0.0303176440222422,1.0682458781662079,-0.2032162544062107,1.5473421939571175,0.4220324800714124,1196.4431640635792,1185.745469897516,1166.7650152159922,1222.375247190244,533.0453222891833,-460.91669380044624,-187.62249406955047,649.0409750798929,160.47452977868437
1.9275,-0.8315112448934474,-0.6967155701780415,0.3871021510363402,0.0207978047926527,0.0816072693029742,0.0001153286927431,0.0042787822997349,-0.0099757690091067,-0.2249960631101546,-0.9743053844304782,0.0627099665780213,0.0759624927931739,10.797380568830947,-0.1015140014355676,0.0309466160704375,1.0706594503776388,-0.2034335133673504,1.5473431512127926,0.4247129496889268,1197.7755801379456,1184.7754644135528,1166.5611468073985,1223.84503995794,411.276793149054,-275.31587734238786,51.58535151003999,381.0512100164569,160.47044213609604
1.93,-0.5923385055004493,-0.6996605977274223,0.1594132849569224,0.017793157160238,0.078330491115397,-4.41600175554131e-05,0.0042439325709417,-0.0100998094296025,-0.2250010563295891,-0.9743067405695026,0.0592692531952291,0.0785856793369494,10.799364557284203,-0.1012530944743099,0.0315638698562741,1.0730735467506876,-0.2036524423418342,1.5473477850236623,0.4273972706410006,1198.4995480293244,1184.3688905108042,1167.0229419735424,1224.280503240326,181.21947446956747,-118.12687077990358,300.5649398916306,-14.8667344818474,160.46704432861387
1.9325,-0.2337735470914938,-0.6435321129154281,-0.0291482235086815,0.0144899752157813,0.0748429679444775,-0.0013350282867479,0.0042344219670581,-0.0102366057051674,-0.2249975104406036,-0.9743112491784885,0.0554026229418747,0.0805253434325201,10.801273334801747,-0.1010421006475086,0.0321191382581467,1.0754938035496877,-0.2038725415040739,1.5473523408962029,0.4300889659538844,1198.6816775102934,1184.1848300596535,1168.0639715068567,1223.7707062855307,-50.75196190577909,-65.30943159755074,542.4957826109096,-424.62571576419504,160.46366158734563
1.935,0.3396434390968343,-0.5226469887129886,-0.1881584615595945,0.0111685945974823,0.0715856157185082,-0.003151951400551,0.0042308537606378,-0.0103763928844459,-0.2249919619592897,-0.9743164971044032,0.0514353124468624,0.0823047954717825,10.803163272854288,-0.1008438626092914,0.0326601013857188,1.0779156063829463,-0.2040929149692811,1.547356878037934,0.432782391588785,1198.2457882197955,1184.0423433528165,1169.735420886597,1222.1573746615052,-250.3389139926238,-48.222450703270745,637.0591403221305,-714.5963789692967,160.4596275219887
1.9375,0.903344182287423,-0.4108179314367711,-0.2675342752821966,0.0105169076225651,0.0701068412177643,-0.0041287350989571,0.0042214149166614,-0.0105055800750499,-0.2249877333630534,-0.9743212497577542,0.0478289059610504,0.0839405461595777,10.805004189293607,-0.1006292822000579,0.0331897275575295,1.0803521021522693,-0.204311245630514,1.547354920805475,0.4354874166961709,1197.4299829403303,1183.943717806137,1171.2492672084672,1220.1977243906842,-374.69338060528463,-21.47044851822148,579.8142489910912,-831.3512196300686,160.4562929221208
1.94,1.474778876201262,-0.3414479935317858,-0.3095097085193699,0.0140027368913465,0.0700896209156935,-0.0044231363342622,0.0042056869265922,-0.0106343398820589,-0.224985536205137,-0.9743245469501424,0.0443096116622324,0.085678427410825,10.806837403799525,-0.1004131680109478,0.0337302676752853,1.082791485420412,-0.2045286847793935,1.547353252678915,0.4381955283026057,1196.372321316769,1183.9349911102252,1172.6344921315524,1218.0006185633547,-420.0990947072472,36.5605248663988,507.12378208507937,-848.1773161670195,160.4529942988177
1.9425,1.9806384347508417,-0.3452948921571317,-0.3345518814009799,0.0203517951636286,0.0709616932185003,-0.0046190402970637,0.0041631673053836,-0.0107612790438703,-0.22499199293208,-0.9743216439091946,0.0411644548796859,0.0878508201464391,10.808642103726799,-0.1001864818937498,0.0343162353046424,1.085242804101978,-0.2047423261042476,1.5473528161374523,0.4409167883305923,1195.329487466794,1184.126520430469,1173.7848861188927,1215.956837809849,-365.34908274151417,161.13797687857723,392.7010801425604,-702.2029395017236,160.44973172185033
1.945,2.3416401911573406,-0.4639071744434065,-0.3489679291454353,0.0279231769303114,0.0721750758743765,-0.0050881706092287,0.0041083947325326,-0.0108843866587709,-0.2250077868462937,-0.974314730551828,0.0383080966519316,0.0902315158334767,10.810432618646267,-0.0999499570167264,0.0349246216150743,1.087702198890295,-0.2049528897148934,1.5473551060714759,0.4436430738953396,1194.5455759030615,1184.7406809946183,1174.5979975322653,1214.4896038658462,-242.66621481502233,401.2686961964931,288.0434438745458,-443.0901999881465,160.4465202071418
1.9475,2.568135630462053,-0.734505956385513,-0.3577784761285038,0.0367168446004009,0.0728909817143224,-0.0060549830902551,0.0040336440787562,-0.0110012470479835,-0.225038804772513,-0.9743012784902952,0.0359233176092693,0.0929517212051559,10.812200872274463,-0.0996965421868974,0.0355693101059581,1.0901746892082687,-0.205158435202126,1.5473618414444024,0.4463775534514641,1194.1161563927187,1186.1328639114515,1175.2251033382652,1213.7413868099084,-59.33911556308102,622.0635087915657,187.46705610069912,-89.04165326657865,160.4427349934612
1.95,2.582841945536383,-1.0338842029640587,-0.3579759957636114,0.0432620275422973,0.0718610686315121,-0.0071488175007561,0.0039508043098858,-0.0111070114700492,-0.2250778017980581,-0.9742860241567408,0.0341011468396175,0.095773782132119,10.8139428903778,-0.0994229757733166,0.036224409820798,1.09266576440083,-0.2053612891575638,1.5473714453802612,0.4491101823477456,1194.248880325246,1187.850998538576,1175.5353328127687,1214.044395599513,152.1140909322149,773.2473522421792,101.07286523552597,289.7971874688143,160.43964461462392
1.9525,2.4301726050922814,-1.3449820821220413,-0.3522057937995158,0.049402101857047,0.068344304611187,-0.0080021571064696,0.0038618673361884,-0.0112044122597939,-0.225122813103578,-0.9742694113530024,0.0327031495013825,0.0986728273081031,10.815665038733588,-0.099134248712293,0.0368876523140484,1.0951707904190535,-0.2055621143594903,1.5473832115076023,0.4518414163013179,1194.87672684738,1189.9991006726625,1175.730467664443,1215.1903727472525,374.2399141095034,975.8583071575005,78.80014480588034,628.0540237712412,160.43662854178024
1.955,2.0748966125728106,-1.652591800036955,-0.3423153598660856,0.0567613783275126,0.0617620291969894,-0.0082570752143008,0.0037840189005987,-0.011304753501775,-0.2251813793084178,-0.974250857410794,0.0316489603535001,0.1013539697137622,10.817344700826663,-0.0988641536977085,0.0375304018240911,1.0977034162414097,-0.2057641760634903,1.5473970399995025,0.4545689536201849,1196.1200798957937,1192.7302900743637,1175.929333536798,1217.1846657183696,522.9466067869564,966.6367747694243,75.69917896785388,768.5060722146026,160.43310411970637
1.9575,1.657472546594756,-1.8145533428060348,-0.3299801075703179,0.0619185082079936,0.0555035729638364,-0.0081930155631312,0.0037096672998793,-0.0114060220324405,-0.2252442201294555,-0.9742316913192992,0.0307031085500909,0.1039668103638425,10.819010596975659,-0.0986004209346269,0.0381672576173321,1.1002446961163508,-0.2059666277055981,1.54741151887004,0.4572953251838356,1197.4914598813148,1194.8322845465095,1176.1089635592823,1219.0329031083252,601.6056329972017,738.5723210319313,78.76598964835635,702.7184930769786,160.43025254932624
1.96,1.1518889964221783,-1.8654570948289997,-0.2989494947047341,0.0652086896526159,0.0499086659455053,-0.0087434819792369,0.0036728461765138,-0.0115293127195293,-0.225315333973361,-0.9742119050129784,0.0297398647611212,0.1058958155184788,10.820634901402672,-0.0984029500531622,0.0387395979436388,1.1028123849918865,-0.2061739312605005,1.5474237107558446,0.4600310144305974,1199.1281080607796,1196.4231516795232,1176.32316348504,1220.6982581837544,764.3475853368096,531.493309878248,102.49500017111804,628.6064840082272,160.4274971320363
1.9625,0.4935784981931228,-1.8178787041963085,-0.2123536504712582,0.0674340314700356,0.0447906594461553,-0.010521221510669,0.0036433123761358,-0.0116516325680406,-0.2253845227223099,-0.9741928121519424,0.0288886906625988,0.1076622060843968,10.82225881122607,-0.0982065901628157,0.0392973382903869,1.1053829832658597,-0.206381774623938,1.5474356614145284,0.4627718419388886,1201.313197807999,1197.4897510959008,1176.621438560138,1222.1759355283666,826.3871418075076,239.14773593355125,116.78759780497514,435.9468604886287,160.42431014960567
1.965,-0.0623788766715714,-1.7093546121229977,-0.0835940535206686,0.0681648332336571,0.0415620909140476,-0.0125941552051802,0.0036463927640014,-0.0117609499238032,-0.2254392687329898,-0.974178165697711,0.028731362538669,0.1086498265669061,10.823894768766223,-0.0979908239975905,0.0397835668167809,1.1079628642271386,-0.2065913700914582,1.5474468671581976,0.4655411585893223,1203.2600437698172,1197.618890359191,1176.9071014740648,1222.8779924861976,790.1790001441153,-86.89778473635855,125.94393652648517,181.61390103210053,160.42175965612535
1.9675,-0.583345665061596,-1.545352639960297,0.1007434712052238,0.0674338464179285,0.0383665185261537,-0.0141723926647829,0.0036645506223946,-0.0118658086652902,-0.2254792935480772,-0.9741671354101388,0.0288058262558162,0.1092667121550708,10.8255708116616,-0.0977684725423962,0.0402368824611493,1.1105343209644578,-0.2068005324526253,1.5474579960550308,0.4683239864884545,1205.2640928087192,1197.055262172219,1177.2511582427703,1223.084005033527,797.5400545863693,-303.29807081425963,153.43600161354843,28.13497295683252,160.41932479781747
1.97,-1.0418644123188154,-1.3364452549212276,0.3077954330218875,0.0652456304137897,0.0347703439867588,-0.0143605977579585,0.0037132668910727,-0.0119616308668561,-0.2254894820365754,-0.9741634342235742,0.0293504974645464,0.1091321877697041,10.827327959885976,-0.0975317710033695,0.0406230650088454,1.113088654575329,-0.2070088170112717,1.5474689692017911,0.4711341984425203,1207.2477440427488,1196.1024000051195,1177.6742814821323,1223.0186673509816,766.6614714166194,-410.86633572307574,199.08702724528203,-47.85838224220132,160.41699019184728
1.9725,-1.3863199725987632,-1.070495746473932,0.4970030842825355,0.061332396366791,0.0311124026823779,-0.0125978368018179,0.0037726293691313,-0.0120551949430906,-0.2254747789727709,-0.974165591367936,0.0301923996754607,0.108667478180408,10.829215739131797,-0.0972864344082432,0.0409880914987488,1.1156138492925969,-0.207214204982114,1.5474827088253873,0.4739553601969879,1209.0974001658024,1195.0009304936036,1178.2465933789967,1222.844713122316,748.7044192079164,-428.9195216313048,302.02461456614606,-54.326858977218414,160.41478131103273
1.975,-1.6308531392257548,-0.6916720156248543,0.6480190739809618,0.0553816624614921,0.0274622091204446,-0.0092836196743346,0.0038418021398828,-0.0121466781969738,-0.2254371387860018,-0.9741731468601064,0.0313080843421475,0.107898666319844,10.831224087976288,-0.0970332691734166,0.041333506093443,1.1181122385138176,-0.2074169237987856,1.5474989977082092,0.4767866119978773,1210.9912661387887,1193.9578023969632,1179.1844045549633,1222.7470330560957,615.6503017113795,-279.1339529411803,395.07703627301373,0.0887794371010405,160.4122816537462
1.9775,-1.6832810133084168,-0.3430834493703418,0.6854712391686232,0.0500975727132519,0.0255553031168828,-0.0064202337030187,0.0039006081134964,-0.0122239002309152,-0.2253855413746346,-0.9741841465315124,0.033131834231779,0.1070752662193834,10.833495221086975,-0.0967303635808226,0.0417003647097882,1.120569972700422,-0.207615979948571,1.5475212894427455,0.479618935157077,1212.1756516743594,1193.6052607288975,1180.2219785603615,1222.8451570195016,372.14283908397994,6.692465520791445,470.1462111466399,72.18817402663414,160.41032813841673
1.98,-1.58827658552695,0.0064628932800466,0.6238529869150505,0.0449108169081828,0.0253147866218805,-0.0038446950200869,0.0039551895605886,-0.0122953107397474,-0.225328256317923,-0.97419654972479,0.0352437598216557,0.1062299388093971,10.835873992449628,-0.0964076673541339,0.0420758486870416,1.1230112487777404,-0.207813543541572,1.54754602737218,0.4824516949006466,1212.8519803342083,1193.9912647245671,1181.5351356106964,1223.1079739262289,176.885720266951,339.6472903888856,622.7262549979826,122.40773160351353,160.40851299710144
1.9825,-1.342675563685638,0.3832731333488396,0.4512669623600117,0.0392922710733303,0.0268238760700326,-0.0012479289690405,0.0039784976120611,-0.0123489613514005,-0.2252622499142627,-0.9742112342044442,0.038238966750426,0.1056078644189129,10.838630361118776,-0.0960139355157397,0.0425158938133954,1.1254200958907574,-0.2080108248535436,1.5475763974706975,0.4852768369436349,1213.060080275694,1195.3034971808422,1183.3356098353515,1223.4571956775192,-12.572996310109083,589.3205852215351,666.035646380472,102.7753121251384,160.40649874358564
1.985,-1.074029905710666,0.6363234423817198,0.2501533362762074,0.0359332420475705,0.0290706015515801,0.000250215538416,0.0039939407123258,-0.0124000530929935,-0.2251963607659961,-0.9742259367272188,0.0413902326947693,0.1050574962646892,10.841460276702536,-0.0956074643016969,0.0429729443496899,1.127825145737464,-0.2082079814535991,1.547607661386467,0.4881007408815911,1212.789115352658,1196.937867650675,1184.8653138425989,1223.6218504868543,-173.5712880066367,696.1697192029227,561.4247236079001,7.713378598509899,160.4049592879078
1.9875,-0.806712432984916,0.8113848660039634,0.0317882339522654,0.0349170424723798,0.031743584464633,0.0005842300367221,0.0039650979942969,-0.0124451501712725,-0.2251413232391887,-0.9742382899012528,0.0451324600481052,0.1049719823379214,10.844603553640187,-0.095146715023784,0.0435286832734249,1.1302271109111104,-0.2084041988792463,1.5476416530651136,0.4909206623482803,1212.192223835661,1198.7843457768568,1186.1427334533912,1223.4957625705115,-267.22571949254075,709.8374671138723,420.59945427300573,-110.44189539852832,160.40356677113138
1.99,-0.5873638042512231,0.923305792322806,-0.1648151197956158,0.0356344759928917,0.0343817602909967,-0.0001193718103321,0.0039234566376333,-0.0124845838349202,-0.2250915609830148,-0.9742495248599417,0.0490922683092009,0.1049720651113842,10.847782111167364,-0.0946604943808668,0.0441108314228577,1.132638827376231,-0.2086003270860476,1.5476752767807211,0.4937420358304598,1211.4529867551953,1200.487054986244,1186.9683111139639,1223.069641009862,-299.63064783215214,571.9043853593697,171.1694661028596,-237.00360527623664,160.40229771389957
1.9925,-0.4551638169987749,0.9721539412629758,-0.2957972550505756,0.0368970316186347,0.0365164640115012,-0.0017604487597864,0.0038490042767907,-0.0125094985855464,-0.2250553225813496,-0.9742578931255844,0.0536106615983946,0.1051895433062734,10.851049783397704,-0.0941080233076412,0.0447601505706409,1.1350754506484555,-0.2087962265685282,1.5477079571743735,0.4965671317465384,1210.6940705965003,1201.6438677036535,1186.9985807839055,1222.3107445441303,-307.834260239126,310.6444384411972,-204.31497416652277,-379.1399791096322,160.40117907552744
1.995,-0.3869057028392127,0.9780846273099136,-0.343044614320428,0.0374856975636288,0.038761531362631,-0.0042724437161684,0.0037610101314692,-0.0125303339607648,-0.2250237871906841,-0.9742652521666264,0.0582619852909742,0.1053829917619835,10.854199847473325,-0.0935263678739145,0.0454369735704673,1.1375393358502819,-0.2089924602306907,1.5477421981520467,0.4993977625862953,1209.9138154539996,1202.04027717845,1185.9467362431312,1221.1739411143135,-250.90419387174157,-45.40428960972244,-562.4590043334008,-419.52115708626417,160.4000120878396
1.9975,-0.3697158722105286,0.9493964256863902,-0.2828850089338932,0.0368358537007588,0.0409178112844201,-0.0062154470931023,0.0036577857323831,-0.0125465813200716,-0.2249975412100733,-0.9742714761470118,0.063062959116604,0.1055492434727192,10.85721754360484,-0.0929117459510505,0.0461448139195835,1.1400338251143558,-0.2091890697400222,1.5477781942965294,0.5022346184765476,1209.4395496271416,1201.4168462556047,1184.1862857622384,1220.2131387586992,-146.73823794446747,-440.2214800506593,-849.5752902578441,-342.5410632464791,160.39918646184583
2.0,-0.3368304017292205,0.8926898780298345,-0.1309532490457609,0.0348065232470831,0.0434261905830699,-0.0072841387663631,0.0035532981140074,-0.0125831554828938,-0.2249941852631076,-0.9742721272575308,0.0673001334678807,0.1054058272696776,10.859739520048644,-0.0923184545862656,0.0468655189639931,1.1425702239450235,-0.209383673572422,1.5478196149225423,0.505082067700002,1209.1801242642773,1199.8391697781967,1181.698859791842,1219.4612357980811,-63.9565751172554,-863.1813338996564,-1189.939160739939,-241.94809005835452,160.39851371007575
2.0025,-0.2233905567727315,0.8017895760775975,0.1253883535937765,0.0313854948257695,0.0462617714590906,-0.007620953924566,0.0034481617829654,-0.0126301682568218,-0.2250025842464848,-0.9742699164807282,0.0712474899022594,0.1051034974116628,10.86200771480424,-0.0917362903317359,0.0475933911230496,1.1451280568345072,-0.2095772474110267,1.5478638212326443,0.5079349570156739,1209.1197667515553,1197.1009395861067,1178.2365899585388,1219.0033983084074,18.070318516447895,-1087.175669179192,-1288.4748211349051,-78.42979416305009,160.3978834648958
2.005,-0.050361414554683,0.7185540859997697,0.3713676166558999,0.0284129559583289,0.048100459838598,-0.0071520202166568,0.0033653902040161,-0.0127052064823395,-0.2250312602437872,-0.9742625552510686,0.0741516027391336,0.1038980143120291,10.86314563106664,-0.0911958211336331,0.0482815541662182,1.1477419839392071,-0.2097696506778862,1.5479097378555202,0.5108023852904435,1209.2704758568595,1194.403291432301,1175.2564856861677,1219.069086827266,96.9242575578412,-1088.0955923597644,-1144.0014146787476,117.84769781179672,160.3975065599823
2.0075,0.1840003458644871,0.6442949862480094,0.6131504939732078,0.0272254746740798,0.0493458355650581,-0.0056327528882026,0.0032876695593109,-0.0127845453423598,-0.2250631537860666,-0.974254372923574,0.0768557795921971,0.1024811305874449,10.864007463490443,-0.0906607529934418,0.0489601716699235,1.1503685817254432,-0.2099619081098243,1.5479557480381412,0.5136730696505593,1209.6043880393445,1191.660461624308,1172.5165828851452,1219.5926367974664,155.60614499444313,-1051.402109368766,-1016.9133931117124,271.47699319305485,160.39728556137027
2.01,0.4279890600191327,0.5880184720878948,0.8244173557565622,0.0287085154610851,0.0502647373840564,-0.0033466776634855,0.0032364572100319,-0.0128493990144324,-0.2250870581151446,-0.974248129907256,0.0791734696832955,0.0998230579491486,10.863006940340064,-0.0900696198932923,0.0495617650040539,1.1530627099237483,-0.2101555651991156,1.5479969028745115,0.5165603413032108,1210.0485065818318,1189.1462808854567,1170.1719187206088,1220.4264717932315,186.6668715532216,-902.3543303793604,-815.8769369282613,382.2579697372672,160.3971962481183
2.0125,0.6294499516812506,0.5591361839805523,0.973111488405696,0.0323999622058482,0.05107730771192,-0.0005671115946555,0.0031861841747856,-0.0129096918326744,-0.2251061003101259,-0.9742430742828566,0.0814119895905516,0.0969900495852155,10.861422377526644,-0.0894602870207955,0.050156306219038,1.1557711448036143,-0.2103500463204199,1.5480370285411547,0.5194493343672713,1210.5377223971107,1187.1486899724107,1168.4371982005036,1221.5039266461529,194.83915453766215,-724.5267886213395,-616.1602459996761,494.9651722654031,160.39726979361103
2.015,0.7854412660886598,0.5526706687780178,1.0578193742121804,0.0368751348068276,0.0522501517503233,0.0030755529281839,0.0031390409595287,-0.0129547877614952,-0.2251089417416177,-0.9742419750807308,0.0833873725461015,0.0935752576359921,10.85788823635288,-0.0887890466604303,0.0507258756529821,1.1585272407878915,-0.210547273138878,1.5480737249861807,0.522344063221123,1211.02270235452,1185.5236469423503,1167.0911174906105,1222.9012976545584,135.91407106178227,-461.0176181970572,-383.32213757454065,507.5867840665177,160.39755305533663
2.0175,0.848631160840256,0.5618882852247523,1.0432436232625664,0.0395792174760804,0.053492835995527,0.0062159107634005,0.003074692616267,-0.0130051416584919,-0.2251161436802958,-0.974239892672424,0.0849859881723325,0.090346097317036,10.853073984959249,-0.0881072306693264,0.051331790837211,1.1613007114088016,-0.2107425187471053,1.548113191608115,0.5252366522970094,1211.2172927524196,1184.8436018814257,1166.5205875126308,1224.0418605664854,7.843456195951315,-142.069392907891,-139.5528509460776,431.3898176420117,160.39795758453442
2.02,0.8715049636415974,0.5720151777309643,0.9420570125357024,0.0409041360652118,0.0548310966908369,0.0091448350813329,0.0029866708553161,-0.013062730263466,-0.2251293454643649,-0.9742364574203252,0.0860662506844281,0.0873713535243953,10.846498329915333,-0.0874107378033337,0.0519878092459366,1.1640980337383129,-0.2109350383066038,1.5481564698584775,0.5281262971426922,1211.0619196354999,1184.8132999778109,1166.39335323588,1225.0582467427685,-169.84635511489975,114.63690495188774,13.652742597242032,403.3023535580554,160.39854537267823
2.0225,0.8862689376608288,0.56739037448638,0.7351243607624338,0.0415829583328742,0.0560824102600888,0.0121498127706019,0.0028894393844935,-0.0131245584798246,-0.2251540098904177,-0.9742304422984672,0.0865763960597664,0.0844033446155952,10.837862447055471,-0.086711067453614,0.0526536466772401,1.1669073999698996,-0.2111205074725493,1.548209601963649,0.5310201254799721,1210.368060976845,1185.416786406185,1166.5888512256172,1226.0583723342756,-345.4316245955471,311.72816335666295,107.7376151547492,323.6031848822291,160.39947362368494
2.025,0.8964932497495677,0.5340990573450209,0.5095001243210254,0.042230643458662,0.0570490047865542,0.0139583555875864,0.0027863427043352,-0.0131890866952733,-0.2251859743069926,-0.9742227841849836,0.0867239510388841,0.0814370783919538,10.827915332040307,-0.0860095094514981,0.0533262279070106,1.169724380965334,-0.2113014865910705,1.548269009502251,0.5339166180764211,1209.334761512522,1186.371940794594,1166.9320413116538,1226.6762626671796,-504.90302088470503,461.03348525603974,151.2672164082719,199.11828474364907,160.40044104218904
2.0275,0.8891026591551608,0.4461523221217053,0.2566932813693624,0.0437840129139276,0.0586397498029785,0.0146785400771306,0.0027000802170097,-0.0132440232102755,-0.2252145505026572,-0.9742160968567984,0.0863362875969124,0.077960072421805,10.81517280802147,-0.085305756449474,0.0539248310793385,1.1725262364524103,-0.2114733781636916,1.5483373529886908,0.5368351483121666,1207.8435458724216,1187.7219538324653,1167.3451873076583,1227.0539637579939,-744.9817174765891,672.2272900645295,173.91355252692583,110.55628910466277,160.40161862512286
2.03,0.820183069697784,0.250548197882044,-0.0445237303559013,0.0469983569236457,0.0611683020316471,0.014246765177043,0.0026180006750499,-0.0132965763880229,-0.2252422847961826,-0.974209650748487,0.0858165765057563,0.0743524442728964,10.801736875080463,-0.0846016825295471,0.0545057191033515,1.175324284861044,-0.2116430116709343,1.548407916871556,0.5397591544410595,1205.6098529251387,1189.733077244917,1167.8016090742883,1227.2290441127027,-871.7877131963497,791.8778615414259,146.55069318026935,18.953386859583215,160.40328393818493
2.0325,0.6841006099106486,0.0049278146408087,-0.2749149377030619,0.050334751448073,0.0631044211876218,0.0133076059395112,0.0025605413892623,-0.0133066326498583,-0.2252398864606582,-0.9742106584203049,0.0853762041223802,0.0701349410167839,10.784963938862168,-0.0838476747815223,0.0549558056786543,1.1780498244614335,-0.2118099346313274,1.548482520181262,0.5427250234713809,1203.4846073064396,1191.6813431401727,1168.07794077356,1227.1487306922916,-870.0718881749892,815.7381675979369,78.10702947213198,-75.93150196830882,160.4048878793107
2.035,0.4505163051341626,-0.3112294265618238,-0.4715571904343759,0.053496904187456,0.0641030643333037,0.012464969612901,0.0025076115825719,-0.0133158678815331,-0.2252325322707254,-0.9742127342036292,0.0848303100554057,0.0658857495303215,10.76762010851475,-0.0831021444372266,0.0553847561939384,1.1807494154220093,-0.2119772778033543,1.5485570724896247,0.5456959961371743,1201.259493484264,1193.8117680829066,1168.1921442216492,1226.8493866028612,-874.6913072027568,859.1425678757515,15.744432077690698,-150.79245222341663,160.40672248704067
2.0375,0.1450661755190198,-0.6554920984385292,-0.6346454996382104,0.055825515613823,0.0635987896931697,0.0117242179843373,0.0024741590067265,-0.0133231314048722,-0.2252039983280762,-0.9742193354353378,0.0838050203986117,0.0615324047307373,10.747826750197884,-0.0823971690972562,0.0557211367673516,1.183334993321537,-0.2121466326310368,1.5486312285717447,0.5486883361932198,1199.1111507704259,1195.977055979551,1168.1566629339484,1226.3947684311747,-797.515632701851,837.3987425717311,-49.002422115746555,-208.66100050430293,160.40875242070408
2.04,-0.2104779558766922,-0.982023394768136,-0.7458102043163461,0.0561575098847068,0.0606486843047962,0.0105195308504948,0.0024460242717301,-0.0133447175066151,-0.22517554241419,-0.9742252742582208,0.082340741305767,0.0573754848978662,10.7271458918343,-0.0817428504322018,0.0560332368759472,1.1858513180594148,-0.2123160551357471,1.5487060209247747,0.5516807345793991,1197.2719153207547,1197.9987617957652,1167.9471321110705,1225.80608160034,-681.99929708932,804.9718434363228,-125.72894814225305,-274.33515989515075,160.41102207025503
2.0425,-0.6295586784444535,-1.2921652807760489,-0.794472090377955,0.0538279897720434,0.0550742023625976,0.0078113360468886,0.0024269012385643,-0.0133905748886924,-0.2251472187291475,-0.9742300905520552,0.0801346188679039,0.0535534543024582,10.704960291628588,-0.0811746195716944,0.056303825531851,1.188250393274608,-0.212485592327078,1.548781891513104,0.5546732318127967,1195.701154284979,1200.0019151967329,1167.5280181932371,1225.023092631699,-435.6612140573909,631.1817840423053,-173.2093091122843,-290.9250791023685,160.41402713790072
2.045,-0.9283894904773,-1.458486341680394,-0.7459797554977041,0.050538040564584,0.0501500206809944,0.0047282076338975,0.0024119558691835,-0.0134706814434132,-0.2251251843467107,-0.9742317168877314,0.0771409449168081,0.0503069538719267,10.68185882473062,-0.0807073368347713,0.0565568941632368,1.1905323933368444,-0.212653783388655,1.5488604007352367,0.5576632908753594,1195.093609250468,1201.1546707159766,1167.081085565509,1224.351456204828,-73.71686752171784,327.4545935627045,-185.69851489069544,-269.60857867134683,160.41676812705722
2.0475,-1.1427313405965032,-1.5307745172537435,-0.5968585724673168,0.0471542382913124,0.0461058492005759,0.0017146896423125,0.0024002775878533,-0.0135775721216172,-0.2251080684322139,-0.974230848557796,0.073536798406949,0.0475093414313297,10.658040557915117,-0.0803194745811677,0.0567963343860379,1.192722935469238,-0.2128209217268297,1.5489409734668835,0.5606514431978855,1195.3325699473708,1201.6391881645463,1166.5995256187837,1223.6750497383423,297.64512373417983,47.27964896783406,-203.8551171514016,-307.29850940516116,160.41975616210766
2.05,-1.2896318403008635,-1.532959014380049,-0.3199859173754239,0.0432273217463876,0.042197202288186,-0.0010542925602773,0.0023992523708182,-0.0137260544757553,-0.2251117288932887,-0.9742221648677812,0.0690800214357358,0.0454967980298185,10.633630121441236,-0.0800523523559671,0.0570084925748525,1.194754153319456,-0.2129856391958871,1.5490214334298087,0.5636471664122004,1196.581834869139,1201.3910689608158,1166.061809979752,1222.8149636578023,593.7432364350169,-226.12312505328484,-181.423930825928,-335.5678312909505,160.42362719998212
2.0525,-1.3196369901601392,-1.4822347382369008,-0.0396120132314835,0.0400017436898098,0.0392667723329591,-0.0022814075063178,0.0024017554699665,-0.0138883120760787,-0.2251222705314719,-0.9742108927148904,0.0643523578222147,0.0437422321077844,10.609022231230272,-0.0798261367419064,0.0572117616085168,1.1967327773603536,-0.2131495548682554,1.549101856043508,0.5666453971210058,1198.301286129546,1200.5085725392798,1165.692405964654,1221.9972105818874,775.698158048492,-478.99467099115503,-125.60521473937176,-363.2512955809698,160.4270896121539
2.055,-1.2569942902299855,-1.3890261019140815,0.2377945549130953,0.0365584060859287,0.0359750082418553,-0.0018843910531822,0.0024304224402093,-0.01405193833822,-0.225153687288899,-0.9741918719687148,0.0596556290461834,0.0425750530852136,10.584466596356132,-0.0796287641399469,0.0573391679897385,1.1985237695022992,-0.2133102367449316,1.5491784277287286,0.5696619000214013,1200.4603256593816,1198.9960956058599,1165.4337839060552,1220.998707179897,884.8230331638849,-692.7629365754603,-83.66273851024921,-436.7688458848172,160.43079474576
2.0575,-1.122685297290993,-1.264048781500356,0.4673598818956335,0.0330830742253912,0.0324430285674301,4.060253442128345e-05,0.0024630675263911,-0.0142117184347293,-0.2251852672523541,-0.9741727271685804,0.0550744917612626,0.041537910795396,10.560018660319823,-0.0794262159755784,0.0574541610639276,1.200279383410112,-0.2134704674128155,1.5492540216319404,0.5726810992946234,1202.7254012953651,1197.0447578564026,1165.2740922721027,1219.8133663524632,863.7985698587001,-861.274265168204,-39.279524394715665,-519.3704632409773,160.43469807827447
2.06,-0.9153758272584168,-1.1064586127654703,0.5939033829329651,0.030454209940875,0.0290760239602301,0.0031890947347143,0.002511228188861,-0.0143454845082092,-0.2252093052293221,-0.9741559618788652,0.0511598598655895,0.0411204075985792,10.536272087989747,-0.0791712006617033,0.0575183632409964,1.2018770546217905,-0.2136290482151745,1.5493247364071019,0.5757105927267163,1204.779318508675,1194.6897242800187,1165.2373862840816,1218.4018548636925,773.6759658271404,-1094.5485930479442,14.109855683591675,-660.9980046915239,160.43883542208607
2.0625,-0.6069733563664935,-0.8960757486720983,0.598209776404214,0.0287303220075106,0.0256190600427397,0.0071811895490707,0.002557009153169,-0.0144625072363171,-0.2252289961894515,-0.9741432896350388,0.0476764553095374,0.0410424495309703,10.512972094930944,-0.0788711896914353,0.0575843217212937,1.2034263642427843,-0.2137882671401377,1.5493939394350125,0.5787409296883025,1206.5937811245008,1191.572014891163,1165.3446415505207,1216.5083763290058,510.3878069589081,-1167.188435972482,65.48035984069568,-711.2482357790819,160.4440626886814
2.065,-0.31685563338257,-0.7224122359269479,0.4846356390649209,0.0281605747352167,0.0235452725085697,0.0099493364641405,0.0025977641899136,-0.0145441679834987,-0.2252395062408006,-0.974139261912807,0.0450854109049844,0.0416795849863425,10.490617394082847,-0.0784748794656131,0.0576541703021079,1.2048732240335946,-0.2139488337813938,1.5494599496495247,0.5817730481859672,1207.3312575434695,1188.8537821001566,1165.564788083285,1214.8456136847972,102.19705061149617,-1087.4640481810507,110.95854523496436,-660.070027816269,160.4486303652083
2.0675,-0.0038765422583431,-0.5787283790093591,0.2844530487702703,0.0280711985986722,0.022547891120645,0.0115927058707982,0.0026179647395687,-0.0145971311821297,-0.2252442832346451,-0.9741414122332542,0.0432468589142831,0.0431032011397733,10.469157727692208,-0.0779858638154106,0.0577712368215731,1.2062648517167045,-0.2141105343420391,1.549526260609131,0.5848023762601204,1207.1047663775585,1186.1346946502579,1165.8994342766955,1213.2080261899243,-323.464543757616,-1174.192452438208,154.18832492110016,-693.139950114861,160.45340780633987
2.07,0.3935369350500753,-0.4692250935758504,0.007915302110713,0.0283253437615963,0.0223508513659697,0.0119550966158249,0.002618525761867,-0.0146226742711086,-0.2252435823715522,-0.9741494655878022,0.0421231733991248,0.0452765385871493,10.448553521753569,-0.0774080067443453,0.0579335491369721,1.2076036165599255,-0.2142733183469352,1.5495928589265031,0.5878290381233074,1205.7139348246815,1182.9828198379655,1166.3357297078903,1211.3799139342227,-672.3433313862644,-1121.8101680643183,139.10680110824586,-639.4586397700118,160.4593699412625
2.0725,0.7396840280503919,-0.4395546011283189,-0.20144301658261,0.028902589903957,0.0225526121880156,0.0110300689779938,0.0025772174553647,-0.0146141174766789,-0.2252342323996472,-0.9741606728701788,0.041900365450298,0.048660066586423,10.429248020284112,-0.0767051667163979,0.0581987799735154,1.2089016869326314,-0.2144348290202258,1.5496666456982156,0.590845947530444,1203.7430497206267,1180.525643809936,1166.5949682822368,1210.0107329910743,-903.1168073261896,-925.6510850062397,38.45078545336687,-516.2451286095453,160.4645185146669
2.075,1.0891627294812132,-0.4647962834644148,-0.3343968099586771,0.0301435604186984,0.0224221593336887,0.0090260274152458,0.0025180868398601,-0.0145910455544347,-0.2252212008046003,-0.9741732226693314,0.0420579937598344,0.052555467524471,10.410494794523323,-0.0759489456978328,0.0585080735597004,1.2101822877945192,-0.2145957976807833,1.5497434923435438,0.593858705658105,1201.1983507880502,1178.3545644129342,1166.5279836351572,1208.798688291175,-1060.6116536822124,-801.5025486039746,-116.20150876397265,-464.50072951780464,160.46983969124793
2.0775,1.4216155083475979,-0.51451159928892,-0.375839619052195,0.0322504890443254,0.0217424380015739,0.0064151781575629,0.0024351570745936,-0.0145421849833472,-0.2252019233499455,-0.9741856826376584,0.0427643153800889,0.0572110111253738,10.393263713416543,-0.0750955200083881,0.0588891517439045,1.2114531239833917,-0.2147529784574134,1.549831114405694,0.5968639649094003,1198.439991452216,1176.518131066916,1166.0139607384167,1207.688229343485,-1087.4610225696647,-632.475214786259,-348.59612987016425,-429.6539005884916,160.47529216464793
2.08,1.695672973330736,-0.5573796268898606,-0.296603259336604,0.0357465020286452,0.0203602931148595,0.003869432656405,0.0023495545914138,-0.0144900639253757,-0.2251819020569614,-0.974197888094609,0.0435205898508216,0.0619602258191976,10.376327236373264,-0.0742285246533199,0.0592816392352896,1.2127238422048772,-0.2149092591054969,1.549920077422712,0.5998689848175128,1195.761045675202,1175.1921883390028,1164.7850029858066,1206.6504187882326,-1082.906593828625,-452.3644091104512,-729.1840643954557,-454.90999941308536,160.48088726246917
2.0825,1.897909417159292,-0.5511164933542875,-0.0829464108287576,0.0416372039167504,0.0177172293408692,0.0019287842374931,0.0022664825998179,-0.0144365797451822,-0.225162067032074,-0.974207349114893,0.0441346520529249,0.0667671657654486,10.360633048454575,-0.073345002351384,0.05970028593004,1.2140094666343877,-0.2150605934984898,1.5500093689618835,0.6028815940286064,1193.0254584830727,1174.256309021364,1162.3680404164395,1205.41367934642,-882.4508317072019,-241.40081979899665,-1039.1759813642004,-463.65747898786213,160.4877445771122
2.085,1.9200993672210007,-0.4683432280898835,0.1582133481311338,0.0477148797420402,0.0147201944976124,0.0016459920604705,0.0021798707339949,-0.0143915514563275,-0.2251441284169147,-0.9742156260518404,0.0445386210829279,0.071625308018214,10.345168032043723,-0.0724783697118208,0.0601435637303531,1.2152990424846533,-0.2152103477614275,1.5500966038645223,0.6058983374933598,1191.348791516666,1173.985184240008,1159.5891230789855,1204.3321313932931,-523.3605421260675,-33.91877700482909,-1240.087282168114,-454.2061905974703,160.4935627029699
2.0875,1.7595181410253167,-0.2921715838780872,0.4099594536926661,0.054319867702533,0.0117652593077745,0.0029349569104148,0.0020837635461011,-0.0143692051630771,-0.2251312767116261,-0.9742207268158734,0.0443883810478442,0.0766275355410307,10.33031943061212,-0.0716576884456045,0.0606522575419871,1.2165997829985047,-0.215355863499823,1.550178322066566,0.6089261706374367,1190.4086557724427,1174.0867151363395,1156.1676040055993,1203.1426483934326,-253.36721481472156,73.5426788835882,-1592.5795375747268,-551.4272283021118,160.49947138375836
2.09,1.3591891933158116,0.0018481922318592,0.6634114078032145,0.0615352394905849,0.009947301723364,0.006095809344045,0.0019812597604843,-0.01436770654359,-0.2251321792821784,-0.9742217335490732,0.0437794072586477,0.0816041551620783,10.315601878914675,-0.0708867966684766,0.0612098515133949,1.217900132814695,-0.2154968433804037,1.5502596506097837,0.611959670864169,1190.0819554425923,1174.352897634426,1151.6262253911123,1201.5749952517829,-13.831984357374468,74.37000374938587,-1681.6352570183656,-592.5398113825448,160.5066486991259
2.0925,0.8870195576334048,0.2743933236272443,0.8034899657530193,0.0654642758823882,0.0105735707974268,0.009305382618394,0.0018712953663999,-0.014390523402134,-0.2251491240162756,-0.9742179652499164,0.0426379947824967,0.0865509672319093,10.301037150033832,-0.0701741254468567,0.0618244195886589,1.2192001135550468,-0.2156325329080989,1.5503405246782835,0.614999780836688,1190.3394958506556,1174.4585651550867,1147.759427720507,1200.1799493365197,164.30527124142628,-32.9810122704635,-1493.0120584038734,-564.228619810554,160.51269054245557
2.095,0.3410272171037885,0.5193037640249581,0.8570703927322897,0.0661515098044122,0.0129805531654726,0.0119889548811085,0.001775661271937,-0.0144293416643214,-0.2251753272133852,-0.9742114225789604,0.0410789629894149,0.0907451077578064,10.286310022813712,-0.0695235851903825,0.0624406509299304,1.2204866960821392,-0.2157630691933906,1.5504263291341556,0.6180461207779768,1190.9034817987997,1174.1879925730736,1144.1611650990924,1198.75385215273,254.83755996193028,-246.00779192410823,-1448.4210767739423,-621.6985290407271,160.51878320451672
2.0975,-0.3137270099579813,0.7345014808910502,0.8293711252843963,0.0641611897111053,0.0164681086631681,0.0142801045143502,0.0016876875590503,-0.0144767136107238,-0.2252064795993713,-0.9742033968443438,0.0392982389777499,0.094534699300887,10.271495671423319,-0.0689063325290505,0.0630579161014139,1.2217660948109852,-0.2158908507698341,1.5505147691698535,0.6210957910012029,1191.6136836504654,1173.2285261954662,1140.517322336637,1197.071456691316,220.28064608812673,-468.4593049845816,-1186.1348732824606,-606.3405461929635,160.52614108676156
2.1,-0.8137675473883648,0.8342054960198866,0.7393686936028087,0.0615466566395229,0.0191313661184322,0.0157625117707589,0.0016260774097878,-0.0145230345812542,-0.2252303033021877,-0.974196934669093,0.03750093313189,0.0969094109779656,10.256076655223664,-0.0683323200567389,0.0636313853221495,1.2230039242106117,-0.2160174288417137,1.5506117298623796,0.6241570842746161,1192.0048850292403,1171.8456960481508,1138.2304907326802,1195.7221494217652,65.08585191732121,-664.3747962198772,-739.8432946877778,-524.519553130642,160.53230414704714
2.1025,-1.238178966503146,0.853084663880012,0.5869794851345717,0.0590567421187079,0.0213830464843429,0.0173198556350969,0.0015695891864426,-0.0145689277296456,-0.2252523541692338,-0.9741908633683374,0.035714842266866,0.0989728644651,10.240508533538176,-0.0677672794127237,0.0641963071510368,1.224231164132927,-0.2161439452457873,1.5507105955397549,0.6272210987125718,1191.939112910052,1169.9066522143669,1136.8181058631983,1194.4488589256628,-134.6252331522493,-846.9045734801236,-425.45584577197593,-492.14605011844606,160.5384926386975
2.105,-1.5879667353623483,0.813211546398661,0.385120435739106,0.0568303627223341,0.0234711659796824,0.0189742604110839,0.001518092028969,-0.0146078004511912,-0.2252623718367025,-0.974187744985568,0.0343142524087993,0.0997466334717032,10.223872536992884,-0.0672250156157067,0.0647459365554243,1.2253747744751606,-0.2162754847547037,1.5508186872970828,0.6303014371210964,1191.331758863479,1167.6111731807503,1136.1032115038204,1193.2614191711727,-404.7336591929793,-971.212056751822,-144.11018938876927,-444.2446174372075,160.54469784045784
2.1075,-1.824892578208708,0.7150708464310395,0.1296937423655538,0.0540296958539396,0.0254673833164516,0.0202789405392638,0.0014667280005975,-0.0146468402517386,-0.2252738956048402,-0.9741843019054078,0.033013279863735,0.1002357565861489,10.206929141048672,-0.0666894652155,0.0652911041598194,1.2264925231296182,-0.2164089420620886,1.5509282279539471,0.6333854618025259,1189.9154446140872,1165.0505919306079,1136.0975549162547,1192.2276358384768,-833.4069429843744,-1148.8305671344524,111.6417731577736,-403.59817120853165,160.55091885411264
2.11,-1.925221969880652,0.548725048176726,-0.2190737964203296,0.0481973358140228,0.0274917934355352,0.0209253330439193,0.00141583109419,-0.0146864662972934,-0.2252907039628331,-0.9741797195305288,0.0320575115540367,0.099735616013247,10.188907752867673,-0.0661772088640764,0.0658199766984765,1.2275196613417596,-0.2165491285201467,1.551042852493946,0.6364824208387418,1187.1647241485573,1161.867020345078,1136.6614203696092,1191.2434283151304,-1182.9640120374986,-1166.3645684757987,259.62139788612694,-310.2926300238844,160.55839787787687
2.1125,-1.8096247088024284,0.385762908277399,-0.5210244332246085,0.0414421091277539,0.02859430552842,0.0205221840730186,0.0013715180578464,-0.014731395151339,-0.2253109317787004,-0.9741742824505504,0.0312202812878601,0.0986155167966069,10.170232668117707,-0.0656880718430357,0.0663215888838788,1.2284937668719016,-0.2166897398007246,1.551158211712626,0.6395801000372975,1184.0006245538996,1159.218769088229,1137.3956619056853,1190.6761726883576,-1419.4139093229248,-1049.6446521445905,296.17820231717633,-176.86382418258916,160.564639517228
2.115,-1.4544300588356829,0.2178823221284141,-0.7971115709303414,0.0347481256658045,0.0290203363343608,0.0189908478640949,0.0013366078489791,-0.0147838972704847,-0.2253360431314759,-0.9741676247139504,0.0305524263813371,0.0966122215212417,10.150624081660075,-0.0652319436179,0.0667841189154591,1.2293921967953936,-0.2168309577963232,1.5512746201708592,0.6426788077437333,1180.067654601942,1156.6187970843548,1138.1423113811952,1190.3591091942171,-1843.0445040916431,-1139.1920308381627,273.53693387897664,-104.87589551411676,160.57088881114208
2.1175,-0.7663866051801737,0.0309792476953135,-1.0495018428145126,0.0288416090479998,0.0289343850472581,0.015642587401924,0.0013068106827667,-0.0148435723018971,-0.2253702302307643,-0.9741587286687532,0.0301565685733374,0.0938421891193678,10.129959976784908,-0.064798935575343,0.0672144011019661,1.2302177233249787,-0.2169687686657729,1.5513890294354056,0.6457739469401557,1174.7854020334407,1153.5228089340378,1138.7633465750803,1190.1517932107868,-1965.8021241685185,-1141.959923655692,146.51386998798756,-77.33775173383202,160.57839598455757
2.12,-0.0214735166637802,-0.1024719512148167,-1.1618139871504416,0.0264147889428059,0.0286101457650325,0.011597194540077,0.0012803956002719,-0.0149079919426198,-0.22541042059202,-0.974148352067344,0.0299425743093882,0.0905638663371445,10.10859802959334,-0.0643812628723149,0.0676233357947687,1.2309950633848208,-0.2171043258505482,1.5515021163091816,0.648866725702601,1170.2386439810998,1150.9089974660765,1138.8748807311351,1189.9724204355482,-1764.1094358760631,-1063.6279537823839,-66.84115803186756,-118.9287236323278,160.58465885922675
2.1225,0.8155958222765403,-0.2058880620810793,-1.150688832002802,0.0269669264755778,0.0281938925962307,0.0068199429360094,0.0012490288125743,-0.0149784861597228,-0.2254597625860867,-0.9741356426036336,0.030245241538374,0.0865926503235813,10.085722567435168,-0.0639730758424912,0.0680177841379225,1.2316940908176186,-0.2172352589447393,1.551612044147256,0.651950552343521,1165.9648548540608,1148.204669165126,1138.4291407849207,1189.5571495926251,-1607.2036852209635,-1097.177594669461,-276.9439590740208,-239.75923254447991,160.59093000665484
2.125,1.6525201478521339,-0.2811962538187895,-1.0421270124072908,0.0300938990740909,0.027538241694721,0.0024198585453423,0.0012163609831711,-0.0150505764486617,-0.2255115091368613,-0.974122320189228,0.0306873411763206,0.0824357777537249,10.062450355721802,-0.0635674535767061,0.0684084429029466,1.2323725859093029,-0.2173649770767198,1.5517211419607173,0.6550320268485644,1162.2026255549952,1145.4231094927293,1137.490160935765,1188.7736242728258,-1334.6143706455052,-1116.976871743942,-486.57681215250824,-434.8374591644735,160.5972091962424
2.1275,2.395351776283801,-0.3197720830427314,-0.8503941413956672,0.0363533530878672,0.0264343012358174,-0.0003949243631363,0.0011586585969824,-0.0151061176530253,-0.2255534250550078,-0.9741113105974284,0.0323075687545575,0.0778288539571762,10.037149673715664,-0.0631006723736605,0.0688159667277967,1.2329824961361076,-0.2174909091787026,1.5518312655357782,0.6581015632912929,1159.2917830008334,1142.6197848064064,1135.9962567241585,1187.382962296803,-1062.4626804609989,-1201.8494204436395,-762.3885766115726,-774.5539860202534,160.6034995862051
2.13,3.074039797826399,-0.3247800920770219,-0.5897623535113772,0.0467427910740089,0.0247918610314044,-0.0017296157531048,0.0010971848482201,-0.01515961171251,-0.2255912540539788,-0.9741012430062052,0.0341160468683983,0.0731401861370933,10.011435162268778,-0.0626244126975306,0.0692252097798979,1.2335822581188487,-0.2176166482471178,1.551942025685566,0.6611694396639902,1156.8903121526903,1139.4138623905112,1133.6782180527073,1184.9008543427246,-710.776993407732,-1114.3123832548335,-915.3194018154604,-1045.4369846185496,160.6110629489988
2.1325,3.410987030054633,-0.3023389834659505,-0.3945311002675849,0.0567640076188853,0.0236155624124374,-0.001702401625329,0.0010197704273742,-0.0152047145706277,-0.2256102797517967,-0.9740955052692007,0.0367142470413376,0.0681237555684648,9.983901599478912,-0.0621077665689737,0.0696409848569412,1.2341392249106704,-0.2177417927685044,1.5520557592914,0.664230380475354,1155.7378980337949,1137.0482228901324,1131.4196597150813,1182.1557773737104,-321.7787952071613,-842.1277730368614,-940.6889816636797,-1219.1071532607652,160.61737956508003
2.135,3.486451842561372,-0.2701085771002353,-0.2629436744965362,0.0669896812249122,0.0231072717823167,-0.0011676396753814,0.0009332663752199,-0.0152545563339786,-0.2256232427401055,-0.9740911648379252,0.0394527073714291,0.0630945902209177,9.955549224279247,-0.0615890235108898,0.070069935751291,1.2346753687129923,-0.2178665273289079,1.5521706380110647,0.6672903181635659,1155.2814181766544,1135.2032235253266,1128.9747731443883,1178.8053185764204,-90.85903290014653,-660.2469851990018,-1078.1995629113862,-1570.7080712584989,160.62371214101253
2.1375,3.291816351730196,-0.2432567749862646,-0.1991638751267153,0.0785780161686165,0.0232632239322055,-0.0004534498919785,0.0008307466730508,-0.0153127479021889,-0.2256255234212511,-0.9740892864162476,0.0424374532130387,0.0580476779763758,9.925752998617424,-0.0610665797462151,0.0705220406870013,1.23517484685161,-0.2179905395507032,1.5522875343859823,0.6703484883797219,1155.283602869294,1133.7469879641371,1126.028661900524,1174.3022370174172,62.146504760722976,-403.1470025777338,-1050.0106452207315,-1689.4967082261603,160.63133146469875
2.14,2.9289647407723916,-0.2410765129576482,-0.2221594016259262,0.0871704663580324,0.0236754788648444,-4.594448060958014e-05,0.0007040739756115,-0.0153825130519279,-0.2256197934220932,-0.9740895184667474,0.0454870452896958,0.0532899534226876,9.894742980213085,-0.0605400624701057,0.0710212733950323,1.2356250333358274,-0.2181137516560835,1.5524057645231113,0.6734124962578895,1155.592150700458,1133.187488512438,1123.724719918285,1170.3578350352896,166.36162940081147,-107.0918926881882,-852.2787833450093,-1561.272407374496,160.63769897532487
2.1425,2.4237670027936247,-0.2575646647691272,-0.3043376982427589,0.093828871266513,0.0237065675984224,-6.407898398766025e-05,0.0005578072299195,-0.0154616672365422,-0.2256075647814771,-0.9740914626317574,0.0485915230571353,0.0487589414044387,9.862749905643236,-0.0600102720646008,0.0715588381598385,1.236035181341028,-0.2182363146693133,1.5525250766710144,0.6764812399226487,1156.115411016298,1133.2115285006962,1121.767267983799,1166.495874980545,274.3870387339088,99.90405928929462,-745.9889184545023,-1615.980498651186,160.6440865765131
2.145,1.7439622567801747,-0.2792527993280078,-0.4322658373457071,0.0988837128870986,0.0229208107862617,-0.00082529768452,0.0004054614286997,-0.0155488431194821,-0.2255863929173612,-0.9740956707097694,0.0516282758093522,0.0441984456944939,9.829323496453863,-0.0594639665898481,0.0720915841181209,1.2363435807066576,-0.2183607365354104,1.5526438864083876,0.6795688083260168,1156.9640858941275,1133.6870088088845,1119.9947753260124,1162.277932542034,350.85377686110246,210.25861476705808,-539.9680097164606,-1436.395993689515,160.65177627273712
2.1475,1.1790381169115525,-0.2802546199324292,-0.5287212927143569,0.1008557863727908,0.0218232259282136,-0.0022356814642397,0.0002510035529673,-0.0156388060183498,-0.2255621138675438,-0.974100665349596,0.0546469294039168,0.0396122161227925,9.79540248294036,-0.0589119816959216,0.0726228109083775,1.2366165765988435,-0.2184858042313977,1.552762521590936,0.6826629170958026,1157.8696799006036,1134.2628215745315,1119.0674279352168,1159.3138950120976,405.99290467190207,228.97754660639785,-259.1353612389467,-1034.315056830723,160.65820565423755
2.15,0.6706433692567549,-0.2451065083479075,-0.5738214604697174,0.101417021728746,0.0206440823297765,-0.0045215854817113,0.000127792160339,-0.0157134885632636,-0.2255392710886763,-0.9741056168879598,0.0576407681461915,0.034305875888976,9.760136800343743,-0.0582916840379424,0.0730404352811256,1.236710645314602,-0.2186129137473543,1.5528790279717972,0.6857862212152689,1158.9940504174867,1134.8318965419164,1118.6990985198179,1157.1063572578803,481.5129240801628,209.45282619032233,-70.748482127921,-740.8092944772465,160.6646579060175
2.1525,0.2300731229585082,-0.1722795808283805,-0.5531622616371126,0.1013970457563976,0.0195264366436861,-0.0073540724879878,1.2439209897174222e-05,-0.0157843442374388,-0.2255180558649786,-0.9741102592551908,0.0606089731827938,0.0288311821802976,9.724684754284242,-0.0576565810877441,0.0734309691758159,1.2367621539208389,-0.2187395849508588,1.5529954242292627,0.6889128683926454,1160.2772445210044,1135.310085705483,1118.7136855245772,1155.6098485397115,533.2053198875295,164.73794722563778,64.95996616117297,-422.5733589643993,160.6711295055337
2.155,-0.124177628528155,-0.053656819799656,-0.4438349520405522,0.1009566553634501,0.0185573312209652,-0.0101298110263234,-6.280536760813686e-05,-0.0158357015716154,-0.2255077772103868,-0.9741127041218696,0.0633666140385593,0.0226324510021889,9.688572432532682,-0.0569506214528536,0.073685665838794,1.2366015795540033,-0.2188620424405685,1.553112141571054,0.6920482723698779,1161.6600770169248,1135.6555862780447,1119.0238983506235,1154.9934904630584,590.0053957369948,130.00216518193187,152.1006162131823,-85.12942539281873,160.67762464671335
2.1575,-0.4590556729856536,0.1290192457042826,-0.2281842133118034,0.1000067042034671,0.0177450781323681,-0.0121592440417219,-0.0001319792369662,-0.0158770803717436,-0.2254985202263927,-0.9741150956202936,0.0660709634611695,0.0163800344169559,9.652488452683501,-0.0562116318317197,0.073909020590512,1.2363574719516495,-0.2189805005093816,1.5532304363219311,0.6951781074680305,1163.2272714996896,1135.9600965313928,1119.4741886056431,1155.1842014127471,519.3794801428904,102.95684236198431,137.48654011047003,194.842566625634,160.68544595000327
2.16,-0.6741225682744302,0.2951879486814697,-0.0087501265969028,0.0988104992948468,0.0176575845276284,-0.0122311123569854,-0.0001877842839994,-0.015896484594026,-0.2254915131500475,-0.9741173695919498,0.0686493128603412,0.0100264857846964,9.616462800452803,-0.0553999256810109,0.0740633478995563,1.2359293209150544,-0.2190901511135509,1.5533522048194104,0.6982956788642964,1164.2569744176392,1136.1703704898543,1119.711331051176,1155.9677032961863,304.8208717890767,79.69250023929987,20.24784024292828,390.04238555476974,160.69198597563056
2.1625,-0.8354472766272721,0.4412152682058969,0.2100328203922517,0.0971297551630902,0.0187336344399103,-0.0109354317809677,-0.000245459227539,-0.0159102263851185,-0.2254831077243085,-0.9741200285634998,0.0709013372141797,0.0039786657926994,9.580933552305236,-0.0545630624822699,0.0741980829190341,1.2353648979812368,-0.2191951789829386,1.5534778079420575,0.7014022927577083,1164.751375858635,1136.3585590325893,1119.5754278068575,1157.1344133405212,48.74915410232565,64.38545169139753,-190.91226071941895,529.0587857699505,160.698548370809
2.165,-0.9784805794140604,0.5490444318193173,0.4365724140629418,0.0946628967450779,0.0213593542218861,-0.0088650414627648,-0.0003049867060372,-0.0159183583193583,-0.2254733169325199,-0.9741230689603108,0.0728288537353926,-0.0017662854728457,9.545895948133849,-0.0537012949379232,0.0743133643602588,1.2346654456286383,-0.2192956270385461,1.5536072100862828,0.704498050886094,1164.5007201881508,1136.4922977483116,1118.756769747579,1158.6129972250362,-249.25794548499275,10.979360069495904,-433.0532863887221,502.83487792267965,160.70644794977179
2.1675,-1.0620511522691412,0.5589957174855367,0.5836809881686076,0.0924156817267287,0.0239670739295316,-0.0071197003126773,-0.0003714329620253,-0.0159330205364327,-0.225468716756452,-0.9741243884840104,0.0739887322785656,-0.0067783209780599,9.51214479006778,-0.0528474011682025,0.0744154235505653,1.2337866388116157,-0.219396079273962,1.553742162382688,0.7075923214568416,1163.50508613121,1136.4134558329367,1117.410161374914,1159.6485877301343,-560.4643038918886,-106.24452824850094,-689.8961200090672,321.52815640343533,160.71305063574826
2.17,-1.1137906647616262,0.4769559297873497,0.6862714603194903,0.090054272548334,0.0261807202745871,-0.0053048251736532,-0.0004409532260033,-0.0159505841535939,-0.2254664227673111,-0.9741249434249926,0.0748078906085021,-0.0114703511517602,9.4789660783587,-0.0519969962043473,0.0745114195905926,1.2328281556004343,-0.219496533366464,1.5538795806078172,0.7106859311067731,1161.6983986686914,1135.961075107069,1115.3072891475335,1160.2206380070531,-843.44897834796,-267.51356680006774,-963.6428563976755,126.55499276129646,160.71967269605767
2.1725,-1.140243243972359,0.3262939631727844,0.7564549063463097,0.0874819407846638,0.027727195801731,-0.0032613356413821,-0.0005099339542899,-0.0159873622031539,-0.2254520599998462,-0.9741270777383344,0.0743954586493472,-0.0151340721506258,9.44807998779432,-0.0512008720645402,0.0745682796440467,1.2316611456379423,-0.2195999202203086,1.5540205341739883,0.7137903604637686,1159.2878412394703,1135.0758879989364,1112.591947092926,1160.2813626939408,-1082.8686733033644,-476.9297078931364,-1214.3607464483555,-109.57012543262124,160.72630998097029
2.175,-1.1348577077998663,0.1138667001966453,0.7977949794245619,0.0845045403667517,0.0282602448742337,-0.0010738532992786,-0.0005791858043781,-0.0160286661555668,-0.2254346867182284,-0.9741296465448634,0.0737196952027603,-0.0185587970756929,9.417726279878266,-0.0504177179869632,0.0746177580422956,1.230451864404222,-0.2197035663349865,1.5541619031191387,0.7168964412773604,1156.2840553021742,1133.5764265676032,1109.2354854152916,1159.6727873798902,-1416.0851673186198,-805.1148622328949,-1581.6615808022402,-411.21056424337394,160.73296453706556
2.1775,-1.0916700873781415,-0.1804062809337788,0.8334653310523868,0.0806797826262831,0.0277283911185947,0.0010941849121669,-0.0006528279430162,-0.0160951295142974,-0.2253993635003806,-0.974135083037981,0.0717419509798575,-0.020584322694805,9.390263991090691,-0.0497091249401564,0.074642666415529,1.2290562573635635,-0.2198055291967545,1.5543025593524655,0.7200052073175335,1152.2074154028767,1131.0503136877717,1104.683639188914,1158.225309872724,-1539.421501287812,-1035.3351553556188,-1714.0746624885562,-627.924746105932,160.7409684467984
2.18,-1.0307532755593805,-0.4375962726121881,0.8670572064001706,0.0778280532406297,0.0265184351152869,0.0022739599878307,-0.0007296632491817,-0.0161646856682063,-0.2253676201139602,-0.9741392758451396,0.0695164156064169,-0.0221600909444378,9.36368133713325,-0.049011612017074,0.0746664645097411,1.22762380746134,-0.2199056289411011,1.55444210121246,0.7231071487479669,1148.586947795735,1128.3997507908252,1100.6651121028488,1156.5331636493606,-1454.5309249243328,-1146.9636083776795,-1595.7249725596623,-742.3769771870569,160.74765251402735
2.1825,-0.9578650627190376,-0.6897841689651024,0.9148011510860152,0.0755882667720255,0.0249660715183285,0.0034073406669393,-0.0008154692325607,-0.0162429305197776,-0.2253459336731704,-0.9741399747218368,0.066584442928902,-0.0224547397676462,9.339568132347129,-0.0483456796826247,0.0746877106739217,1.2260875556427224,-0.2200004945645147,1.554578512424478,0.7261899175635733,1144.9347607782552,1125.3154956458834,1096.705014326116,1154.5134249867888,-1573.4984868157762,-1421.1341256047792,-1658.2354493746504,-923.5710733387546,160.75434965070724
2.185,-0.8746571236927932,-0.9735720595562464,0.9808121452094634,0.0732160733938092,0.0229309326223064,0.0054346195600341,-0.0009049006304806,-0.0163166190504727,-0.2253359349339353,-0.9741371689363254,0.063476085324826,-0.0220006927929704,9.316928427978723,-0.0476796285838982,0.0747059908727493,1.224523399173882,-0.2200920858546243,1.554713002790518,0.7292534250549979,1140.7194553616566,1121.2940801628015,1092.373934855976,1151.9153082826667,-1493.6016013443668,-1504.4612569748872,-1470.2043188020384,-957.5265131613128,160.76239956029806
2.1875,-0.8197636702221142,-1.183983561913997,1.0263763616184,0.0715150696755052,0.0207764892715327,0.0078700019661681,-0.0009987175482514,-0.016384795980929,-0.2253400743426551,-0.974130123700259,0.0601518943741557,-0.0206380317138926,9.296070696695853,-0.0470135592494616,0.0747207018410287,1.2229254226489208,-0.2201797163138989,1.5548451695855368,0.7322936328882458,1137.4667527715335,1117.7931893610091,1089.353992732106,1149.7257924209823,-1225.4424595297485,-1411.5183384022955,-1041.5041555131888,-861.1529893286115,160.76911805829096
2.19,-0.7883438019021002,-1.3491033630379612,1.0378394621212352,0.0701653067745109,0.0176173802911132,0.0110724257882474,-0.0010962632558788,-0.0164481549970672,-0.2253598096547263,-0.9741184925430406,0.0566785440751612,-0.018222380454231,9.277042021474077,-0.0463574469841871,0.0747419911247468,1.2213325220080644,-0.2202629435067848,1.554977233376118,0.7353108815862442,1134.592243064008,1114.23648847079,1087.16641407841,1147.609543336024,-1076.0165895541606,-1422.6547060703826,-719.1731297026917,-825.934705177014,160.77584671958263
2.1925,-0.7772377812111743,-1.4608812397212059,1.0072460834894716,0.0690080548869075,0.0136090465481832,0.014511663752476,-0.001195882802793,-0.016508834436083,-0.2253882189329707,-0.974104310836229,0.0531231937713211,-0.0152239260062154,9.259029762913592,-0.0457068007941922,0.0747665581696149,1.2197425005241147,-0.2203437217370906,1.55510923987877,0.7383153611128754,1132.0866698237628,1110.6799158306571,1085.7581270835926,1145.596118895097,-905.8923209184024,-1413.4089479394636,-377.4944007598232,-776.2365919520273,160.78258388036588
2.195,-0.7818630548583502,-1.4950483716674983,0.9222593983817718,0.067927328752096,0.0092452228360167,0.0174758001425052,-0.0012949777789679,-0.0165551277618509,-0.2254248565707573,-0.97408921302243,0.0496921113780634,-0.0110638928612175,9.242834170081393,-0.0450578491081634,0.0747973346739583,1.2181925949359036,-0.220419549564781,1.555242336884166,0.7413178045580746,1130.062781459416,1107.1694437310928,1085.2789420746108,1143.728360376264,-777.5109629770144,-1516.621932774194,-29.767628669194696,-787.9291725011094,160.78933185737992
2.1975,-0.779595309937813,-1.4438209080865771,0.7684857330429453,0.066332357508724,0.0046003026361169,0.0200542725941498,-0.0013939522595637,-0.0165975711620371,-0.2254630212015323,-0.9740741234865288,0.0463058887018838,-0.006649894806049,9.227033145782435,-0.0444078669339521,0.0748289526323979,1.2166519270623897,-0.2204942989714729,1.555375649227723,0.7443204072365875,1128.1991150088775,1103.0968061667859,1085.6092889402466,1141.6564730325915,-593.5178778321697,-1449.8617088932335,229.09887127764975,-733.9691159719182,160.7974432420735
2.2,-0.7427745633006311,-1.3306211986429888,0.6108342236926184,0.0642502975873981,0.001291513891059,0.0213924499114016,-0.0014922780212944,-0.0165987368291407,-0.2254957253836849,-0.9740673196939562,0.0437179659189367,-0.0011550051193053,9.21255888094826,-0.0437019828247336,0.074868313304657,1.2151588734684355,-0.2205654543695209,1.555508796277897,0.74734749028857,1127.095192070255,1099.9201351866263,1086.424436430999,1140.058514796404,-359.28033354144503,-1192.8980262325495,375.21080008924287,-616.5536905805442,160.80421558389827
2.2025,-0.6335278487423848,-1.1545140909290956,0.4370395853390517,0.061124815515733,-0.0018422391861996,0.0221747288386299,-0.001587889002018,-0.0165944414205023,-0.2255292105168366,-0.9740615529409332,0.0412672351478339,0.0044812065351127,9.198184161644225,-0.0429914538284887,0.0749071129004526,1.2136698075933299,-0.2206364051097461,1.555642113084168,0.7503778404208821,1126.4027133411703,1097.1323160356233,1087.4853429406928,1138.5737045796889,-228.83021503399084,-1095.272929983117,451.4299744667465,-631.0450905966852,160.81100328201268
2.205,-0.39554804267609,-0.8842418630744883,0.2184059173876576,0.0568810440739865,-0.0054059862885689,0.0228247281996614,-0.0016734536915968,-0.0165699368101915,-0.2255655856293589,-0.9740596238459812,0.0393250836630511,0.0106549759002403,9.184182098870659,-0.04226344826828,0.0749456923954819,1.2121955268563165,-0.2207065984953014,1.555776058088135,0.7534202806776287,1125.9510409950851,1094.4437705367109,1088.681586303333,1136.9032893434207,-120.41958075292573,-851.9988005791402,383.3632227387252,-596.763761110391,160.81916874961377
2.2075,-0.118239292639473,-0.6249822122709883,0.0291303291107761,0.0542519676330517,-0.0077906610792017,0.0231639559920509,-0.0017535651948832,-0.0165474594049154,-0.2256004769289929,-0.9740579626696716,0.0374671166412041,0.0170137240855338,9.17002389600864,-0.0415499620325625,0.0749927029575403,1.2107135297771268,-0.2207779972256065,1.5559096335148923,0.7564645686632666,1125.8006154374057,1092.8723220327277,1089.4021590543864,1135.5898857741367,-38.166792622178846,-478.2572853479552,199.8924137768469,-515.4694940824467,160.82599169691767
2.21,0.1930514819898898,-0.3573427779860015,-0.167822284306362,0.0541889059241107,-0.0088062465406151,0.0231396305261216,-0.0018255911653356,-0.0165279877713094,-0.225633168153811,-0.9740566987409272,0.035735014895628,0.0236490201602814,9.155634799436232,-0.0408578417481141,0.0750525393396374,1.2092201479245703,-0.2208511831412425,1.5560426609631828,0.7595115963082184,1125.7602070319742,1092.0524841099711,1089.6810483722172,1134.3259418730083,-22.6396856211982,-204.83460047731097,11.108601786418385,-558.1294703313807,160.8328351222528
2.2125,0.5276520145932124,-0.0619453098667479,-0.4115282543690378,0.0570693100199254,-0.0084362569763507,0.0225969985541226,-0.0019007895737699,-0.0165111434747814,-0.2256531825552537,-0.9740571039917733,0.0342091458369738,0.0305387615065603,9.140556793242762,-0.0401703982979802,0.0751532252293958,1.2076998429597554,-0.2209267390542039,1.5561729146978283,0.7625546882868456,1125.6874170092997,1091.8481490303411,1089.4577020633185,1132.79923842248,-51.92479977631703,20.91983273167033,-168.15459929721686,-573.3637395128549,160.8410718780735
2.215,0.7267902221440674,0.1436610630308647,-0.6168220573383665,0.0605401053588335,-0.0076300197899465,0.0217343098411445,-0.0019781668916489,-0.0164961036988164,-0.2256644901985702,-0.9740586556767482,0.0328241643682332,0.0376014507284419,9.125004954415004,-0.0394862198935304,0.075281821428517,1.2061610124391349,-0.2210039227403747,1.5563012633768372,0.7655950771517878,1125.5005830330927,1092.1570832736295,1088.8402753757312,1131.4591231754443,-124.01179668712828,166.37566835346448,-321.1757108773565,-561.0486554552684,160.84795661119833
2.2175,0.8169693542915423,0.2974522558967497,-0.8147846997815554,0.0639559387516816,-0.0069901345494506,0.020451697399869,-0.0020617178300401,-0.0164854459398938,-0.2256465547820361,-0.9740652894559744,0.0316887302819959,0.044741613436122,9.108029766746661,-0.0387992424506897,0.0754695362432849,1.2045797504653895,-0.2210827461613099,1.5564286234307274,0.7686236832875872,1125.067358025864,1092.6800273721085,1087.8518235089316,1129.9939951452036,-229.43481478390183,201.5206388345496,-446.6675687792457,-607.9636778424218,160.85486258226865
2.22,0.8198472004176041,0.4066014603406434,-0.994528295437377,0.0670203615939034,-0.0063059390068099,0.018714230316814,-0.0021469809796092,-0.0164760035032521,-0.2256205090040287,-0.9740733327190794,0.0306204288412401,0.0518988419121615,9.090658370474497,-0.0381116278072183,0.075673325959291,1.2029866385186272,-0.2211620243514014,1.5565557092962417,0.7716490215645168,1124.353408959173,1093.1646864678023,1086.6069375318348,1128.419304786232,-368.49741371853133,146.63294604775132,-554.4856380937863,-645.9509493778252,160.8617854574071
2.2225,0.7414182386596464,0.4596678945278119,-1.131143446686564,0.0691014402366339,-0.0052241096875301,0.0162537017084179,-0.0022178667898506,-0.0164847775612964,-0.2255945506666804,-0.9740797188567152,0.0294855454244026,0.0584499795715796,9.07102021170899,-0.0374512543206135,0.075903765654794,1.201345785738314,-0.2212372091379248,1.5566860528482027,0.7746467870163543,1123.2248709572712,1093.4131921023472,1085.0793953184627,1126.7642403983143,-605.3632128072552,34.098044692019165,-739.9059475894022,-720.0234085426627,160.86872728329513
2.225,0.5960044895604236,0.4544806395077357,-1.213342161032379,0.0703636121908113,-0.0038948079686698,0.0124662922794413,-0.0022872317693126,-0.0164963020486092,-0.2255743318088806,-0.9740845789729544,0.0283427760950214,0.0648438531547869,9.050881316869837,-0.0367933383063512,0.0761405840982553,1.1996959166174435,-0.2213108893075397,1.5568173829762924,0.7776391662901266,1121.3265928951369,1093.3351766912624,1082.9074077938878,1124.8191877435188,-789.1078347019796,-86.99603323921296,-858.0660679753873,-680.9014053710289,160.8770769591934
2.2275,0.4607059810861087,0.3900282490937505,-1.1921967835135463,0.070726453085517,-0.0030287213496634,0.0088211488708878,-0.0023508407410641,-0.0165193492447817,-0.2255835799560262,-0.9740818379371742,0.0271747486377911,0.0705393740016815,9.028501241149218,-0.0361438442349164,0.0764079004996589,1.198006816572124,-0.2213774265550488,1.5569533147044363,0.7806078225252502,1119.2793317837616,1092.9782119361512,1080.7890649785859,1123.3597333714595,-907.9570904715832,-184.0279224846693,-915.6328824914193,-518.9491790845406,160.88404921165588
2.23,0.3322968425418291,0.2585853414801976,-1.0616454168392349,0.0707761077163234,-0.0022188177740826,0.005093628516778,-0.0024184621399591,-0.0165370640097422,-0.2255978869871858,-0.9740779370961924,0.0261699497983459,0.0759191590891762,9.005124992991924,-0.0354745334791587,0.0766929020209777,1.19629606377629,-0.221442408804669,1.5570911934539775,0.783573773455259,1116.786807442779,1092.415037078839,1078.3292433814308,1122.224441848096,-1177.6296680752034,-269.4517143956148,-1156.6040378052794,-395.50900581690183,160.89103343030297
2.2325,0.1919823074643617,0.0170992674017945,-0.7786012667256405,0.0708244885105667,-0.0009080262382744,0.0012186609154709,-0.0024934374146971,-0.0165450056285069,-0.2256214658140971,-0.9740719105933228,0.025462553872516,0.0807242322785917,8.979924283335409,-0.0347690250122816,0.0770106403717286,1.1945456064840403,-0.2215045410931554,1.557232640655507,0.786534766169898,1113.3911834433857,1091.6309533641731,1075.0060447895596,1121.382188342375,-1289.034179509854,-292.623692130889,-1266.8432233286508,-212.0387392210477,160.89942468198933
