t,ang_acc_x,ang_acc_y,ang_acc_z,a_vel_x,a_vel_y,a_vel_z,quat_x,quat_y,quat_z,quat_w,acc_x,acc_y,acc_z,l_vel_x,l_vel_y,l_vel_z,pos_x,pos_y,pos_z,mot_1,mot_2,mot_3,mot_4,dmot_1,dmot_2,dmot_3,dmot_4,vbat
9.455,0.4004894093980958,-0.1962504264742006,-0.9576853097379198,0.007969752545333,0.0266554892552004,0.0305980086852602,0.0059417176479177,-0.0014510538145274,0.0081435421367874,-0.9999487633012168,0.0646213429611234,0.0358405770685451,9.76746825162234,-0.0477191012883729,-0.0379088420896212,-0.0087619941116465,3.4780240221609575,5.035684428557206,2.054941381178169,1126.25562466034,1151.25758575518,1141.0580185280628,1124.8788511361652,323.35544769491275,53.357726189607696,395.3958532887432,-112.92698826143778,152.83993386760307
9.4575,0.4136733635823737,-0.1673212106541607,-0.8841100699121492,0.0073337576773043,0.0259070897170148,0.0272691962518088,0.0059099629168325,-0.0014341377442748,0.0080816174641911,-0.99994918141489,0.0662861294556126,0.0384340033445282,9.76660373831836,-0.0477236882563168,-0.0373895359754244,-0.008878454597521,3.477902565287223,5.035595652189879,2.054923159599997,1127.058818648567,1151.2497592603372,1142.0313773017083,1124.708450290872,283.6123521028196,-54.5108503200396,338.05720728186486,-2.396306241052651,152.8378201820991
9.46,0.4586828471634637,-0.1220059908645017,-0.7184063593891674,0.007861124404588,0.0255855438417121,0.0246495007699056,0.0058887810279855,-0.0014305380669646,0.008023247693651,-0.9999494517654572,0.0682483925237228,0.0408597544521582,9.766022097091971,-0.0477255313245198,-0.0368727723603284,-0.0090080586859563,3.47777982243274,5.035506015161709,2.054906767788279,1127.6736864208544,1150.9850315035799,1142.7483045644724,1124.86686960496,192.37857186559896,-143.5947355543024,209.10932195394167,149.43323284071477,152.83570313558167
9.4625,0.4997785808409203,-0.0556428182904749,-0.445350079675592,0.0103098501624077,0.025427164675604,0.0223279190629496,0.0058774618779338,-0.0014383762107757,0.0079674620565664,-0.9999496137117628,0.070550346638589,0.0431376632190485,9.765755874949784,-0.0477219027517145,-0.0363559469443874,-0.0091504653819282,3.4776566819036705,5.035416797944544,2.054891360242962,1128.0207115078952,1150.5317855825656,1143.0769239114784,1125.4556164550756,49.04353556731687,-164.74236114876115,11.164678900788603,273.0720277241833,152.8331610885385
9.465,0.4897945681315116,0.0053180851073277,-0.1884576426791245,0.0133465084270896,0.0252026438221427,0.0213993804245393,0.0058722409664924,-0.001454272087628,0.0079119311586901,-0.999949735561998,0.0732525215305907,0.0453417164247253,9.765832422537745,-0.047710512599655,-0.0358362072455014,-0.0093041829962705,3.477533468128023,5.035328352298239,2.054876044940224,1127.9189040986907,1150.1613196978362,1142.8041279589763,1126.2322297435803,-120.434559977299,-125.67991814387597,-227.7911789973585,345.406600721231,152.83104293144723
9.4675,0.417118585411681,0.06643604339979,0.0545810346564037,0.0160946071060085,0.0250006474349272,0.0218585932822397,0.0058663036694058,-0.0014701979030676,0.0078528996151677,-0.999949922192081,0.0764952972954879,0.0475998385503179,9.766272175292828,-0.0476896130178597,-0.0353105834346868,-0.0094661432756391,3.4774107692919136,5.035240333538799,2.0548599411279724,1127.4185387080088,1149.9033859918463,1141.9379680164918,1127.1826494586815,-290.7048870981272,-77.95115936613601,-501.90467715707535,418.72401966273,152.8289266138144
9.47,0.274735011982771,0.1287080508772779,0.2837943494053057,0.0177523952106372,0.0252210414080861,0.0238371070242811,0.0058527777649251,-0.0014831199090319,0.0077911442951963,-0.9999502390492884,0.0803092775176032,0.0500340957147974,9.767087915337672,-0.0476573817503919,-0.034776610489772,-0.0096328415898177,3.477288417770545,5.035152710153035,2.0548425311970013,1126.4653796632,1149.7715639010055,1140.2946045731903,1128.3258498418943,-382.8647503173526,-21.578648581904684,-680.4061665304589,388.9138164856678,152.82639049030536
9.4725,0.1383152691469072,0.1607848383030535,0.4019017077099825,0.0178211744034467,0.025853257968583,0.0259493240847958,0.0058253835172688,-0.0014854213696009,0.0077248862908785,-0.9999507849182656,0.0848050690462896,0.0527494550274602,9.76828341759497,-0.0476125442742948,-0.0342317765829126,-0.0097995613446924,3.4771675575450436,5.035065595101987,2.054822934787819,1125.5042149564215,1149.7954927489368,1138.5359371838388,1129.12721854111,-382.8618310677791,24.728427693212694,-749.9755133863474,258.1419474419876,152.8242804558074
9.475,0.0179420828208477,0.1617168006240897,0.4407910587562009,0.0172936148557791,0.026849803905981,0.0277536622832675,0.0057834920304674,-0.0014712620277708,0.0076509843536014,-0.999951628337766,0.0900498490595628,0.0557346096171023,9.769853807475185,-0.047554016041497,-0.0336736568507023,-0.0099615273589148,3.477049394058383,5.03497935169625,2.054800737413237,1124.5510705078616,1149.8952060394715,1136.5447270062596,1129.6165595791042,-374.59644094268293,39.53679832251801,-887.8757238046977,124.78486943098557,152.8221740402834
9.477500000000001,-0.0798456859765506,0.1239889445260103,0.4136952193970902,0.0161488331593666,0.0280099289370643,0.0292496595946554,0.0057334456649447,-0.0014488864047657,0.0075672529835793,-0.9999526951467737,0.0958266072430684,0.0588353816946411,9.771786394707233,-0.047480216541911,-0.0331001874264281,-0.0101154332320083,3.476932637644077,5.034893806318721,2.054776015584319,1123.631232751708,1149.9931767405494,1134.0965585648148,1129.7511428882651,-272.1343672793439,15.394033425989033,-878.234266687331,-22.47217377634673,152.81964996679375
9.48,-0.1130246018258104,0.066791353402306,0.3496974937672855,0.0148510116082146,0.0285792968898772,0.0299628756839555,0.0056835320368703,-0.0014286668702076,0.0074756595659886,-0.9999538577050636,0.1018660458570988,0.0618563367734288,9.774059685981236,-0.0473888235831359,-0.032510158816746,-0.0102582585023374,3.476815811054499,5.034808857224284,2.0547486458730657,1123.1903986714647,1149.9721762066015,1132.1535556728222,1129.5041987102225,-84.9265822952189,-46.18083013034274,-724.9640049133254,-148.65914728587316,152.8175487562515
9.482500000000002,-0.1010314505792092,-0.0012879950499293,0.2665778853948779,0.013751631637949,0.0285426610346492,0.0302715073128908,0.0056388325530757,-0.0014140381327492,0.0073796121356387,-0.9999550205595878,0.1080243937288223,0.0646642514597943,9.776642216564506,-0.0472770743670371,-0.031903175313621,-0.0103864003665563,3.4766982063259793,5.0347247811520965,2.0547188692795983,1123.206599840232,1149.7622725898975,1130.471738540249,1129.007847151836,89.39973526928003,-122.21837880122324,-607.5099964777863,-211.50295511692664,152.8154483142748
9.485,-0.0674454537588513,-0.0648146289856751,0.1816294757751765,0.013365529191289,0.0280164565494517,0.0303712419165134,0.0056031256247883,-0.0014075767795025,0.0072854571016149,-0.9999560888494672,0.1141651561955737,0.067152015886057,9.779494354336919,-0.0471416608516155,-0.0312798606563859,-0.0104967149599975,3.476579277263689,5.0346418670388715,2.054687450588648,1123.6373973478107,1149.3610843125955,1129.116005690434,1128.446683934638,264.87933591834417,-206.85790596491137,-440.7153439498636,-204.92734694777465,152.81334702900332
9.4875,-0.03456645384974,-0.1107206079372732,0.1048719511365684,0.0138744310918615,0.0271038825707322,0.0303427693291315,0.0055802647867839,-0.001411623498021,0.0071963495173294,-0.9999570023826396,0.120150527469989,0.0692127418632237,9.78257031005829,-0.0469793184724972,-0.0306413293042837,-0.0105869148095412,3.4764590788883742,5.034559994341414,2.05465551007215,1124.530996519824,1148.727983060073,1128.2681618204992,1127.9832104170969,470.44182198416735,-323.5879923160104,-234.80981328849307,-148.12186357155454,152.8112427345259
9.49,-0.0251172039538783,-0.1412690086510085,0.0278693528722017,0.0147375578091572,0.0261285690039744,0.0302649242557531,0.0055708411320358,-0.0014301360290952,0.0071180218526649,-0.999957707098749,0.1258041129783947,0.0708072397575576,9.785819492270688,-0.0467866804285492,-0.0299898644666402,-0.010655676233032,3.47633734504094,5.034479866522302,2.054623187094772,1125.989606457732,1147.7431443510152,1127.9419566239912,1127.70607461678,566.0262322362304,-388.91844973626127,1.0168827575400632,-43.96528356502096,152.80871207195185
9.4925,-0.0536220093173591,-0.151782794968894,-0.0237151898385293,0.0153671909462248,0.025888613257043,0.0302020437784486,0.0055738926212224,-0.0014655417362656,0.0070572781936612,-0.999958159244854,0.130975283618833,0.071932618421158,9.789188855470428,-0.0465607486362186,-0.0293287547395077,-0.0107025026608541,3.4762134331425782,5.034402552536982,2.054590748010966,1127.3611276810043,1146.783390811392,1128.2732462342867,1127.7633839992718,534.2797487131139,-401.5539638957589,250.264150224536,81.4058581076879,152.80659776555282
9.495000000000001,-0.1207840126529758,-0.1567063931116149,-0.064678849505619,0.0158968533184416,0.0262822619460643,0.0301506005170307,0.0055863464005162,-0.0015214232511187,0.007017618357537,-0.9999583532380798,0.1354906805387986,0.0726335033996467,9.792625422329785,-0.0462994700349666,-0.028661790758888,-0.0107279588376819,3.4760871518165515,5.034328802913217,2.054558580262559,1128.661005201298,1145.735374531536,1129.193277375114,1128.1131039073186,502.27025920027125,-472.15004967512766,516.0502248896694,206.56236444421165,152.8044776475048
9.4975,-0.2316668297881854,-0.1585244911636785,-0.1045167308107291,0.0159993121159782,0.0267879303086123,0.0300781144416158,0.0056037502041452,-0.0015949037725372,0.0069981213848093,-0.9999583338589384,0.1393067551962662,0.0729893734054997,9.796077731241922,-0.0460023647617329,-0.0279929239823291,-0.0107329840105344,3.475959830569408,5.034259203061216,2.0545269023814066,1129.8724789770063,1144.422640563016,1130.8534973587357,1128.796195821493,355.3653087920136,-485.92682197759706,675.7852872970924,277.8891316052621,152.8019275997394
9.5,-0.3300067722052291,-0.1473245482420328,-0.1306672450120104,0.0152801620206658,0.0267305671377789,0.0299751156511191,0.0056228881037846,-0.0016791637532142,0.0069948006895875,-0.9999581693806486,0.1424636350452635,0.0730634949147063,9.79949890801068,-0.045670707982219,-0.0273260231475298,-0.0107192282253401,3.47583411907196,5.034192926603926,2.0544955940404193,1130.4378317452579,1143.3057404216484,1132.572203811599,1129.5025495653447,114.6280389139293,-447.03258084173086,723.1121932852675,287.89304213656845,152.7997988979812
9.5025,-0.4078557062863743,-0.1025271649700269,-0.1476656911218523,0.0137431977697527,0.0259490311459828,0.0297785496053792,0.0056429669795408,-0.0017666100114285,0.0070030950193634,-0.9999579203621268,0.1450255325300184,0.0728795191136496,9.80284935835417,-0.045307373908371,-0.0266647689923604,-0.0106893354012258,3.4757121329801155,5.034129820170072,2.054465344615992,1130.4456191715756,1142.187477658808,1134.4690583251613,1130.2356610321756,-119.48041036337553,-486.67612971022794,838.6173938559804,302.0342843849431,152.7976686657665
9.505,-0.4541706907714979,0.0118211909067936,-0.1520435509857096,0.011435795476176,0.0244797567881979,0.0293854826506949,0.005666133892149,-0.0018589200499661,0.0070227316490707,-0.9999575814433272,0.1468851040645516,0.0724102752332449,9.806100111639024,-0.0449161221761178,-0.0260128149465416,-0.0106477418386551,3.47559347910504,5.034070055452872,2.0544374926387827,1129.840429693441,1140.872359773097,1136.7652907808795,1131.0127209872696,-300.98028751403785,-472.41521575035114,821.7486647512567,251.7284947240175,152.79511427213623
9.5075,-0.4472430245434964,0.1622404159045016,-0.1371522032749567,0.0093285585028321,0.023425556786357,0.0289204774608299,0.0056955775017037,-0.0019597400510485,0.0070516491615504,-0.9999571479418836,0.147911283333565,0.071613735984725,9.809232190673255,-0.0445017306348988,-0.0253730205830634,-0.0105995991274696,3.4754768620463405,5.034013684350014,2.0544136427992097,1128.9407177340051,1139.8254015800555,1138.5778016489182,1131.4943035057959,-397.4692379290327,-399.0567723526394,679.7891179943224,146.31227417215268,152.79299042003447
9.51,-0.4015422843624924,0.3557369913831811,-0.0975281480026225,0.0076138560893906,0.0233219125378422,0.0283870484300114,0.0057266209810108,-0.0020630453676201,0.0070818921465189,-0.9999567092779384,0.1481803629664827,0.0706069985563323,9.81223252074804,-0.0440701681536617,-0.0247470323914022,-0.010548830014138,3.475362074984023,5.033960032667122,2.0543932576202244,1127.853083503796,1138.8770759113343,1140.1642363708504,1131.7442823581302,-427.1356766852719,-351.89935343754723,580.9848147221602,59.02851657750929,152.790875674736
9.5125,-0.3411830810858321,0.5616604398659732,-0.0355063837447471,0.0068560211532234,0.0242996321718295,0.0279559248230321,0.0057511767785846,-0.0021615345195749,0.007102141907523,-0.9999563931280196,0.1478130048100333,0.0695765723226487,9.815096172966207,-0.0436280989470322,-0.0241352265022738,-0.0104986401803259,3.4752497944185854,5.033907462375593,2.0543750290110063,1126.8050393505787,1138.0659048128675,1141.4827257225295,1131.7894460886835,-364.7632312716608,-272.45796663828804,445.71194800271167,-27.01589509037636,152.78877158246155
9.515,-0.2883248863792213,0.7481947703239726,0.0519632450669468,0.0073232306723039,0.0265204900857438,0.0278595819014413,0.0057665643536079,-0.0022521771579151,0.0071065824561944,-0.9999562391265794,0.1468644676249589,0.0686044246298619,9.817828694776397,-0.0431821597033548,-0.0235372513775957,-0.0104520193169092,3.475140335806899,5.0338553886889645,2.0543583789445075,1126.0292673474376,1137.5147860781426,1142.3927961108643,1131.6092028826783,-234.1612072702912,-152.78845600144763,288.93621869307316,-117.08717572244096,152.78668411088546
9.5175,-0.2516231002256204,0.9115687480379994,0.1807256083134419,0.0083180366630024,0.0301114924037664,0.0280709450321901,0.0057729706595384,-0.0023365160837587,0.0070931981221491,-0.9999562240197212,0.1453195117832333,0.0677152989498765,9.820443895694435,-0.0427388429833263,-0.0229519985354239,-0.0104113236173109,3.475033280212007,5.033804381472235,2.0543422085588645,1125.6342333142275,1137.3019625328607,1142.9274068159943,1131.2040102100711,-37.81651438617544,18.794523354021397,96.10178420986904,-164.2858790954378,152.78420327646742
9.52,-0.2374915572821164,0.981185568261212,0.3022392382320084,0.008383201819168,0.0333658396392662,0.0284829157639434,0.0057712856206405,-0.0024137837339189,0.0070598004145757,-0.9999563161476815,0.1432286358657904,0.0669173505506957,9.822960158446653,-0.0423046180762339,-0.022377406103976,-0.0103774203112452,3.47492831622112,5.033753843125054,2.0543253975552926,1125.8401847755067,1137.6087586949127,1142.8733050319136,1130.787773487201,195.8927328240555,243.63893364034823,-125.17694128557967,-160.58438904308096,152.78215964696778
9.5225,-0.2156729376277716,0.9793376458969156,0.4297809866898113,0.0071291404871748,0.0362946267938559,0.0292155037822402,0.0057654872103756,-0.0024838530366522,0.0070060190361282,-0.9999564595266252,0.1406489486142979,0.0661535258653061,9.82539939408484,-0.0418855988208329,-0.02181069297754,-0.0103500635237209,3.4748255347633585,5.0337030902185695,2.0543075860178788,1126.613696978348,1138.5201572010626,1142.3015221095663,1130.4010882648558,452.96856938868774,547.19109210651,-358.7313334950416,-137.84238541432052,152.7801450258635
9.525,-0.1525689673245715,0.90846848228668,0.5765306226146159,0.0050459846827995,0.039279876751015,0.0304528492922667,0.0057562634674214,-0.0025427884634605,0.0069329308868683,-0.999956685336884,0.1377293555632183,0.0654260008065728,9.827782584845208,-0.0414874778183279,-0.0212486483056497,-0.0103273743594961,3.4747259746598207,5.033651556976707,2.054287915691753,1128.1050276224505,1140.3447141554457,1141.079648364438,1130.0985615601296,615.2516037561186,778.7213904497733,-519.9808747775148,-68.31385364268039,152.77776616937723
9.5275,-0.0629433426464112,0.8080689779482558,0.6816283437889844,0.0036839303568089,0.0412674432570847,0.0317740466046735,0.0057437057299391,-0.002587582444082,0.0068445914322389,-0.999957012979644,0.1346151808904161,0.0647419787937655,9.830129318349774,-0.0411151103873753,-0.0206879787230183,-0.0103066103451039,3.4746298754027825,5.03359864140316,2.054265952965185,1129.6899549971279,1142.4137641533107,1139.7016177356795,1130.0595189966425,664.2146819218808,905.9434739112457,-596.8320063489778,41.274000145139354,152.77581984729267
9.53,0.0525129185154326,0.6848216703339945,0.7517933533980625,0.0031472567432187,0.0423871742658994,0.0333330042056869,0.0057277351709601,-0.0026181533479621,0.0067451674462695,-0.9999574454212424,0.1314071962703646,0.064104064597508,9.83245651818806,-0.0407722603123823,-0.0201254297153737,-0.0102846626421943,3.4745363512380387,5.033543731100339,2.054241865404385,1131.4261010320593,1144.874431525001,1138.0954883326935,1130.3049315608553,745.0047778176868,1112.822865037068,-717.7379921354956,177.31266693774117,152.77391558603034
9.5325,0.1890543079585569,0.5260736001569414,0.7723084193009748,0.0034107341679316,0.043178000207495,0.035453199116817,0.0057078282486957,-0.0026382586484036,0.0066398017235738,-0.999957965648336,0.1281399357646153,0.0635159133345265,9.834777205955833,-0.0404612359153022,-0.01955830608312,-0.0102584586100793,3.4744441943305207,5.03348825047832,2.054215589085248,1133.4149788862169,1147.977878478497,1136.1129277750015,1130.9460823313311,675.7105910176814,1115.7132268226708,-703.0325856302435,286.13953694503,152.771684583831
9.535,0.2736154835872199,0.3858497843145796,0.7176853734711512,0.004388818579137,0.0441217659186995,0.037832989821899,0.0056891889274268,-0.0026574934955194,0.0065375256613228,-0.9999584732388926,0.1247383575933502,0.0628617909108132,9.83710147247024,-0.0401825803941244,-0.0189849524572399,-0.0102256866612634,3.4743515920017014,5.033434471750286,2.054187731184338,1134.804653987148,1150.4529976591152,1134.580325404542,1131.7356292455806,464.64789157198686,919.281014654008,-549.847170131234,350.0147963951136,152.76987458955838
9.5375,0.2981093715050964,0.2306200710725599,0.5707936572316685,0.00610206395878,0.0453855939735456,0.0409298275027523,0.0056757995687697,-0.0026791064573375,0.006442322003097,-0.9999589210556824,0.1212559303734767,0.0620443859642829,9.839432956231013,-0.0399357168192502,-0.0184043090630436,-0.010183813703612,3.4742578764486325,5.0333838426578446,2.0541589364570414,1135.7382183440764,1152.574283551766,1133.3636919243459,1132.6961563133063,282.8195740653895,767.4656766268691,-410.03427483849873,393.17873402026856,152.7681206094358
9.540000000000001,0.2592945833291046,0.0597909708272916,0.3469376451521262,0.0079858120622648,0.0463754383569867,0.0438054247366993,0.0056671164320301,-0.002704292481385,0.0063541968696646,-0.9999593237075908,0.1177856127078436,0.0610511009934774,9.841769029793468,-0.0397190047980492,-0.0178159447828886,-0.0101305452602273,3.4741631910494264,5.033336722287263,2.0541297198935657,1136.2187518574751,1154.29032604225,1132.5301540303492,1133.7015229156823,82.3338265027231,581.6893239271394,-222.16910864868788,388.7440464926232,152.76641687623507
9.5425,0.1444939758938458,-0.1250396202463756,0.0545036360468407,0.0091840947314672,0.0466931390565386,0.0452557652228011,0.005659639408355,-0.0027345597754728,0.0062685394927206,-0.999959749924736,0.1144100373041534,0.059924644542328,9.844102273974553,-0.0395299376424442,-0.0172197143881334,-0.010064218852715,3.474068495697279,5.033292471666628,2.0541005141893307,1136.14988747659,1155.482730171402,1132.2528463811022,1134.63987654577,-136.7018169724178,417.7575292938321,12.7543918391464,373.00247709461615,152.76477843458392
9.545000000000002,-0.0624163209108185,-0.3469571705971667,-0.3187259080581849,0.0095491480041055,0.0461780892644414,0.044674385006118,0.005650559617755,-0.0027719431520712,0.0061817080519446,-0.999960256248207,0.1111923325928844,0.0586939283896444,9.846422466818591,-0.0393650859609273,-0.0166158826605089,-0.009984011341893,3.47397450058699,5.033249833024713,2.054071608629678,1135.5352427726134,1156.3791136887187,1132.5939259895447,1135.5665353011548,-286.9380830948219,261.38861334212123,227.8380103178732,297.68895360631643,152.76289399972592
9.5475,-0.2725307341463012,-0.5163536309247048,-0.6010198501986875,0.0094878636266644,0.0448277954429237,0.0423300061526641,0.005643347099994,-0.0028178679303854,0.0060962269951457,-0.9999607783030247,0.1081943296584993,0.0572665370057265,9.848719065250249,-0.0392200187975177,-0.0160053073831824,-0.0098900181735335,3.4738795643400606,5.0332076553597895,2.0540437150139974,1134.7151970611162,1156.7896732381123,1133.3920364326912,1136.1283213138013,-352.0173607811462,125.09890352223783,400.51666607872096,181.91834671535497,152.76139629089903
9.55,-0.4939483164207205,-0.6527230797006671,-0.8093241276461965,0.0091717965303142,0.0426031981340264,0.0388517032798209,0.0056403470077014,-0.0028692144206542,0.0060137631923783,-0.9999612674353636,0.1055532275167061,0.0555754822135276,9.85098041252608,-0.0390897418116632,-0.0153890961047137,-0.0097826101883982,3.473782813954033,5.033165404196337,2.0540170193931497,1133.7751559687072,1157.0046082063302,1134.5965093199388,1136.476127034732,-395.61195460945055,80.2806003887201,583.8588782293297,114.04661044096464,152.75997929053955
9.5525,-0.730879255653957,-0.77064598105359,-0.9544445696042316,0.0075106808546688,0.0397770396734675,0.0347718738439068,0.0056422180910645,-0.0029226399673202,0.0059351788549323,-0.999961701209234,0.103394534881386,0.0535913987048652,9.853195378693101,-0.0389688517851761,-0.014768801218109,-0.0096626413182442,3.473684579744533,5.033124135892943,2.053991538856053,1132.7371372880687,1157.191076240056,1136.3113308238385,1136.698554366006,-339.3638173365382,70.63501343629055,643.2534612126717,58.009715232140195,152.7583780052893
9.555,-0.8689021201299066,-0.835715823026371,-0.995400038879642,0.004637945803865,0.0379271279134387,0.0320111214117176,0.0056468194949461,-0.0029732186216594,0.0058648775627691,-0.9999620639104349,0.1018559953327603,0.0513467539159384,9.855354202688394,-0.0388517282645982,-0.0141469296340203,-0.0095311841397907,3.473585241503221,5.033084964259591,2.0539669725406173,1132.078336882025,1157.3577832735116,1137.8127766260016,1136.7661756108923,-204.28065303919072,72.91862912142048,584.9333226518861,9.70609161254136,152.7571302098062
9.557500000000001,-0.9104596566340192,-0.8772594570852819,-0.9765125792392204,0.0008991332866293,0.0364013908036926,0.0299215363774256,0.0056525721262079,-0.0030178895348485,0.0058062988559427,-0.9999623430535158,0.101021000673515,0.048869911283024,9.857450543380969,-0.0387328642339915,-0.013526532052032,-0.009389785629736,3.4734851865206053,5.033048342030376,2.0539432860636286,1131.7157340228723,1157.5556693856631,1139.2359974370984,1136.747084824069,-94.4355071568987,83.19379089592593,586.4012364945659,-28.38041977247041,152.7559768395139
9.56,-0.8355015969423027,-0.9067215865985246,-0.9134759700884092,-0.0033620047586424,0.0341992404513537,0.0278318330007654,0.0056562474155568,-0.0030566548417859,0.0057601045724635,-0.999962547660861,0.1008952694543499,0.0462293823228042,9.8594817811584,-0.0386070846384764,-0.012910987115095,-0.0092403996996255,3.473384484443656,5.03301513843702,2.0539207669592168,1131.6061593462405,1157.7737522279913,1140.7447828084748,1136.62427351203,-2.1623096825355543,61.46748962393161,515.3665520446456,-66.90065541198659,152.75470689020477
9.5625,-0.6807942413053114,-0.9136203650247576,-0.8428005182868405,-0.005889490669982,0.0321165431709696,0.0261944530711436,0.0056549337437438,-0.0030883110339963,0.0057219530491346,-0.9999627200188598,0.1014924483578219,0.0434958772877036,9.861449640320942,-0.0384698279328283,-0.0123035766946948,-0.0090850050110581,3.4732832940852365,5.032985551622887,2.0538992792427755,1131.7049224744599,1157.8630068337827,1141.812830197321,1136.412581547009,48.90801518978214,-4.487767983801842,394.6596311614815,-115.9975451984568,152.75374706670152
9.565,-0.4622826739602132,-0.8982644471029113,-0.763424342348549,-0.0067839157286951,0.030013452608793,0.0246328712256711,0.0056480654044372,-0.0031146302933592,0.0056869039815343,-0.9999628850071488,0.1027514743832757,0.0407024484059803,9.863361106850377,-0.0383170840616304,-0.0117075007564493,-0.0089258590032424,3.4731814943471444,5.0329591819902575,2.0538789155836814,1131.850699422189,1157.7513133880723,1142.7180809642819,1136.044285786038,37.94401872373189,-115.36322955474148,379.1976555384143,-204.50419861873783,152.75289324953687
9.5675,-0.1659506769875738,-0.8479747892187169,-0.6611775766197446,-0.0067448331892617,0.0274570726660345,0.0230219127693427,0.0056358979802465,-0.0031374124034659,0.005651855127557,-0.9999630541362704,0.1045953130140016,0.0378747847095097,9.865227757989553,-0.0381455397937089,-0.0111258093270903,-0.0087651145134633,3.473079251430363,5.032935626100793,2.0538591401354407,1131.8946425680783,1157.2861906860091,1143.7088184750135,1135.3900605539152,-25.891734719285115,-231.7598801126316,363.30689451300486,-273.6409842536004,152.75199526728736
9.57,0.0893228625090547,-0.7749561313467016,-0.567377968932971,-0.0065259767510309,0.0252879972333001,0.0217869085388607,0.0056189371351301,-0.0031561089460265,0.0056146195481624,-0.9999632417047286,0.1069800698883399,0.0350417729246383,9.867065047359693,-0.0379527868460244,-0.0105611047283695,-0.0086045463701677,3.472977391339147,5.032914540600824,2.0538400099970384,1131.721240748593,1156.5925139875087,1144.5346154368472,1134.6760808647698,-120.85227244408672,-333.77376763857956,346.1840586406431,-308.6298877173863,152.7513549961919
9.5725,0.3388840053994976,-0.6665013341088806,-0.4563656825773279,-0.0062121335854592,0.0231541208656352,0.0204678337207107,0.0055984995350886,-0.003168772906519,0.0055743095557721,-0.9999634562343708,0.1098784822142815,0.032223131443746,9.868891763565433,-0.0377373632888037,-0.0100153685017896,-0.0084455855003311,3.4728772160910912,5.032895996311646,2.0538220817022323,1131.2903812058582,1155.6173218478164,1145.4397387682163,1133.8469111153283,-206.46158568466896,-420.2803936548005,380.45727251286246,-333.8490605629819,152.75082928696548
9.575,0.5741803587843906,-0.5302466647017144,-0.3238340195261396,-0.0054023462883385,0.0211840272370698,0.0191426231821545,0.0055782749840115,-0.0031794481071089,0.0055323381479371,-0.9999636615583531,0.113136339095959,0.029396356239113,9.870730036394045,-0.0374985451451465,-0.0094898400070676,-0.0082898173686425,3.47277897093014,5.032879190829306,2.053805345371438,1130.6889328201692,1154.4911120192346,1146.4369017994115,1133.0068355619546,-256.2893079705245,-456.82844370814706,415.0802392027605,-310.910021088645,152.75039989903124
9.5775,0.7774027185104088,-0.3695903075288078,-0.1603105873577292,-0.0037279277257805,0.0196675441871015,0.0179485353491857,0.0055610549273296,-0.003191928475386,0.0054911611968648,-0.999963825179909,0.1165980232036844,0.0265600523139603,9.872603113651724,-0.0372363176049698,-0.008984870739171,-0.008138316643107,3.472682417713288,5.032862817980789,2.0537892788303704,1130.0089346660054,1153.3331796292755,1147.5151399642305,1132.292361009885,-275.8724963658645,-472.04427872975725,468.2607669253252,-247.6765285478943,152.75008767617635
9.58,0.963260656357476,-0.1698420723894736,0.0680694376932875,-0.0008551119390178,0.0187667600088815,0.0169918972526467,0.0055455995973484,-0.0032084926802208,0.0054510218585159,-0.9999639590318634,0.1201344066055568,0.023793532488146,9.874533438958078,-0.036951268073865,-0.0084997593344031,-0.0079914206649483,3.4725877635680087,5.032846197005339,2.0537736013123173,1129.3095703383403,1152.1308906255863,1148.778205634038,1131.7684529192154,-209.87053566095335,-378.53968449583846,430.4822430276492,-114.59254888739002,152.74984903246525
9.5825,1.0569945562528595,-0.0171019889721654,0.2731986486202447,0.0020617524323516,0.0188580614442131,0.0170209330048702,0.005531134568552,-0.0032300149203301,0.0054095469138833,-0.9999640981046763,0.1236433656329306,0.0211660158239027,9.876542111696097,-0.0366443998953387,-0.0080328216084477,-0.007848803094223,3.4724947762253975,5.03282877679489,2.053757973880906,1128.9595819877009,1151.4404812067967,1149.6675511793683,1131.7193982654483,-73.03946447108268,-185.0910311493573,286.4034474434909,71.99485082454669,152.74976339995888
9.585,1.078945503924212,0.0999843253156932,0.4707886430037822,0.0053226314884767,0.0195193921526356,0.0183295051649227,0.0055203467064171,-0.0032599219218969,0.0053653911376864,-0.9999642524022022,0.1269728429166815,0.0186758242949898,9.878648419516638,-0.0363168478720454,-0.0075818785582161,-0.0077098325471718,3.4724026252314166,5.03281036075872,2.053742005125589,1128.9443730159849,1151.2054354698391,1150.2102228712556,1132.128427173338,70.35711579686713,9.47149339049099,126.67204737684025,273.70040761311697,152.74979453855698
9.5875,1.025511092052216,0.1835889771812523,0.673222574399874,0.0090736360575331,0.0206191291349625,0.0210391475223959,0.0055124943766723,-0.003297772364726,0.0053180127926684,-0.9999644522628284,0.1300487875802105,0.0163855952963609,9.880866594838896,-0.0359699079085714,-0.0071446509185163,-0.0075730667091278,3.472311204154312,5.032791661394068,2.0537255368518874,1129.3113675666852,1151.4878386737491,1150.3009114162523,1133.087900303514,186.5507740998881,185.4662711403676,-70.42259837727707,404.89221599244826,152.74996522212564
9.59,0.926151815295912,0.2022372474292128,0.80331112461102,0.0114771655052587,0.02157685994722,0.0234248526062285,0.0055064472250021,-0.0033425270826959,0.0052672099840877,-0.999964683736566,0.1328126571283074,0.0143605417507098,9.883205503440616,-0.035604985967868,-0.0067189272686907,-0.0074366632213595,3.472220607976941,5.032773896726664,2.053709009266247,1129.877126886484,1152.132766825541,1149.8581098793693,1134.1528882533,259.2374807313324,311.1112293035313,-276.49056963337944,438.7291065199825,152.75021680460395
9.5925,0.7894535575211897,0.1724911996603671,0.8946798949417533,0.0131555324760622,0.0223173408445191,0.0254335601772725,0.0054996263428275,-0.003390687976665,0.005213686631283,-0.9999649404677952,0.1352593996761503,0.0126886843621491,9.885667232546798,-0.0352236297399741,-0.0063027360699,-0.0072983359040762,3.4721309961194966,5.032757713310921,2.053692309658944,1130.6075549703417,1153.0433948202665,1148.918458568086,1135.2815458361135,337.69009721540164,414.3941454206731,-492.63371156077056,459.2616563501188,152.75057917309795
9.595,0.6021151616940673,0.0944560398956016,0.9675243963645594,0.0151479761529441,0.0229536721116734,0.027561347368782,0.0054910230298591,-0.003441943656122,0.0051570594303058,-0.9999652111848216,0.137327973517234,0.0114193594647282,9.888247583248864,-0.0348274732326571,-0.0058941345470194,-0.0071558784336072,3.472042632115748,5.032743406733212,2.053675062060717,1131.5655773725612,1154.2047375526447,1147.394941321565,1136.4491965350508,355.7628805809044,404.4019028046755,-585.637099191444,366.52315335112417,152.7511381602198
9.5975,0.4386078052635527,0.0075166270954124,0.9999837291116656,0.0169117507462785,0.0233710214612175,0.0294358174826789,0.005478730799878,-0.0034942407077188,0.0050971392558599,-0.999965502485592,0.1389992751946492,0.0106121098237053,9.890934564906782,-0.0344182742450717,-0.0054912359958692,-0.007006884920879,3.471955211615721,5.0327310264534075,2.053657400288748,1132.3863693732465,1155.06540433429,1145.9902730721283,1137.1141616028694,331.16355224862895,294.0938027082796,-537.84662758241,184.3184169035706,152.75170404410417
9.6,0.2858624256033133,-0.0822200362705037,0.9982943384724644,0.0180013552016703,0.0234703229347584,0.031821764986427,0.0054630400307073,-0.0035449633347974,0.0050327026918435,-0.9999658223781652,0.1402744466507283,0.0102745839613451,9.893708833717714,-0.0339979030350824,-0.0050919461629521,-0.0068489864264524,3.471868388208756,5.032720411961852,2.0536399388720454,1133.2213951338042,1155.6752065661858,1144.7057081836535,1137.3707886195687,339.3081462742809,192.94057362223325,-458.7065465883562,39.23243935768665,152.75236911976637
9.602500000000001,0.1606422810857365,-0.1563041032723495,0.9614066808899732,0.0179877328645862,0.023044864105998,0.0347464467820173,0.0054466228036154,-0.0035943333323794,0.0049661832301371,-0.9999661402382396,0.141107254192486,0.0103591608096535,9.896544379858797,-0.0335682886313834,-0.0046941605362443,-0.0066801482965915,3.4717818963625118,5.032710662086556,2.0536229072240295,1134.082910104618,1156.0301072024015,1143.696740339186,1137.310323799658,355.047207051065,81.95832369182054,-308.2237781301019,-76.15332571648369,152.753112498734
9.605,0.0885061127282972,-0.1895072937167885,0.8782857122931453,0.016850175838329,0.0221135935692021,0.0380517608170486,0.0054293090059879,-0.0036404323338975,0.0048977588424009,-0.9999664613609855,0.1415042472058633,0.0108653593575875,9.899407492828113,-0.0331316405342714,-0.0042953853032436,-0.0064982956288069,3.471695873380584,5.032701053323345,2.0536060977988,1134.9966311690598,1156.0849981846447,1143.1645892930028,1136.990021990986,415.5521938162482,-34.255495477107154,-111.13052987691329,-155.5335055133892,152.75394495334783
9.607500000000002,0.0687827841993616,-0.1605364756632224,0.7373504296610566,0.0155067777919027,0.0209159593592822,0.0414517893913054,0.0054129758371233,-0.0036833761656873,0.0048256459209983,-0.9999667838975868,0.1414431144054683,0.0117427453825515,9.902258857610937,-0.0326904709870112,-0.0038927676196912,-0.0063016642424571,3.471611276483316,5.032691158010568,2.053589319648448,1136.1606710736987,1155.858829725016,1143.1410876898017,1136.5326562720911,435.0112043382935,-122.8176971356123,85.49652240887436,-145.93216189708247,152.7550393698029
9.61,0.0928695450730616,-0.0708786002456055,0.6088571719107979,0.0153948799253002,0.0200926089511078,0.0430119830703432,0.0053985996297737,-0.0037244770930054,0.0047525196679034,-0.999967085710794,0.1408876750433247,0.0129511020010975,9.90505403492114,-0.0322475735625638,-0.0034837186812184,-0.0060887634040657,3.471528556332899,5.032680552089512,2.0535723678629227,1137.1716871907508,1155.470909698967,1143.592071905047,1136.260361181501,404.2637722691147,-190.1228674255593,252.73258481461795,-55.23657743205195,152.75602535383175
9.6125,0.1275109963525756,0.0873270711870058,0.5037560580331214,0.0164398705760174,0.0196032522530437,0.0431502486341151,0.0053848853095807,-0.0037636260175266,0.0046812608395628,-0.9999673624679668,0.1398408242574263,0.014487468649571,9.90774412626334,-0.0318060268903759,-0.0030658619594694,-0.0058582882989767,3.471447703462938,5.032669375940934,2.053554866258143,1138.1819899350448,1154.908215387888,1144.4047506138747,1136.2564733849308,429.90614316238504,-286.8268960591201,402.72543798981206,76.64212717189622,152.75708162367093
9.615,0.1497464430920023,0.3459483229032296,0.4322261054937004,0.018144867853112,0.0195506589656156,0.0427489126092957,0.0053686749242062,-0.0038017048313014,0.0046125853042171,-0.9999676274668504,0.1382973334494992,0.0163781462363425,9.910277691648648,-0.0313690603535441,-0.0026371106785111,-0.0056094248981907,3.471368968580617,5.032658499063926,2.0535368320067087,1139.321217906563,1154.0367752186712,1145.6056990949965,1136.6435718173605,394.2617061412295,-353.88173194972063,449.53731931450267,204.3598209856052,152.75842313097036
9.6175,0.1423310012104896,0.6036538262949512,0.4197302547488073,0.0193311527807591,0.0200997207257989,0.0430609708786476,0.0053488077764173,-0.0038379622811393,0.0045441665403934,-0.999967904225844,0.1362960949388652,0.0186033342041901,9.912602662530114,-0.0309399396374469,-0.0021957435664519,-0.0053418703027663,3.471292388660012,5.032649134787484,2.0535186650648973,1140.1532984657504,1153.1388067281396,1146.652437210447,1137.2782724898586,296.9103596227787,-397.1449132709784,397.07172377227994,299.7327855105582,152.75959756777567
9.620000000000001,0.1124627267353631,0.878000431878383,0.4400303895993443,0.0199250684343878,0.0214893751822762,0.0444292608157441,0.0053244735397189,-0.0038709745638606,0.0044741253417598,-0.9999682148785694,0.133899395478409,0.0211316669673357,9.914668140420147,-0.0305217660202126,-0.0017406744982856,-0.0050560268980626,3.4712180960096233,5.032641991154284,2.0535007728610615,1140.8057697046772,1152.051050652316,1147.591057713858,1138.1422357449135,236.91601182059392,-523.0874868991215,355.82264425223804,397.3810765264095,152.76082472760703
9.6225,0.0678030046186342,1.1850655101639531,0.4797932913598693,0.0200306477847483,0.0243965506016237,0.0464351265469591,0.0052948317919238,-0.003904736955892,0.0044007534199251,-0.999968557757656,0.1310711893780096,0.0239284829814167,9.916427105844868,-0.0301172496869803,-0.0012713323397285,-0.0047534638146161,3.4711454975172615,5.032636724835712,2.053483118323136,1141.3378785248535,1150.5233692936436,1148.4315504317085,1139.2651778724908,151.35483647898863,-594.699737082765,240.08140563733153,395.6133196022952,152.76235162314075
9.625,0.0369230414786735,1.3892035527921707,0.5158556912215125,0.0197568649377975,0.0280521361620046,0.0479003066433336,0.00526002759624,-0.003937841395206,0.0043220089559342,-0.9999689465121258,0.1278906574564691,0.0269379232317219,9.91783696665824,-0.0297286862257045,-0.0007874933891287,-0.0044363175904673,3.47107414787619,5.03263293970155,2.0534662714633773,1141.562543887072,1149.0775519669028,1148.7914647420444,1140.1203023429243,48.11831029374891,-605.8251943540495,55.19401681764254,289.9438984376624,152.76366459130662
9.6275,0.0244391114364609,1.5047712062552936,0.5504696552729055,0.0192819126517281,0.0328557757265482,0.0490216658343257,0.0052215746385493,-0.0039686893781003,0.0042368259726563,-0.9999693841383024,0.1244470717640478,0.0300764507838276,9.918862182259936,-0.0293578195477736,-0.0002892708749373,-0.0041076238655876,3.471003902634559,5.03263068811221,2.0534520349601606,1141.5784700763224,1147.494243321874,1148.7075205157967,1140.714897364679,-21.174393776115135,-644.757099104062,-112.87180099241648,173.50574325070755,152.76501424859867
9.63,0.0302017416947862,1.5325409546750113,0.5817406557463292,0.0187955408048366,0.0379596778691819,0.0499897319147393,0.0051781030192933,-0.0039970180835486,0.0041493386596836,-0.9999698601281684,0.1208062376529868,0.0333191433284763,9.919475143861703,-0.029005800816816,0.0002226570444485,-0.0037712549930036,3.470934821320673,5.0326297296944364,2.0534410856806535,1141.4566719181914,1145.853766471382,1148.2271057370824,1140.9878310591782,-69.39155142889656,-648.8222143034259,-281.13982597156036,17.849825947766416,152.76639055152222
9.6325,0.0533229527432154,1.4581612796192365,0.6025079664290718,0.0185662909088384,0.0423985996192214,0.0510549254424685,0.0051319577958081,-0.004024606604829,0.0040630709305678,-0.999970338346192,0.1169968633464012,0.0365687388770701,9.919658488006,-0.0286731819224217,0.0007474688599223,-0.0034316392082076,3.4708665955568967,5.032629573933672,2.053433831229329,1141.231512319178,1144.2501322503565,1147.3018213859386,1140.8041464944179,-105.1514076806352,-660.1527905882398,-481.6423624725352,-185.02633257157,152.7677949067327
9.635,0.0868949638418903,1.2778200746343775,0.5999520099167152,0.0188555174882083,0.04648628939438,0.0527950617833465,0.0050838327486172,-0.0040545900996235,0.0039788052674714,-0.9999707975520568,0.1130226006054503,0.0397629414769666,9.919404575852791,-0.028359901760412,0.0012842401235036,-0.003093314309258,3.4707994853109887,5.032630534358369,2.053429313897291,1140.9309148797884,1142.5530025184414,1145.8188939247202,1140.0626993963203,-104.71931676486928,-552.3841613031482,-572.6897551081962,-344.100672382311,152.76950796268403
9.6375,0.1075916424063533,1.0783321575146003,0.5613760920308695,0.0194398575892838,0.0490329721553284,0.0547495524664499,0.0050331292253482,-0.004088629039683,0.003898075273675,-0.9999712270747204,0.1089154989586967,0.0428692736915788,9.91871530500647,-0.0280652826812851,0.0018316952061724,-0.0027604221750732,3.470733447442228,5.032632767549429,2.0534263066233556,1140.7079157353535,1141.4882114438403,1144.4383726103972,1139.083643132506,-79.02347087141281,-314.7160779556961,-535.7698908211277,-436.80233831776144,152.77095582012575
9.64,0.1099375525278337,0.8581868275352754,0.4736725437512231,0.0201526263207314,0.0508701463595366,0.0570030427106293,0.0049832561915003,-0.0041305235301574,0.0038216029264413,-0.9999715907418008,0.1046635638119974,0.0457802954725588,9.917603184514832,-0.0277879785111544,0.0023882955828702,-0.0024366881291077,3.4706673602767446,5.032636089170992,2.053424168838454,1140.5357975254312,1140.9794221286627,1143.140044470614,1137.8786877047314,-73.11074386590553,-60.13141888889837,-504.1812726602168,-540.1734749249209,152.7724218818514
9.6425,0.0875173516741445,0.5976768095834736,0.315219321970058,0.0209710290626897,0.0524843330099154,0.0592467930622816,0.0049385942880245,-0.0041826791943873,0.0037479670290908,-0.9999718628030704,0.1002796150532039,0.0483747414128213,9.916089633109117,-0.0275260329596687,0.002952259241884,-0.0021251500512046,3.470600337230826,5.032640965321212,2.053422350072433,1140.342362016024,1141.187554349396,1141.9174662470966,1136.382775757882,-84.1035431215172,225.3948356925769,-370.04364417783194,-527.1471856830116,152.77419956070452
9.645,0.0511922541569113,0.3978249617012156,0.1551916770096785,0.0214652725595797,0.0534026160145705,0.0600019965829189,0.0049043639847054,-0.0042463908674278,0.0036776425112589,-0.9999720119322744,0.0957931659208876,0.0505213842583161,9.914203889832644,-0.0272770766815835,0.0035213337723757,-0.0018281936862593,3.470531318294094,5.03264815702377,2.0534212209720044,1140.1152798098235,1142.1063963071251,1141.2898262497251,1135.2429517763169,-128.05369308832996,517.4911211294428,-163.47851866241572,-406.224416672858,152.77569482596004
9.6475,0.0069722625087541,0.2270237629659177,-0.0052572993285461,0.0215290193335961,0.0536769803842701,0.0591616729007751,0.0048810553924342,-0.0043172599349759,0.0036123876344147,-0.9999720482878452,0.0913401071781748,0.0521899989964898,9.911980125259856,-0.0270386648052934,0.0040928923801159,-0.0015473847780249,3.470460390814586,5.0326577166252,2.053420773449633,1139.7020935505823,1143.7750099550435,1141.1000736537844,1134.3516536745171,-250.01564021996003,877.1004675857506,1.6504288029406928,-317.13752675841124,152.77720323939815
9.65,-0.0397840756668395,0.0606321720576329,-0.1738815582452232,0.0211672100171214,0.0532214059094197,0.0571830374205246,0.0048649634276121,-0.0043899957359428,0.0035504524707224,-0.9999720200086648,0.0870684594338451,0.0534396710557437,9.909456344854936,-0.0268085759031217,0.0046643470736073,-0.0012837730480271,3.4703896823895763,5.032669907206862,2.0534210513596385,1138.8652016087235,1146.4918986450548,1141.29807839374,1133.6572641425244,-375.13593593028605,1078.5624811731268,122.05146450189812,-188.46405566531868,152.7790275160314
9.6525,-0.0641293880108975,-0.0505690389278633,-0.2939498825180121,0.0207351325101084,0.0526548872040306,0.0557423635774269,0.00485211755936,-0.0044595483913755,0.0034899641728379,-0.9999719787259568,0.0831147908478947,0.0543410301039312,9.90667363015123,-0.0265850296106231,0.0052331499251721,-0.0010379322518405,3.4703210927144847,5.032685065630608,2.053422287101093,1137.8264138709312,1149.167822360908,1141.7103309762936,1133.4093333961907,-486.90819399576554,1098.6219537697618,188.82384537286393,-33.21877454719221,152.78055893356563
9.655,-0.066960136422944,-0.1497995890108702,-0.4117761535669435,0.0203427608820869,0.0523298373573201,0.0550767866592895,0.0048391548762927,-0.0045234640303952,0.0034310938057802,-0.999971955974114,0.0795568102677631,0.0549584680278332,9.903674644808717,-0.026366645822307,0.005796894111059,-0.0008100380997442,3.4702548520540115,5.032703322740201,2.053424881413856,1136.4306606387452,1151.9850084139025,1142.2421976206042,1133.4911702697887,-606.5393905985236,1102.3490074321767,216.78751244286357,83.41072231276999,152.78210130216405
9.6575,-0.0506750225525351,-0.2559615302571177,-0.5471983280287934,0.020036009622247,0.0522618961379935,0.0549191698468922,0.004823139328147,-0.0045879073507208,0.0033769594620929,-0.999971928555486,0.0762939392004039,0.0553525385311955,9.90050189603752,-0.026152253874088,0.0063535079228641,-0.0006000945485003,3.470189515169779,5.032723798428205,2.053428382541404,1134.793716917938,1154.6795673980698,1142.7942685385083,1133.8263870077549,-687.0344575774942,993.8301671621768,215.6963575715626,190.2969846910012,152.78365232175818
9.66,-0.0128254839590095,-0.3883613453719237,-0.7186190124582938,0.0198523029145138,0.05228189121111,0.0550143676488391,0.0047995013781862,-0.0046533002268506,0.0033277788417564,-0.9999719136679692,0.0733338358897261,0.0556199988972958,9.897195109669278,-0.0259407017148867,0.0069017442502132,-0.00040712375991,3.4701246422161214,5.032745852563962,2.0534315688654687,1132.9954883508572,1156.954159249714,1143.320679408462,1134.4426551932438,-784.75873400491,851.911641156254,222.677637124342,329.2762032732044,152.7852133229469
9.6625,0.0530346532918476,-0.5884496934443201,-0.9589480410475228,0.0197931633960949,0.0518785063588061,0.0546888423147851,0.0047676894078282,-0.004718869588139,0.0032796808448015,-0.99997192803092,0.0707032455277701,0.0557803688562406,9.893791356566211,-0.0257307630501017,0.0074413163761979,-0.0002293748108764,3.47006061980226,5.032768248135974,2.0534335040091767,1130.8699232479144,1158.9391256038502,1143.9076567241295,1135.4727680241203,-740.1528790973523,585.8525127345722,209.9274356713649,419.50191120143046,152.7870975632143
9.665000000000001,0.1202547032481471,-0.7860574558720735,-1.1593239847993213,0.0199074262203414,0.0509631378459249,0.0530553862100992,0.0047299684636165,-0.0047825678121584,0.0032329964935882,-0.9999719679084416,0.0684469895434162,0.0557995249250471,9.890323605242804,-0.0255212224612558,0.0079723985494184,-6.450944461842396e-05,3.469997236080255,5.03279042831439,2.0534336983065007,1129.29472395537,1159.8834218133875,1144.3703165868192,1136.5401647492513,-553.3208395954761,233.9225450453885,184.05809122775133,458.869926947974,152.78867665000962
9.6675,0.1932300110561531,-0.99887023375899,-1.3039160926469648,0.0202506817876807,0.0493364679892245,0.0490721221413524,0.0046902705715006,-0.0048422166870196,0.0031894012250017,-0.99997201972669,0.066606534977306,0.0556109659938162,9.886819616859162,-0.025310822986214,0.0084955954055902,9.005124456128975e-05,3.4699339921956254,5.032812411760608,2.053432878782714,1128.1033190499363,1160.1087383290771,1144.8279471802687,1137.7671176588608,-404.48063520824553,-39.53412708666169,206.0131433202924,556.9346643314219,152.7902646437762
9.670000000000002,0.2780647497366625,-1.2394592802409674,-1.350098587491374,0.0210031657325525,0.0463542842239945,0.0424420501333643,0.0046512761511751,-0.0048996689622905,0.003150822406396,-0.99997205629846,0.0651383535780443,0.0551722229126817,9.88330075844428,-0.0250982756802989,0.0090117796551989,0.0002366082027176,3.4698705154100753,5.032834796698888,2.053431778523042,1127.2723207793292,1159.6857511779542,1145.4003823034204,1139.3248380709078,-191.27803785149064,-243.48455007657617,218.71237190734777,565.7597119308991,152.79218022723396
9.6725,0.3398441870307792,-1.3990514697416128,-1.26052554210114,0.0219324380682991,0.042957608290779,0.0368901193300805,0.0046115599585319,-0.0049518305556454,0.003116411833445,-0.9999721020501878,0.0640927868792133,0.0545207576242041,9.879781190902431,-0.0248822801190615,0.0095220662094496,0.0003774051445084,3.469807118833291,5.032858069881399,2.053430325589027,1127.1469288606793,1158.8913155786947,1145.9215090398052,1140.5959162185147,72.09155667036394,-378.11371738488106,224.88699881902116,473.2646221316542,152.7937846837181
9.675,0.3866889278205832,-1.482902625494777,-1.0519193127984696,0.0230794438689817,0.0387627164171208,0.0327637067808577,0.0045678292812518,-0.0049933964330803,0.003082312036257,-0.9999722111367094,0.0635606101702624,0.053728918874639,9.876268714299645,-0.0246615834416688,0.010027715564662,0.0005143856228876,3.4697443793371447,5.0328823390660204,2.0534281658207183,1127.632778562681,1157.7951825910295,1146.5248172975157,1141.6911611815665,344.2855316579797,-522.0437418873281,292.7710385804855,401.524520621143,152.79539739478147
9.6775,0.4240549890342573,-1.4681361095134726,-0.7199621024455563,0.0245030450542828,0.0332059148320586,0.0301352409767012,0.0045172892032399,-0.0050238722394564,0.0030471151286247,-0.999972403813982,0.0635333109772711,0.0528570013280238,9.872765847935199,-0.0244351170072391,0.0105298125873972,0.000648755013216,3.4696822857747938,5.032908291749904,2.0534258628618014,1128.8683565189694,1156.2810968692577,1147.3853642327078,1142.6035388216208,542.8122076664465,-568.9624471103566,341.47010556955564,238.8040076702075,152.79734200295567
9.68,0.4418129961011709,-1.3524025335921408,-0.4263703088171184,0.0255267378388854,0.0286627365626483,0.0298443257466933,0.0044631156866883,-0.0050491107010675,0.003008059988661,-0.9999726439451394,0.0638751767924793,0.0518447758592336,9.869271852126674,-0.0242019275919197,0.0110294605446046,0.0007809379938165,3.469620757221094,5.032936178686249,2.0534241547005374,1130.3468396010128,1154.9503703554783,1148.2321678253631,1142.8851812199173,649.7954043801095,-522.1364658538371,362.72494355229134,-13.393617343169987,152.7989701845023
9.682500000000001,0.4502391354936776,-1.139569291992063,-0.1671770832435651,0.0263016799381022,0.0248442058494675,0.0308511217961265,0.004411832651807,-0.0050747244626348,0.0029629398809775,-0.9999728799867602,0.0644534189812147,0.0505642731903544,9.865783057755968,-0.0239612080168808,0.0115277530883011,0.0009108678498999,3.4695596864061584,5.032965433527205,2.05342404762814,1132.1173335408705,1153.670414539988,1149.1989889504696,1142.536570734905,723.9731711234758,-483.24886386096017,398.12753566373567,-252.76318632819,152.80060619989587
9.685,0.4526594943474382,-0.866776199563966,0.0417372493798757,0.0271044713106443,0.0219960263750093,0.0321663137483619,0.0043656887072181,-0.0051033647898063,0.0029103201604241,-0.9999730921859616,0.0651920834814229,0.0489709194524789,9.862292127959117,-0.0237123198035084,0.0120258171975959,0.0010380624527909,3.4694984115204828,5.032994545315246,2.053425760177016,1133.9667054566307,1152.5341260361731,1150.222805503682,1141.621365288276,715.9737644184194,-396.4087266681296,405.1001049940065,-495.2130773102984,152.80224861675845
9.6875,0.4457598318237746,-0.5562338628151285,0.1875172973817881,0.0280573951902235,0.0204365108390379,0.0331191363994207,0.0043236629259208,-0.0051321189080316,0.0028506708246594,-0.999973297377529,0.066123765620511,0.0470845344531101,9.858789278809454,-0.0234548865948736,0.0125246643806184,0.001161935569142,3.469437270927715,5.033022974653401,2.053428442610118,1135.697202362962,1151.6883709066478,1151.2244894754392,1140.060505348354,681.4444836310023,-284.113113971409,404.9009087517685,-804.3086681205986,152.80389863030376
9.69,0.4203781814629544,-0.1868939616296051,0.3060482974303055,0.0292398597908263,0.0198954566491413,0.0336791934197341,0.0042827388369628,-0.0051588265258009,0.0027856678915625,-0.9999735144511565,0.0672660136010748,0.044964641120959,9.85526347494792,-0.0231888808289364,0.0130249913031818,0.0012816610117198,3.4693769343128884,5.033050849368718,2.0534312808574215,1137.373927874785,1151.1135604663164,1152.2473100474404,1137.599821947674,516.362040876412,-132.7561681862582,321.4834091239434,-966.253705316907,152.80588711798444
9.6925,0.3791376710449868,0.0876870543403292,0.373630236751855,0.030272718676469,0.0203756765118128,0.0338007530778484,0.0042396687718498,-0.0051838390013758,0.0027215547491324,-0.9999737376335224,0.0685865580042986,0.0426771119388016,9.85170363190452,-0.0229147525724769,0.0135267443939722,0.0013961795812975,3.469317856534917,5.033078297123531,2.053434209633796,1138.2790125673444,1151.0245900657164,1152.8319065210592,1135.2292368217686,234.20446221904035,38.32963020358276,154.50177328200283,-969.5830364885146,152.8075507328181
9.695,0.3103390635851879,0.3004512613305101,0.4207229587287327,0.0314793640437405,0.0216065993074053,0.0339161338731658,0.0041930591193766,-0.0052093060695605,0.00266303248113,-0.9999739490859588,0.0700200871864273,0.0402538806496511,9.848099730170999,-0.0226332327876951,0.0140291423753231,0.0015042935177701,3.4692600915838283,5.033106223153186,2.053438185809044,1138.5449501858805,1151.3052086173343,1153.0198189138507,1132.7519067652306,-42.19509076879988,189.35405764331463,-25.08840400637881,-1063.7493298486631,152.8092200813254
9.6975,0.1931821266737953,0.4670265746853212,0.4513611107773303,0.0330818552401302,0.0236132958624445,0.0346307188922229,0.0041429780459702,-0.0052361484863148,0.0026108527215643,-0.999974143088328,0.0715290412572461,0.0377019962282183,9.844443184472446,-0.0223451651599422,0.0145306060780181,0.0016048587360293,3.4692033309486536,5.033136118799248,2.0534437158638568,1138.0680371135004,1151.9713603539328,1152.7064645010273,1129.9104901725264,-304.0536200951444,281.12187794804566,-206.6534794974036,-985.8404047388199,152.81122813513855
9.7,0.0726741921310001,0.5297374338859248,0.4445905996388462,0.0341023746678091,0.0253743987709897,0.0359627606323825,0.0040899692713968,-0.0052617491314404,0.0025620905297393,-0.9999743404499016,0.0731491125587996,0.0350244621450115,9.840726906435037,-0.0220514122041913,0.0150287335899502,0.001697005475664,3.469148000532311,5.03316896217112,2.0534502749731387,1137.0246820854045,1152.7108180070747,1151.9865515163635,1127.8227047415355,-535.2650531449017,311.6282341253704,-372.82347129984,-740.6229981226467,152.81290385323044
9.7025,-0.0526188817442561,0.5219177548951885,0.3898541697655411,0.0341478475111649,0.0269766794583902,0.0377587922079824,0.0040352605753853,-0.0052874104919484,0.0025152138077945,-0.999974535190946,0.0748410940805573,0.032217374619724,9.836945619160783,-0.0217529386419539,0.0155202440583746,0.0017799662756657,3.469094128979044,5.033205185129898,2.0534574467942033,1135.3917118477755,1153.52950152456,1150.8423471445278,1126.2073751819123,-822.74400981717,355.2869715286104,-574.0366571434384,-565.984033861854,152.81457952410688
9.705,-0.1790670632184344,0.4504091092229294,0.2629354785309295,0.0331184712307912,0.0285309116937262,0.0394964331688317,0.0039781725527438,-0.0053172294577455,0.0024697739448701,-0.9999747121702204,0.0765131383673204,0.0293216429370292,9.83309549313542,-0.0214507102737835,0.0160013035550894,0.0018531487169742,3.4690413526829142,5.033245623636184,2.0534643009622484,1132.9109620363195,1154.4872528647174,1149.116368230647,1124.992784572227,-964.6079721501893,335.10080485718686,-663.8941048339304,-305.56905149743835,152.81658681195833
9.7075,-0.2469049467568218,0.3565109881659678,0.1121789834481651,0.0317778201228968,0.0293678765382619,0.0402400860753429,0.0039239851627203,-0.0053559796045069,0.0024269129482968,-0.999974822432224,0.0780625847297749,0.0262686614178347,9.829175622504648,-0.0211456337448882,0.0164678723569544,0.0019164850146663,3.4689894782480963,5.033290179446439,2.0534707481432846,1130.5686719870255,1155.2050055488455,1147.5228766203588,1124.6795299244257,-947.2684702929539,265.16831951326316,-632.8360233445358,29.815474880292527,152.81825369796263
9.71,-0.2667060137758064,0.2476357805766629,-0.0702011406502334,0.030432146854458,0.0297142198167238,0.0404525762568646,0.003875551523879,-0.0053999693210554,0.002388506791201,-0.9999748669988088,0.0795551362655152,0.0230453237855483,9.825186165521863,-0.0208384490098496,0.0169162242149407,0.0019704877771566,3.468939168777635,5.033338383974254,2.0534766304285355,1128.174619684854,1155.813094462284,1145.9521881139235,1125.1418619466283,-927.4133607785556,227.57430256866508,-598.5155191817257,308.30659234688665,152.8199105427881
9.7125,-0.2497644845655385,0.1387272493634984,-0.2645906538697601,0.0292981213286042,0.0297201024503109,0.0404261627559862,0.0038315404846873,-0.0054437236124791,0.0023567569649976,-0.99997487315242,0.081092848340881,0.0197271567375432,9.821128276298674,-0.0205296588226652,0.0173433890196296,0.0020157802092556,3.468890834188424,5.033389051556344,2.0534817740548656,1125.931605183132,1156.342877061689,1144.5302990244495,1126.2210628861603,-814.3920220099318,199.84217521918592,-507.3175255021497,556.7780146633793,152.82155573739655
9.715,-0.2016409955634215,0.0384166785477096,-0.4522182862091729,0.0286196789956848,0.0294374470162818,0.0398701692907184,0.0037912036027451,-0.005484686633733,0.0023326229840276,-0.9999748553333204,0.0827217270027065,0.0163827379507184,9.817005280895431,-0.0202193550897125,0.0177474995578144,0.0020529368443776,3.4688437311233518,5.033441342445324,2.0534862148858304,1124.102659574805,1156.8123053383797,1143.4156004864135,1127.9257520199449,-657.1518081278043,199.6214589004864,-395.84931172370176,844.3651869654647,152.82318241642128
9.7175,-0.130623790099084,-0.0701655548959083,-0.6358614672629803,0.028500193359741,0.0289758438424822,0.0378667062322399,0.0037548483669926,-0.0055237029794847,0.002313846225152,-0.9999748150434544,0.0844221599032782,0.0130623633842794,9.812823034825396,-0.0199070294466085,0.0181280251796915,0.0020823646324364,3.4687971401836966,5.033494563649209,2.0534895931051755,1122.6458461424936,1157.3409843561913,1142.5510524658316,1130.4428888209868,-384.3272637187365,189.03890471275872,-227.5327165882217,955.0444087214928,152.82510667816615
9.72,-0.0758557581254692,-0.1553421426111206,-0.7301312037011801,0.0288042846037959,0.0286847983017688,0.0352098428677059,0.0037245946765509,-0.0055653118590543,0.0022983179496307,-0.99997472840367,0.0861018266863821,0.0097817334626083,9.808590398181762,-0.0195916769877169,0.0184856703649391,0.0021041882270964,3.4687499479460535,5.033547926817253,2.053492422615137,1122.1810232562111,1157.7574998619436,1142.2779369034722,1132.700974063553,-17.738502654353354,156.81550116807836,-11.524742778599848,877.6731747657313,152.8266820513021
9.7225,-0.0368665092468775,-0.2435811398236832,-0.7463171338805186,0.0292064710714301,0.0284953557888118,0.0324120330207399,0.0037052108146097,-0.0056139379299221,0.0022842522014471,-0.9999745607642634,0.0876700136878702,0.0065038498713253,9.804319588238124,-0.0192719145165984,0.0188222952724839,0.0021183181541422,3.4687016185076307,5.033600366694124,2.053495155584052,1122.5571536292218,1158.1250618620315,1142.4934287519386,1134.831254694816,345.11667510862526,139.09130567533833,201.78630748718584,846.3244043571059,152.8282216446116
9.725,-0.0098609764201632,-0.3602499565981037,-0.6771886583134568,0.0295983688719503,0.0279883325245116,0.0295942886043864,0.0036926824690423,-0.0056676586105494,0.0022684487095138,-0.9999743433909182,0.0891592664751919,0.0033613122072896,9.800024717674066,-0.0189461333558074,0.0191408339929331,0.0021241878110544,3.468651938838218,5.033651243505603,2.0534978062701135,1123.906606631754,1158.45295639032,1143.286868440908,1136.9325960853375,613.7552522859955,92.0865777434157,366.63246782940126,660.6810764781007,152.83001956740995
9.727500000000001,0.0014668535610632,-0.4676162164692076,-0.5587487949673173,0.0297889847009306,0.0271276905701742,0.0278159030015961,0.0036834892897167,-0.005722201577749,0.0022485549794663,-0.9999741170530486,0.0906465568026734,0.0004727536859002,9.795723741154289,-0.0186129047467166,0.0194448468825497,0.0021208897546854,3.4686014779301515,5.033700102729453,2.0535005343745647,1125.6259298906523,1158.5854947507487,1144.326591091086,1138.1346600772072,754.1642827844684,15.817370018428193,467.0116167447029,343.9477544084556,152.83147009462775
9.73,0.0123767802073933,-0.5834831564718294,-0.4003280408474938,0.0298258524275754,0.0257830019647434,0.0265294212312078,0.0036715265004428,-0.0057709317115753,0.0022231065061852,-0.999973943934848,0.0922533713149173,-0.0019980666455579,9.791438308440105,-0.0182712554040957,0.0197381438700158,0.0021070515455877,3.468551673815773,5.03374738907758,2.053504098040644,1127.6774280456768,1158.5320432404123,1145.6219265246318,1138.6523348573803,896.0151477680901,-67.89401081020047,583.2570452493907,67.254483680849,152.83286316423664
9.732500000000002,0.0402903947412363,-0.7296735425033903,-0.1955731856978478,0.0297193363148661,0.0237335745144668,0.0256911971133952,0.0036535909675783,-0.0058120395935178,0.002190009464112,-0.999973849502888,0.0940056632365697,-0.0039511224730873,9.78719491446525,-0.0179207771281268,0.0200244303248935,0.0020808534739912,3.4685033259711684,5.033793644207372,2.053508651653147,1130.1060056294918,1158.246024696698,1147.2428763173323,1138.4709324956111,821.2659366137628,-136.7029662321601,564.9072958668727,-186.61846082749508,152.83445946852405
9.735,0.0861657444575839,-0.8571524631617081,-0.0368066282224444,0.0295467004100397,0.0218695949714615,0.0258327661891783,0.0036290167991962,-0.0058461470437223,0.0021483985766633,-0.9999738349901078,0.0958808358340743,-0.0053428118990722,9.783024538864867,-0.0175616701403577,0.0203069340680172,0.0020402622283061,3.4684570536010235,5.03384023548612,2.053514407031584,1131.7837577287448,1157.8485284092517,1148.4464630039656,1137.719242553243,533.5317109123555,-179.4710249318715,400.52047463839807,-393.98474384336834,152.8357206284538
9.7375,0.1638361823420466,-0.9913379943894493,0.0847047977881789,0.0293748445124523,0.0199232206741658,0.0267381605731997,0.0035990693006094,-0.0058729461351359,0.0020969786159334,-0.9999739019932647,0.0978741827872117,-0.0061741180800693,9.778961899048381,-0.0171945390281583,0.0205883019739153,0.0019833276706946,3.468412724333709,5.033887615312117,2.053522056277052,1132.773664184054,1157.3486695720385,1149.2454786905244,1136.5010087763942,250.18875151491284,-204.6499031202664,220.04437017263825,-533.7177756790045,152.83690288009055
9.74,0.2692545508278285,-1.1301695504937552,0.1643766291879159,0.0293134563229364,0.0177875913406774,0.0278526785318671,0.0035658912639314,-0.0058932298260222,0.0020423735013736,-0.999974022904088,0.0999578213230141,-0.0064681996586434,9.775044661920418,-0.0168205890340607,0.020870280098544,0.0019083325322143,3.468370022652448,5.033935562119703,2.053531977296254,1133.0347014863196,1156.82527889365,1149.5466848548288,1135.0506536748476,-79.2248666528097,-200.94030256017865,-23.71357156394441,-595.3254356604068,152.83801454493275
9.7425,0.4019426155274556,-1.2686944096255812,0.1927732994763962,0.0295920869284071,0.0152564661878747,0.0288236765855434,0.0035255704058269,-0.0059051301318536,0.0019908446461226,-0.9999742066963212,0.1021556343595298,-0.0061356452941696,9.771311324157878,-0.01644114994919,0.0211540354251402,0.001813964150455,3.4683288420986247,5.0339842675644215,2.053543439745705,1132.37753985079,1156.3439680592376,1149.1269108327049,1133.5243815980928,-470.8457841399368,-190.72050960068484,-355.8759097169412,-638.0284061931345,152.83903512087608
9.745000000000001,0.5741433795445366,-1.420132062554504,0.1793786890693048,0.0306816673639871,0.0114472033667664,0.0296295055380893,0.0034738725443007,-0.0059037520650099,0.0019454080351453,-0.9999744888875226,0.1045510080324084,-0.0050867068377826,9.767800369821595,-0.0160574440972112,0.0214402247084581,0.0016998510167797,3.4682899238715406,5.034034300544037,2.0535548464286855,1130.6804725656195,1155.8716763456466,1147.767305306244,1131.8605116438814,-727.8676103818495,-155.28484704875456,-623.9118429823454,-549.2460151767369,152.84014711930988
9.7475,0.7093961080448943,-1.5208441083486013,0.1425947250475971,0.0324906738807205,0.0075423666673172,0.0299928318132235,0.0034104689925645,-0.0058856145178949,0.0019099733940303,-0.9999748822482746,0.107199198777762,-0.0033127503580948,9.7645494376797,-0.015670631245735,0.0217288955089952,0.0015667433610357,3.468253101652049,5.0340862131024995,2.053564913344992,1128.7382017988803,1155.567543823994,1146.0073516177927,1130.7781515222086,-817.9026095660256,-113.73578748155056,-791.2842144398138,-340.65490584919144,152.84097472160988
9.75,0.8137811410299911,-1.5825663446696827,0.0973849042774664,0.0352331743594233,0.0033910522806684,0.0300865514256372,0.0033388687099273,-0.0058512986366752,0.0018852706081427,-0.9999753688741424,0.1100760986662873,-0.0008852779417211,9.76159399115643,-0.015281470630855,0.0220197564377218,0.0014164049031599,3.468217324877613,5.034140234914051,2.053573355447401,1126.5909595177902,1155.3029974082388,1143.8108842340455,1130.1572371146356,-914.6644322722752,-131.39313711533643,-995.9723762891987,-152.11986334341717,152.84169382605057
9.7525,0.890306553955603,-1.605929735552183,0.0521620358158162,0.0389858619054642,-0.001433445737133,0.0299565827781868,0.0032633639266661,-0.0058053442459785,0.0018687232003346,-0.9999759120915797,0.1130799288348382,0.002103910468198,9.758965603786216,-0.0148902028076364,0.0223123819901191,0.001251345660024,3.468182421206619,5.034196637101032,2.0535799941898376,1124.1648796375196,1154.9105781384171,1141.0274897363477,1130.0175522054917,-819.9192017399209,-176.9862058216582,-985.9420579550537,44.361226065432106,152.8424261397374
9.755,0.9181210933564212,-1.583650460290762,0.0323408359071633,0.0418780243778707,-0.0053017305537647,0.0296905125713385,0.0031868522361993,-0.0057504501817722,0.0018570637013382,-0.9999764931210352,0.1161435514069055,0.0055858581828828,9.756689940757477,-0.0144966273428338,0.0226063641085879,0.0010747092652172,3.468148138078732,5.03425509341603,2.053585074547923,1122.49136350909,1154.4180663791303,1138.8811739442697,1130.3790432449628,-564.118501128226,-250.38500525157085,-755.8532603735966,218.1466329192176,152.84292503067715
9.7575,0.9294656133180844,-1.5209334897950604,0.0378871957410492,0.043895152801929,-0.00895213097313,0.0293206729201457,0.003108523977436,-0.0056868773495129,0.0018429583984257,-0.999977126515677,0.1192462941899319,0.0095584624009147,9.7547852837144,-0.0140999765030049,0.0229016339379716,0.0008899737091133,3.468114557471228,5.034315213958177,2.053588080725257,1121.3442871318782,1153.6586531121593,1137.248223434479,1131.108285370088,-368.5455428453503,-398.79040675613146,-544.8737960793726,355.1068712864232,152.84330681644215
9.76,0.953929272970618,-1.4024671641694113,0.0730776403937988,0.0454372847686135,-0.0129381708324192,0.0288827662541091,0.0030267138729833,-0.0056201287239286,0.0018205789248893,-0.99997779581479,0.1222628468536827,0.0140310913890583,9.75326299220856,-0.0136992198128642,0.0231984638538705,0.0007006272048333,3.468081688374914,5.034376904776597,2.0535883955019782,1120.6486357948636,1152.4241143453503,1136.1568049638731,1132.1545776013947,-142.4602538066897,-490.9005983142976,-239.5548212086931,366.0163721927229,152.84362973206564
9.7625,0.9970647180555122,-1.2688491863049631,0.1189351431443949,0.0464850543678139,-0.0159654256350836,0.0286939961677035,0.0029413011084281,-0.0055538975045779,0.0017873119698352,-0.9999784847805931,0.1251003720120877,0.0189777395678965,9.7521269275349,-0.0132931760402439,0.0234975640723648,0.0005101924903532,3.4680494053819344,5.034439881790463,2.053585907770301,1120.6319858628447,1151.2041501205874,1136.0504493284354,1132.9383672310519,101.12562537677388,-489.85496775136727,110.54764608314235,238.30988175369296,152.84378751199768
9.765,1.0614818760420968,-1.0975616481098565,0.1658106403674661,0.0479642181858734,-0.0190150692274212,0.0290323092631886,0.0028564437893239,-0.0054917315207528,0.0017418428328007,-0.9999791636642036,0.1276664168062675,0.02428247064387,9.75137433610931,-0.0128804874429173,0.0238002498045568,0.0003219827006426,3.4680176790224166,5.034503601663644,2.0535818765747478,1121.1542639217475,1149.974839506593,1136.7095431942892,1133.3461270101632,287.68395873677304,-457.7015309492709,358.57077755647737,64.75686950926881,152.8438328766283
9.7675,1.1274848798686252,-0.8941447938683273,0.1985721311050822,0.0503700989353677,-0.0219233380076833,0.030088254200001,0.0027749593408773,-0.0054376511517455,0.0016885914268633,-0.9999797939641756,0.1298557674655738,0.0298492494597492,9.750995680073789,-0.0124599094998874,0.0241083851578092,0.0001385762967693,3.467985815613467,5.034567423378386,2.0535773462935287,1122.0704056565282,1148.9156424658415,1137.8433032162175,1133.262151578598,444.8977683430233,-343.8872344624772,512.2405836766684,-177.49631525138176,152.8437884639753
9.77,1.1672652424990364,-0.656520601588299,0.2010766360282767,0.0538319134214953,-0.0241855143496703,0.0317648856733591,0.002696955312788,-0.0053951524302503,0.0016337345441936,-0.9999803457954526,0.1315710565541542,0.0356270710591475,9.75097503086136,-0.0120302634020831,0.0244244492828056,-3.832008993678352e-05,3.467953508739144,5.034630854759628,2.0535730033119206,1123.3787527634622,1148.255403334281,1139.270746112672,1132.4586454339067,640.3118781340618,-169.43211432932992,619.1731132782421,-521.0566358298006,152.8436410346542
9.7725,1.1546820697624822,-0.3468676232742332,0.1703476005071615,0.0583584195503624,-0.0259134945293558,0.0332599792267359,0.0026233327874085,-0.0053689101805229,0.0015780139309597,-0.999980789533572,0.1326922257934322,0.0415393480496925,9.751291889855786,-0.0115902880360473,0.0247515673432073,-0.000207703979226,3.4679206913355727,5.03469348455996,2.053569540488512,1125.271965047199,1148.0684818941947,1140.9391687826092,1130.6568683994487,725.8719752125901,30.931639676777817,555.7880489591794,-777.4119818857037,152.8433521246363
9.775,1.0841615506517643,-0.0841216103737209,0.1316320064253289,0.0619134781090152,-0.0264967908595541,0.0335876158819542,0.002555133838197,-0.005360230721649,0.0015206138887374,-0.999981116028924,0.1331655270271416,0.0474974827773121,9.75192156472626,-0.0111390566477809,0.0250931860763659,-0.0003690608101381,3.4678874605031904,5.03475496755398,2.0535668938427687,1127.0081126395255,1148.4100615326647,1142.0496863574683,1128.5715855244775,698.2229505270905,208.49925415977447,346.76957882977683,-904.7791681397464,152.84302308259143
9.7775,0.9554760748189904,0.1624916914956394,0.1036651089050414,0.0649749483285706,-0.0259857908354487,0.0334406816743331,0.0024925826611951,-0.0053688944331071,0.0014599861122056,-0.9999813285010664,0.1329688292752972,0.0534199528948755,9.752836263138063,-0.0106762590845316,0.025452776115617,-0.0005222814575789,3.467853889022902,5.0348155309680145,2.053564836616605,1128.7630797998338,1149.1109781649934,1142.6730166767577,1126.132972558751,742.5429744993947,323.46955136569767,142.57614018063683,-1079.4256568305955,152.84260822299936
9.78,0.7546192292718132,0.4192231064333677,0.1061863339268493,0.0676448465820043,-0.0242273316931107,0.0332293284436086,0.0024361621105845,-0.0053904999178797,0.0013981889396038,-0.9999814462159728,0.1321638658060813,0.059213169727302,9.754005969616173,-0.0102026527694484,0.0258334596360621,-0.0006673929747311,3.467820957758468,5.03487599179536,2.0535632877966434,1130.720827512022,1150.027409289493,1142.7625670583711,1123.1744572403256,671.3188541874703,288.2095319587283,-76.37478157488374,-1035.0729944244647,152.84201767638888
9.7825,0.5695323627895728,0.5937019456755719,0.1497439407075056,0.0688700454360742,-0.0222693029725836,0.0330277209892171,0.0023849999217772,-0.0054182234222271,0.0013386248669345,-0.9999815033522124,0.130864129697947,0.0648035464391905,9.755399252357075,-0.0097201031976708,0.0262378484445751,-0.0008045544117185,3.467789787216079,5.034936482823371,2.053561770821134,1132.1196740707717,1150.5520258247873,1142.2911427688832,1120.9576075866275,491.99050212161217,93.68410976538496,-290.58379968892046,-782.1165560081822,152.84145286739655
9.785,0.3893929930738812,0.7319859957923969,0.2421765436716724,0.0691983013943088,-0.0203894736232961,0.0326539386632339,0.0023368473693575,-0.0054458931538915,0.0012835937812992,-0.9999815359290878,0.1291773137026863,0.0701389058880163,9.756984449631444,-0.0092314540548077,0.0266679320633862,-0.0009340353326928,3.4677612885560216,5.034997109612828,2.053559975846463,1133.1807800226304,1150.49582983832,1141.3096480599263,1119.263874460284,376.12267746197375,-205.35634473507787,-529.1844893930063,-591.1194582892488,152.8408178771828
9.7875,0.1936574872854003,0.8724980944054527,0.4020483251527118,0.0689431013770303,-0.0185046989731617,0.0322995812014682,0.0022864395722899,-0.0054689264451353,0.0012294189926386,-0.9999815850164048,0.1271901020523855,0.0752214388184548,9.758729974041,-0.0087401000067855,0.0271250158680012,-0.0010562868509986,3.4677362909862435,5.035058461708392,2.0535574296868457,1134.0002874580812,1149.525244101112,1139.6452203219187,1118.002010295182,221.21217526656616,-509.1754454608804,-673.0867642379366,-332.5752367282283,152.83998061375274
9.790000000000001,0.0462988364729304,0.979901178675731,0.5571113111818816,0.0685719367000768,-0.0169898317849239,0.0326064632501188,0.0022310316817858,-0.0054853202996608,0.0011720472015941,-0.9999816720975628,0.1249485166738938,0.0800034703779045,9.760606419636769,-0.0082499815571411,0.0276095047335912,-0.0011716859860786,3.4677149520346005,5.0351202381238815,2.0535539389398485,1134.2868408989634,1147.9499526110153,1137.9442142387363,1117.6009982766427,33.80609365498839,-754.7385286886495,-719.0491360944419,-47.45272098611335,152.8392242079214
9.7925,-0.0993645283819797,1.0823098313978519,0.6965818144471451,0.0685905006787942,-0.0150308611578294,0.0340518317607129,0.0021693008533381,-0.0054951876387959,0.0011098233585982,-0.9999818016248996,0.1224666348424696,0.0844121741946305,9.762586731618915,-0.0077653820073764,0.0281207692895996,-0.0012806397531787,3.4676968198712825,5.035182775199576,2.053549619535457,1134.169317926356,1145.7515514576683,1136.049974641446,1117.7647466902515,-108.34905388385204,-934.9554819948065,-765.1466990564744,130.62941159380767,152.83841121721457
9.795000000000002,-0.2587657282804765,1.1767983005573532,0.7884773596848905,0.0690566531187925,-0.0125949821996019,0.0365522142927509,0.0021008795993305,-0.0055018905409924,0.0010429845283406,-0.9999819563485358,0.119704629856025,0.0883612677589443,9.764646568551628,-0.0072905698696644,0.0286570873688011,-0.0013836938901953,3.467681021426474,5.035246990546836,2.05354467965358,1133.7450956295443,1143.2751752010422,1134.1184807434547,1118.2541453346116,-230.6134254717112,-986.2978330439688,-745.9661404574153,235.51913203059624,152.8375540941156
9.7975,-0.4457273639647654,1.2513100990325368,0.7863015185750108,0.0693616731764278,-0.0099062582108362,0.0399466951743947,0.0020268909933879,-0.0055048577535956,0.0009732343806346,-0.999982135999276,0.1167087237259495,0.0917433405583206,9.766763920659207,-0.0068295540041914,0.0292156608435545,-0.0014814398695851,3.467667410612892,5.035313740931641,2.0535399431621393,1133.0162507989978,1140.8200622924492,1132.3201439391596,1118.9423423504043,-366.95350046101055,-984.3288299088096,-711.3192521282397,305.06479259902113,152.83664658923942
9.8,-0.6960271358913543,1.299765021030616,0.6503690889581368,0.0684154786948906,-0.0065320963377827,0.0439312280282896,0.0019485714253097,-0.0055009060702353,0.0008996863619473,-0.9999823575266328,0.1135859677006566,0.0944584588754707,9.768919096641005,-0.0063856666693658,0.02979278916006,-0.001574603818382,3.4676562638180948,5.03538371269006,2.0535360419684885,1131.9103281272387,1138.3535310514972,1130.5618844828127,1119.7794692976067,-422.86481370777193,-769.7856243697677,-545.0013694819576,286.7408401258678,152.83550231853104
9.8025,-0.9097373477311702,1.2897168047858527,0.4298791513462478,0.0659895979826031,-0.0032679559229948,0.0465489803395,0.0018698766881833,-0.0054914593772765,0.0008240057142883,-0.9999826049349696,0.1103601958178766,0.0963666105542104,9.77109626255276,-0.0059616575012141,0.0303840242346638,-0.0016638699244544,3.4676473946913333,5.035456768810056,2.053533084611588,1130.9019267304586,1136.9711341706,1129.5951370917492,1120.3760465510338,-395.46500061058987,-371.4043205864357,-253.74645085894872,205.56687195602987,152.8345043920274
9.805,-1.1087536682861152,1.2074067879692705,0.1268380630586504,0.0624244375560446,0.0006262698672258,0.0479931354905496,0.0017962530081211,-0.0054791933623461,0.0007505487558454,-0.9999828515745874,0.1070357400136013,0.0973137743139224,9.773282468330654,-0.0055595415897104,0.0309844335991807,-0.001749712796661,3.4676401238814187,5.035532728026572,2.053530914311228,1129.9330031241864,1136.4965094485656,1129.2931522285185,1120.807303657387,-391.138825602168,16.042060304514273,36.35908051896308,153.81705195488715,152.83346185010979
9.807500000000001,-1.324751363611392,1.0137031536108272,-0.27681608456353,0.0581718473973742,0.0054629062263033,0.0479383312883337,0.001734522695809,-0.0054711141296779,0.0006810572563136,-0.999983048040386,0.1035372105521889,0.0971346966285163,9.775467439533312,-0.00518014436723,0.0315889063600001,-0.001832255397372,3.4676333177488528,5.035611751199331,2.0535289946066655,1128.9462326024475,1137.0513444721223,1129.7769324943442,1121.1451318108084,-318.51720322415093,380.90342372809994,314.98416456301663,102.75023490365342,152.83216016942427
9.81,-1.4939531484946067,0.7810126597136118,-0.5995695035033302,0.0550476368809388,0.0089484182148146,0.0462932202206188,0.0016928455735813,-0.0054770722473042,0.0006193469099887,-0.9999831263449368,0.0997348076897202,0.0956558190420801,9.777642760733816,-0.0048233923319706,0.0321923165956711,-0.0019111238950043,3.467625824139769,5.035692719270176,2.05352688642442,1128.3404171080651,1138.4010265672064,1130.8680730513336,1121.3210548319053,-187.838783786393,692.1283322573812,556.6374134624509,61.473384511567424,152.831033558111
9.8125,-1.665353087846338,0.5060886647341206,-0.8566216179983671,0.0522421711682985,0.010817540179173,0.0431603307087141,0.0016750692252075,-0.0055000465192086,0.0005665672282215,-0.9999830644551948,0.0956339380809986,0.0928057917827846,9.779798758236817,-0.0044882084732343,0.0327896873238137,-0.0019856894174427,3.467616973353677,5.035774381233182,2.053523318053214,1128.0070386835157,1140.5119861334088,1132.560119561656,1121.452498733366,-81.29919636100365,1050.5952247829823,835.7494765377694,59.37422055113801,152.8298639848158
9.815,-1.8767746547147484,0.1815250577622233,-1.0505134161864724,0.0484007672891612,0.0108154430648592,0.0385229306401822,0.0016763702250596,-0.0055358388897123,0.0005206551262873,-0.9999828941160772,0.0913795619181109,0.0887011774525591,9.781922986273921,-0.0041727359105324,0.0333761442857671,-0.0020555153988156,3.4676075029304005,5.035856363539882,2.0535174121565265,1127.9339211262604,1143.6540026911202,1135.0468204340218,1121.617925934661,24.270191100909717,1208.6781231973348,943.0026136780616,66.47085583721362,152.82841220885123
9.8175,-2.04603042172282,-0.0483009056818598,-1.1092533114433782,0.0441106246165779,0.0096240517995808,0.0348609988230402,0.0016907495358776,-0.0055772338523246,0.00048000980409,-0.9999826669457892,0.0871719903920345,0.0835005318491521,9.784002961039302,-0.0038748204352949,0.0339467716090869,-0.0021202021402711,3.467598144083324,5.0359390904230334,2.0535097117151047,1128.1283896390203,1146.5553767493964,1137.2751326300468,1121.7848530125523,121.52349405776395,1165.4376273622345,866.4414741522716,74.9859884703593,152.82716375979507
9.82,-2.1825160335513165,-0.2112199921711295,-1.0748160579222124,0.0386251426825897,0.008350539211663,0.0320261336219902,0.0017076038157767,-0.0056152039554284,0.0004447623568618,-0.9999824514894736,0.0832414417530014,0.077471195759758,9.786025363658233,-0.003592262493662,0.0344964649641199,-0.0021799152119384,3.467588986194869,5.036023708705929,2.0535013646109515,1128.5415385965491,1149.4811908279323,1139.3790278047838,1121.9928558770127,191.85352841149503,1136.046881107812,781.9443251755465,92.4545070719616,152.82587783548092
9.8225,-2.272577286665627,-0.3149430739894086,-0.9820912684026571,0.0326929350867292,0.0072533542126469,0.0298450341793861,0.0017206880853389,-0.0056434921925679,0.0004113429991556,-0.9999822936506668,0.0797589502184195,0.0708121315707929,9.787978941249474,-0.0033225318577614,0.0350200051077502,-0.0022349720720559,3.467579670371249,5.036111413874219,2.0534931804657788,1129.0876572810776,1152.2356111549343,1141.184854255924,1122.247125547912,237.41338303271655,1017.3991724603866,616.1766132948234,121.12722060890444,152.82456333384496
9.825,-2.2912075486717542,-0.3537276943486394,-0.8417129609981233,0.0268401808249145,0.0060908688036801,0.0281520286665252,0.0017241386390231,-0.0056584497949313,0.0003761991190257,-0.9999822246397576,0.0768371797225469,0.0637308713223452,9.789853115605217,-0.0030631189011016,0.0355121852961498,-0.0022861063377669,3.467570050441658,5.036203320409048,2.053485953073281,1129.728605511713,1154.568186690235,1142.4599108712584,1122.5984919800571,286.05316651605864,879.1478630663721,417.7843479752738,195.4036144485748,152.82321805205547
9.8275,-2.220961271105917,-0.3412551965882897,-0.639720209425177,0.0201421121471463,0.0049331061944604,0.0263308051973227,0.001718867552755,-0.0056591220244824,0.0003357595815696,-0.9999822482246048,0.0745280205836639,0.0563162702036166,9.791639348894766,-0.0028116521739309,0.0359681886224701,-0.0023338898521616,3.4675616420904567,5.036299153522057,2.053480029837116,1130.517923113658,1156.6313504702669,1143.2737759958006,1123.224143620155,278.0825208384711,604.4791009888579,182.88830525342743,279.32185901469086,152.82157372388951
9.83,-2.0821732124806127,-0.2968250046628924,-0.4540429159680385,0.0147307521355496,0.0045260190135021,0.0249483528800347,0.001707484574288,-0.0056466950831572,0.0002915376252709,-0.9999823516923136,0.0728315515554854,0.0486359428989477,9.793329316804332,-0.0025662896661648,0.0363839603353,-0.0023788740261246,3.4675553609837544,5.036398191945674,2.0534752767177062,1131.1190181159052,1157.5905821951787,1143.3743523975252,1123.9951012751303,208.12134890729388,204.5116409707996,-55.132517905269246,375.6210576133364,152.8201830557827
9.8325,-1.8602501522994908,-0.2331028955183219,-0.2612450672274339,0.0094125742818709,0.0045391745142846,0.0240517437247614,0.0016914119611158,-0.0056210075488244,0.0002460637626027,-0.9999825338611316,0.0717654467450351,0.0407891717889829,9.794913927248313,-0.0023253163437458,0.0367566050577631,-0.0024215691459431,3.467551150125532,5.036500168927243,2.053471089141613,1131.5585298581943,1157.6539086751206,1142.9981134062743,1125.102248908221,130.97332389354733,-179.00517154345764,-230.49661586529544,569.0120350459913,152.81877674415796
9.835,-1.5076378204032777,-0.1425394995207844,-0.0352973479067137,0.0036046178281011,0.0042417653135695,0.0239652756620628,0.0016701306243619,-0.0055848790573982,0.0002021388207976,-0.9999827814915164,0.0712803679218219,0.0329182015289947,9.796383114415356,-0.0020868602223296,0.0370847059496052,-0.0024623763431208,3.467548185064593,5.036604413811018,2.053466821541785,1131.773884735373,1156.6955563374613,1142.2218693181987,1126.8401614503607,12.4810181201136,-504.20620976880247,-302.3533220647533,694.2241933885094,152.8170769355872
9.8375,-1.1593138492555413,-0.0553209470963818,0.1401218957676606,-0.0001631470337208,0.0035052067994155,0.0246505645611225,0.0016478697783685,-0.0055470720966071,0.0001640874678509,-0.9999830373347164,0.0712017579854283,0.0250737450535428,9.79772695487185,-0.0018488223327279,0.0373685984109797,-0.0025010351005091,3.467545079159396,5.036709446289035,2.053462337798118,1131.620934948795,1155.1328776262762,1141.4863467959503,1128.5733698751644,-136.19998964702953,-740.1272988439922,-274.2031119757121,719.5590985535613,152.8156540698546
9.84,-0.7866242776055927,0.0417821773564618,0.2993605002119401,-0.0023065517477119,0.0028966863718494,0.0255823355686977,0.0016278278978124,-0.0055135765761672,0.0001303411256325,-0.999983261178326,0.0714023798151516,0.0173237051743257,9.798934104541546,-0.0016083578489289,0.0376104611833914,-0.0025370055804829,3.4675416178374,5.036813075198677,2.0534571542532225,1131.092884787138,1152.994919843242,1140.8508537583205,1130.437956943128,-305.38191653169343,-1007.5412864311332,-225.6847831045883,791.5900029345931,152.81422867589288
9.8425,-0.3527580844087362,0.1558669890120826,0.4784035200554059,-0.0030938806169398,0.0029855737742935,0.0263757093702273,0.0016109842500444,-0.0054905657451067,9.649679225673917e-05,-0.9999834177160458,0.0717439575964002,0.0097733991990644,9.799991658591155,-0.0013621940334235,0.0378141260140165,-0.0025696366105562,3.4675373874868582,5.036913637167853,2.053451230565847,1130.0940253661367,1150.0951711941216,1140.3579228804276,1132.5313198898364,-402.439689565136,-1068.1837843376493,-124.50345611416977,693.6786355398278,152.8125193729541
9.845,-0.0267419519634983,0.2334445632718138,0.623229498924265,-0.0026481102251287,0.003902413190822,0.0267303741209225,0.0015985831650521,-0.0054829451614734,6.069241023989632e-05,-0.9999834800519468,0.072105395366951,0.0025144740730948,9.800885640801917,-0.0011072297416822,0.0379846460734392,-0.002598077571904,3.467531696739094,5.037010421577963,2.053444430774044,1129.080686339312,1147.654000921553,1140.2283364777495,1133.9063501208277,-400.9425782673416,-926.1675656564338,6.944768697939077,419.6280110382557,152.8110985024896
9.8475,0.2469568533935767,0.2769591534949262,0.7600753638920233,-0.0016662685254368,0.0054700754682887,0.027221388373392,0.0015916184733315,-0.0054955746321486,2.1814516081061727e-05,-0.9999834225055833,0.0723604717329845,-0.0043676895559988,9.801601104006814,-0.0008406636112051,0.0381277105997322,-0.0026214316785626,3.467524409913529,5.037103492826553,2.0534372262415594,1128.0893124747995,1145.4643333658387,1140.392646723917,1134.6294599450282,-359.20350709436985,-800.6858821436482,106.55816021651236,155.65437745370588,152.80968390509372
9.85,0.4760316157715038,0.2888176204773432,0.8746329917981277,-0.0005293721728062,0.0070227146143634,0.0284648418181291,0.0015826821768823,-0.0055247540625974,-1.9694995572106303e-05,-0.9999832751102395,0.0725461975782564,-0.0106358736005029,9.802121508231021,-0.0005604176250415,0.0382489844934682,-0.0026394626618867,3.467516317464668,5.03719474361,2.053429474582075,1127.2846688038403,1143.6505715108356,1140.761127278832,1134.684622008096,-244.3319376696836,-607.8112728118372,181.62373667088903,-141.8180171580167,152.80827611992552
9.852500000000001,0.6571672459219416,0.2718740568544983,0.9295905411452364,0.000646103553784,0.0076740723044173,0.0312580057779507,0.0015635883594531,-0.0055613756319446,-6.24597001533908e-05,-0.9999830986676796,0.0728029797792618,-0.0160516668224788,9.802430455443684,-0.00026535884491,0.0383536835706897,-0.0026521213002609,3.467508056166945,5.037285744868643,2.0534209238657706,1126.8676527864511,1142.425277001779,1141.300765407272,1133.920369859238,-74.22436400328229,-388.0808990363524,259.5533191162352,-490.3316093100928,152.80687829652993
9.855,0.8268896131279703,0.2376054447192181,0.8854799230642255,0.0021054155695241,0.0074047956355483,0.0360556668334263,0.0015314890157943,-0.0055994772643224,-0.0001047984365222,-0.9999829287371415,0.0732088953896914,-0.020495962761163,9.802512936837621,4.461019631564255e-05,0.03844638674464,-0.0026591890702607,3.4675005071627094,5.037377209760533,2.053411504479812,1126.913546983824,1141.7101670156535,1142.0588938744131,1132.2329639615452,102.0526969182559,-140.19885422906614,290.6680517690925,-698.2873573305394,152.80521461620265
9.857500000000002,0.9288708196076412,0.2053877154124775,0.7443451720097652,0.0037078313859704,0.007155472447826,0.0400989272145606,0.0014858901269388,-0.0056343200327393,-0.0001472003857121,-0.9999827923607312,0.0738194941282645,-0.0239107715982502,9.802355580938723,0.0003686702413238,0.0385309815474801,-0.0026606239249357,3.4674947847971103,5.037469505921757,2.0534007337137976,1127.3779162710423,1141.7242827306338,1142.754105666117,1130.428933072586,243.77761622218105,111.69462234840869,295.48443517793623,-732.1653624893406,152.8038412084726
9.86,0.981424518573899,0.1651855692632772,0.5124451536020271,0.0062238661539972,0.0075730953095432,0.0427135765204104,0.0014304845024472,-0.0056585915087969,-0.0001939947167303,-0.9999827256054544,0.0747440466236178,-0.0263349944613834,9.801947571000358,0.0007052736658168,0.038610721464882,-0.0026565869607507,3.4674915996760487,5.037562657003789,2.053388687027418,1128.1324350649347,1142.2686401273954,1143.5363160503027,1128.5721371490993,342.0957106172784,323.12104634042447,379.1184674835538,-748.0665189646254,152.80248313098363
9.8625,0.9750886714201464,0.0944562887670188,0.1830763135662656,0.0102765926140918,0.0085078187233839,0.0434488475165825,0.0013697663876836,-0.005665376745113,-0.000247526486434,-0.999982762661234,0.0760881554385442,-0.0278366511100128,9.801281398464289,0.0010519247836269,0.0386883076685981,-0.0026478876896989,3.467491442400682,5.037657218088998,2.053376599041674,1129.0883948241287,1143.3398879623362,1144.6496980035351,1126.6886004777623,312.17881352340225,428.92783298496056,449.2462446541347,-587.3906245289154,152.80087327301513
9.865,0.9119893753951018,0.0102861252890078,-0.0883573091293254,0.0138179332218933,0.0090373367697406,0.0423181919411029,0.0013122092801232,-0.005656833977318,-0.0003058386659543,-0.9999828783114724,0.0777846623491581,-0.0285739397276818,9.800354353190489,0.0014053433657898,0.0387660663974953,-0.0026357985535947,3.467494502878664,5.037753435672276,2.053365780799025,1129.693329132552,1144.4132792923203,1145.7825472735735,1125.6351840264542,153.5455744073111,427.9517609060291,504.4023564731654,-285.38330098209593,152.7995497812594
9.8675,0.8082715609244389,-0.1004116807981728,-0.3148641894733063,0.0163573631044165,0.0092884614284705,0.0404252835170118,0.0012655818090435,-0.0056365607600766,-0.0003665060012858,-0.9999830406939018,0.0797444213978156,-0.0287029376920261,9.799169098636378,0.0017620669080508,0.0388461209123496,-0.0026223100850881,3.4675008607785194,5.037850885502166,2.0533575726673248,1129.8561226961651,1145.479646766866,1147.1717097859005,1125.261683972852,-62.931748308882725,432.6714614277768,667.7058402069954,-11.091123217918806,152.79824684321187
9.870000000000001,0.6778382383762463,-0.2561401036810293,-0.5140977708159433,0.0180246067783899,0.0094267736160088,0.0381832811863012,0.0012316527957493,-0.0056093438360569,-0.0004267198387994,-0.9999832207433897,0.0818614091379119,-0.0282728779665088,9.797734112711476,0.0021188191306718,0.0389305404508657,-0.0026102547182842,3.467510126344376,5.0379483754081935,2.053351766465608,1129.3786703910075,1146.5766365994596,1149.1210764746093,1125.5797284103646,-288.5778325088271,357.21158485197395,749.6365647699997,219.39536553360287,152.7967091029668
9.8725,0.5948172568859392,-0.3928037870219965,-0.6203760003037014,0.0188000948375393,0.0088588038201963,0.036223927874745,0.0012077457515301,-0.0055799106337388,-0.0004817534445002,-0.999983397654757,0.0840367134596416,-0.0272555055775312,9.796064146472787,0.0024727113618055,0.0390214194356291,-0.0026028292215365,3.467521321483906,5.0380450637191565,2.0533475468467666,1128.4132335336208,1147.265704691126,1150.919892609751,1126.3586608005203,-478.57285420432584,226.33411025681153,730.6021438773857,372.2740892902324,152.79545039930193
9.875,0.565425661351003,-0.5159961424682737,-0.6777876061098598,0.0194443263593803,0.0071587141028136,0.0342317598683166,0.0011866494553067,-0.0055478629654083,-0.0005276531652571,-0.9999835838538966,0.0862772307038347,-0.0255428901559701,9.794179920570368,0.0028216558500458,0.0391207880479612,-0.0026033309078168,3.4675336570088575,5.038140750407229,2.0533440798312927,1126.9858061199864,1147.7083071507436,1152.7740871939955,1127.4410988568154,-612.4056293461617,145.26709675654436,727.0408837202094,446.10096587325427,152.79421641114573
9.8775,0.5914548643107996,-0.6147089524883248,-0.7112951283509669,0.0201421559570127,0.0049968128176528,0.0325974003304733,0.0011638329594314,-0.0055161088421974,-0.0005646550555806,-0.9999837673667568,0.0885295542464934,-0.0230883569618543,9.792108443622249,0.0031647776276517,0.0392304597562142,-0.0026143743891747,3.467546232428887,5.03823555425874,2.0533408679292697,1125.3512053868908,1147.9920401749087,1154.5550970283512,1128.589165629886,-651.5745022488209,97.47784087524745,664.2667607599705,438.3942557190263,152.79300344094352
9.88,0.6869221146084546,-0.6783576296620504,-0.739007905384273,0.0211188002850778,0.0029855293714012,0.0315418439164996,0.0011352983993519,-0.0054885621227762,-0.0005915048909383,-0.9999839317949776,0.0907232170319442,-0.0198626555805837,9.789882072745515,0.0035019295540341,0.039351871544927,-0.0026379826883289,3.467558031646992,5.0383303713890175,2.0533374033444014,1123.7279336087415,1148.19569635512,1156.0954209977958,1129.633070135411,-647.2299188021123,107.86436817659836,586.2506689626564,409.0160113349426,152.7918160850253
9.8825,0.8734891239942885,-0.7191199345949595,-0.7875864820062684,0.0228482359222899,0.0010134846716624,0.0307268518298091,0.0010938909925051,-0.0054632033646129,-0.0006082658747605,-0.9999840959476892,0.0929054514745168,-0.0157813115107747,9.787536831131472,0.0038337052040137,0.0394859495347537,-0.0026759204588974,3.467568414067357,5.038426396454598,2.053333501440149,1122.1150557928795,1148.5313620157915,1157.4863503731651,1130.6342456865611,-499.76110389562496,164.52093963515472,414.051603876706,323.56811319406984,152.79042076318913
9.885,1.076287991137841,-0.7300405217144479,-0.8440827020065224,0.0247863727476605,-0.0003974161887563,0.0300909598732383,0.0010346293485461,-0.0054364699788705,-0.0006212076374373,-0.9999842807145998,0.0951543188352163,-0.0108089577333106,9.785111785440208,0.004161573138269,0.0396331353036476,-0.0027293000087742,3.467578419407343,5.038524278796599,2.053329076441521,1121.229128089264,1149.0183010532955,1158.1656790171787,1131.2509107013807,-236.8556415050164,258.8718261447916,160.34124719087453,216.30606910076753,152.78928218103889
9.8875,1.3067762866086847,-0.7220508266113516,-0.9005896146464784,0.0271333415561632,-0.001882027989486,0.0290003953292671,0.0009597970581055,-0.0054076327768962,-0.0006364839002375,-0.9999844840624688,0.0974911444067711,-0.0050571485157396,9.782648697141902,0.0044871599543028,0.0397936229985175,-0.0027982035117107,3.467589204186663,5.038624080783801,2.053324073552772,1120.9307775853545,1149.825721146516,1158.2880566091196,1131.7157760320652,2.9035616419146217,430.01319494940253,-72.45326868381885,195.41263269026456,152.78816784586124
9.89,1.5813641926042428,-0.6906525045247704,-0.9250687164317344,0.0306341718204096,-0.0040425710914249,0.0265896911663111,0.0008775697466093,-0.0053799452250829,-0.0006575049557122,-0.9999846791113944,0.0998566615357465,0.001243752003492,9.78019115798576,0.0048119443885046,0.0399676045412471,-0.0028818200274225,3.4676009789496085,5.0387252885278,2.0533190555597662,1121.2436458974737,1151.168367028043,1157.8034126737596,1132.2279738648324,208.72715852951447,535.6615928153743,-272.55853429838646,195.3657584079272,152.78685723708358
9.8925,1.7764059524067353,-0.6454319013120938,-0.8694632755188441,0.0345470165143312,-0.0061424044669732,0.0233828215780122,0.0007956194254665,-0.00535814392611,-0.0006849244337424,-0.99998483449168,0.1021589744863141,0.0078702679874212,9.777782810558737,0.0051372328784748,0.0401554369065982,-0.0029789734369096,3.467613103682416,5.038827421428492,2.0533144984464444,1121.9744133780018,1152.5040291105922,1156.925263937628,1132.6926048241044,353.8279357990881,537.0824452743523,-431.9407897164588,199.51720367106975,152.78578601333575
9.895,1.8932926177552691,-0.5844857717832759,-0.694941101979033,0.0399217276853603,-0.0080480357509744,0.0190606571733957,0.0007151124562393,-0.0053385466071642,-0.0007189794686424,-0.9999849684218368,0.1044666936092356,0.0147229712888304,9.775464532902722,0.0054642680844123,0.0403577100708636,-0.0030886474651976,3.4676259861027163,5.038930439718584,2.0533104980906223,1123.0127855764688,1153.853779254414,1155.643708725178,1133.2255598831875,476.5403986689472,536.7261752180709,-635.5442502448029,240.43999644755664,152.78473510426508
9.8975,1.9032872450919305,-0.5076146594582828,-0.3389415113754733,0.0477359025588065,-0.0094653410661416,0.0138772685027087,0.0006307518303735,-0.005313170903873,-0.0007605349618025,-0.9999851266263488,0.1069277602964409,0.0218256224750426,9.773273083591407,0.0057943163567131,0.0405753033788366,-0.0032098727508736,3.4676409603032856,5.039034263716236,2.053306372312013,1124.3571153713467,1155.187659986683,1153.7475426864034,1133.8948048063423,472.13355558039336,400.9411636269588,-741.2815103270282,235.5514894318817,152.7834959186037
9.9,1.7948829297400564,-0.4531824639406363,0.0473786506675544,0.0541845098112177,-0.0101512570307451,0.0114460642048348,0.000540993768721,-0.0052818511488382,-0.0008062014765342,-0.999985310986916,0.109531048025534,0.029126772414944,9.771242532881944,0.0061284258885353,0.040809546523906,-0.003340715249083,3.467657521657148,5.039138110635458,2.0533010819623247,1125.3734533543711,1155.8584850725492,1151.9373011735422,1134.4033173303471,348.06716270011395,145.00039613415694,-759.7840428247457,172.1665028913209,152.78248042284864
9.9025,1.5889552973302068,-0.4189311122200636,0.4454383937602179,0.0587839511233432,-0.010695039876883,0.0129032354334474,0.0004490720054879,-0.0052504006092767,-0.0008518931397442,-0.9999854901368938,0.1121425818960376,0.0364796468418528,9.769404050395984,0.0064678356102494,0.0410621654313781,-0.003478239188195,3.4676746897930224,5.039240868787476,2.053293616590649,1126.0974511848472,1155.9126619673536,1149.9486224722805,1134.7556373207988,222.97564145451247,-86.25780586832559,-819.2741309799923,100.01791353003853,152.78148150382313
9.905,1.3371124913083616,-0.4031521915388587,0.7829284007344763,0.0613780022118928,-0.0113602506038572,0.017042518432422,0.0003586897858428,-0.0052277731838855,-0.0008957258604696,-0.9999856161926602,0.1145616624882054,0.0437264055703719,9.767784823487963,0.0068142446345142,0.0413350464858177,-0.0036190729327397,3.467691820217839,5.039341794714594,2.0532834288310964,1126.4883315616435,1155.4271960432077,1147.840930518643,1134.9034068979972,69.61315583788567,-307.56495262216697,-866.4567624831316,-4.523251512727458,152.7804954676849
9.9075,1.0695933943801024,-0.4057983999262,0.9885932962754552,0.0623350789748412,-0.0124755302401975,0.0220348216703645,0.0002704303216714,-0.0052169085143821,-0.0009327938020763,-0.9999856773187528,0.1166988977327319,0.0507699760246577,9.76640633840029,0.0071692377715701,0.041629971900664,-0.0037601518642389,3.46770805069682,5.0394414004013806,2.053269987097704,1126.4455169640366,1154.3748372042423,1145.616338659864,1134.7330210632351,-104.33188845498267,-550.0057961544876,-995.9102179918126,-159.36434687602977,152.77952399623274
9.91,0.7532595607300662,-0.4242101959137336,1.0615481883140967,0.0634970458282288,-0.01377547586896,0.0271509790882432,0.0001831148387606,-0.0052154462488164,-0.0009598640138822,-0.9999856894297108,0.1185635926081917,0.0575476962403969,9.765284716567075,0.0075344710080318,0.0419482312242131,-0.0038990237986835,3.467723413673465,5.039540292200385,2.053253656063394,1125.9666721193685,1152.6771670624348,1142.8613794286832,1134.1065851636167,-219.79087819513376,-656.3591575148108,-1011.6904772793724,-301.4326169759133,152.7783739702863
9.9125,0.488438476895677,-0.4496473607283673,0.994410652688182,0.0653091563597052,-0.0144253308760335,0.0304020081329109,9.88385987440231e-05,-0.00522449305085,-0.0009780225430086,-0.9999856459376169,0.1200939926188669,0.0639339414792021,9.764433371506515,0.0079117071646761,0.0422903395006077,-0.0040337120557826,3.467738509174142,5.039639071812581,2.0532358255388488,1125.3465625730612,1151.0930414166692,1140.5578862734683,1133.225857978356,-247.57610449815496,-628.5821795108332,-899.1197839015017,-420.37605159496496,152.77742829916764
9.915000000000001,0.2086063077009218,-0.4801332413756431,0.8361671962986791,0.0674351740408281,-0.0149057183221172,0.0327163268758435,1.9328163995373015e-05,-0.0052460783070048,-0.0009904938061293,-0.9999855358968068,0.1212078738231239,0.0698132998425601,9.763862877980158,0.0083024055590559,0.0426558415544325,-0.0041633231137901,3.4677537070584887,5.039738335610587,2.053217868816816,1124.7287915968775,1149.53425616488,1138.365780509175,1132.0047049056418,-212.13879471666908,-650.839747591761,-900.2342401991384,-599.4038399900519,152.77649611826797
9.9175,-0.1437414329741352,-0.5058266145571104,0.5991872470246044,0.0688750747562195,-0.0161257238648063,0.0345086693092483,-5.2578130082690086e-05,-0.0052815318331128,-0.001001943845647,-0.9999853513706172,0.1218354904648038,0.0750535508840396,9.763582091349011,0.0087074909422004,0.0430432183169749,-0.0042880221069809,3.467769001782603,5.039838412662621,2.053201035607368,1124.2858685994777,1147.8388426787099,1136.056715072472,1130.2288387784051,-75.60964560686129,-583.1373374280952,-759.8773320418934,-686.7451912966319,152.77539465261938
9.920000000000002,-0.4333986907825117,-0.5004554608936075,0.404366390378873,0.0686255002238728,-0.01779416936517,0.0350085666782946,-0.0001185740325852,-0.0053226449412941,-0.0010153046902702,-0.9999851329170348,0.1220930035688136,0.0796181954168226,9.763596386712807,0.0091268795938495,0.0434498493108293,-0.0044095633689732,3.467785371107092,5.039940129266699,2.0531860877728048,1124.3507433688433,1146.6185694777403,1134.5663938489663,1128.570978949159,143.850569534135,-446.2736833462692,-466.03796033391694,-679.7483703605383,152.7744929773676
9.9225,-0.6849796025856729,-0.4487542691906927,0.2542768381114696,0.066809015871371,-0.0196593053672212,0.0344632636438674,-0.0001785963338709,-0.0053589734984176,-0.0010340918421687,-0.9999849321731744,0.1221420010685874,0.0834450008860877,9.763910696764228,0.0095596786401473,0.0438720793282869,-0.0045303743441925,3.4678041282459535,5.040044833079046,2.0531742887453945,1125.0051214471482,1145.6074742619787,1133.7265252708028,1126.8300969266031,429.1527833202292,-399.15304467270414,-183.65071478662543,-764.276010332395,152.7736113563392
9.925,-0.903979954717614,-0.3241910949320753,0.1530184006209612,0.0630842769556283,-0.0215590042531784,0.0332853339511064,-0.0002317981725216,-0.0053879318492666,-0.0010604252294755,-0.9999847589463992,0.1219935226121885,0.086467089882896,9.764530683287513,0.0100042069649696,0.0443054578252726,-0.0046530086751645,3.467826035785865,5.0401539752472,2.0531661315990783,1126.4965072854447,1144.6228042543764,1133.648140275033,1124.7495988974968,648.3590086072933,-324.51510388263546,136.04375513616708,-749.3410828599928,152.7725815236012
9.9275,-1.0006687034259192,-0.1715065011348188,0.1346222954575965,0.0592789940105481,-0.0225024181177875,0.0325132088330925,-0.0002814279987838,-0.0054079354056533,-0.0010938259424881,-0.9999846196155316,0.1216432271235241,0.0887094256827682,9.765460232963276,0.0104580679791403,0.0447451163798956,-0.0047801369447316,3.467850878674868,5.0402672096739085,2.0531607776824203,1128.2469164901852,1143.9848987425655,1134.4067440464837,1123.0833915123028,764.2192684756693,-215.85076324040276,459.78679344111754,-641.4343700221619,152.77175113924744
9.93,-1.011220379962016,0.019847162386971,0.1635593134972439,0.0558788395862432,-0.0226198681523352,0.0324712153579702,-0.0003298956386291,-0.0054156943236453,-0.0011350165851909,-0.9999845295738586,0.1211266176176124,0.090192210625045,9.76670183036046,0.0109187335244298,0.0451862103528744,-0.0049136377382575,3.4678779959152006,5.040383835281712,2.053157151058908,1130.3176036278223,1143.5435504381746,1135.947074242238,1121.5424270473864,837.6775053356196,-139.5230374495677,714.3509295998931,-588.3500385141805,152.77095564511527
9.932500000000001,-0.9687831664719928,0.2322250173153301,0.2059727190548626,0.0533635706353685,-0.0222845009401739,0.0331512649865731,-0.0003790433853529,-0.0054121595276027,-0.0011846881531812,-0.999984482163433,0.1204037097074242,0.0909367347678329,9.768256017772188,0.0113837137507276,0.0456243472260011,-0.0050540953816605,3.4679065664207527,5.040503104169438,2.053153742764668,1132.435304016864,1143.2872835553176,1137.9784986944835,1120.1416413197314,798.1932111996346,-49.38875316687837,873.53189799378,-516.2734523731717,152.77019357311596
9.935,-0.8932800512350348,0.4572577775603566,0.2323769434536661,0.0518948958647037,-0.0216228638965574,0.0345254810281837,-0.0004303266311987,-0.0054035204266615,-0.0012412623359112,-0.9999844448637168,0.1193397164391755,0.0909691617909811,9.770119999270916,0.0118504731847827,0.0460559304623809,-0.005200571035826,3.467935509575794,5.0406237683415736,2.0531491392018366,1134.3085696838211,1143.2966066723402,1140.3147337322075,1118.9610597855203,694.1360266876035,75.60048799815969,1011.9306490674,-451.65634378217766,152.76947633871066
9.9375,-0.7972320098462359,0.7240829246787353,0.2153871077627058,0.0507820861449019,-0.0204023786173698,0.0363983311841126,-0.000482039706105,-0.005394096744458,-0.0013026744718097,-0.9999843967885464,0.1178450174118411,0.0902651632450571,9.77228616017663,0.0123164896376353,0.0464782949976124,-0.0053505060181696,3.467964594583435,5.040744593559189,2.053142417979432,1135.9059841503013,1143.6652859953083,1143.0381519398195,1117.8833596008208,435.74211225504337,196.55576846498025,923.198613047136,-324.30513890846754,152.76867201479044
9.94,-0.7236130784869899,0.9266978748044656,0.1518584988132951,0.0497822586482397,-0.0188226420536397,0.0379280363540636,-0.0005333958963125,-0.0053865315049878,-0.0013696111943986,-0.999984322465032,0.1158729528749214,0.0888281161045891,9.774739416950103,0.0127794426829934,0.046889548101483,-0.0055002896043845,3.4679943824844095,5.040865004073382,2.053132698557785,1136.487280245096,1144.279385514665,1144.9307267974425,1117.3395340909783,51.310047813686815,298.61101466781173,618.5121047416885,-127.77326961238762,152.76805104667088
9.9425,-0.6537029624782345,1.0821754711863345,0.0442111537440345,0.0481622754895681,-0.0163592383953901,0.0392224183204514,-0.0005840165117215,-0.005378864146545,-0.0014422293565836,-0.9999842316907922,0.1134763653363378,0.0866788748315931,9.777456004087783,0.013236785299618,0.0472884732364019,-0.0056456368754674,3.468025807408635,5.0409845828004,2.053119609179816,1136.1625343893695,1145.1583410686476,1146.1307124635287,1117.2444932527587,-344.35714140685445,415.6379038174951,327.9655512185342,72.45005297944547,152.76748290516844
9.945,-0.5620106510104061,1.1802139074706535,-0.1051067062740685,0.0456099545887493,-0.0122681354486981,0.0396062686443936,-0.0006362508308294,-0.0053694834518956,-0.0015190785845482,-0.9999841335249572,0.1107106810769389,0.0839006362548997,9.780402757963287,0.0136856949777512,0.047674279897577,-0.0057821201780972,3.468059027111384,5.041103132043908,2.0531036258711843,1134.7654945380611,1146.3575750337527,1146.5705545535354,1117.7017843558756,-648.7200352696544,429.0936956390341,-9.868265470642799,259.79499518139784,152.76686269371774
9.9475,-0.4749932985196619,1.1685810026980257,-0.2135081326031239,0.0434079810322799,-0.0082703931695632,0.0386817346655605,-0.0006918196741872,-0.0053599756964974,-0.0015977811862636,-0.9999840221691652,0.1075781570710128,0.0805725311511892,9.783538410243635,0.0141232432151311,0.0480463354796578,-0.0059051996843681,3.4680934708820432,5.041221025789944,2.05308491129486,1132.918934213022,1147.3038095468423,1146.0813711361754,1118.5434682286657,-817.8768564860178,321.1802390718229,-349.92922167288253,412.8104714291376,152.76639655902923
9.95,-0.3857271164751029,1.0525173116767108,-0.2675436029162518,0.0420298176410023,-0.0046242202050063,0.0370058882614634,-0.0007478450314776,-0.0053518620060014,-0.0016749458865011,-0.9999838961130814,0.1040910990813163,0.0766911929758639,9.786814973172673,0.0145464048023597,0.048403944511373,-0.0060103069419628,3.4681285202740577,5.041338661331907,2.0530635900001024,1130.6761102556306,1147.963476229112,1144.8209084451707,1119.7658367130216,-988.7073013012288,179.5199436895647,-677.9701113176848,587.4307230282275,152.7659812591186
9.9525,-0.2997848913935006,0.8066134368792321,-0.2430839103359559,0.0417946190587638,-0.0013981103101688,0.0346975451697265,-0.0008036716913854,-0.0053429068895779,-0.001751369740807,-0.9999837646142956,0.1003450243044265,0.0723026000250091,9.790176698026215,0.0149525117366013,0.0487459064753875,-0.0060939673165496,3.468164556179673,5.041457030692649,2.0530401093990487,1127.9753977065152,1148.2014092652903,1142.6915205795865,1121.4806218438073,-926.8726871554488,-21.511013287276644,-833.5335972713277,638.2770029469062,152.76553864359153
9.955,-0.2612604885990469,0.5333052650201433,-0.1458282291549669,0.0421337309011262,0.0002615169422784,0.0329898456245304,-0.000860567211926,-0.005327231069482,-0.0018306801856508,-0.999983650645964,0.0965150376764702,0.0674962056040256,9.793562160339043,0.0153391271159072,0.0490704415432227,-0.0061541183914139,3.46820313008706,5.041576956283763,2.0530149243974756,1126.0417468198543,1147.8559211626757,1140.6532404588147,1122.9572217277555,-645.1974986354263,-245.03945921324305,-809.0950346874498,567.4115309240043,152.7652139697918
9.9575,-0.2618021302052245,0.2173570542765355,0.0129754864533184,0.0421731676958462,0.0009969979730812,0.0321215955788218,-0.0009194306439985,-0.0052993326300266,-0.0019126293020519,-0.9999835828502224,0.0927740262065449,0.0623609717024584,9.79690748106092,0.0157035659167899,0.0493754562318636,-0.0061900375453234,3.4682448914687027,5.041699097606589,2.052989328814853,1124.7494102133387,1146.9762119692243,1138.64604540615,1124.3176794984267,-383.0036979835624,-416.49870939925535,-757.4541490043609,508.73437587598573,152.76493257060832
9.96,-0.2876563013654658,-0.1133295235210138,0.1966258614487652,0.0417895014712514,0.0010738589896025,0.0321787892792534,-0.0009798828279821,-0.0052565669245312,-0.0019948437668042,-0.9999835804275384,0.0892429180867609,0.0569666432800609,9.800149073275119,0.0160433692191074,0.0496586741508989,-0.0062022907213462,3.468289733297555,5.041823947517231,2.0529649266432863,1124.1267283299362,1145.773427615679,1136.8659697137923,1125.5008936071358,-83.01229517254409,-511.0981253806241,-621.2581292799707,423.7416120395002,152.76468524984406
9.9625,-0.3285665251969491,-0.4384829770923793,0.3718676865965288,0.0406572073902218,0.0003776182828211,0.0333500391410732,-0.001042639173719,-0.0052026610995383,-0.0020737012247679,-0.9999836299230782,0.0859200961552771,0.0514094221474531,9.80322554826861,0.0163567658223703,0.0499178367466216,-0.0061927646590208,3.4683369624734075,5.04195145091753,2.0529428070367306,1124.334348737476,1144.4207213423208,1135.5397547597497,1126.4363875586243,253.14672723093767,-554.401434260509,-452.96307473158686,358.2753532987939,152.7644769777778
9.965,-0.3772288840953382,-0.7930305647433965,0.526755493961719,0.0386699673444198,-0.0014657100349713,0.0356662657652069,-0.0011065756464314,-0.0051426628927499,-0.0021476905354819,-0.9999837090337326,0.082778665520565,0.0457527892266847,9.806080370217389,0.0166432267402865,0.0501509239354587,-0.0061642580925571,3.4683855430604567,5.042081228120191,2.052923470044575,1125.3924619660907,1143.0014204443771,1134.601154340135,1127.2922703736294,480.21868527630886,-430.3805121792212,-231.743784101264,276.05740996319616,152.76426973342672
9.9675,-0.4131194238863561,-1.0379352119914913,0.5857193212452714,0.0371694366428544,-0.0039448723823439,0.037834177024031,-0.0011695769659166,-0.0050783214539082,-0.0022189555911131,-0.999983806268852,0.0798548640831125,0.0400425215942433,9.808663450340733,0.0169037406515566,0.0503563586213159,-0.0061203386949549,3.468434931981476,5.042212811838195,2.052906966626769,1126.7354421638568,1142.2688187814251,1134.3810358392436,1127.8166746084403,569.5653689305819,-143.98995898379803,18.461211762402694,175.8812324381504,152.76413093314375
9.97,-0.4507844114827928,-1.2087347170348073,0.5575439344605368,0.036109756997606,-0.0073342874989327,0.0396311706424417,-0.0012289637601689,-0.0050136948576283,-0.0022862756124731,-0.9999839065598034,0.0771343650259714,0.0343147820078386,9.810932833854604,0.0171402288405674,0.0505334424893204,-0.0060647899507207,3.4684835689346207,5.042344715214971,2.052893331644865,1128.240288810744,1142.281470649458,1134.693460398947,1128.1716765358203,627.0026742906723,213.46002790388712,236.17495816207284,114.9712106136851,152.76402549302185
9.9725,-0.512102317815297,-1.313619143742803,0.4196668167445704,0.0348444719321151,-0.0119846973975571,0.0411903214134066,-0.0012829052626071,-0.0049518918641383,-0.002345278625162,-0.9999840067438144,0.0746143051595468,0.0286219208861467,9.81285539509147,0.0173554155109825,0.0506824138461294,-0.006001438561511,3.46853041092814,5.042475709929326,2.0528826859768765,1129.8704555353108,1143.3361189209447,1135.561910630054,1128.3915306615088,525.6483689948391,559.5123570233885,377.36383575373344,39.75664196714997,152.76393560662075
9.975,-0.5865349718061263,-1.3179794800058,0.2193463008787363,0.0336805792531766,-0.0158372866770165,0.0423826088139635,-0.0013322082476478,-0.0048949337955109,-0.0023936979448552,-0.9999841024794895,0.0723052091065511,0.0230652189177928,9.814407210499107,0.0175530823628703,0.0508041554756405,-0.0059339277467349,3.468575232893915,5.0426060135971,2.0528740266369474,1130.8685306557177,1145.0790324345744,1136.5802795777151,1128.370459745656,292.36919228937927,840.908811449713,436.84554916846986,-60.431399098515264,152.76388996236616
9.977500000000001,-0.6950052887347818,-1.2496782667429456,-0.0637986402034811,0.0328592345871407,-0.0192027882255019,0.0438043292551062,-0.0013782359111792,-0.0048421427057342,-0.0024323889206424,-0.999984196236098,0.0702611481716456,0.0177522491141536,9.815574190481511,0.017737792000982,0.0509000239803191,-0.0058652342306562,3.468618390018676,5.042736352449885,2.0528655994261875,1131.332301496758,1147.540662978194,1137.7461383758969,1128.089373666016,70.24410542961769,1166.9731657731968,510.0487515648295,-189.73353121433993,152.7638733267766
9.98,-0.8666940625846631,-1.1101261129710056,-0.4749571650887773,0.0322123993773811,-0.0226810295511234,0.0449739163248357,-0.0014238984309638,-0.0047913710788373,-0.0024659008827122,-0.999984287711521,0.0685546723969157,0.0128147618055458,9.81635179411676,0.0179146119630727,0.0509717175267275,-0.0057975956318589,3.4686604827388914,5.04286710758604,2.052855860770131,1131.2197511828658,1150.9138982634413,1139.13052333554,1127.421792089584,-143.56417489773904,1228.2609838075302,482.11979702273806,-295.4984594811,152.76388551635955
9.982500000000002,-1.0315552597047764,-0.9678135158690118,-0.8390983499684788,0.0311694754482477,-0.0251898378512014,0.0444937752924868,-0.0014687321205848,-0.0047455598056936,-0.0024985034986958,-0.9999843565514887,0.0671468575642337,0.0083113319322981,9.816745378125443,0.0180884977260702,0.0510214588446665,-0.0057318848917109,3.468701652520754,5.042998094612658,2.0528436412628546,1130.6144806222694,1153.6819678972304,1140.15673736101,1126.6118813686107,-321.37019885155524,1000.941472019048,366.55622836090527,-357.0456613177413,152.76392158837848
9.985,-1.1827225257454883,-0.8253742165774838,-1.1582222696442253,0.0286822629562437,-0.0271513003840324,0.0415508632030528,-0.0015085301833744,-0.0047064378880286,-0.002532578785029,-0.9999843984209916,0.0660110809694008,0.0042185784384516,9.816769475699827,0.0182638287369097,0.0510520658617835,-0.0056680974837928,3.4687422382449533,5.043128667170242,2.0528289156462325,1129.6129001886084,1155.9186056235355,1140.963304477344,1125.6365637829958,-437.8659499153625,745.4936885952264,283.42513860097944,-392.5673058030338,152.76398366390924
9.9875,-1.286151294217292,-0.7021308934781745,-1.3853573353063526,0.0250371820093032,-0.0285209342988184,0.0367622463821172,-0.0015356642084264,-0.0046770632423291,-0.0025708649087946,-0.9999844069783264,0.0650842447602539,0.000436263700051,9.816447140237962,0.0184444843638632,0.051066824954505,-0.0056056779588794,3.4687824301800894,5.043258108559469,2.0528129682746408,1128.4251508726923,1157.409436340207,1141.5738630540152,1124.6490448395955,-479.9958440144269,372.8049248639635,206.55535437960177,-360.7251837634412,152.76406675087264
9.99,-1.2920749668696827,-0.620558537896888,-1.4527281165609276,0.020581176927144,-0.0292740852160869,0.0310836901920759,-0.0015465186646664,-0.0046604376022341,-0.0026093576892329,-0.9999843844133752,0.064294933799164,-0.0030669645734327,9.815808532513502,0.0186329536491586,0.0510695332849903,-0.0055446421074447,3.468821780991227,5.04338566159176,2.0527964858056276,1127.2129209685359,1157.7826302478556,1141.9960812492423,1123.8329378641783,-485.8619710869392,-102.4402226523056,165.42353549365197,-272.7622483743832,152.76417463889888
9.9925,-1.1561455698482428,-0.5819433240384203,-1.325929923557556,0.0150832028166795,-0.0298274493623917,0.0247948451800334,-0.0015440235437957,-0.0046535747533478,-0.0026452338764967,-0.9999843443751107,0.0636824431051678,-0.0062054212815198,9.814890469270958,0.0188309274844144,0.0510639526306861,-0.0054862237507355,3.4688613476908805,5.043511151602819,2.0527801791396945,1125.995841017258,1156.8972352269457,1142.4009807314833,1123.2852335977238,-370.68313460894046,-519.9329876670259,149.38510103308937,-101.73388418268816,152.76433210395717
9.995000000000001,-0.9227988145207098,-0.5947894478869705,-1.0597572793367531,0.0109903512216868,-0.0303434090325163,0.0204662603922431,-0.0015311738584798,-0.0046540010629754,-0.0026772638806297,-0.9999842938678992,0.0632705313210451,-0.0089035025875132,9.813736966111511,0.0190393113249262,0.0510535820815379,-0.0054320270415958,3.4689023810848925,5.043635713435413,2.052764834055364,1125.3595052954909,1155.18296530952,1142.7430067544078,1123.3242684432648,-142.38178378852857,-828.313993584841,151.35366542042357,137.5412017597922,152.7644860074539
9.9975,-0.5906966979645164,-0.6337968995252994,-0.6698069676453635,0.008298714124178,-0.0313541558586528,0.0173902535563146,-0.0015120633435402,-0.0046576469637218,-0.0027065005469192,-0.9999842407470904,0.0631106865755862,-0.0110754388287931,9.812398681222286,0.0192583143200689,0.0510413992042063,-0.0053841487650584,3.468944994644885,5.0437602524980845,2.052750678624809,1125.2839320983153,1152.7556652590208,1143.1577490585855,1123.9729396065227,115.50677573166035,-1147.4566237382087,198.8188473858768,427.81687898927294,152.76466241367797
10.0,-0.1340670901842721,-0.6731437550564296,-0.1346079640758621,0.007352859871586,-0.0335684664294888,0.0158306504200566,-0.0014903882333784,-0.0046581042506232,-0.0027373729104292,-0.9999841960345774,0.0632984331615271,-0.0126544304771078,9.810932496618744,0.0194876866675836,0.0510297465908389,-0.0053449175290259,3.4689887738913585,5.04388503501311,2.0527377030609286,1125.937039174149,1149.4456821908302,1143.737100991337,1125.4633528382108,359.3570541431551,-1219.939028120522,215.26278218557044,651.3288876815682,152.76489856961277
10.0025,0.2481769578146764,-0.6710646098712945,0.3024053125549837,0.0084388345497272,-0.03635481360894,0.0168445601096726,-0.0014710281151185,-0.0046512812193769,-0.0027728032435382,-0.9999841627366876,0.063883352181732,-0.0135604083806501,9.809400536577053,0.0197263987552237,0.0510205165369416,-0.0053167174875419,3.46903382649528,5.044010736827556,2.0527257505425855,1127.0807173690307,1146.6559701184194,1144.2340629695132,1127.22958404493,553.86395271958,-1064.7674935966888,181.61771789229425,782.0032825828235,152.76511440345243
10.005,0.5856067201887777,-0.6110046115046796,0.6571004852526094,0.0106701230483857,-0.039572590007881,0.0199860259678837,-0.0014565487878002,-0.0046371091813787,-0.0028149656404704,-0.9999841307906248,0.064836965084147,-0.0137679487174662,9.807869504408592,0.0199728356228718,0.051015255119568,-0.0053014008718102,3.4690798327834487,5.044137593355962,2.0527146913226986,1128.7063589377472,1144.121844722846,1144.6451895807986,1129.3733692511255,770.1804211620743,-1011.9133817235034,136.8112523169898,975.6981377854864,152.7653481160366
10.0075,0.907659917409516,-0.4768190437686772,0.9325284839004172,0.0139163497440879,-0.0426551352838681,0.0245939591023499,-0.0014482088723985,-0.0046153172879583,-0.0028632262283077,-0.9999841014328282,0.066136674243311,-0.0132857917920386,9.806409381541137,0.0202246253058942,0.0510153951428877,-0.0053004163772613,3.4691270156921643,5.0442659518025215,2.052704008147958,1130.9316194748417,1141.596403209801,1144.9181192310982,1132.1080747338583,812.262698902921,-821.7005403641267,49.95573211495951,985.1745517057363,152.76564671952625
