t,ang_acc_x,ang_acc_y,ang_acc_z,a_vel_x,a_vel_y,a_vel_z,quat_x,quat_y,quat_z,quat_w,acc_x,acc_y,acc_z,l_vel_x,l_vel_y,l_vel_z,pos_x,pos_y,pos_z,mot_1,mot_2,mot_3,mot_4,dmot_1,dmot_2,dmot_3,dmot_4,vbat
0.0025,0.1330285771158273,2.4173971909406133,-1.2905039795621855,-0.6383759064734466,-0.0087278703642474,0.0310900882543348,0.0362333510645528,-0.0055335441834068,0.0402168771503031,0.9985201787129052,-0.0553555008312424,0.0718786852792553,10.787210206086883,-0.0151309623810344,-0.1908502412935979,0.7511281840019935,1.3978348596778591,4.234017895707249,0.2154074453511993,1188.7756804277908,1224.053699619669,1198.9731488560583,1175.3911960302098,-28.256001147110506,6.24956029760142,-65.1005264966443,-455.40236997176174,156.81304657148593
0.005,-0.3460355858014548,2.8118109155136444,-0.9765089268429697,-0.6407205904290191,0.0004075403162125,0.0281175054634457,0.0354192694255727,-0.0055386249856372,0.0402950794606652,0.9985447201183468,-0.0583454341137853,0.0633709350850694,10.819141954517308,-0.0156259620484613,-0.1933911455177635,0.7533850700075481,1.397812836980784,4.233401794397811,0.2172693719843095,1188.705040424923,1224.069323520413,1198.8103975398167,1174.2526901052804,-39.93286176432776,15.736706712596062,-227.22568838889856,-207.36746963712,156.82326019135252
0.0074999999999999,-0.7695666780043529,3.0086526886332656,-0.5904869881576831,-0.6442874366625814,0.0102366319733895,0.0268598689311803,0.0346030086198008,-0.0055483233001039,0.0403696823212747,0.9985693093727208,-0.061208020123142,0.0547650424427228,10.851127183957905,-0.0161177106298551,-0.1959439729209196,0.7556487947880115,1.3977922533174876,4.232784606660693,0.2191309312541044,1188.5760161189692,1224.132383153232,1197.8370204141136,1174.3543586820242,-93.12954028309832,10.065197869562324,-469.1024932267737,261.6462492563642,156.8348215138217
0.01,-0.964413238243409,2.962931394428688,-0.3075597252526768,-0.647321993826589,0.0168528790942372,0.0273826359353951,0.0337896196733997,-0.0055625576777191,0.0404414025973059,0.9985936467654009,-0.0639094405455497,0.0462174142182066,10.883192567566612,-0.0166096703832279,-0.1985008750133455,0.7579325595591829,1.3977731439886447,4.232165780403526,0.2209923117157288,1188.2393927235075,1224.1196495097608,1196.4648850736828,1175.5609213515622,-216.6672085572827,-53.44581581907732,-623.9910060163764,646.4598767179722,156.84388731286006
0.0125,-0.978699982762033,2.7296294539125414,-0.0997185267772112,-0.650257956295504,0.0223244587739366,0.0285188132833723,0.0329840535544452,-0.0055790712921172,0.0405116762834939,0.9986174264432836,-0.0664530222681476,0.0378942502033029,10.915354642257395,-0.017109426216684,-0.2010532531413471,0.7602513063027351,1.3977553905785232,4.231544062769097,0.2228537019868406,1187.4926800761828,1223.8651540741366,1194.717065384032,1177.586658065614,-379.8664961924261,-166.24506510725044,-719.752199129198,870.3975482266742,156.852375284001
0.0149999999999999,-0.8411367698884454,2.3523365276047508,0.03996085227858,-0.6529658674119764,0.0275957060685565,0.0294392320240858,0.0321876751254539,-0.0055942565115289,0.0405817867939074,0.9986404953876385,-0.0688651953170352,0.0298908890287008,10.947613093012473,-0.0176269637806402,-0.2035970257974319,0.7626192981547065,1.3977397447008444,4.230918241710335,0.2247156050429971,1186.3400602425454,1223.2884241842244,1192.8661240780368,1179.9129090926956,-558.7011187696132,-325.8994286145025,-710.030387389861,900.6474118740242,156.8603931780672
0.0175,-0.5264165025129696,1.7995252154897592,0.1098307518304745,-0.6554618206218698,0.0332476785639183,0.0297763875409954,0.0314002908053486,-0.0056082154688521,0.040650263020409,0.9986628647747277,-0.0710831338028981,0.0222667685555906,10.979945414591564,-0.0181653093309276,-0.2061300757418285,0.7650500195091304,1.3977263794700767,4.230287320308639,0.2265794908409533,1184.6991744823347,1222.235656931064,1191.1669134470826,1182.089895124984,-816.3324145060412,-575.6716597755257,-645.5848835785217,804.159492665576,156.86785498456103
0.02,0.0344758364034367,0.9317624145979796,0.1389756015588993,-0.658127748174605,0.0400553890985486,0.0297642703939714,0.0306254964019034,-0.0056273828281099,0.0407142773131073,0.9986844606418392,-0.0728937429112058,0.0151577329045298,11.01230300699231,-0.0187162452892868,-0.2086443839693975,0.7675576507504904,1.3977151918940816,4.229650966748566,0.2284469040365278,1182.2583981700152,1220.4100658853467,1189.6381996601442,1183.9337065560235,-949.07698647171,-751.7031389324987,-435.39076563943144,485.4496220539206,156.8761798334708
0.0224999999999999,0.6213249025850043,0.0593031397756681,0.1354135614327357,-0.6591961349445392,0.0443841504478509,0.0296873896438039,0.0298657604647152,-0.0056530620073191,0.0407701273613664,0.998705325086726,-0.0741917814734596,0.0086763963132683,11.044608945975932,-0.0192776841367576,-0.211133068467961,0.7701542740629274,1.3977050050623192,4.229008919147852,0.2303196032414188,1179.953789549976,1218.4771412364016,1188.9899596188855,1184.5171432352536,-938.6782514216517,-834.7907664778174,-97.45213208007041,1.2314397184582047,156.88260242439867
0.025,1.2643518964820644,-0.8976844073341415,0.1178746460357634,-0.6577778604441838,0.0454031693811673,0.0297152346778675,0.0291216871606731,-0.0056847127711506,0.0408164841143511,0.9987254861679324,-0.0749142080207222,0.0028914693108016,11.076758667744826,-0.0198499672748358,-0.2135918802529369,0.7728492144101933,1.3976942541646604,4.2283617064780925,0.232198831134158,1177.5650069129067,1216.2361120529579,1189.1509389997439,1183.9398637546155,-1016.3963405083448,-1025.478535901311,270.9389963548801,-509.7326128859548,156.88850203158444
0.0275,1.994774796996528,-2.008421854979314,0.0906999954166614,-0.6525554541630713,0.0413272815534248,0.0298084698828803,0.0283905778349947,-0.0057240036845481,0.0408549161148282,0.9987449514963864,-0.0749558386281692,-0.002209962434995,11.108622445462853,-0.020429896946017,-0.2160219319062858,0.775648277808402,1.3976817355129427,4.227710237103773,0.2340856997223527,1174.8718078474344,1213.349748556895,1190.3446546006599,1181.968480170824,-917.3229758843268,-1071.0422166546782,597.1568416336144,-897.6776188480477,156.8949900991024
0.0299999999999999,2.48872967203706,-2.7884974279470556,0.0670599949613747,-0.6453115050379651,0.0332677356825164,0.0298851581562625,0.0276688467664046,-0.0057734743106976,0.0408893072769227,0.9987636607903156,-0.0741994228338229,-0.0066701273343668,11.140047819208288,-0.0210123620714825,-0.2184260808079878,0.7785546677702186,1.39766641065182,4.227055693356763,0.2359807198338371,1172.9783920334853,1210.8809009696845,1192.136723207912,1179.4514756603755,-639.738778428318,-984.8749316264272,854.32255376445,-1121.3724568835455,156.89991354722247
0.0325,2.788123740749252,-3.3011787644057358,0.0448684051931478,-0.6359754709655074,0.02173732172132,0.0299268657811271,0.026951887373735,-0.0058276535882846,0.0409249786271182,0.998781569252069,-0.0727165822444998,-0.0105572633148228,11.170862283448695,-0.0216038573879867,-0.2208085958504537,0.7815687222351173,1.3976471753040436,4.226398990926784,0.2378840949269168,1171.6731139552928,1208.4253738987627,1194.616267369482,1176.3616178864063,-402.6728829884174,-1069.4502981456471,1195.4628946574746,-1408.422978455063,156.90434682002928
0.035,2.8869893327963942,-3.5418794124223685,0.0205902255820971,-0.6245754008343372,0.0069085358003743,0.0299180850017761,0.0262355364469815,-0.0058824556598848,0.0409638479567687,0.9987987518946247,-0.0705592305793961,-0.013944032411937,11.200879448935693,-0.0222059947852948,-0.2231735253956366,0.784688792783818,1.3976232230070336,4.225740380923946,0.2397958065160255,1170.9650276185432,1205.5336494789562,1198.1140376811993,1172.4093607681002,-107.7563557257236,-1049.3900737046265,1319.0998668437267,-1437.659660859527,156.90911329722044
0.0374999999999999,2.7667196763685493,-3.441426071113941,0.001573508174393,-0.616337347712614,-0.0042887228998271,0.029857342671276,0.0255184633847404,-0.0059351589683024,0.0410063074133091,0.9988152633854792,-0.0677607168798732,-0.0168539811865583,11.229904081509378,-0.0228166254824655,-0.2255205459431349,0.7879123743819713,1.3975946286774514,4.225079460417612,0.2417161795084691,1171.1343321766642,1203.1784235302396,1201.2117667037007,1169.1733195821087,212.47446864076676,-929.0944481627779,1213.4840750611152,-1240.023733384806,156.91263376632318
0.04,2.488218603640255,-3.1000713611943396,-0.0185365808728041,-0.6097367338743741,-0.0128065450544295,0.0297477343659823,0.0248032613143863,-0.0059863699869734,0.041050442699333,0.9988311260286952,-0.0642915108637456,-0.019238838047198,11.257737733185552,-0.0234267041876427,-0.2278430500925638,0.7912367554245696,1.397562030705574,4.224415103675474,0.2436461469444911,1172.027399961747,1200.8881772381424,1204.1814580565049,1166.209242101176,452.4433867652074,-902.8051803026749,1125.497308720286,-1125.6290857925696,156.91569688788698
0.0425,2.1297515798020314,-2.6363746198002738,-0.0424299977966213,-0.6043824672131368,-0.0188146309644666,0.0296171976631432,0.0240870284766412,-0.0060379780425808,0.0410894888657907,0.9988466905830587,-0.0601129237522614,-0.0211891982164427,11.284184542831214,-0.0240231676947226,-0.2301428547363971,0.7946547993907109,1.3975256234059314,4.223745959156011,0.2455872737003388,1173.3965491104902,1198.6643976287264,1206.839253247302,1163.5451741531458,621.5614863374416,-868.3559605869965,956.6698325530529,-992.7485035305384,156.91838921072394
0.0449999999999999,1.7381015417442018,-2.1176365531803825,-0.0754741993265863,-0.6005764845391595,-0.0223727670809312,0.0295163986585222,0.023366621837092,-0.0060895121098565,0.0411186100496637,0.9988622504646356,-0.0552576467295221,-0.0228120148514936,11.309055158534221,-0.0245980283559831,-0.2324214156932267,0.7981574231408614,1.3974855268513484,4.223071604430572,0.2475410861043237,1175.1352073934343,1196.5463974352072,1208.96480721927,1161.2454995835235,794.3915605056648,-897.0987239394167,801.3783662116117,-941.6148122287728,156.92064472906293
0.0475,1.3011956491453711,-1.5205388613142587,-0.13164695050573,-0.5976370659712497,-0.0250897841458643,0.0295222452166739,0.0226443353588736,-0.006140228399353,0.0411378187125941,0.998877771016172,-0.0497782587412397,-0.0241029467695604,11.332171080270877,-0.0251466340391061,-0.23467083729011,0.8017367524150663,1.397442731368634,4.222392010412608,0.249507534915081,1177.3685069130183,1194.178904009029,1210.8461450783602,1158.837100092002,805.1755551618492,-827.922168655322,588.4663535251542,-840.0844241995392,156.922860036548
0.05,1.0031518567551725,-1.0799342338771167,-0.1945102300227941,-0.5963529186858215,-0.0268193052816413,0.0295675639582027,0.021924904187305,-0.0061897201994901,0.0411505643965174,0.9988930159875418,-0.0437339398241455,-0.0250136064577647,11.353368828479683,-0.0256665548256412,-0.2368788251793434,0.8053853371852989,1.3973989241387788,4.221707117841157,0.2514862682845979,1179.1610851692435,1192.4067865919308,1211.907138986896,1157.0450774625256,663.9759917952236,-649.6252269782875,341.9812841012573,-690.7003875014656,156.92430692151416
0.0524999999999999,0.7972876001337031,-0.7119270754398546,-0.2711134559512994,-0.5958636274531097,-0.0282913898384721,0.0294131672589999,0.021210842973454,-0.0062375734572264,0.0411599767560136,0.9989078139750922,-0.0371989320852007,-0.025556812458274,11.372503292242651,-0.0261566712610311,-0.239036607621187,0.8090943955550143,1.3973560528744906,4.221016839704614,0.2534764325795773,1180.6883868719947,1190.930777874138,1212.5560514988665,1155.3835981544946,577.4220441388028,-557.9047924476074,215.00481905563916,-714.799309473165,156.92535192668095
0.055,0.6515304457237616,-0.3483094030012171,-0.3668305063301969,-0.5950833382388736,-0.0296144864543288,0.0287552978829743,0.0205089121040671,-0.0062879170052541,0.0411681920407201,0.9989219106106948,-0.0301503991025712,-0.0256626950230035,11.389449732366188,-0.0266088854796505,-0.2411291944858595,0.8128573825435974,1.397314265295463,4.220320822415535,0.2554783972513305,1182.0481953899375,1189.6172626296927,1212.982163082174,1153.47108091516,405.3969110570957,-390.3766111981892,107.69472852366552,-688.9336876686224,156.92615615672426
0.0575,0.5917263531070702,-0.1005929579205134,-0.4365789919901469,-0.593622368537844,-0.0302912709578134,0.0277129258791632,0.0198218958579428,-0.0063427282508755,0.0411764801303373,0.9989351833079791,-0.0226256250650419,-0.0253570637239542,11.404105206184237,-0.0270191491882969,-0.2431485878877908,0.8166661343536327,1.3972719098089357,4.219620091051381,0.2574931192922679,1182.71537142728,1188.9788948181467,1213.0945251414848,1151.9389297161515,165.70153592942924,-151.34978764058368,-4.151240893952492,-589.2698395867686,156.9264625882312
0.0599999999999999,0.559791728543331,0.101335231254557,-0.4792521261848107,-0.5915928436714847,-0.0305255899446535,0.0262090302311328,0.019147025228519,-0.0064023737377854,0.0411868743846498,0.9989476010576792,-0.0147097380358724,-0.0247955788100523,11.416389644990288,-0.0273874463060736,-0.2450967906502825,0.8205103470860543,1.3972277607114825,4.2189160550818805,0.2595200197743011,1182.8767030695847,1188.8605136914898,1212.9614068777043,1150.524731717226,-37.24606218115698,60.235993136848286,-123.56313866130228,-569.8673651248558,156.92640490226847
0.0625,0.5185041842550909,0.3000095812612153,-0.4850264676086046,-0.5892080474660943,-0.0302612787569978,0.0242867464628947,0.0184758194023903,-0.0064647749886123,0.0412006271459955,0.9989592918696673,-0.0065520639950264,-0.0242644751574169,11.426246264980408,-0.0277184592468062,-0.2469865078499282,0.8243776612039568,1.397181563187307,4.218210272428334,0.2615572225699404,1182.5291411163744,1189.2800747838312,1212.4767094481783,1149.0895928905272,-205.0609685525613,226.2496134895171,-240.5737029373538,-460.9843761092175,156.92593064082885
0.065,0.4655938707662043,0.4321680696535971,-0.4476940203639501,-0.5875238125400442,-0.0295100620333528,0.0229694697618799,0.01780011043968,-0.0065254631247241,0.0412182762384932,0.9989704205716232,0.0016429796598697,-0.0240397779273769,11.433641128574807,-0.0280213003719502,-0.2488313803070026,0.8282566856954457,1.3971341595881364,4.217504175834275,0.2636029369541218,1181.8513982268219,1189.9917617589374,1211.7585383630176,1148.21980983668,-332.2919931621979,317.047821340702,-362.2630049879714,-259.5301414217372,156.92520950068567
0.0675,0.3845661443363228,0.5300070762756107,-0.3669366083178476,-0.5863257412179806,-0.0280887280311549,0.0220306941266806,0.0171187058624413,-0.0065844465912549,0.0412409684409148,0.9989809618645225,0.0097810133113443,-0.0242373026993032,11.438562185492186,-0.0282985514470937,-0.2506350702032194,0.8321404638511714,1.3970860701838124,4.216797964103508,0.2656568198893002,1180.8676811505632,1190.8653138905347,1210.6653944232385,1147.7919421834183,-427.3953905029426,335.39134783513845,-504.0894919619855,-92.625533336195,156.92416348005713
0.07,0.2782277433443928,0.6002861567997227,-0.2516243017363551,-0.5855318402144961,-0.0260771590897176,0.0212219000967207,0.0164312320639775,-0.006643424833561,0.0412714642343437,0.9989907944859944,0.0178103647731431,-0.024946800940213,11.441018887929248,-0.0285516739442651,-0.2524007440105319,0.8360230749954549,1.397038974690137,4.216091188767444,0.2677190252704772,1179.7144212743071,1191.668718498113,1209.2380909032076,1147.756682169999,-479.82942415128576,253.99827481410327,-650.7060745148932,68.69898996251335,156.92285764686972
0.0724999999999999,0.1404282396661701,0.6455649392218575,-0.0967171937856464,-0.5850986861857043,-0.0235574712213691,0.0205456106926024,0.0157385785973539,-0.0067033333902304,0.0413119522248421,0.9989998012135733,0.0256687949504385,-0.0262166372202426,11.441041564708904,-0.0287836843824351,-0.2541300366018089,0.8398994136784173,1.3969943199136232,4.215383612576658,0.2697888641149229,1178.4685340298067,1192.1353052646052,1207.411864050664,1148.135437133231,-541.2553443011813,74.41527738278651,-882.2637488405251,223.90913558624604,156.92124961227225
0.0749999999999999,-0.0632403408641446,0.6985831637458925,0.1288407945941766,-0.5849573952043394,-0.0207085813860581,0.020134195889436,0.0150386608594511,-0.0067612483526821,0.0413592843021858,0.9990081561425752,0.0332111446302504,-0.0281452892578279,11.438681527878712,-0.0290017566386416,-0.2558301230726018,0.8437625038221948,1.3969518847339153,4.214673987006451,0.2718670207176668,1177.0081445528012,1192.040794885027,1204.826772159005,1148.8762278479303,-513.0768326083394,-167.60849409092756,-993.222522806217,280.463028035683,156.91898429394757
0.0774999999999999,-0.2665980564891697,0.7745874236117676,0.3408913197216799,-0.5851932277867969,-0.0191529021088366,0.0202859263670604,0.0143295114763763,-0.0068115996511453,0.0414106753644026,0.999016034863294,0.0402391755521914,-0.0308082947107952,11.434010546431264,-0.0292176829572765,-0.2575082803449873,0.8476047387431488,1.3969112208816643,4.2139609453229525,0.2739560385692673,1175.9031498667653,1191.2972627941504,1202.4457514366327,1149.5377522734095,-408.87659242421216,-443.2894730246513,-965.3535935416576,228.0559496934982,156.9168263326034
0.08,-0.5057321940978081,0.9278347521912124,0.5609407046494297,-0.5859602652968842,-0.0185964256425314,0.0211131453067572,0.0136138523486574,-0.0068510061321602,0.041465481618768,0.999023439303832,0.046616613203339,-0.0341560869706953,11.42711977968279,-0.0294400359409245,-0.2591644824969256,0.8514203201733586,1.3968713331649467,4.213244610052389,0.2760580871670579,1174.96376159068,1189.8243475199035,1200.0000041912967,1150.0165075963976,-379.2082080404722,-800.3632229451789,-1047.0500433946645,136.141325748349,156.91439875481151
0.0825,-0.8317944354398905,1.2347285004675057,0.8077183597686224,-0.5872829281252206,-0.0180505305084847,0.0230006919305861,0.0128964334621088,-0.0068804729461328,0.0415266754597647,0.9990301623143456,0.0523165535439139,-0.038075549895994,11.418119079946987,-0.0296710925757595,-0.2607960744564199,0.8552042496428864,1.3968309407474533,4.2125261967128,0.2781747296924516,1174.007108826563,1187.2954466794247,1197.2105012196596,1150.2184589021513,-333.9200886185605,-1027.8194202445763,-969.3862719810559,12.581842556983236,156.91118588605744
0.085,-1.1298911698046157,1.5923980586671955,0.9772911761332476,-0.5885287619714871,-0.0168228792637221,0.0252678203781864,0.0121799305171197,-0.0069005949917557,0.0415963902317919,0.999036065496788,0.0573087007322036,-0.0424787131679609,11.407136735366867,-0.0299126707018455,-0.2624048785212556,0.8589505001852535,1.3967889619227944,4.211808274438074,0.2803054508019462,1173.2941611475871,1184.6852504186809,1195.1530728313915,1150.0794168091827,-285.30821500771685,-1105.1830372242866,-740.2872855082016,-87.60686376676851,156.90826706832195
0.0875,-1.4351408463387227,2.0202405398891448,1.0843909895957449,-0.5903184582363477,-0.0136426220500757,0.0280400837935425,0.0114646089272684,-0.0069086418042212,0.0416738471512512,0.9990411890427712,0.0614925916108998,-0.047307217866261,11.394318633154494,-0.0301700994479361,-0.2639976848994908,0.8626522534302069,1.3967441947103587,4.211092763077958,0.2824484681477568,1172.5805677515243,1181.7695314933032,1193.5090647921184,1149.7804245833174,-330.6309209330727,-1296.0897374443928,-606.5966247500467,-105.272086649393,156.90510751264395
0.0899999999999999,-1.7615704701192683,2.539688531722044,1.1164652866601104,-0.593814621137087,-0.006546182755182,0.0317651453358142,0.0107463125463987,-0.0069000327250676,0.0417554839226547,0.9990457602147758,0.0647290631706963,-0.0525795622680893,11.379826639112355,-0.0304502119956757,-0.2655894893728596,0.8663012554452199,1.3966963467221636,4.210380789002928,0.2846011909089083,1171.641006542922,1178.2048017314587,1192.1200897076412,1149.5530563759355,-364.39481075208346,-1275.8180538375225,-402.5661119327204,-12.952618514191297,156.90104907789583
0.0924999999999999,-1.9497540167395235,2.9182540163709647,1.0504948563133483,-0.5980101523435634,0.0017858056998304,0.0351586364225038,0.010021148022031,-0.0068696836902316,0.0418372331326235,0.9990500347039072,0.0668747589984789,-0.0582866689584818,11.363836269338508,-0.0307602665707111,-0.2671947951702186,0.8698904335842003,1.396645836080996,4.209672094775732,0.286761891715917,1170.758593697764,1175.3904412241156,1191.4962342324548,1149.7156614907465,-373.39605038678167,-1046.8354993156015,-134.0697137552978,180.84877231608496,156.8974528120515
0.095,-1.981429734677982,3.189750606438304,0.8841612828248814,-0.603777364540764,0.0115016986436109,0.0385873928001888,0.0092923180564659,-0.0068178320036404,0.041916084602562,0.999054113903642,0.067920426928587,-0.0642449981806951,11.346533745675204,-0.0310984690510329,-0.2688152746256339,0.8734176577556344,1.3965929697906123,4.208965950572056,0.2889304643856321,1169.774026290988,1172.9706242348807,1191.4497411388647,1150.457300237516,-406.1168513635945,-872.9260432106904,74.87580649253678,404.8471404058088,156.8936439644388
0.0975,-1.83572464559821,3.3610315913101814,0.6433371312931736,-0.610855726316453,0.0213012489765079,0.0414825488095301,0.0085658392673285,-0.0067477533715703,0.0419909239674773,0.9990579763807044,0.0679341886886317,-0.0701962180814841,11.328114482861956,-0.0314588202500899,-0.2704461638402411,0.876883162883371,1.3965385607913277,4.208261490144772,0.2911068303256879,1168.728009440946,1171.025811008062,1191.8706132649177,1151.7398971927755,-423.2518603798322,-635.7971389742028,268.5073368940264,630.22996038494,156.88966612551675
0.1,-1.445724131143106,3.4307936446739498,0.3395617045322812,-0.6182494873841419,0.0299035263300118,0.0432100394449751,0.0078494839293272,-0.0066684742216986,0.0420578863869477,0.9990616655970528,0.0671223314360611,-0.0758389781135959,11.308780748097544,-0.0318239418823734,-0.2720780797297809,0.8802888237636483,1.3964835887662095,4.207557321790755,0.2932908681491346,1167.6577669890887,1169.79163854001,1192.7922778233349,1153.6084500394409,-459.7198079640744,-355.77988977693127,490.2398956993688,909.7316919200684,156.88549332552324
0.1025,-0.7156302968512396,3.4445857841330327,-0.0478702318802466,-0.6250757271649576,0.038398130936957,0.0437636763492219,0.007148343586781,-0.0065886833161673,0.0421123460800332,0.9990652876935608,0.0656863850120313,-0.0809287317952069,11.288740342256949,-0.0321771077598456,-0.2737038993733221,0.8836352440176,1.3964290182638919,4.206851573063871,0.2954833128089329,1166.4294104011256,1169.2469115591775,1194.3218127434145,1156.2885556523759,-428.56711049007646,-38.23831245308617,599.4501721599602,1007.4432917072064,156.88027200132703
0.1049999999999999,0.0501353705857364,3.427902482876705,-0.3484739149263396,-0.6275861923409012,0.0448811806372475,0.042681942502963,0.0064643119480781,-0.0065130797191764,0.0421516171070155,0.9990689241472256,0.0637402023879753,-0.0852908862116578,11.26820464267316,-0.0325102347449597,-0.2753192168930779,0.8869210844684238,1.3963754995130915,4.206143203830374,0.2976850286959679,1165.5149314366383,1169.6004469777445,1195.7895286841347,1158.645666497977,-332.5317810117673,299.202021010388,584.1368795989649,910.8637800673948,156.87575106568397
0.1074999999999999,0.8675764532198059,3.393991098360618,-0.5811991455517383,-0.6254190042983037,0.0518946792367395,0.0400811580294772,0.0057984710745196,-0.0064470661948271,0.0421743639385741,0.9990726049026368,0.061418996420639,-0.0887765459346524,11.247385409859625,-0.0328150478530844,-0.2769187317280057,0.8901444694315263,1.3963238250551044,4.2054316987765885,0.2998972045325635,1164.7667514960667,1170.7429216642295,1197.242497141409,1160.8428745527128,-288.90445941442493,652.3470068337696,590.2178463487866,881.4931897743454,156.8710643221999
0.11,1.7729559980604652,3.3178792753182815,-0.7522471224639282,-0.6173335679035006,0.0611282669449403,0.0363144751372706,0.0051500647376583,-0.0063941729216241,0.0421802845430144,0.9990763419824644,0.058820814697801,-0.0912881833864978,11.22649223767578,-0.0330873236773172,-0.2784982173438623,0.8933024151809956,1.3962738864920792,4.204716329400306,0.3021207999066088,1164.0704091395664,1172.862182011913,1198.7406179158786,1163.0531324468486,-229.24511683772812,866.4054453742201,483.96231898509495,724.0778626146487,156.86526128381556
0.1125,2.398404712556699,3.2037186821987262,-0.8040658113260948,-0.608055167888995,0.0691279514914363,0.0335508102542684,0.00451567853093,-0.0063540609922119,0.0421723486165238,0.9990800489241258,0.0559613815704134,-0.0928003600130768,11.205729494194204,-0.0333316012040372,-0.2800560920426266,0.8963905686607492,1.3962246213243568,4.203997051041617,0.3043565627014688,1163.620525911878,1175.0749488911003,1199.6623087363348,1164.463263865786,-171.7435378833214,928.5706581899368,285.63469787723056,480.3068315391097,156.86028602043703
0.115,2.8781063742961055,3.0110507573554988,-0.7815345701590316,-0.5991581473187118,0.0771360188686117,0.031608759287378,0.0038905071231632,-0.0063194644379414,0.0421561501615675,0.9990835769500386,0.0527081735663646,-0.0933319305163998,11.185293015449108,-0.0335661739689282,-0.2815914570756984,0.8994042124744749,1.3961746391588403,4.203273885833531,0.3066048270902699,1163.2116914501498,1177.505035302863,1200.1687914052648,1165.454666604544,-198.59972709182313,1064.0464692446576,123.99913690064739,367.3175741460451,156.85517819442668
0.1175,3.3440146418994443,2.668029885664177,-0.7015808034876057,-0.5901847680269409,0.0864545849891101,0.0300983221535314,0.003269557060508,-0.0062817349501156,0.0421369274592618,0.999086800289498,0.0489072528327567,-0.0929273436212949,11.165365441349005,-0.0338115202672849,-0.2831030293078544,0.9023397179030352,1.3961232298374513,4.2025475059263915,0.3088644438841144,1162.6275272764187,1180.3951812373239,1200.282304420838,1166.2998517365163,-247.61964723115895,1023.4701717464324,-38.52263712965402,277.391846203273,156.84891031318787
0.1199999999999999,3.7020146868362263,2.285053987344192,-0.6116097017055849,-0.5837763812281312,0.093498520763335,0.0292460944909463,0.002649620306744,-0.0062332138090873,0.0421196285105316,0.9990895885620392,0.0444380992708425,-0.0916169325739715,11.146111765550447,-0.0340860454128634,-0.2845861208751668,0.9051963081768242,1.3960702409172907,4.201817839124404,0.3111339699101024,1161.973593213994,1182.6223861615952,1199.9761782196165,1166.8416258355603,-305.55365435034275,832.7549521783584,-204.9575634956913,207.5471685024244,156.84358292116266
0.1224999999999999,4.085502277575355,1.8140578404180017,-0.5116384131052094,-0.5773405207214029,0.0992526300828536,0.0284564218464903,0.0020265433260518,-0.0061652008808769,0.0421058879391271,0.9990919578371594,0.0391657068586939,-0.0894772015303076,11.12767495849414,-0.0344083815319866,-0.2860379753488808,0.9079747967291428,1.396016032451392,4.201084334339507,0.3134120814967973,1161.0997590046672,1184.5589559982157,1199.2575166033596,1167.3375875790284,-379.7257560389422,727.343119966917,-359.4948285236111,200.88200869449773,156.83816142251254
0.125,4.503132788675074,1.2923782580332432,-0.4058943552862572,-0.569742982798289,0.1035413114209738,0.0275195631334656,0.0014018633584943,-0.0060762388331273,0.0420966355477166,0.9990938903380062,0.033130093889042,-0.0864908608934024,11.110171293502795,-0.0347834603127325,-0.287446542177184,0.9106819698477558,1.395961383863304,4.200347160497377,0.3156968623076463,1160.074964433799,1186.2591017614295,1198.1787040769984,1167.846035879033,-421.53162610184114,643.0103906647213,-526.9962475410007,207.91044265033617,156.8326726350035
0.1275,4.936650354608946,0.7474256640269887,-0.290914684904075,-0.5597106462819783,0.1058263645745451,0.0263571095053485,0.0007805487031337,-0.0059716147102155,0.0420939605369957,0.999095269861321,0.0265312474404476,-0.0825959965786239,11.093686690104827,-0.0352045552138121,-0.2887947000608392,0.9133293036469728,1.3959069502343815,4.199607345560441,0.3179853888133901,1158.992100874158,1187.7740079515393,1196.6225353656544,1168.37713979228,-440.9503428557396,664.3718761147733,-806.5773923133285,231.642509423318,156.82711530005375
0.13,5.406952583041911,0.118831359778431,-0.1416663289773691,-0.5447300764579625,0.1062002068577379,0.025019092688523,0.0001688494999598,-0.0058582665566053,0.042100362508849,0.99909595223624,0.01961295669046,-0.0777270603265117,11.078274076374504,-0.0356621513151681,-0.2900641640274274,0.9159311566274956,1.3958529444721006,4.198865293744133,0.3202763625226215,1157.8702127195206,1189.5809611420036,1194.1458171154316,1169.0042484261496,-339.9064924089541,691.296527994063,-1013.8205174631812,219.50663642164707,156.82038238621817
0.1325,5.699805765037053,-0.3513651813112341,-0.0141435005736008,-0.5304961290674897,0.1046704508158788,0.0243927057256265,-0.0004306251551845,-0.0057416870822572,0.0421179549752539,0.999095823053921,0.0125890619550964,-0.0719177885011925,11.063951396222661,-0.0361494431027086,-0.2912446251521254,0.9185010866051032,1.395799013510305,4.198121704765144,0.3225691192796308,1157.2925684121133,1191.2304905915096,1191.5534327783387,1169.4746729743883,-108.5838575204888,714.4349484750358,-1140.201469243856,164.7918904235665,156.81472840581338
0.135,5.83145697218945,-0.7440015753869864,0.1005995647511931,-0.5156669584394077,0.1019832093027974,0.0246668285318561,-0.0010183419076784,-0.0056246265323886,0.0421493160480652,0.999094767769156,0.0056147974821163,-0.0652829919110782,11.050700931105135,-0.0366651213368347,-0.29233286342321,0.9210512517894884,1.3957452322374344,4.1973775874393935,0.3248639708945059,1157.327293431918,1193.1531358843788,1188.4448097692125,1169.8282078782674,199.385381519596,913.1926066357656,-1458.3783730660327,110.98257357662068,156.80904077942938
0.1375,5.757472843430141,-1.1277094136133827,0.2021584197651398,-0.4978900097960842,0.0983353601126045,0.0258966043193655,-0.0015965830915129,-0.0055135178250985,0.0421962619093807,0.9990926846546264,-0.0010710619251415,-0.0579921697145095,11.03846998095388,-0.0372006671659933,-0.2933312164850808,0.9235925982139656,1.3956920688042138,4.196634303252508,0.3271624760988854,1158.2894953197112,1195.7964536246884,1184.2615409130085,1170.0295858422714,521.2969325770241,1011.4258451100786,-1572.4896169757344,21.871279491188012,156.80218855294865
0.14,5.483629375044633,-1.391169435198198,0.2468691753306357,-0.483391110960226,0.0954015236463829,0.0272370719904332,-0.0021686534951283,-0.0054144402366788,0.0422596672445555,0.9990895143742176,-0.0072364553861072,-0.0502436575017677,11.027173288646544,-0.0377473835980211,-0.2942458217137567,0.926134438977632,1.3956402867712139,4.19589385693756,0.3294655044220728,1159.9337780948033,1198.2102651099292,1180.5823616843338,1169.9375642757232,825.8387422928982,978.9401081213318,-1452.5160326477348,-108.53998348648008,156.7964636643708
0.1425,4.983996513120959,-1.6221763949976227,0.2507484918557522,-0.469958045265182,0.0927816384585172,0.0283833759244044,-0.0027354270066887,-0.0053286325770148,0.0423366616122945,0.9990853855382364,-0.0127538569427148,-0.0421803520444463,11.016696271533975,-0.0383025384578766,-0.295079880703811,0.9286857476365192,1.395589196734804,4.195156646182118,0.3317738836574185,1162.4186890311755,1200.691154165295,1176.9989607497698,1169.486885924839,1246.397750457851,1063.8659399206113,-1477.7373007149504,-296.1188162652902,156.79073202087207
0.1449999999999999,4.138581335912817,-1.8809236782070105,0.2231024885531195,-0.4560739755348333,0.0895204673995981,0.0292515175296669,-0.0032941081524701,-0.0052606992338324,0.0424227805067919,0.99908048016193,-0.0174206301532082,-0.0338660044863616,11.006899449161564,-0.0388550602539289,-0.2958313778146153,0.9312559778115592,1.395537675484241,4.194422320103242,0.3340889748743674,1166.1657668470923,1203.5295948095322,1173.193675180759,1168.4569701943967,1451.5489472448803,985.1130590409912,-1261.1452262503976,-461.54763683298586,156.78385511694515
0.1474999999999999,3.251856002093701,-2.0776730925748974,0.1889590961574536,-0.4466505445034223,0.0860638029067356,0.029527086621029,-0.0038439570337384,-0.005210104359004,0.042511706766617,0.9990750785561417,-0.0211544836883632,-0.0253996428990314,10.997623985422203,-0.0394014563759126,-0.2965026398501212,0.9338510405513532,1.3954853696473148,4.19369019484945,0.3364108887780342,1169.6764337674,1205.6167194605,1170.6932346185179,1167.179147740674,1410.0198510824598,739.2994388603249,-816.43256575071,-586.4449978787428,156.77813127712113
0.1499999999999999,2.2127047738065633,-2.2280613997356284,0.1615134108917724,-0.4395195544325465,0.0811317626963173,0.029422219480892,-0.0043850424754745,-0.0051725422615601,0.0425947548398247,0.999069576550342,-0.0239649076090004,-0.0168859453986022,10.988697966389717,-0.0399428942277032,-0.2970979204159255,0.936473987344704,1.3954322639753258,4.19295915906981,0.3387398953481909,1173.2158661025048,1207.2260920038339,1169.1115123520055,1165.5247452050032,1361.759365512488,538.7573808383872,-466.90930428608186,-703.1933997677237,156.77242141393472
0.1524999999999999,1.082055215910731,-2.310093128241616,0.1488106880064699,-0.4342738627525979,0.0748412225118669,0.0291205046033585,-0.0049215242895103,-0.0051429977495333,0.0426658058143029,0.999064245844838,-0.0258908545778062,-0.0085063696309831,10.979943822426367,-0.0404826772842371,-0.2976292498810893,0.9391231586470868,1.395378350664078,4.192228406009224,0.3410764374868748,1176.4852305949623,1208.310506364692,1168.3586880970875,1163.6631807418355,1180.622884656758,283.5356122143364,-114.5952396553638,-757.1333982672052,156.76672795670774
0.1549999999999999,-0.1021163540308876,-2.2786244117435923,0.1559440074248343,-0.4316288411703014,0.0676287452861945,0.0287992905466726,-0.005458676046204,-0.005115690993287,0.0427238692314797,0.9990591352373815,-0.0270008456874297,-0.0004507102867367,10.971185430975147,-0.0410275976202407,-0.2981107115284951,0.9417939442458868,1.3953233757522776,4.191498285924406,0.3434209773376227,1179.1189805257886,1208.6437700649055,1168.5385361537287,1161.7390782136672,956.9285552618559,-39.693339623045134,241.76357304972927,-808.0557881558427,156.76105981295694
0.1575,-1.4841681338671546,-2.0961563347155256,0.176894409756826,-0.4327330136886697,0.0594337970463891,0.0287851135484749,-0.0060008623781901,-0.0050877776753808,0.0427725386504099,0.9990540827793478,-0.0273118877156633,0.0071254113171704,10.962255213968607,-0.0415804569222734,-0.298555051777087,0.9444802603509814,1.3952665528939223,4.190770083841263,0.345774203105909,1181.2698733712718,1208.1120396665767,1169.567505962336,1159.6229018010563,603.6275250297416,-341.42611401712173,456.6704057584953,-710.5324679667312,156.7542941026254
0.16,-2.511594527686903,-1.837180827570246,0.1892722332974933,-0.4381013142986749,0.0539297353539336,0.0292971925609291,-0.0065502686508952,-0.0050582934156278,0.0428168857472888,0.9990488619169378,-0.0268140913900669,0.0141296774464676,10.953000512863888,-0.0421401031948019,-0.2989714166014148,0.9471754091737588,1.3952062753959515,4.190044885518834,0.3481372439930129,1182.137118150937,1206.93663949482,1170.8218881825212,1158.1864158738335,163.4627763444767,-586.810753865347,514.0341492819966,-481.43147114210433,156.74869079183972
0.1625,-3.2982514952766584,-1.5034723698025743,0.1752474602821917,-0.4477435002127779,0.0501208710362436,0.0302649953853248,-0.0071061323658735,-0.0050301816888066,0.0428604045858036,0.9990433051896525,-0.0254282026019933,0.0205474805683688,10.94328946245022,-0.0426958638996016,-0.2993641009507234,0.9498729496036694,1.395141169764223,4.1893235598654925,0.3505108440282086,1182.0871872529942,1205.17798589725,1172.137676708746,1157.2157444453455,-194.24344651329173,-839.697195779808,531.8048095012723,-310.83451109161587,156.74312897846625
0.165,-3.86926659887429,-1.065474906955428,0.1098309799402747,-0.4621494154342478,0.0471865594909232,0.0316559067448144,-0.0076694948722964,-0.0050059742317609,0.0429032816205667,0.999037372736762,-0.0231065401362194,0.026341120226168,10.933016555593701,-0.0432354640772862,-0.2997410064831734,0.9525640094989518,1.395070561377706,4.18860653157315,0.3528952817563341,1181.1659009183709,1202.7381535159209,1173.4809122300276,1156.6322433183755,-440.06374172440655,-888.8454657830598,432.9289258822424,-122.37906796390224,156.73650875630543
0.1675,-4.007551252076335,-0.6994499455605621,0.0111165005255364,-0.4750015920800844,0.0458536679887072,0.0327345272623728,-0.0082401905215902,-0.0049856877360252,0.0429438290781516,0.99903112291723,-0.0198760158830341,0.0315167469632128,10.922106186627008,-0.0437501934570717,-0.3001072295226723,0.9552394478771324,1.3949950317445847,4.187893680130978,0.3552894629227701,1179.886868544372,1200.7337585683347,1174.3023213381573,1156.6038491055263,-563.1658850677009,-726.1620235199636,273.9812064437044,67.86148053433857,156.73104106337772
0.17,-3.820970419573932,-0.3562995618282448,-0.1234352820473327,-0.4871267609029842,0.045546628948118,0.0332090872439062,-0.0088201477300494,-0.0049679203226511,0.0429789079867272,0.9990246639873251,-0.0158163419638567,0.0360495082183031,10.910516356112183,-0.0442339628882631,-0.3004709812284637,0.957888366816084,1.394915421279579,4.187183771444733,0.3576936911036873,1178.3500714930324,1199.107343398321,1174.850818262246,1156.9715507210472,-674.6834287504493,-570.204050244592,216.50650593091973,227.3790753213232,156.72562923340638
0.1725,-3.316584360735232,0.0195376736172292,-0.2986320323569572,-0.4988767566617531,0.0460249636383854,0.0325592458190414,-0.0094137224272707,-0.0049473793441874,0.0430085033686886,0.9990179674762872,-0.0111106303316661,0.0398770875426015,10.898240591935426,-0.044691278358308,-0.300843328844305,0.9604981473580856,1.3948332204615563,4.186475784006387,0.3601072931347243,1176.51345140062,1197.8827383171115,1175.384853867812,1157.7407444821329,-634.3050011981171,-309.82287651881927,211.8328801034293,315.73278287646616,156.71920504778507
0.175,-2.760291386098643,0.307940792011226,-0.4318867183132116,-0.5052905307026963,0.0466970066715502,0.0311968119658462,-0.0100226636199592,-0.0049144718697587,0.0430349014445755,0.9990109498234864,-0.0060468151978237,0.0430068407811433,10.885307656422068,-0.0451375393695511,-0.3012284811703376,0.963057801076415,1.39474965779015,4.18576897220591,0.3625299201063815,1175.1785464870416,1197.5582290157267,1175.9099826627632,1158.5502146354295,-462.9105469312457,3.23058939725344,268.2049064395427,336.87604635588445,156.7139137596378
0.1774999999999999,-2.18214805925224,0.5859958698988743,-0.5277929067800294,-0.5086355626481429,0.0473382235158628,0.0293655751672885,-0.0106459249801191,-0.0048621031587877,0.0430619822245561,0.9990034730493959,-0.0008664674482083,0.0455099147825796,10.87178104288079,-0.0455856888658838,-0.3016240351651764,0.9655588147519564,1.3946662530095095,4.1850626474973724,0.3649611668776688,1174.1988986659635,1197.898891264098,1176.7258784000096,1159.4251247139123,-339.011724125068,252.8601370059744,460.3379009022341,386.5785594598056,156.70869153969005
0.1799999999999999,-1.565787576663149,0.9238947643804906,-0.5841678136789762,-0.510623228655711,0.0482396212649621,0.0269199581064503,-0.0112824475032333,-0.0047895102615871,0.0430931848304572,0.998995389664794,0.0043178086394618,0.0474535191729822,10.85775757825714,-0.0460376999030613,-0.3020270058265273,0.9679939683718908,1.3945834929837704,4.18435641142295,0.3674003393095925,1173.4834878664165,1198.8225297007568,1178.2116721672744,1160.4831074327285,-196.3993583882255,370.39708080887937,640.2953557317227,390.5376935184901,156.70250986102383
0.1824999999999999,-1.1543692724680783,1.2101896755554808,-0.5806216264535515,-0.5115541177460678,0.0495170867238632,0.0249702473709515,-0.011927872836824,-0.0047047057573188,0.0431297935693907,0.9989866400804044,0.0095799047406203,0.0489667931493653,10.843363392885703,-0.0464782021124092,-0.3024281388138524,0.9703596961926574,1.3945010828083837,4.183650583449956,0.3698474269183916,1173.2169018740224,1199.7508766681424,1179.9273551786682,1161.3778131815047,-67.76309528158885,333.73703950610405,779.5982871469271,374.2664971903192,156.69743298601125
0.1849999999999999,-0.8508789108572358,1.4836869035717166,-0.5332317864398249,-0.5125972941023447,0.0520569361302117,0.0235650170318546,-0.0125771227587364,-0.0046178755335824,0.0431694854218581,0.998977321999257,0.0150360191588708,0.0501880808235805,10.828750250568,-0.0468863482898251,-0.3028167577281045,0.9726542723314084,1.394418545728586,4.182946241499492,0.372303401046762,1173.1446723900085,1200.4912148982871,1182.109663603009,1162.35443991868,-24.382715776391684,218.47054490194728,931.7916952642456,419.7431777489324,156.6924377657495
0.1875,-0.6145743523341876,1.7208240351036364,-0.4602270333718035,-0.5138419548207994,0.0560279180647576,0.0227117671487284,-0.0132266474015083,-0.0045307570331598,0.0432085796184164,0.9989676175402388,0.0206167783995893,0.0512242245309714,10.814091565466212,-0.0472579286051582,-0.3031842233665472,0.974875964899408,1.3943363333979444,4.182244116191254,0.3747680620245515,1173.0949882951406,1200.843229392652,1184.5863136549895,1163.4765290702492,-44.383664480210385,9.91952334125016,1024.8124860576345,501.67913007589914,156.68751324293345
0.19,-0.4183786668397579,1.879115809847257,-0.3673674012094329,-0.5152112190266747,0.0613889097585742,0.0222219389152842,-0.013875642149179,-0.004438729928702,0.0432462504750403,0.9989575876304728,0.0261175354750335,0.0521209304677996,10.799577721694854,-0.0476039111377774,-0.3035261773554351,0.977022701746071,1.3942553692484783,4.181545205007552,0.3772395316719727,1172.9227540676075,1200.5408125149936,1187.2337260332972,1164.8628355690596,-128.4744709321784,-300.14637269755406,1146.1069526721976,683.503158865596,156.68267722259225
0.1925,-0.1741430675248652,1.9457318502290264,-0.2389710718065672,-0.5169418769068097,0.0683497984040531,0.0215307265615843,-0.0145240382330764,-0.0043365894424604,0.0432840943889113,0.9989471910138182,0.031328087768313,0.0528994779256113,10.78540982599384,-0.0479386026069167,-0.3038391815147818,0.97909385202627,1.3941757903431626,4.1808496481777615,0.3797167903808141,1172.4526159404795,1199.3424975291643,1190.3168484183504,1166.8940448645772,-221.27117926625007,-565.2351879702105,1071.239354213366,803.5624052811265,156.6769800750104
0.195,0.0705584832804359,1.8909761879290976,-0.1177307893524146,-0.5182773637037394,0.0740052922538695,0.0208708649335198,-0.0151700084145091,-0.0042241459840457,0.0433220672462217,0.9989364681041568,0.0361554998804764,0.0536042036554493,10.771792663754129,-0.0482657872277951,-0.30411666629755,0.9810921531835984,1.3940965787045383,4.180156854014825,0.3821999849406598,1171.8163981712762,1197.7146365751423,1192.589922804364,1168.8806475954652,-297.71746551987206,-738.876250064731,802.1406356372147,838.0109666179569,156.67232329296627
0.1975,0.3821698709116099,1.7320620371937254,0.0178202586549336,-0.51902945723151,0.079091913047031,0.0204032179410055,-0.0158099482712608,-0.0041077216479322,0.0433610710186262,0.9989254222813566,0.0406585550420615,0.0543010034463775,10.758928139870193,-0.0485769545275397,-0.3043486907015588,0.9830238236572436,1.3940178423396288,4.1794658021994175,0.3846884476751064,1170.9640286128804,1195.6481162788407,1194.3275515965363,1171.0840996976672,-405.6969553480936,-937.3839572156605,604.0876464718616,985.571078345446,156.66776338332434
0.2,0.8350680192147623,1.452421744030752,0.1904492136448426,-0.5187156156608044,0.0841458031737905,0.0203059586271585,-0.0164387746022878,-0.003994691859083,0.0434004603122591,0.9989141502868952,0.0449291984453593,0.0550760146213908,10.747009510043963,-0.048860411780347,-0.3045223745708118,0.984897934101248,1.393940179227758,4.178775274009651,0.3871811468995635,1169.7879133945355,1193.0277167890642,1195.6103610367231,1173.8085029871925,-440.5376841341418,-925.6778416523495,324.67078520808144,984.7221631812307,156.66240608593813
0.2025,1.261882719450793,1.1765575926647065,0.3329592678862601,-0.5171577637268729,0.0872583679980552,0.0207373613693353,-0.0170494844179058,-0.0038934432666193,0.0434380629353124,0.9989028421954091,0.0490926220945125,0.0560459002749418,10.736215674266147,-0.0491011929275269,-0.3046212622681582,0.9867265125196136,1.393863727024658,4.178084622875352,0.3896777158993073,1168.7613401922097,1191.0197270705787,1195.9509055225767,1176.007710513573,-402.38235164501896,-704.7229388528187,-10.33842811748399,837.0709362614425,156.6580388196096
0.205,1.7031703644542806,0.8964163259390971,0.4583566915304138,-0.514080815956302,0.0891524348286922,0.0217998686897395,-0.0176403067466698,-0.0038028343921218,0.0434744863569141,0.9988915170561464,0.0530777289785034,0.0572156165277032,10.726708934409723,-0.0493049281061734,-0.3046384349231348,0.988519161855433,1.3937876669878684,4.177394974195962,0.3921777329205958,1167.7760016363106,1189.5041020948,1195.558668896136,1177.9938576684997,-406.24131327976977,-505.4350863179474,-316.09754771411616,805.4883578012317,156.65377409345092
0.2075,2.1921234928829088,0.5955358645659597,0.5701346462167631,-0.5086504937805447,0.0903225722834739,0.0237704148828046,-0.0182112717869774,-0.0037197980209345,0.0435107353277228,0.998880156036392,0.0567826644034847,0.0585473926270128,10.718629607531957,-0.0494811170877215,-0.304571093491495,0.9902853748366665,1.3937113086841004,4.1767072586780785,0.3946803753542568,1166.7301336258108,1188.4925516389892,1194.3704177840063,1180.0351523025795,-348.5327756367513,-222.5066474328752,-527.5803345619831,686.9442562024265,156.64877662849867
0.2099999999999999,2.5195794933280085,0.3941082945530269,0.6208728076979769,-0.5028382469060629,0.0907030850285861,0.0257526345819785,-0.0187649346451054,-0.0036401744311649,0.0435473508189891,0.9988687191622162,0.0600910999624522,0.059947182401189,10.712092930314983,-0.0496410557788475,-0.3044224327273123,0.992033776076128,1.3936344242283398,4.176021856771508,0.3971851414509113,1166.033337758127,1188.3915688576355,1192.920767223326,1181.4285789495118,-226.66108554049163,106.69149624500328,-638.8552367474433,496.60557206862234,156.6447132648568
0.2124999999999999,2.7100068456718542,0.254081389428806,0.6236250515701258,-0.4957671140928252,0.0908262026023293,0.027602009080249,-0.0193076270816806,-0.0035580176023336,0.0435853733724259,0.9988570794767666,0.0628561046250976,0.0612414965262415,10.707187237327664,-0.0497999550031654,-0.3042041526672235,0.9937708727821039,1.3935569027316983,4.175339321012966,0.3996921033690419,1165.5968281981084,1189.0260091202142,1191.1761416002691,1182.5181801629224,-118.1673747075364,356.84148147906814,-721.5946102535319,390.97239928973937,156.64075593979132
0.2149999999999999,2.7525547331509705,0.1634361307289718,0.5895546591646607,-0.4878304522547461,0.090939832200672,0.0291406290656346,-0.0198437931886862,-0.0034725579232557,0.0436258697514357,0.9988451208522436,0.0650529950153184,0.0622952277117889,10.70397047921984,-0.0499623444940116,-0.3039260113326465,0.9955045827342613,1.393478644541204,4.174659588520968,0.4022018787698701,1165.4425008845892,1190.1757762650311,1189.3127941720584,1183.3834409459605,22.158504006392807,551.1968492198771,-749.4606710063629,298.1905505534993,156.63688715593028
0.2174999999999999,2.592519726588349,0.1228341323310747,0.5180592617899646,-0.4791824144720052,0.0911868994218099,0.0303449002613332,-0.020376891615439,-0.0033852801735358,0.0436708277142024,0.9988326905614072,0.0667153225148159,0.062997875241979,10.702470420366128,-0.0501285003612521,-0.3035973041039426,0.997243073366824,1.3934004823842079,4.17398328548347,0.4047146488296349,1165.7076207181403,1191.7819933663136,1187.428838245237,1184.00913291569,227.55958163897935,764.6695610041654,-809.4610978014765,224.22616590779376,156.63312571798863
0.22,2.172132012214973,0.1155902800496934,0.3974934318390422,-0.4689418531943253,0.0916712805190236,0.0315838109199127,-0.020913160354808,-0.0032964270139047,0.0437209389202823,0.998819635549603,0.0678539256659561,0.0631892444210274,10.702686763063824,-0.0503005273094599,-0.3032343176921392,0.9989918573118968,1.393322898171369,4.173311245978621,0.4072308031469792,1166.580298792784,1193.999124070052,1185.2654886830508,1184.5045717754995,412.5849215811282,827.0784814407299,-762.0154449068643,140.10439970811592,156.62873665720008
0.2225,1.671858396771846,0.1325498851703607,0.2729882307981884,-0.4622905117386184,0.0921548848958857,0.032531541806772,-0.0214549941054229,-0.0032056071929221,0.04377760860807,0.9988058458334398,0.0684762728333638,0.0628028502457246,10.704590906097788,-0.0504816399729696,-0.3028469292837546,1.0007576064577504,1.3932460925319707,4.172644689586884,0.4097510669701108,1167.770545326046,1195.9173857735173,1183.618761020703,1184.7096549142307,554.7817007194221,745.5319442376542,-606.859625826018,40.40245582291387,156.62518328676188
0.225,1.104338229178534,0.1623795572145445,0.1299606542150895,-0.4595627215467575,0.0926625284904772,0.0332924604668331,-0.0220055072438469,-0.0031104159057456,0.04384059322399,0.9987912703590176,0.0685497356222506,0.0617717462944071,10.708129571728197,-0.0506778948666496,-0.3024476157848559,1.0025450466135775,1.3931700126129996,4.171985304104074,0.4122760018240415,1169.3542072963812,1197.7267837912402,1182.231190553921,1184.706584054614,742.9510005692912,736.7547627186461,-521.9472696683165,-42.773393387051286,156.62173827949755
0.2275,0.4632761214326857,0.2039998800291334,-0.0512838345064113,-0.4599717756321689,0.0932175432940359,0.0335239911317153,-0.022567810229205,-0.0030128947850405,0.0439071173915368,0.9987759527254492,0.068138352159433,0.0600392872818592,10.713226559674524,-0.050884474993943,-0.3020503041053525,1.004357770698996,1.3930940847095563,4.171334620602131,0.4148057735605344,1171.4853003288924,1199.6011595871105,1181.0090246723614,1184.4957879472954,774.5273925085705,619.4296645657681,-349.8927368800648,-100.71719761085652,156.61772967734393
0.23,0.0288452338864152,0.2382573176028677,-0.198941125345508,-0.4616077436582453,0.0936832876688435,0.0329802664666928,-0.0231416693589654,-0.0029167060832013,0.0439731471281624,0.998760058375227,0.0673453269267248,0.0576335677708697,10.719785309827564,-0.051091619251043,-0.3016626784786978,1.0062000396463568,1.3930173102958645,4.170692301199911,0.4173419517441435,1173.226844258924,1200.823932114069,1180.4817268695203,1184.2029980665595,631.9199400048086,405.806206798388,-80.75242668087405,-118.96717494810208,156.6144936982687
0.2325,-0.2603475588245194,0.26553966929399,-0.3308346964317482,-0.4631635442389041,0.0943020824406872,0.0320620696372461,-0.0237250998476693,-0.0028174677759496,0.0440335149797615,0.9987438634683852,0.0661037006018579,0.0546420346032689,10.72769375264786,-0.0513043857846246,-0.3012877586056613,1.0080751825101595,1.39293838311461,4.1700574365075775,0.4198860536913414,1174.6449000289165,1201.6301906211024,1180.605262538957,1183.900952072555,496.5738917100675,255.3454870176208,227.35337732210587,-99.01623777427622,156.61136615626464
0.235,-0.4277829221581634,0.2823820253101194,-0.4621281257790862,-0.4643945725007618,0.0954628677081438,0.0308573018733365,-0.0243182387303795,-0.0027103077132779,0.0440843757175014,0.998727541765474,0.064335058242604,0.0511198466822009,10.736827436938839,-0.0515293282400922,-0.3009315027723422,1.0099841205798612,1.3928567968166603,4.169428719844782,0.422438692664831,1175.7097137174744,1202.1006595491572,1181.618493756131,1183.7079168776884,265.437651971524,94.50303496091684,519.5507199054641,-13.91585523792854,156.60773832909106
0.2375,-0.4189949322756368,0.2797747014109114,-0.5449313895963004,-0.4652426466877008,0.0967580039487943,0.0297870709744859,-0.0249165772575034,-0.0025952776491271,0.044123782433362,0.998711283829644,0.0620719003148845,0.0472276796415086,10.747050127937293,-0.0517634605372331,-0.3005891761378181,1.011930334996288,1.3927725450029476,4.1688042482852605,0.4249996694701367,1175.972088288774,1202.102705795907,1183.2030161384844,1183.8313727963653,-19.621398510071323,-68.02546744879723,771.3710788080825,137.76805639313417,156.60481935075256
0.2399999999999999,-0.2577388865033453,0.2636846218321321,-0.5946102048144081,-0.4668739134498727,0.0979656502147901,0.0285482085878975,-0.025514067746992,-0.0024714301323934,0.044153717101601,0.9986951534567214,0.0593293535260466,0.0431680167024842,10.75821798967817,-0.0520079706735115,-0.3002506127383389,1.0139179891664019,1.392686044081079,4.168182732081763,0.4275678299500907,1175.611606724924,1201.7605322119132,1185.4753491501715,1184.396757159654,-225.7664226346161,-181.4468017686076,992.602623082944,313.3810239716255,156.60200833882453
0.2424999999999999,0.0255425370388602,0.2467204520460232,-0.6111361843437793,-0.4688509932113793,0.0988401517855953,0.027111004522605,-0.0261060887179813,-0.0023369006290755,0.0441774037163086,0.9986791359334726,0.0561021687103089,0.0391185838758842,10.77018252791922,-0.0522671828173962,-0.2999065352053019,1.0159504566942499,1.3925981156157856,4.167563886205614,0.4301415767353348,1174.843256175601,1201.195471787064,1188.166029253899,1185.3982779162232,-367.1874778033267,-260.5847457793968,1117.141128816637,510.8703212647465,156.59928669377783
0.2449999999999999,0.4323176879858034,0.2473723854041368,-0.57984617197891,-0.4696483577350054,0.0992375616010459,0.0255088345347297,-0.0266894670499964,-0.0021904697237895,0.0441965173366578,0.998663256766013,0.0523964752314164,0.0352271849190224,10.782792319184905,-0.0525441098928146,-0.2995492415516234,1.0180305438723942,1.3925100913344608,4.166947491759487,0.4327207402652171,1173.7756693359074,1200.4576084830162,1191.0610547942547,1186.9511087659776,-487.140362292484,-333.7320625533718,1220.4119713657735,804.6530905531192,156.59667260647325
0.2474999999999999,1.0037781971716568,0.292772119264112,-0.4788987280027307,-0.46795373088309,0.0992543110683413,0.0235015259347058,-0.0272584810018382,-0.0020378942815166,0.0442115708411776,0.99864765183597,0.0483710195090313,0.0316883878415659,10.795893361458251,-0.0528274076939976,-0.2991652647271483,1.020163366220603,1.3924229531661911,4.166333649555871,0.4353045982257209,1172.4075543641386,1199.5268114742971,1194.268089110728,1189.4215433689888,-483.8419681791488,-322.5735527940739,1052.482155448205,996.1703350562848,156.59365978520103
0.25,1.4946166463888508,0.3797901361609027,-0.3400634351469487,-0.464223124875511,0.0990429137286386,0.0218917842269553,-0.0278044423180876,-0.0018882845666387,0.0442251284184898,0.9986324415092012,0.0442635263592473,0.028752963699947,10.809331270966208,-0.0531003287157078,-0.2987340404711661,1.0223561843826037,1.3923371954963784,4.165722188867226,0.437892470029799,1171.3564594950117,1198.8447407190458,1196.3234655714955,1191.9319604412592,-375.06230019616817,-221.82955264579485,613.6827778816036,1079.3074325767057,156.59125232417452
0.2525,1.9398669995802316,0.518558223902204,-0.1506660696221769,-0.4586851748555965,0.0988891421625182,0.020706172837877,-0.0283241901186575,-0.0017461060322914,0.0442401341461977,0.9986175914814284,0.0402096096834738,0.0265496414200516,10.822955263200711,-0.0533568377268223,-0.2982449287825678,1.0246123946040633,1.3922526170740832,4.165112850481871,0.4404851611213551,1170.5322428631575,1198.417663711068,1197.336503000136,1194.8180805318725,-295.7128954721153,-101.2452869990283,152.5209878142958,1326.9025890553155,156.5889518187093
0.255,2.374304807169223,0.7221460670214895,0.1149316674925297,-0.4508185278872465,0.0992691979764432,0.0200500080864816,-0.0288160719540866,-0.0016138579540275,0.0442604737869152,0.998602990933976,0.0363048526079818,0.0251666425938876,10.836618513077203,-0.0535959147205456,-0.2976895675596287,1.0269339063940572,1.392169085661348,4.164505681427073,0.4430838952589447,1169.877895017651,1198.3385142840507,1197.0860705105672,1198.5664733865356,-183.92942857144567,51.403714855496176,-337.93355194907207,1393.4212366472354,156.58631469261536
0.2575,2.6385156886664336,0.8892140867153085,0.3456698957953879,-0.4438539138974828,0.100535622583158,0.0202605434437697,-0.0292833649879262,-0.0014894123872611,0.0442913983734222,0.9985883366141276,0.0325441548009398,0.0245781758758951,10.850180509175468,-0.053827467736017,-0.2970689663905805,1.02931873789163,1.39208713062889,4.1639007674097535,0.4456896549871902,1169.6125957203003,1198.6746822853456,1195.6468352403906,1201.7851867151087,-56.829123485476835,209.3978308460917,-788.3437142584163,1265.8187754911967,156.58421990329975
0.26,2.8041706470985135,0.9987954419694232,0.5525771699428075,-0.4368315631899216,0.1033221394513576,0.0213739954184558,-0.0297309631764157,-0.0013725001164198,0.0443347294483449,0.9985734270452268,0.0289608672833036,0.02470874480237,10.863507713650671,-0.0540558890791218,-0.2963882485640066,1.0317635141788086,1.3920070688364858,4.1632985356082814,0.4483018977272753,1169.5937494002235,1199.3855034382811,1193.144351939275,1204.8955672639916,33.30771910350447,367.84679006245784,-1248.396845352862,1290.3108394800245,156.58223179027135
0.2625,2.9087776113785235,0.9993724107650818,0.731371603268363,-0.4283370664654709,0.1082616386282121,0.0238183890493867,-0.0301657744730045,-0.0012611355957218,0.0443900801977935,0.9985581001520424,0.0255492873279848,0.0254271429825829,10.87647570948216,-0.054287916307101,-0.2956573460193778,1.0342629638609746,1.3919288277090855,4.162700030289357,0.4509196491812977,1169.779134315818,1200.513916235658,1189.4048510136263,1208.2367409125088,91.8653531533436,427.93135035176374,-1401.6934659248352,1122.1008500316193,156.57996941554532
0.265,2.937398488788544,0.8595362440231157,0.7954782256590627,-0.4215156191537854,0.1129725735409563,0.0267415328732668,-0.0305942891209762,-0.0011514076938142,0.0444536022488775,0.9985423589487183,0.0222600606974167,0.0265994846432415,10.888970576286642,-0.0545319683611238,-0.2948863193287118,1.0368112556804157,1.3918516119844369,4.162106582929457,0.4535422444279879,1170.0530761659904,1201.52516019004,1186.1358846096507,1210.5060715141499,123.6613351454706,381.58339023821065,-1227.574790051675,762.8753240383952,156.57818695998955
0.2675,2.929808481958978,0.5720238719906693,0.7527864646787111,-0.4156230839389647,0.117197604684527,0.030313058100317,-0.0310187203812529,-0.0010444109823147,0.0445202241461098,0.998526376232568,0.0191549729945327,0.0281670899735161,10.900889696775389,-0.0547842948389376,-0.2940777772131433,1.0394046484927923,1.3917747650078685,4.161518764319031,0.4561700882485734,1170.3974409915454,1202.4218331868487,1183.266977063368,1212.0511175327008,142.293780336331,318.7439519219876,-1013.7093927739433,478.1164768256072,156.57651106735548
0.27,2.9034143376283894,0.1918431729936167,0.6248364415495198,-0.4102249962369571,0.1199350509455908,0.0336866653581154,-0.0314420807115588,-0.0009385892319366,0.0445856909625891,0.9985102617895948,0.0162359959294804,0.0300444901886145,10.912144640225952,-0.0550463044390687,-0.2932362798329201,1.0420375995893385,1.391698177819093,4.160936440107473,0.4588044536052303,1170.764545067672,1203.11887994965,1181.0673376457812,1212.896653898278,143.5507810618218,219.08292485127257,-673.7975172201453,159.36596958122195,156.5749229139226
0.2725,2.848327573590196,-0.231901929491379,0.423661413353467,-0.4038168531140575,0.1195179240314446,0.0354850838961535,-0.0318686289883643,-0.0008353746683169,0.0446468456762822,0.99849403235424,0.0135661218552881,0.0321052934136862,10.922662441930903,-0.055312845528708,-0.2923696661815024,1.0447028599965371,1.3916208717875282,4.1603591472709045,0.4614478256669226,1171.1151948968543,1203.517247811105,1179.8979894772672,1212.847947380607,139.24176272334975,107.76716905102138,-273.9787418178364,-220.00741776414523,156.57343912920308
0.275,2.723360051649608,-0.6914728839583599,0.1563768949921929,-0.3943223355843073,0.1154249912840822,0.035257107316083,-0.0322985614719978,-0.0007389280366352,0.0447017636776428,0.9984777713291147,0.0112676692797194,0.0342996781905191,10.932385588934116,-0.0555722183459821,-0.2914778586828002,1.0473947426865575,1.3915416187066976,4.15978666474606,0.4641027731377871,1171.4607538812888,1203.657715794905,1179.697443936692,1211.7966168094572,107.31987958356503,5.007545866146752,93.48208512083137,-528.8649328854713,156.5717765473591
0.2775,2.557538747472647,-0.9800671259878998,-0.0475156773805543,-0.3861251072558508,0.1105808013693804,0.0339108189951886,-0.032731690540701,-0.0006471797813012,0.0447482487760162,0.9984615884856952,0.0093204185100846,0.0365846158170698,10.941273196172927,-0.0558247569143985,-0.2905597628415815,1.0501066617935555,1.3914597316541313,4.15921868146809,0.4667702444111825,1171.6517942947723,1203.542285540436,1180.365399902871,1210.2036227161796,51.483987345954986,-76.8835145526736,375.00442961281766,-743.0442606620537,156.57048678696603
0.28,2.339248584815273,-1.1504646992697212,-0.2038537879735129,-0.3793579931273409,0.1061008992587152,0.0324836985675811,-0.0331697476554716,-0.0005551868966246,0.0447857683512175,0.9984454588922068,0.0076327140237617,0.0388717129659117,10.949301048921013,-0.0560773708752196,-0.2896182506705585,1.0528307831133523,1.3913754251393202,4.1586559218421515,0.4694487878799262,1171.7181738180186,1203.2732982221416,1181.572466084756,1208.0813955061467,-0.2112943290740074,-130.43025782094435,572.3782278524591,-992.5660450025123,156.5692926016452
0.2825,2.059694447552044,-1.2451418981139555,-0.3313131196004393,-0.3732699520204367,0.1019015475314584,0.0311248508087285,-0.0336122102658104,-0.0004633428157442,0.0448150974215615,0.9984293694580144,0.0062238639200473,0.0411119845668527,10.956459755935628,-0.0563258756206939,-0.2886522699902127,1.0555618563892135,1.3912892920088111,4.158099285516172,0.4721358494930842,1171.6507378231267,1202.8901342513311,1183.2272910421336,1205.2407924911668,-47.00828214081408,-133.70432093224724,589.4254014095617,-1041.5328476543882,156.56796479226205
0.285,1.8490733752104649,-1.2700439045544611,-0.3948719432934875,-0.3695457213027977,0.0992585008039809,0.0302922057455059,-0.0340553933335015,-0.0003730480004528,0.0448358949199658,0.9984134625662294,0.0051280596464975,0.043321760512872,10.962753045158514,-0.0565630038540664,-0.2876546328729828,1.0582977600604284,1.3912015343877195,4.157548929298292,0.4748292815127166,1171.4831324073143,1202.6047766174804,1184.519593091804,1202.8737312678747,-85.84933420074769,-88.6699021774347,457.03877104478994,-893.1951355060838,156.56694158690928
0.2875,1.6963859843756248,-1.2857822774101968,-0.4268077529377634,-0.3666221737921529,0.0970572269100993,0.0296106908134189,-0.0344944516723098,-0.0002877303834646,0.04485109677406,0.9983977737620852,0.0044191019497981,0.0455392689673413,10.968196166644752,-0.0567787915239657,-0.2866156489521681,1.0610384929916448,1.3911125088339211,4.157003926322778,0.4775282667561008,1171.2214911521232,1202.446784740444,1185.5124848973576,1200.7748168136363,-130.85754488643167,-21.076161170322155,346.808853771612,-813.2404435334221,156.56599964307867
0.2899999999999999,1.5970847571520668,-1.335868527432495,-0.439797140309065,-0.36343446591413,0.0945119007696764,0.0287273320862098,-0.0349240238857694,-0.0002129121046323,0.0448650631555357,0.998382292868356,0.0042102242237122,0.047811907469401,10.97281377981494,-0.056959617522281,-0.2855245809322759,1.0637856370627927,1.3910223159623698,4.156463769075514,0.4802326797119347,1170.8288446828824,1202.4993958116288,1186.253637360662,1198.807529050208,-151.15069242488215,71.45691656051058,198.45345534677307,-606.434634713384,156.56495823249713
0.2924999999999999,1.578909398165335,-1.421140490474344,-0.4334049820614904,-0.3607829821426997,0.0923655063472506,0.02781169611467,-0.0353415731632468,-0.0001523156089781,0.0448820126503259,0.9983669204952984,0.0045650057313407,0.0501281090251177,10.97663836855814,-0.0570961685261403,-0.2843765493212719,1.0665398315984396,1.3909310820325471,4.15592846227216,0.4829425047246606,1170.4657376899988,1202.8040693232467,1186.5047521740914,1197.7426436400697,-140.82012590356487,185.74623123645307,42.356479775935405,-294.7941640939459,156.56416166166449
0.2949999999999999,1.6015940971862428,-1.5547590639863116,-0.4101502195628842,-0.3576989309878655,0.0899397423838136,0.0267284080393464,-0.0357456716663337,-0.0001068952700436,0.0449049053217583,0.9983515748212372,0.0054779120492413,0.0524571421024188,10.979707626941591,-0.0571849816759868,-0.28316903278064,1.0693014156200873,1.3908389344715295,4.15539826007854,0.4856580726388599,1170.1247440533643,1203.428126967811,1186.4654197595416,1197.333558229738,-118.40118013888048,305.0382442836505,-42.76715244836847,-57.50212723955878,156.56343668853884
0.2974999999999999,1.6268749886576404,-1.7166902827965889,-0.3731781035046359,-0.3538554380051842,0.0868871210591659,0.0256855212788939,-0.0361398497337478,-6.897462759547696e-05,0.0449332436481202,0.9983361501727068,0.0067412148795613,0.0546717101481478,10.982063375405176,-0.0572406171249569,-0.2819098657017991,1.072067470124722,1.3907460284475395,4.154873578030224,0.4883796523503966,1169.8737317893044,1204.3292605446647,1186.2909164118496,1197.4551330038719,-55.55878899704106,423.16597426879486,-73.83456778616157,159.62370544348218,156.56277005899392
0.2999999999999999,1.6124755785204243,-1.8839477108202756,-0.3213011752545641,-0.3489093290189836,0.0826222543498391,0.0247907815706134,-0.0365313194044967,-3.0210209962247408e-05,0.0449641851593481,0.998320512935914,0.008123572345935,0.0565692852549042,10.98374963875216,-0.0572792137065041,-0.2806153285704198,1.0748331092589503,1.3906521050259315,4.154354924583957,0.4911072340062576,1169.8469501083791,1205.543956839155,1186.0962469206108,1198.1316767569556,69.69367139440686,592.6176830507296,-57.510827261421525,387.89229281928743,156.5621734480583
0.3024999999999999,1.5061871929988215,-2.046347312101691,-0.2456160558897867,-0.3423087056627311,0.0760673745109589,0.0238333387315546,-0.0369261975212699,1.5176807921231684e-05,0.0449951982925564,0.998304553861265,0.0094504693839349,0.0579749003227808,10.984809972533268,-0.0573124356962022,-0.2792999764780831,1.0775943570809692,1.3905572236638815,4.1538419115585805,0.4938412942840425,1170.2222001462765,1207.2923489599186,1186.0033622755425,1199.3945944679683,219.51073000468548,673.0369312199393,6.131477212602471,502.1728887559216,156.5615391888877
0.3049999999999999,1.332254173274129,-2.122631563272776,-0.1755211524704712,-0.3372197901979303,0.069968018454641,0.0232995874215489,-0.0373273835350051,7.103451559682493e-05,0.0450255750773277,0.9982881967445824,0.0105963508740925,0.0587894303286136,10.98528553152167,-0.0573493908071528,-0.2779717879534284,1.0803491574968336,1.3904618704535998,4.153334431490725,0.4965825471741792,1170.9445037584028,1208.9091414952547,1186.1269043066739,1200.6425412007352,374.1427814351479,653.8065581024506,99.91170989451341,494.76965086128024,156.56108003692654
0.3074999999999999,1.0854218085279883,-2.1214765060375087,-0.1042955146878896,-0.3335912359474446,0.0640058500688034,0.0232451775954794,-0.03773800991605,0.0001395642550305,0.0450579190689424,0.9982712055472992,0.0114788576717663,0.0589149489573657,10.98521474527764,-0.0573982758383301,-0.2766393832099837,1.0830953500360287,1.39036645944322,4.152833414458602,0.4993314691348671,1172.0929140534522,1210.5613817504309,1186.502920825015,1201.8684427222747,581.8967083335332,699.37698223116,220.92080871293527,490.6319174645882,156.5606951520558
0.3099999999999999,0.7488724722880548,-2.0331537374413218,-0.0219865461669219,-0.3312244841432461,0.057804482976558,0.0235419135662492,-0.0381593664698507,0.0002209471413497,0.0450933003534025,0.99825348225329,0.0120658507844409,0.0583010081416275,10.984631843020596,-0.0574629906237765,-0.2753080980221949,1.0858319028492132,1.390271614767398,4.152339472220817,0.5020886090526077,1173.8539873000705,1212.4060264064103,1187.2315083502383,1203.095700788058,684.1352040089981,627.3996182073455,304.9660349140592,387.8075347331557,156.56032206074363
0.3125,0.4707130370049018,-1.8968274213884513,0.0454756193526551,-0.3307136521791001,0.053602585527624,0.0237320244799746,-0.038589947845422,0.0003121546611231,0.0451334611132724,0.9982350044504233,0.0124062876202938,0.056964858809219,10.983565842084955,-0.0575413489145785,-0.2739776639884538,1.0885596833624451,1.3901785124682524,4.151852516613436,0.5048547413225288,1175.5135900734972,1213.6983798414676,1188.0277509995851,1203.8074803959405,673.057657405206,442.25363428713496,342.7189739680668,207.27391336513372,156.5600873832212
0.315,0.2277160865904968,-1.7045424901603785,0.1183977475822559,-0.3311154418176278,0.0498785837525075,0.0237747423324258,-0.0390284236632587,0.0004087153162664,0.0451787806785624,0.9982158072638952,0.0125873330028576,0.0549284739638278,10.982040757076266,-0.0576280076908246,-0.2726485702889254,1.0912798650337188,1.3900881101404996,4.151372356794603,0.5076291868842314,1177.2192755870965,1214.6172945778462,1188.9451032200789,1204.1320703548838,737.6737779045008,307.2168100477026,409.86832342418853,52.0255415154224,156.55993468259976
0.3175,-0.0079672720717631,-1.408941210143801,0.22005909104228,-0.331666463254768,0.0454222255455852,0.0239484488666841,-0.0394699950548108,0.0005047486940021,0.0452275582073442,0.9981961555939944,0.0127367820688339,0.0522987938140209,10.980074364597336,-0.0577134888116415,-0.2713141212792377,1.0939961619150569,1.390000372781274,4.150898884698369,0.5104107151910081,1179.2019589630197,1215.234463891706,1190.0770926167063,1204.0676081035176,711.1110850339168,150.34655446534074,404.05772444805694,-92.62049834760536,156.5598497222396
0.32,-0.1600583498741475,-1.10451915643938,0.3194218132350848,-0.3320467697788296,0.0415753860304299,0.0241912562900089,-0.0399121817715382,0.0005963062330512,0.0452777689205585,0.9981762396111292,0.0129457453999007,0.049143738249518,10.9776795443722,-0.0577925153951503,-0.2699724612230902,1.0967114405574958,1.3899152592479247,4.150432188985847,0.513197837391752,1180.774831012266,1215.3690273501727,1190.9653918423191,1203.6689678631456,617.5943320491564,-7.388343585944305,329.82132951174174,-215.40837077686757,156.55986351421967
0.3225,-0.2763357725876531,-0.7417521277183738,0.4319754506590294,-0.3324144770744803,0.0379946754542232,0.0244820096975243,-0.0403511580362807,0.0006768917819581,0.0453269936746425,0.9981563212954672,0.0133694006510884,0.0455678884368493,10.97486348232742,-0.0578533246178529,-0.2686190181212084,1.0994300479226382,1.3898324723813444,4.1499722048158345,0.5159889286244727,1182.2899306232655,1215.1975221737764,1191.726199264265,1202.9905662496333,661.0816458834046,-119.37255456705304,302.08757264449525,-338.4498134877501,156.55996848094796
0.325,-0.3865027901498043,-0.2645564307539773,0.5693446855613034,-0.3327907507276651,0.0352534564928869,0.0252311729310718,-0.0407867474046808,0.0007479398620162,0.0453732500118883,0.9981364910589624,0.0139918391738598,0.041612624915114,10.971629466453964,-0.0579013667724025,-0.2672562471669468,1.1021538319187971,1.3897512220348016,4.149518257713739,0.5187838732443845,1184.080239241683,1214.7721645773377,1192.4758297055416,1201.976718795707,649.6899244553327,-175.0895850641426,254.89710208139488,-385.42466625149206,156.56020395734134
0.3275,-0.4579604867276733,0.1317411103006256,0.6678920925692825,-0.3331977671359993,0.0349495827049668,0.0266193915049194,-0.0412171524973554,0.0008126875637606,0.0454149468857289,0.9981168886033728,0.0147634687705527,0.0373649259938529,10.967976517685104,-0.0579450054664671,-0.2658827110764765,1.10488511992937,1.3896709875510944,4.149070095487821,0.5215822270968012,1185.538380245542,1214.3220742484557,1193.000684774672,1201.0634429183758,557.9063496832982,-188.35813721934736,204.9023503590432,-357.2830257415713,156.56049458108376
0.33,-0.5040520658249247,0.4735271364176473,0.7232018880099613,-0.3338260504786649,0.0368052710568617,0.0288908842956244,-0.0416431470242553,0.000877660756938,0.0454526873208167,0.9980974494718527,0.0155638295979773,0.0328656235032447,10.96390169105606,-0.0579998753860992,-0.2645019931836337,1.107623811846951,1.389590950141903,4.148628300991862,0.5243840138539821,1186.8697709900996,1213.8303738912407,1193.5003414573368,1200.1903036669992,487.3825657034554,-204.378221055458,207.83992394399303,-328.2407208721449,156.56088707225
0.3325,-0.5188221656890347,0.735734115308798,0.7255265963165543,-0.3346270579567687,0.0399956091381171,0.0316252565855089,-0.0420641449351903,0.0009468813490008,0.0454888394587668,0.9980780911094,0.0163290638504179,0.0281885268438004,10.95940081237709,-0.0580752648266507,-0.2631146866686435,1.1103695079369604,1.3895105775663754,4.148194178674393,0.5271904933771014,1187.9752930740594,1213.3001831431784,1194.039884394392,1199.422239314015,355.4377689297322,-232.89583914720404,234.9767868928664,-267.13112731904374,156.56136705869895
0.335,-0.4761492053810367,0.8818961888813589,0.6554273531724436,-0.3357442869677446,0.0436516646425297,0.0345304030645767,-0.0424795973457859,0.0010225938656603,0.0455263863404736,0.998058707496108,0.0170304408426722,0.0234089127584558,10.954470665850103,-0.0581752636344081,-0.261721376590321,1.1131202842832875,1.3894288205541476,4.1477688681665725,0.5300045405130234,1188.6469598347483,1212.665894695505,1194.6752253918012,1198.854648030404,165.4977870394303,-326.5694823080136,303.24609338608724,-184.58268145709536,156.56195634540376
0.3375,-0.328826652333293,0.9309077933294668,0.4989153977710402,-0.3376072033711203,0.0473771635362331,0.0374346126007221,-0.0428881995452088,0.0011042923418506,0.0455675539338561,0.9980392656191032,0.0176921829358683,0.018618107628324,10.949110664476452,-0.05829593106025,-0.2603208316125878,1.115873128124511,1.3893446428305063,4.147352456484716,0.5328296621230642,1188.8027820092564,1211.6673357316383,1195.5561148613224,1198.4993259067296,-57.02792559345648,-424.0485463240016,335.7400203535687,-59.975229129713576,156.56279492204823
0.34,-0.107784973306418,0.8905141845652165,0.3326799971629124,-0.3394232127426619,0.0496473517359732,0.0385887758308274,-0.0432881316401163,0.0011867509872871,0.0456123798394664,0.9980198627946169,0.0184303074518335,0.0139141855459264,10.94332441119926,-0.0584204424051884,-0.258910535486196,1.1186243774757547,1.3892570498929082,4.146944157578772,0.5356676139233012,1188.3618202067807,1210.545651963885,1196.353925493569,1198.5547718847552,-282.0616631607661,-524.0850112798848,316.8156200510563,117.49765650661163,156.56360708496175
0.3425,0.2215825776808545,0.8028571371947548,0.1683866660330803,-0.3407689576199453,0.0511087143157183,0.0382406012780844,-0.043675538769017,0.0012634258351678,0.045660001130285,0.9980007288914066,0.0193794843346442,0.0094360884786231,10.937120595965414,-0.0585274513414016,-0.2574824716801224,1.121370956919434,1.3891659986561247,4.1465429968459775,0.5385172950609872,1187.3924736934528,1209.046910675239,1197.1401929615777,1199.0868141892627,-517.6718753201835,-746.5348955657184,321.41023382046086,368.2582007270408,156.56454160313862
0.345,0.7205005761100249,0.6810570527965621,0.0106162048796846,-0.3406996807909017,0.0520984785762115,0.0370844094727019,-0.0440493339123405,0.0013297388733888,0.0457101748310044,0.997981945159333,0.0206173886018975,0.0052592155672017,10.930514237964472,-0.0586001063767834,-0.2560331766787235,1.1241083731556227,1.3890716460542036,4.146147861795318,0.5413766648490919,1185.77346083018,1206.8129774860563,1197.960976662671,1200.3960628883904,-644.417263537934,-876.6606756521916,265.3380163870677,600.4764960700408,156.565810095708
0.3475,1.1889646746501379,0.5828619973113333,-0.075725305152324,-0.3383167386206483,0.0524947504098954,0.036012630595655,-0.0444080062819452,0.0013789651670771,0.0457628703957301,0.997963603059195,0.0222572829694713,0.0014589786394061,10.923525681438596,-0.0586167509776954,-0.2545570844722528,1.1268333744704908,1.3889739595664337,4.145757573050973,0.5442441022441242,1184.170387375763,1204.663607296978,1198.466883043513,1202.0891966696129,-668.2775366289201,-885.5266384908184,150.9656184702179,793.1617668385563,156.56699383707652
0.35,1.6647457004803132,0.4911878640423958,-0.1187595693660442,-0.3332573325038283,0.0529880733893188,0.0350715857331575,-0.0447554358184285,0.0014106340898259,0.0458162982667021,0.9979456247627968,0.0242578646270213,-0.0020095182872415,10.91618073480291,-0.058570297216415,-0.2530590806992843,1.1295404927065695,1.388873397680194,4.1453712393546605,0.5471182283556825,1182.4320731470355,1202.3853442936022,1198.7158047550224,1204.3618717225831,-775.1637872770596,-980.9162796434621,40.4789955403889,1095.1833740684488,156.5683137370769
0.3524999999999999,2.208009862589095,0.3724019612429122,-0.1423224176128689,-0.3255550615304497,0.0541383288901014,0.0346788837361933,-0.0450906346212111,0.0014250884746749,0.0458681489450904,0.9979281704596276,0.0265556662339726,-0.0050942707101138,10.908507721476274,-0.0584559234126145,-0.2515321295878543,1.132227934357493,1.388771151808024,4.144987963281921,0.5499984060551929,1180.2945684393778,1199.7590258987607,1198.6692780212147,1207.565113539955,-781.6735295762635,-907.4480638341904,-74.91914699953745,1210.6658039045792,156.5700600937998
0.3549999999999999,2.635625369897843,0.2482121034925043,-0.1595970321144256,-0.3193175669040906,0.0555384659502269,0.0351010836386991,-0.0454138279068293,0.001425208464679,0.0459180574693306,0.9979112537048366,0.0290269174748533,-0.0077787226769822,10.900536811308772,-0.0582770324587313,-0.249970883149058,1.1348942133844733,1.3886681463233383,4.144607366495673,0.5528846725242992,1178.523705499154,1197.8481039744313,1198.3412090200247,1210.4152007421062,-695.6692039540934,-670.852720014272,-181.6303575589698,1118.0926203689514,156.5716542296756
0.3574999999999999,3.054443013313436,0.0813344741658367,-0.193008718607155,-0.3137209354707815,0.0568974152120561,0.0358261906754878,-0.0457243290380446,0.0014153076245802,0.045966413015169,0.9978948938114311,0.0315158067671947,-0.0100364616966054,10.892297982409596,-0.0580422942200049,-0.2483676248068801,1.137539209336872,1.388565493254309,4.144229988828155,0.555776424757719,1176.8162224196071,1196.404762298689,1197.76112623342,1213.1555766417998,-664.3459389440972,-484.4088058667234,-259.1324615516439,1034.2941789107945,156.57339627595894
0.3599999999999999,3.4757658967069247,-0.1233660786839145,-0.2418615058440013,-0.3076567333363646,0.0578507400428447,0.0360403835320245,-0.0460223262585784,0.001403458812342,0.046012933945502,0.9978790951336634,0.0337843446593794,-0.0118670037717626,10.883819692830661,-0.0577707285083177,-0.2467167179997034,1.1401628662452616,1.3884642184804314,4.143856620935051,0.5586723959224557,1175.2019758044337,1195.4260599450977,1197.0455467122663,1215.58667163666,-611.4604158982723,-277.3305022165912,-294.98135091480407,852.4193687347625,156.57526358310784
0.3624999999999999,3.890673840216448,-0.3618209882900306,-0.2979431823056628,-0.2998986753427455,0.0579892596782934,0.0351361384072039,-0.0463077670839525,0.0013940116088141,0.0460557400080971,0.9978639511384648,0.0356788687533514,-0.0132773410189957,10.875126767477411,-0.0574740362080404,-0.245013420065954,1.1427661677620886,1.3883647890143145,4.143487768528844,0.5615719872598324,1173.758920340116,1195.0181097876064,1196.286219478846,1217.4176734854736,-576.9886942110128,-63.81434141294442,-313.23800427821845,623.5856794044133,156.5772847985742
0.3649999999999999,4.343180233773239,-0.6554398054557676,-0.3554341892024606,-0.2884196289507514,0.0564773288936888,0.0334317971055511,-0.0465810956294942,0.0013909873604657,0.0460930891410262,0.9978495264555612,0.0370608762613314,-0.0142927684083347,10.866239306816992,-0.0571649295812476,-0.2432553396528769,1.145350070797956,1.388267409204868,4.1431238628438845,0.5644760126316756,1172.3170323333786,1195.1069882380327,1195.4793566908754,1218.7046000336823,-465.67603735879817,108.07639548725082,-262.2111618257802,302.72486825247114,156.57989150267176
0.3674999999999999,4.645577024995704,-0.8785242708621651,-0.3882449573123288,-0.2772903594543478,0.053896218732397,0.0320883403129622,-0.0468428179480433,0.0013952842707316,0.046124604503369,0.997835823803255,0.037872560117273,-0.014947833355225,10.8571714264522,-0.0568508289932176,-0.2414419002662196,1.1479156330275406,1.388172535022065,4.142765932020821,0.567386065443847,1171.430540153322,1195.5584917650426,1194.9751636697172,1218.931297826736,-273.8345201265472,231.42490947525383,-161.47123002060638,-86.77617749804078,156.58221692987
0.3699999999999999,4.828244527730865,-1.0530328131960118,-0.4064128298414048,-0.26522232621793,0.0506547636616812,0.031101254116229,-0.0470924466856756,0.0014076832555297,0.0461525965357041,0.9978227674613428,0.038076670034817,-0.015257812652927,10.847930654579727,-0.0565408102285074,-0.2395716321865617,1.1504640858033552,1.3880801901042616,4.142415135930553,0.57030366673303,1170.9478597327459,1196.2641127854092,1194.6720005407724,1218.270719146192,-110.52886727102295,342.70399731890365,-101.11342467503157,-475.1908826320228,156.58470355307713
0.3724999999999999,4.872772570418662,-1.1936903483228485,-0.4177253842236274,-0.2504209623395449,0.0465582760654485,0.0302797793383788,-0.047330608287734,0.0014292676801731,0.0461775388611561,0.9978103130274282,0.0376421812335666,-0.0152604728678349,10.838517826415805,-0.0562447535693283,-0.2376474909843515,1.152995819540995,1.3879901395092349,4.142073006807268,0.5732286660084395,1170.8778958169669,1197.2720117516371,1194.469596546342,1216.5553434135759,55.563291993894325,383.4172258729265,-68.5922385483081,-755.2397894887683,156.5878759717973
0.375,4.748448072287822,-1.2560218842864164,-0.4212709985375827,-0.2381088575988181,0.043311568846317,0.0297382905836418,-0.0475595053940926,0.0014594245220916,0.0462001705802493,0.9977983313057516,0.0365904433492078,-0.0150255615573177,10.828926857522768,-0.0559692129350383,-0.2356778286313831,1.155510581389103,1.3879026516081872,4.141740429967214,0.5761610028656236,1171.2256761927151,1198.1811989147739,1194.3290393480308,1214.4945201987482,205.66586328527572,369.3887811416513,-81.64130183713489,-912.1800609129868,156.590677949987
0.3775,4.450915527050536,-1.2731232779314865,-0.4157445430987067,-0.2261737949925568,0.0404447750864756,0.0291102028341874,-0.0477810062580756,0.0014945317270702,0.0462209000085186,0.9977867271094644,0.035024717681653,-0.0146122342878927,10.819144577679172,-0.0557135255923123,-0.2336719204480608,1.158008745223318,1.3878183726578233,4.141418540790377,0.5790991234184409,1171.9062251333933,1199.1189556573452,1194.0613900371563,1211.9944431090107,341.2258920955989,414.3940867942544,-180.58052528340323,-1145.9733248120292,156.59364533827159
0.38,3.906430490980336,-1.2570286745384431,-0.3865225779219358,-0.2128361842887544,0.0368860261119322,0.0280323316502426,-0.0479987135608759,0.0015312946106395,0.0462412844142616,0.9977752676044748,0.033056689093916,-0.0141090590167028,10.809151541448283,-0.0554778504340379,-0.2316437791201084,1.1604901526485392,1.3877376893707896,4.1411080374406275,0.5820407471077897,1172.9318056531931,1200.2531693487451,1193.4261367216138,1208.764653574688,379.4705188069653,415.0217636460635,-302.01294556868527,-1184.904081450621,156.5973982273179
0.3825,3.3208372998549938,-1.2231194607312252,-0.3314604369650213,-0.2029994896168122,0.0337706981076212,0.0268116849542375,-0.0482141155719306,0.0015653556845749,0.046262304723202,0.997763847382027,0.0308365734069468,-0.0135509740666647,10.798922154083495,-0.0552583542697061,-0.2296029927896653,1.162955930713215,1.3876603592867425,4.1408082546636855,0.5849850471231153,1173.803577727428,1201.1940644755755,1192.5513253093127,1206.0699227017578,314.1068802277911,371.1395555035775,-427.7852517221614,-1044.7503403970577,156.6006858995626
0.385,2.646496387424702,-1.1806967052873667,-0.2328218474358367,-0.1951279507387716,0.030964838695321,0.0254552624416193,-0.048427597175824,0.0015984581808806,0.046284703357655,0.9977524128055658,0.0283955593318259,-0.0129342733504852,10.788426045811788,-0.0550637074396509,-0.2275555816192181,1.1654070135163948,1.387585027879391,4.140517933955569,0.5879321593952765,1174.5023400543323,1202.108867126263,1191.287210463003,1203.5409018727028,226.66380805312636,354.0826588972774,-563.2562137482178,-970.1049798655722,156.604139809236
0.3875,1.9471848902779536,-1.1414810298950486,-0.0956032364664784,-0.1893615461913913,0.0285910377490257,0.0243933548030661,-0.0486393121634872,0.0016321800360997,0.0463096550799258,0.997740901130794,0.0257778037700417,-0.012242755234933,10.777628890395656,-0.0549003975912467,-0.2255061563676961,1.1678438880109772,1.3875105318430172,4.140235803921943,0.590883201301521,1174.9368967676935,1202.964477770062,1189.7350442405718,1201.21939780243,93.40685563383875,309.1406328598165,-670.2763643782413,-874.7329834500752,156.60773122336377
0.39,1.2843748640086767,-1.115009138879606,0.0811086498672936,-0.1862084794141724,0.0267825135129594,0.0241542642300907,-0.0488474961920554,0.001667609739306,0.0463407871048408,0.997729229098515,0.0230477321492955,-0.0114136765638293,10.766493602898471,-0.0547722146366048,-0.2234534863892634,1.170267064296073,1.387435345342395,4.1399612143244795,0.5938393503906206,1174.9693743325015,1203.654570290562,1187.9358286411118,1199.1672369554524,-76.70868985510415,227.2866123348647,-815.0309363301395,-846.9263985882654,156.61148789102143
0.3925,0.6122660571650189,-1.0964470346243016,0.3216263260691247,-0.1848986887224105,0.0249364073415106,0.0248459786959161,-0.0490500064550338,0.0017032436210556,0.0463792218515306,0.9977174510201456,0.0203240290035064,-0.0103748334599126,10.754982000216271,-0.0546737514882246,-0.2213946268695291,1.172676354238387,1.3873573654720044,4.139694218514984,0.5968020185713219,1174.5533533184182,1204.1009108317364,1185.6598895589211,1196.9847658094886,-208.62868908375256,66.61172672611423,-828.2727864715973,-761.1531185363212,156.6161861706444
0.395,0.2016982445066939,-1.076909517830446,0.5323518754781064,-0.1854394758610311,0.0229825702728243,0.0259337372959658,-0.0492475578818633,0.0017395799325632,0.0464236387551101,0.9977055902950984,0.0176739881161459,-0.0091124428204344,10.743056928972427,-0.0546019139483139,-0.2193318601922242,1.1750690599273608,1.3872749814963143,4.139434396432833,0.5997724296725261,1173.9262308870827,1203.9876289241927,1183.7944647087538,1195.3614713627708,-268.8111484355884,-181.09596789022345,-711.0692353315692,-615.5162188591925,156.62025936696833
0.3975,-0.0203470154658559,-1.0207030307338387,0.7394892117718685,-0.1871712419802044,0.0199750643084291,0.0273070804232255,-0.0494433257295578,0.0017755788606282,0.0464720696486575,0.9976935817706202,0.015188741532601,-0.0076690870130387,10.730683540790336,-0.0545486915927665,-0.217271955026083,1.1774407736965289,1.3871876451459184,4.139181424682646,0.6027518455775197,1173.2092975762403,1203.1954309922853,1182.1045433822633,1193.9071847151927,-283.050005742052,-523.6149502634357,-674.1666477386838,-600.8468409349001,156.62449574223194
0.4,-0.0664022624355687,-0.8722153848709558,0.9665594090389628,-0.1894085293091639,0.0153617538225457,0.0292734104583894,-0.0496409839015424,0.0018109271523492,0.0465226500446953,0.9976813297790827,0.0129348958091569,-0.0061022232872491,10.717830361388888,-0.0545072269823747,-0.2152212284402175,1.1797865040538835,1.3870958095836357,4.138934287999928,0.6057396025000554,1172.5109808583725,1201.3695541728755,1180.4236314700604,1192.3572371580963,-197.7377396293376,-806.1423689095129,-542.0605384738333,-529.4383757675855,156.62976703026527
0.4025,0.0551614321743568,-0.6675307168921867,1.1212474087118036,-0.1903541633445977,0.0114371141714751,0.0313572469736586,-0.0498422107514331,0.0018438352857673,0.0465738488529161,0.9976688247938263,0.0110026292096984,-0.0044357100627699,10.704469813854734,-0.0544670783089548,-0.2131799565510364,1.182102407174508,1.387001050582136,4.138692320749279,0.6087339105094001,1172.2206088780936,1199.1647191477375,1179.394240689894,1191.2599928363547,-37.95192739407863,-985.6335017481789,-323.62333331402596,-384.483800997668,156.63431531083387
0.405,0.2927020872705224,-0.3933040399477633,1.2136931987985409,-0.1896971311001853,0.0088090127790939,0.0342184395356404,-0.0500471278656722,0.0018726032317557,0.0466254490751648,0.9976560737274834,0.0094718526058457,-0.0026703345209211,10.690578827940511,-0.0544188134763998,-0.2111432881998742,1.1843857209397999,1.3869048584920451,4.13845404487081,0.6117343544116802,1172.321221221402,1196.4413866641344,1178.8055148034903,1190.434818153108,125.68063189496559,-1249.4865434573046,-157.3287645469462,-279.5761947145363,156.63902393730132
0.4075,0.6470369883013187,-0.036600448865971,1.2188415204826175,-0.1871343176423043,0.0082137351457231,0.0386550686705875,-0.0502555457561991,0.0018963910616588,0.0466773276717202,0.9976430937804752,0.0083928961535567,-0.0008114098476067,10.67613922356116,-0.054355936167426,-0.209104568049894,1.1866342688980795,1.3868089800570504,4.138218234016252,0.6147406214756194,1172.8490120375684,1192.9172864304512,1178.6075968671591,1189.862111862782,237.54872596382464,-1279.6127611830786,4.101732827393786,-126.21506170407872,156.64485831365113
0.41,0.9618833123779584,0.2356179428698496,1.1162520482601028,-0.1839798256504357,0.0097061284074397,0.0427721487274526,-0.0504681135390607,0.0019167386360053,0.0467307143659067,0.9976297933086912,0.0077550785442128,0.0011071717442855,10.66113789377252,-0.0542791569408375,-0.2070583309171334,1.1888458835015214,1.3867141495413402,4.137984911394044,0.6177514373751333,1173.5089648512212,1190.0433228582192,1178.8260234676272,1189.8037428445875,268.4305696179306,-1079.0862681851183,150.2994014472732,74.49483059690458,156.64987277702565
0.4125,1.2711439248789342,0.4355234476435179,0.8979075937003937,-0.1802945167847248,0.0122332904503212,0.0463482148632686,-0.050684581927578,0.0019352795010573,0.0467859929570289,0.9976161668237956,0.0075355887861385,0.0030580861822928,10.645566476514384,-0.0541900511476993,-0.2049973232342618,1.1910192707767204,1.3866201634708915,4.137755239664288,0.6207662193846964,1174.191164885658,1187.5218550895256,1179.3590938743955,1190.2345860157664,243.75123139661784,-921.1968346274707,250.0676961221413,253.44974880445056,156.65504470388612
0.415,1.5710092817728776,0.5592026992464891,0.5956777464050975,-0.1763806753570615,0.0148783820945338,0.0489982462240823,-0.0509023738400512,0.0019563887355733,0.0468443262888493,0.9976022865053448,0.007647932710862,0.0050543094996767,10.629421065039976,-0.0540976255668091,-0.2029091893346788,1.193154175224744,1.3865270458783143,4.137530234539636,0.6237847981138922,1174.7277210082043,1185.4373386850818,1180.076361948238,1191.0709915886096,148.25466020534043,-714.3563506845185,313.03152684404586,418.84202527767656,156.6603467659864
0.4174999999999999,1.865624831702728,0.5951620468639652,0.2222144567559191,-0.1724846288329183,0.0170927333581795,0.0503938725660092,-0.0511151406102123,0.0019822294865175,0.0469055844997962,0.9975884827146208,0.008047505692645,0.0071765815392366,10.612701869990374,-0.0540055674029987,-0.2007741906167616,1.195252153773205,1.3864350245190122,4.137310798959115,0.6268082159789953,1174.9324381866847,1183.950073336103,1180.924251508616,1192.3287961421547,-5.447150450709216,-521.4502245311504,384.4098140263253,615.2435935679995,156.6658053921936
0.4199999999999999,2.223244175989751,0.5638307416316458,-0.2576959628791224,-0.1678114993100345,0.0189198004864124,0.0506117429426365,-0.0513132078241211,0.0020102469426743,0.0469705149180933,0.9975752234920044,0.0087877506862521,0.0095632077663276,10.595413209396368,-0.0539066813214791,-0.198566593463352,1.197316426894268,1.3863441861731103,4.137097721007264,0.6298366867288757,1174.7004852559508,1182.830087562426,1181.9984110183696,1194.1472095564495,-159.72992691554268,-314.66294825804624,394.2889195316635,681.1796852098263,156.6725364703053
0.4224999999999999,2.523601789925315,0.5019997244028107,-0.642429115989027,-0.1635590967010496,0.0198145992150576,0.0495451287100079,-0.0514899684431303,0.002040467443064,0.0470409232286038,0.997562765455594,0.0098605060061078,0.0122845263699265,10.577564574688672,-0.0538009788285683,-0.1962692721285244,1.1993485845654477,1.386254348378494,4.136891931699022,0.632869339686305,1174.133788552107,1182.3767585948128,1182.8956961062743,1195.734694568204,-278.09568119500886,-103.3501584894565,352.96689038209445,598.290192127842,156.6782962256548
0.4249999999999999,2.805519270707914,0.4322399922194783,-0.9603111272899446,-0.158268554428453,0.020302425235485,0.0470822254437434,-0.0516447092801176,0.0020730718614506,0.0471156196266251,0.9975512039595846,0.0112408426203417,0.0152851920329798,10.559171341109913,-0.0536889119543052,-0.193881318564998,1.2013476970644674,1.3861654324336543,4.1366943552911115,0.6359047482508654,1173.3100068499757,1182.3133367699788,1183.76324547028,1197.1386605170887,-374.6386708835868,41.250432522429,369.0191893622792,516.4484013060696,156.68421224277898
0.4274999999999999,3.0726850543881365,0.3625854092656816,-1.2112818781298396,-0.1500463454343352,0.0207466346867457,0.0425247794365096,-0.0517805261841166,0.0021078794615141,0.0471912103780448,0.9975405437374126,0.0129018524649642,0.0184321576104085,10.540254880072014,-0.0535700149700594,-0.1914130505741464,1.2033111558777736,1.3860770032581364,4.136506194904492,0.6389428482198665,1172.260595197689,1182.5830107574247,1184.7407920530857,1198.3169365747344,-357.16074267929764,146.5107476550655,342.05941448949454,312.8720504023474,156.69149236403803
0.4299999999999999,3.1908845099196497,0.3247583783760015,-1.2848771330193507,-0.1414445135587788,0.0212038618072938,0.0377550008788209,-0.0519002413827303,0.0021452960592009,0.047264825690736,0.9975307780521494,0.0148028674836612,0.0216053094308361,10.52084234411247,-0.0534453481818046,-0.1888756271028629,1.2052360371138664,1.3859886814031515,4.136328606347172,0.6419837566422189,1171.5242031365792,1183.045890508254,1185.4735425427275,1198.7030207691007,-227.7816198178696,227.8479529125432,265.3493719651576,6.257175881273719,156.6977103676722
0.4324999999999999,3.1551639927528115,0.3101997318791344,-1.2107738863820399,-0.131634959868952,0.0218959122652444,0.0329297521212736,-0.0520100452540874,0.0021887694073252,0.0473338037016495,0.9975217076396464,0.0168346944519887,0.0246262860997843,10.500967752571595,-0.0533237028644445,-0.1862891761575282,1.2071173062141272,1.3859000592673496,4.136161598240306,0.6450276957133185,1171.1216870985995,1183.7222505219877,1186.0675389129115,1198.3482224541408,-77.97753188192466,342.3638417376421,211.74270311071248,-329.40466725153755,156.70408637754397
0.4349999999999999,2.91725855863888,0.3178107518885497,-0.981115331329484,-0.1200767319729115,0.0229520246637833,0.0283470535149771,-0.0521139341767888,0.0022384344011914,0.0473974414130263,0.9975131607838312,0.0189612295740312,0.0273715070336661,10.480671174058967,-0.0532059434011189,-0.1836695176015782,1.2089504155784436,1.3858113058614474,4.136005224342744,0.6480755232209486,1171.1343154771696,1184.7577097169424,1186.532256058281,1197.055997432843,81.80257460576279,413.9961535183826,114.59970825649168,-602.3432006547404,156.71192199100423
0.4375,2.576533215872946,0.3443143699125452,-0.7156765448450265,-0.1121265136070932,0.0238207562244915,0.026199708500505,-0.0522154731317437,0.0022921218355647,0.0474549797065916,0.9975049962014548,0.0211937173831659,0.0297375977821024,10.459998979642412,-0.0530870526893674,-0.181031989759489,1.2107304798026968,1.3857222944005143,4.135859372948016,0.6511286514964346,1171.5306999716283,1185.7922312895796,1186.640537454194,1195.336506450867,204.9746507573216,444.91548451596793,-29.96814905609424,-786.727354621916,156.71860693261684
0.44,2.143039151595001,0.3928334620769813,-0.4354621331348865,-0.1070645201177359,0.0246005739735939,0.0258700502168465,-0.0523178041894818,0.0023448149306368,0.0475065657660649,0.9974970569682884,0.0236029567069229,0.0316411276031864,10.439003408081147,-0.0529549794385949,-0.178390993867725,1.2124524668813863,1.3856330648847504,4.135723596806626,0.6541878253363729,1172.1591887309562,1186.9822871395222,1186.3824153130004,1193.1223606597334,248.68938451695587,496.0955852593993,-171.32922328796653,-935.8742886867269,156.7254553032381
0.4425,1.680335796816368,0.4604804034784917,-0.1843609136883156,-0.1038430692821358,0.0254389609652338,0.0265357572442252,-0.0524242719518843,0.002395540164793,0.0475518212765978,0.9974891898942688,0.0261731959184175,0.0330123377763233,10.417742064593616,-0.0528071425833749,-0.1757604337759203,1.2141106841587517,1.385543240711142,4.135597145970488,0.6572543878735704,1172.7741468942131,1188.2727092158766,1185.783891337754,1190.6571350074335,185.45212724502545,526.6771628894726,-322.68176643847227,-1007.600750333494,156.7324411472992
0.445,1.2261269310842624,0.5502893466936802,-3.166060730520892e-05,-0.1015891841729583,0.0264023653569867,0.0276286467223834,-0.0525345991052714,0.0024433293118543,0.0475887086854186,0.9974815092962724,0.0288891330018993,0.0338700149646658,10.396275662674679,-0.0526399989359912,-0.1731447383432805,1.2157009844779731,1.385452449846301,4.135478623263318,0.6603283374165876,1173.086449367181,1189.6156729539696,1184.7690064808082,1188.084356908066,2.499912120902079,571.47548266289,-532.7912354464838,-1110.9225672807943,156.739595399637
0.4475,0.7227970928695823,0.6783625450385128,0.1294301849833363,-0.0992199911394971,0.0276814892680045,0.0288422521114036,-0.052648496717573,0.0024891726787458,0.0476182714838685,0.9974739777589288,0.0316981913960599,0.0342454160913749,10.37466685549828,-0.0524554072244139,-0.1705468000038215,1.2172198519087227,1.3853607712807783,4.135367830097009,0.6634078801832018,1172.7866464548179,1191.130086629191,1183.1199351605217,1185.1025221710295,-253.11736340554464,505.08814674967607,-660.9010234692045,-1047.474897469464,156.7483786422803
0.45,0.3509438341635521,0.793653493969109,0.1652511775391642,-0.0976963654464481,0.0288179159511628,0.0296015052845019,-0.0527631586690055,0.0025345104964276,0.0476425300321571,0.9974666427754008,0.034542117774998,0.0342308625267638,10.352977223840796,-0.0522562931050045,-0.1679622316956545,1.2186658649834499,1.3852684093435983,4.13526497372723,0.6664915162493443,1171.8208625501536,1192.141113687718,1181.4645013634622,1182.8469824207186,-545.2530698149071,302.925814175978,-694.4394078772342,-829.7673534207654,156.7558647569389
0.4525,0.0428014742238688,0.8995435919126183,0.1418640332163083,-0.0970238053684982,0.0302231694451187,0.0300652404736939,-0.0528764138219306,0.0025791190876422,0.0476642756606552,0.9974594859033006,0.037397563155608,0.0339095565415042,10.331264934532816,-0.0520419080349357,-0.16538728034024,1.2200390432405508,1.385175276456958,4.135170034200113,0.6695783516810317,1170.060381105743,1192.6447157000707,1179.6477381211355,1180.9536854039256,-937.8324534001869,46.87807003288067,-803.9575717978998,-734.7227465431381,156.76352375227435
0.455,-0.2320165794770946,0.9816988445114496,0.0687154689425909,-0.0973167080189111,0.0326366633200372,0.0303197636919501,-0.052988360064629,0.0026219961273292,0.0476851590721056,0.9974524256306624,0.0402538761717473,0.0333206022169955,10.309582030147558,-0.0518099076210732,-0.1628228477961912,1.221340350743738,1.3850814675297811,4.135082775045634,0.672666703089626,1167.1317002831527,1192.3755040378824,1177.4447135044727,1179.1733686880027,-1178.682634765299,-277.8023661093355,-792.5015703695855,-570.4319972443041,156.7729112333556
0.4575,-0.3646069203092974,0.9817978285111136,-0.012478467649791,-0.0982473522744509,0.0355089977244866,0.0303036716871658,-0.053099385928,0.0026605779291068,0.047706570053332,0.9974453822835644,0.0431325890545143,0.0324966480270754,10.28797088843263,-0.0515545164793149,-0.160269644590942,1.2225724082976457,1.3849877573349783,4.135002187505793,0.6757554410894812,1164.1669679319168,1191.2557038695243,1175.6852302692876,1178.101525417704,-1247.8529571746992,-654.275170535629,-678.014815108599,-354.07080420754903,156.78089373857816
0.46,-0.3782971154679283,0.876538840378625,-0.095282875154623,-0.0996380384738966,0.0392273171448375,0.0300411673032058,-0.0532089453671213,0.0026936482614371,0.0477304634775807,0.9974382959877828,0.0460303262656836,0.0314892138598537,10.266461361233585,-0.051273742374567,-0.1577247880643555,1.2237394011227745,1.3848956775303183,4.134927264432035,0.6788443782562374,1160.8924354972792,1189.1041281852042,1174.0546394289297,1177.4030146669652,-1457.8956337195891,-1175.4024380716587,-695.9886505471326,-245.42616602302564,156.7890343919617
0.4625,-0.2428694101510365,0.6100406326046712,-0.1764471400525788,-0.1014665932475912,0.0437352004145696,0.0293875535338743,-0.0533170810190733,0.0027226178224938,0.0477594032707147,0.9974310401059155,0.0488919806284115,0.0303361310549356,10.245068899300968,-0.0509726323470396,-0.1551855290591192,1.2248461455056208,1.3848057231593525,4.134857360482175,0.68193458622667,1156.8774897633189,1185.378691679166,1172.205287016552,1176.8743945875888,-1452.9004477446492,-1525.472826731037,-676.6423872942136,-166.00674253850215,156.79897423199967
0.465,-0.0016401939976044,0.2822405980420045,-0.2167241194206813,-0.1027828474714704,0.0464793592451867,0.0285247564160144,-0.0534219948548122,0.0027513117311283,0.0477934579668628,0.9974236995612836,0.0516143731444411,0.0291098090583001,10.223792454851097,-0.0506617343779046,-0.152643899499497,1.2258985921347885,1.3847174444391404,4.134792235402681,0.6850250617237535,1153.627933258556,1181.476764051549,1170.6714274924586,1176.5729809542727,-1252.3893688550731,-1665.8340795446732,-635.510158769784,-125.00865760648583,156.80738933547786
0.4675,0.3605809476499759,-0.1118833056677661,-0.219254007726934,-0.103314417463596,0.0473511745622431,0.0273717902705355,-0.0535206513312549,0.0027808668517526,0.047832012467923,0.9974164666859076,0.0541525186832446,0.0278978012007296,10.202613272241546,-0.0503447854747846,-0.1500889907685955,1.2269037703731231,1.3846303739523476,4.13473211160562,0.6881144013096882,1150.6155429190435,1177.0495212814424,1169.0277362227027,1176.2493512995563,-1257.5966843980939,-1983.7591775581568,-769.0041590415597,-188.9103088380578,156.8159266397225
0.47,0.9003721568942257,-0.5866711075473122,-0.1786964484720639,-0.1023420991031523,0.0459246536965284,0.0259521291152371,-0.0536082955743682,0.0028099837305111,0.0478746947465885,0.9974096227383888,0.0565156452165006,0.0268115203003509,10.181494732245117,-0.0500192753801661,-0.147505984097608,1.2278694721769374,1.3845440940009297,4.134677784156033,0.69120194770535,1147.3399498365654,1171.5579681637582,1166.8264066972508,1175.6284294100824,-1147.0953733750312,-1981.6658148171407,-850.5869452332256,-294.1887939588011,156.82629555009683
0.4725,1.4009033991890747,-0.9268277475958968,-0.1180251861298371,-0.0998767729111557,0.0427875871987092,0.025141528311636,-0.0536805893810741,0.0028367733165673,0.0479201378636379,0.9974034757183728,0.0587254944771737,0.0259441599099584,10.160383824214447,-0.0496809456532217,-0.1448815095198066,1.2288028778440558,1.3844584851117718,4.1346300884063085,0.6942871937210676,1144.8800660521683,1167.1411922073569,1164.7748014965368,1174.7784073297623,-941.5082380765389,-1671.9759351744399,-859.8867022590632,-431.5702304316797,156.83502850314727
0.475,1.9027650221979195,-1.1559481158328924,-0.0503308365065812,-0.0956848406102672,0.0383106635259154,0.0251053308231905,-0.0537390851369476,0.0028638458672719,0.0479663057446945,0.99739803322824,0.0607081793532225,0.0252647406299208,10.139214550324,-0.0493370185798248,-0.1422165745819785,1.229707963716122,1.3843736335516097,4.1345894957958285,0.6973709744670438,1142.6324086461827,1163.198088487886,1162.5269731859555,1173.470578257924,-877.2669805139222,-1466.0700920031543,-920.2670032644157,-602.8494604014209,156.84384533025923
0.4775,2.3671236534038775,-1.2735456233300917,0.0053493007616725,-0.0902961575674787,0.0336205559275749,0.0256534429150635,-0.0537840915697198,0.0028914482149509,0.0480134882138959,0.997393263653304,0.0624440536146232,0.0247570495159337,10.117908497656243,-0.0489888517724476,-0.1395096561642482,1.230587760659008,1.3842892519001484,4.134556330865289,0.7004550753919254,1140.4937311495987,1159.810841747341,1160.1734664802148,1171.7641600277555,-842.0910235729566,-1198.772514502401,-948.999212696263,-764.7431271612355,156.85272406141536
0.4799999999999999,2.743797246322562,-1.2614644175840564,0.0307239259312503,-0.0837160002930323,0.0294898335190173,0.026508767104061,-0.0538199408326649,0.0029190769800097,0.0480613058073762,0.9973889527464956,0.0639254327923293,0.0243162231505044,10.096379310605158,-0.0486360104688405,-0.1367696986820393,1.2314423831542625,1.3842048963496485,4.134530943222613,0.703541022772022,1138.421953528318,1157.204225915374,1157.7819771224742,1169.6468626221179,-900.2272802828065,-957.1409764259539,-1039.8963378813385,-989.5614874778048,156.86166957965844
0.4824999999999999,3.0476518967247075,-1.1305050368873504,0.0197821538475293,-0.0745231699835745,0.0257064974078825,0.0274391027041708,-0.053849690865996,0.0029443137403423,0.0481090700939375,0.997384975784928,0.0651851299058056,0.023856560924087,10.074535295857991,-0.0482728423991533,-0.1340031492758957,1.2322706271311523,1.3841202445556875,4.134513069603145,0.7066304860066763,1135.9925947481847,1155.0251368652112,1154.973984790808,1166.8163525903665,-872.4098691747249,-645.3453871329197,-1009.6573981272732,-1052.6191077753072,156.8724729829729
0.4849999999999999,3.1516009038051265,-0.958473972131598,-0.0177869748006544,-0.0659221565303145,0.0236307155172588,0.027903025034203,-0.0538794652644188,0.0029680231430555,0.0481555187914443,0.9973810613062694,0.0661870222427018,0.0232306954273272,10.052284777608806,-0.047901891812016,-0.1312240086759089,1.2330685280321785,1.3840352270235838,4.134501745302593,0.7097236892784674,1134.0599041824444,1153.9774989797095,1152.7336901318379,1164.3837670832413,-730.3820137602991,-275.5814765056127,-872.9964888039824,-951.3745061809904,156.88152819573224
0.4874999999999999,3.0861612876584714,-0.7604902211493929,-0.0679790097431177,-0.0570934274213572,0.0223192364019708,0.0278267142100648,-0.0539144791827305,0.0029914826183566,0.0481994384381612,0.9973769841386436,0.0668886795101321,0.0223090337009508,10.029538873903494,-0.047526559107406,-0.1284444230015255,1.2338310543262208,1.383949813518844,4.134496023770566,0.7128197100841267,1132.3406846793832,1153.647229482683,1150.6090023467882,1162.0594800594615,-669.8495038970117,-9.510034696904759,-913.7393130713455,-968.8835970698609,156.89063313503993
0.4899999999999999,2.822332670063457,-0.5263993942810617,-0.118135566686474,-0.0474305111493756,0.0211738030636461,0.0271210583055773,-0.0539547395680718,0.0030111335358602,0.0482417151143634,0.9973727118188755,0.0673528974479803,0.0210622514404432,10.006213604383747,-0.0471379799504041,-0.1256647447262539,1.2345539104875851,1.3838636688633308,4.134495969537298,0.7159180437754687,1130.7106566629593,1153.9299488062247,1148.1649935664811,1159.539349097892,-498.3207915199269,187.9690271125126,-883.774833628194,-871.1968926379988,156.90161194412835
0.4924999999999999,2.472432920496556,-0.3495293673004365,-0.135923338374282,-0.0407885824564242,0.0204919579964931,0.0262717143822574,-0.0539971686442902,0.00302581538472,0.0482846962271277,0.9973683008656592,0.0675997772668169,0.0195270111433616,9.982234333498226,-0.0467332077414558,-0.1228781664718753,1.235232462759795,1.3837774071397688,4.134502329339091,0.7190188163125407,1129.8490807217836,1154.5870746182459,1146.1901281786472,1157.7034955962715,-217.73594190849488,308.8156854278165,-779.1294066327731,-685.7442137827087,156.91080174594398
0.4949999999999999,2.0272498267052543,-0.2017549546910174,-0.1178452736096785,-0.0355864995339817,0.0201196259992035,0.0255315930277675,-0.0540367385921812,0.003035811616434,0.0483288835523104,0.9973639982840748,0.0676211983501715,0.0177847415240622,9.957538502473568,-0.0463127385651716,-0.1200740949176413,1.2358616540880127,1.3836919194391657,4.134516734009221,0.7221232596413873,1129.6219769534168,1155.474027233364,1144.2693465333173,1156.1106280289785,54.30303649236516,389.47425245264606,-825.1882869762078,-667.6494827310756,156.92002999293274
0.4974999999999999,1.4309007432549088,-0.0629925420985827,-0.0523476674833383,-0.0304674252219376,0.0200120684727759,0.0248755115937944,-0.0540716777089334,0.0030463325159166,0.0483737652279984,0.9973599074085808,0.0673085696497489,0.0158628741018851,9.932078899384996,-0.0458899354166612,-0.1172505766609855,1.2364347629218955,1.3836078228529696,4.134540233785853,0.7252318351545906,1130.1205959042454,1156.534445880509,1142.064186743766,1154.365248182616,300.53545105988604,348.5037129630652,-779.5975122553039,-633.8412131316993,156.9311437715089
0.5,0.917372863886886,0.0203092042405131,0.035029160629093,-0.0271785360277536,0.0201748292116115,0.0245114910153568,-0.0541012053668801,0.0030610157076099,0.0484190266206604,0.9973560726261866,0.0665865960035681,0.0137758366005256,9.905823566900146,-0.0454747027704485,-0.1144093113998978,1.2369450285287031,1.383525195915316,4.1345740939192,0.7283433071986555,1131.1246542087163,1157.2165457981791,1140.3713589720408,1152.94142196332,492.61676174796173,189.197481338349,-627.3785352434895,-586.0020918878873,156.9404350965801
0.5025,0.4332474705000296,0.0734617092094813,0.1465714943985164,-0.0256682140658944,0.0205570817973648,0.0246447722556558,-0.0541287787291591,0.0030846113079005,0.0484643438551671,0.9973523050764737,0.0653570604753171,0.0114651163010552,9.878757061917748,-0.0450803360961037,-0.1115630964398078,1.2373851799210012,1.383443431697988,4.134618640583461,0.7314562408590303,1132.5836797129853,1157.4804332872009,1138.9272940675487,1151.4352377231767,625.4902435528487,14.266508517857789,-522.3340430432921,-625.4454486062053,156.949753235155
0.505,0.0110711455190778,0.1071286971098938,0.2679780951765837,-0.0261508360159201,0.021069903827055,0.0253914641522055,-0.0541582098539369,0.0031189306842262,0.0485096497448272,0.9973483935510342,0.0635831990382336,0.0088738533168684,9.850878993176654,-0.044712881511859,-0.1087262935288677,1.2377490541775835,1.3833619209965566,4.134673749656559,0.7345695186017648,1134.2521054264805,1157.2878783407687,1137.7596887568243,1149.8141947202887,671.545108731288,-196.33399448753133,-390.79959319401456,-673.1391936367794,156.95909038534307
0.5075,-0.2994670575954447,0.1282069964986972,0.3903657522559545,-0.0284308581976878,0.021608156964292,0.0266438806537641,-0.0541931465393177,0.0031641917211321,0.0485562847259108,0.9973440729824572,0.0612647809006376,0.005958371423521,9.822203306990678,-0.0443744114917881,-0.1059128195721896,1.2380317505785512,1.3832805318413852,4.134738695102891,0.7376815511130012,1135.9414052566417,1156.4987633147632,1136.9732961015786,1148.0695417549928,690.5161768848751,-473.4184311863824,-260.1456776334087,-773.7140581899432,156.96844639822064
0.51,-0.5247717123993724,0.1583090367749552,0.531560354335997,-0.0311607157890369,0.0220424146937684,0.0282089945791345,-0.0542350147299554,0.0032206011982268,0.0486050807723121,0.997339224403184,0.0584066573685588,0.0027299418612042,9.792757007152304,-0.0440665093963507,-0.1031305594598709,1.2382298820958875,1.3831992315517296,4.134812307784681,0.7407914310985518,1137.704686310905,1154.9207861848367,1136.4589603686572,1145.9456244293392,567.6848903102502,-662.1246047423169,-128.925459109817,-757.5705645561972,156.9796900989815
0.5124999999999998,-0.598576270256273,0.2034630723256944,0.6441824761814651,-0.0325359685777591,0.0221167841790771,0.0294111406187242,-0.0542817488013848,0.0032851646500249,0.0486576868008666,0.9973338893537272,0.0550838953686657,-0.000725516985279,9.762578270132472,-0.0437823229106171,-0.1003781892823164,1.2383418188826372,1.383117888534882,4.13489351401444,0.7438988835329878,1138.779829708193,1153.1881402910517,1136.3286688060296,1144.2816889322119,320.06776728608173,-747.4134194782883,-12.306122687823507,-608.8184514072503,156.98906978168867
0.515,-0.5755040171038898,0.2858161217267311,0.7513582920255835,-0.0333636710047654,0.0219315973578552,0.0305760612466351,-0.0543285573858067,0.0033535805636441,0.048714850314702,0.997328306790483,0.0514014622000312,-0.0042629237403537,9.731715398335572,-0.0435112716741326,-0.0976467870064907,1.2383670100031796,1.3830368699110276,4.134981630728267,0.7470051318629185,1139.3050251473353,1151.1837190874453,1136.397429755218,1142.9015321723027,90.59358935628543,-909.8149811405613,46.8716259168104,-508.36345769189353,156.9984553344858
0.5174999999999998,-0.4550892065064398,0.4347429323321936,0.8660963048751646,-0.0343012743290896,0.0218128126692346,0.0321140189004911,-0.0543720270567919,0.0034218453285996,0.0487739526758576,0.997322804212353,0.0474562240603049,-0.007758684746038,9.700226014892941,-0.0432434607025224,-0.094929936577744,1.2383048032108843,1.3829560879636151,4.1350763283600145,0.7501121817717084,1139.2327976549743,1148.6390653853489,1136.5630269356136,1141.7398716437524,-141.78415519036196,-936.7209411399008,54.008093519814736,-330.1760052199822,157.00971971022895
0.52,-0.2841122904666589,0.5936521973738129,0.9364621105877416,-0.0350783997381315,0.022191761204898,0.0336656668472653,-0.0544146561353284,0.0034894947349626,0.0488311988501636,0.9973174320196224,0.0432731692502316,-0.0111979440574153,9.668176134090055,-0.0429785105945441,-0.0922344589474259,1.2381534444257332,1.3828756704198055,4.13517670580167,0.7532203182064497,1138.5961043713835,1146.5001143817456,1136.6674702228172,1141.250652146203,-363.17602133390176,-844.2111182513136,14.318090009783178,-97.79078296346589,157.01910443008802
0.5224999999999999,-0.042573033108638,0.7655729523971506,0.954006598391382,-0.0355366172005865,0.023510036715142,0.035932352265838,-0.0544586622436116,0.0035565504557775,0.0488825177079607,0.997312269364955,0.0388724421547437,-0.014558961769794,9.635637298560116,-0.0427173403676881,-0.0895655470157855,1.237911834858868,1.3827954789508858,4.135282421169868,0.7563276378812461,1137.4169175483048,1144.4180097940923,1136.6346173856623,1141.250917728935,-627.2890000677302,-894.093027855387,-62.69411177709111,88.99487640983342,157.02848238096584
0.525,0.3264483062006539,0.9482115847759398,0.877253527699632,-0.0352941851606873,0.0263271796448116,0.0397599392758566,-0.0545044330061115,0.0036215107015045,0.0489262203124898,0.9973073858950712,0.0343127096201659,-0.0177883472111738,9.602684724960705,-0.0424571548261655,-0.086923219948364,1.237580107116086,1.3827152092550636,4.135393684724592,0.7594325060956748,1135.4596593710448,1142.0296492424688,1136.3539996639315,1141.6956265282522,-797.0340964800919,-855.6789262294834,-149.83602568395312,207.4303902634254,157.03972288118027
0.5274999999999999,0.6968219368238427,1.0523765913108607,0.7120585695917531,-0.0342907908247812,0.0294465365931056,0.0434165060357396,-0.0545493075150898,0.0036817541376785,0.048962593961631,0.9973029265339168,0.0296836923721429,-0.0207802006614046,9.5693959408909,-0.0421922936326464,-0.084299495463438,1.2371596897216024,1.3826349764979735,4.1355113524586065,0.7625335950712127,1133.4317470659043,1140.139615162945,1135.8854372572428,1142.288069680252,-883.8529677581382,-738.578820819793,-238.56888832142408,240.3637060767321,157.04907520177915
0.53,1.1263428805221358,1.0817653743010627,0.4411025715646342,-0.0326071278135253,0.0328306708820108,0.0464180048216168,-0.054589169113698,0.0037346130352249,0.0489964503748259,0.9972988925320136,0.025086727169389,-0.0234091355039134,9.535849924480434,-0.0419171769580251,-0.0816821364043251,1.2366526398914213,1.382555108283164,4.135636077478647,0.7656300753548269,1131.040394532254,1138.3367551383699,1135.1611552223246,1142.8974450586359,-1011.006737574643,-713.0785420894873,-331.3578517053881,215.19342108522304,157.0584074015815
0.5324999999999999,1.5963206393291047,1.0403191468017674,0.1031385097567806,-0.0302432124307177,0.0360301239651083,0.0482390737154384,-0.0546199576695681,0.0037870821767959,0.0490328500492539,0.9972952295979048,0.0204443911557562,-0.0255517115442644,9.502126690486083,-0.0416503194732897,-0.0790574586006274,1.2360602451600122,1.3824758216012272,4.135767867168817,0.7687213836471581,1128.3767133780311,1136.5742224524975,1134.2286479987158,1143.3640367856783,-1122.5467306070177,-705.7882273656097,-422.67500455700394,122.25483708884884,157.06771919229956
0.535,2.0945878322651192,0.9140652223990944,-0.2696609107217526,-0.0266158746011722,0.0387641032378839,0.0483064749962221,-0.0546378724789767,0.0038429932197508,0.0490736114851984,0.9972920402388336,0.0157417126501081,-0.0271034792368262,9.468305844863517,-0.0414024713898149,-0.0764125761554857,1.2353835469835848,1.3823974009577402,4.135907067505403,0.7718094222882995,1125.427660879219,1134.8078140015418,1133.0477801995396,1143.50871924408,-1346.895631195456,-789.340824412283,-581.0490555149039,-33.40820125440584,157.07700165838943
0.5374999999999999,2.682919539814292,0.6754361234304168,-0.6851770203419804,-0.0202666003677907,0.0415673171461389,0.046252169434874,-0.0546400081531423,0.0039000577076359,0.0491192072325208,0.997289468008002,0.0110819921014301,-0.0279955178431519,9.434466240670448,-0.0411694372224438,-0.0737371017666674,1.2346232152116097,1.382320563277464,4.1360527088012145,0.7748973221980505,1121.6422352220538,1132.627518330436,1131.3234027211413,1143.1969957794063,-1412.6409452785067,-811.734319831384,-691.2199978014992,-199.8704852703666,157.08810031093375
0.54,3.1258354245397424,0.4179000246211668,-0.95417563483242,-0.0132774638067402,0.043406062640342,0.0429110506648206,-0.0546218166071473,0.0039526010062929,0.049169234834992,0.997287802387873,0.0066357418674455,-0.0281450875483443,9.400685733116719,-0.040938459660964,-0.0710164876080827,1.2337798238666207,1.3822458492430183,4.136203579195782,0.7779853933854087,1118.3644561528265,1130.749142402385,1129.591680210532,1142.5093668177283,-1314.4585513350637,-757.010401487468,-767.0740645546168,-358.91493014064474,157.0973106673905
0.5424999999999999,3.4704203630392967,0.1237417834735721,-1.0991673995871247,-0.004751376777048,0.0444091548116602,0.038550633686162,-0.0545837861247852,0.0039984131729143,0.0492214956455247,0.9972871308274422,0.0025033936288866,-0.0275756161770095,9.367041500557223,-0.0407057663841455,-0.0682478802058645,1.2328526786593363,1.3821734145445683,4.136358764000783,0.7810716199433008,1115.0699424653783,1128.8424663229987,1127.4880323983682,1141.402421128703,-1428.7179068307964,-828.2916581859802,-1024.6042819634104,-571.1148874786427,157.1064748077685
0.545,3.7211806801442,-0.2342542396127396,-1.1136780130433783,0.0069681215034836,0.0441498417646553,0.0334402103211525,-0.0545276201042418,0.0040355685484987,0.0492724666430257,0.997287539564066,-0.0012215157406248,-0.0263468500949013,9.333609237969656,-0.0404680182276279,-0.0654313348592343,1.2318409695908248,1.3821029209773388,4.136517671713269,0.7841544812118459,1111.2208666186723,1126.607684111455,1124.468658800715,1139.653792380335,-1379.0921927306033,-797.452409317838,-1191.288776530972,-700.587516547693,157.1174106240977
0.5474999999999999,3.7714391073654094,-0.5074443889218515,-1.0056292157305082,0.0176701742571487,0.0424453925770757,0.0299101299592351,-0.0544553737908006,0.0040648034004999,0.049319396449299,0.9972890481371436,-0.004494834315376,-0.0245360422317577,9.300462593392592,-0.0402278235688042,-0.0625676346041844,1.2307437967428034,1.382033763420035,4.136680679320232,0.7872334222529629,1108.1744815017255,1124.8552042764095,1121.531588515713,1137.8994835459644,-1173.5502814936797,-668.5279546931264,-1250.2766132457496,-752.0463019115588,157.1264669100051
0.55,3.6540771673311623,-0.7274886384435924,-0.8096259207741098,0.0283989381304631,0.0394023755290567,0.0274076428708114,-0.0543715953500351,0.0040918667224892,0.0493611664530696,0.9972914391229822,-0.0073672023243355,-0.0222744401833932,9.267672655401624,-0.039999530868348,-0.0596635902076885,1.2295596756907992,1.3819646512180843,4.1368486098926605,0.7903088999869738,1105.353115211204,1123.2650443379891,1118.2172757344863,1135.8935608707773,-1185.6028461341782,-662.7258661139871,-1515.5867168759855,-931.1946649007942,157.1354571695072
