t,ang_acc_x,ang_acc_y,ang_acc_z,a_vel_x,a_vel_y,a_vel_z,quat_x,quat_y,quat_z,quat_w,acc_x,acc_y,acc_z,l_vel_x,l_vel_y,l_vel_z,pos_x,pos_y,pos_z,mot_1,mot_2,mot_3,mot_4,dmot_1,dmot_2,dmot_3,dmot_4,vbat
7.378048780487805,-0.3261951410791311,-0.3923521607972824,1.0281313044567086,-0.1863321434224962,0.2316317343159159,-0.0103779401246889,-0.0018416340256328,0.0047472000649766,0.0260562987090296,0.9996471194367196,0.0656597212406216,0.0741199909864683,9.810509391652738,0.022098092958735,0.0230847607333348,0.0092915729703956,3.4886224758101534,0.0179144482435544,2.0751856251963914,1113.2320106850043,1116.4185635725948,1109.9335384280396,1131.741973308965,-441.4552622839464,359.82052514062,-97.05712709598448,533.5960977411038,157.12916148186088
7.384146341463414,0.3411594190606498,-1.7191424930484296,1.5093984695394291,-0.1850817803756831,0.2231611660626723,0.0015592797043888,-0.0024346802903465,0.0053414154569538,0.0260575355851189,0.99964289727728,0.0406668788595891,0.0603510337577937,9.781199553671357,0.0225518148923088,0.0237623920804572,0.0090001616855826,3.488768300375407,0.0180657024265794,2.0752446487444662,1113.5597107105807,1119.001681119928,1109.29457264577,1132.7381743372148,300.29532608688186,315.95406070425366,-99.5950875274124,66.00545948049812,157.12627490361473
7.390243902439024,0.4010950187221321,-2.366012289528104,1.3097086927951787,-0.183486985551889,0.2110498131170939,0.0115447514393392,-0.003002115478272,0.0059376038161652,0.0260804615989498,0.9996374562192674,0.019010153983204,0.0485975600271623,9.755387377770706,0.0228762756252381,0.0244399090203917,0.0085257497643888,3.4888993474227457,0.0182207509690267,2.075286344416808,1116.8941488080154,1120.2716618738664,1108.7189641899004,1132.546917936776,469.0242862845869,44.8087803369633,-49.76730625351997,50.38441364659136,157.12283976069665
7.396341463414633,0.2042555440272193,-2.6266595996845785,0.778270812514955,-0.181325158772711,0.1967814034355541,0.0150860721101194,-0.0035745724086961,0.006470056426738,0.0261353664191712,0.9996308843055108,0.0030910511142417,0.0383665722965274,9.73410076385158,0.0231597752057304,0.0251433357983164,0.0079364382405096,3.489021053554288,0.0183703659744648,2.075318544462368,1119.2795190799047,1119.5481296606226,1108.6876542768248,1133.3526184060756,113.86719091400204,-209.02915270439064,93.1356186765844,161.01705686009862,157.118267304655
7.402439024390243,0.0043700274210033,-2.4785517195693374,0.1568029910172241,-0.1804713964654929,0.1795199590711311,0.0186369326583691,-0.0041401353063245,0.006946597045283,0.0262023533541477,0.9996237746507554,-0.0071920565686314,0.0296878451023205,9.717343764643577,0.0234777592945708,0.0258896313379883,0.0072847879093203,3.4891452630165465,0.0185252161790883,2.0753603635841302,1118.2827730874544,1117.7225258652763,1109.8547644176635,1134.5105405814113,-312.58556788981167,-223.63560668326983,308.53399655614146,141.57651929249113,157.11288972743662
7.408536585365854,0.1588891146848752,-1.8963478662099011,-0.6132721658793502,-0.183284643604592,0.1639075754716999,0.0197341620632046,-0.0046915881011634,0.0074388904532305,0.0262850935638068,0.9996155739238164,-0.0132204622448118,0.0225713466244854,9.705182661487232,0.0238856192729884,0.0266813036304882,0.0065995084899029,3.489275765917263,0.0186919650896117,2.075406536338378,1115.4674999592971,1116.820866164485,1112.4502639909242,1135.0791613242768,-350.0635508758156,-25.89292907842304,442.4768022259444,60.04068277329228,157.10677772838974
7.414634146341462,0.6620394833857992,-1.2776777663705283,-1.1905955054973876,-0.1814346585012643,0.1561728406320435,0.0120865679448549,-0.005243816041199,0.0079634846112861,0.0263674443444057,0.9996066332108444,-0.0163509492966233,0.0163505665986236,9.696716959111722,0.0244094112432804,0.0275063447693544,0.0059189976777537,3.4894070061039635,0.018867473805292,2.075437489177505,1114.0137053938467,1117.4067584374907,1115.2508229813948,1135.242744029866,-36.92717757888108,61.21705337134462,350.74508936579485,-8.427020993059914,157.10014600174475
7.420731707317073,1.0914416234701398,-1.0122667816817537,-1.1207217744987452,-0.1729647137101841,0.151540632445349,0.0019605039307262,-0.0057470061858603,0.0084524289403501,0.0264147475484432,0.9995986939164958,-0.0161400421537256,0.0116646871217461,9.691233304608511,0.0250712562845318,0.0283603120249515,0.0052764681626173,3.4895430329618993,0.0190532337938583,2.07545485792679,1115.0171685254084,1117.5674155958427,1116.727643129531,1134.9763927755807,241.3036402834054,-143.63452782785055,151.45189395698563,-138.75191931240388,157.09316269972626
7.426829268292682,1.3185900335599785,-0.926854646492688,-0.5567176928615215,-0.1647877892845437,0.1445259797484243,-0.004127544575041,-0.0062055249473949,0.008851692954348,0.0264336673786971,0.9995920320514282,-0.012736316480596,0.0080523266078397,9.687704924170426,0.0258714941846296,0.0292454917996801,0.004689053691512,3.489685009924845,0.0192403167478206,2.0754623639523664,1116.956432714376,1115.6551178542243,1117.097797297943,1133.5506474528856,257.6754586959645,-403.2003785319279,43.50011730070648,-358.9235770826033,157.0860240109377
7.432926829268292,1.5826924310739652,-0.7495838645111861,-0.0103335081017244,-0.1585766457348525,0.1386653986124932,-0.0037724092842782,-0.0066829992963092,0.0091951519743729,0.0264320344001285,0.9995858195391611,-0.0078707071672831,0.0039544367126278,9.685273771750563,0.0268031304620932,0.03017719722068,0.0041492210166509,3.489827517724919,0.0194217490724733,2.075475793912615,1118.159552168042,1112.650337808868,1117.2581323649058,1130.5992759818903,103.723253770612,-481.3369128757947,-19.971528089609528,-537.9794222125323,157.07943212069898
7.439024390243904,2.0360009986821415,-0.3935696818787155,0.2600544667126293,-0.148827809753592,0.1343383964010523,-0.0011051582592825,-0.0071394363195914,0.0096094375276383,0.0264202871226903,0.999578951610877,-0.004801863479997,-0.0001427309892288,9.683330126058214,0.0278457446945233,0.0311678828054253,0.0036184552003663,3.4899731295249494,0.0196108628059977,2.0755013423315214,1118.221350443286,1109.7851555020802,1116.8542420773383,1126.9899227917567,-27.002722895864785,-353.1305193891624,-189.84609763743393,-397.29595286115546,157.07241370901983
7.445121951219512,2.3591770963853116,-0.0088211686765971,0.2908591807918112,-0.1337176056046692,0.1325943056133115,0.0002900031783489,-0.0075576016024079,0.0101216670778796,0.0264116077852594,0.9995709872648032,-0.0044995918129027,-0.0041701910325474,9.681612134577327,0.0289533654772173,0.0322113121348085,0.0030542331517616,3.4901363300090744,0.0198125322118278,2.0755220660530016,1117.830250669312,1108.3438680602198,1114.9429360522543,1125.7542033860227,3.665700373873408,-83.49478426089378,-424.4290554178247,46.91953155729682,157.06558559801095
7.451219512195123,2.211215798575404,0.1002304809824119,0.2942527045594988,-0.117474238733636,0.1346832225399321,0.0014942913785575,-0.0079361643579586,0.0106599108041175,0.0263916859301492,0.9995630015147005,-0.0057279935344816,-0.0083831222610435,9.680244289008277,0.0300703771876649,0.0332997349586867,0.00241986133134,3.490321614587984,0.0200258030485952,2.0755395721356087,1118.266054106382,1108.766926425728,1111.6782779868772,1127.5621122009923,122.98428003116936,164.8069682455614,-506.0607664755264,331.33124730392404,157.05897956712005
7.457317073170733,1.676629504426726,-0.2123144294436685,0.3695068478686439,-0.1049303870179693,0.1360617839292254,0.002648398007354,-0.0082965868205424,0.0111364711445937,0.0264096023853895,0.9995545010833068,-0.0065137701529086,-0.0132243009251114,9.679544873779959,0.0311619321096483,0.0344189477935254,0.0017028857419503,3.49052003507439,0.0202385242376208,2.075554143972267,1119.3300589623752,1110.3537091363853,1108.7714632903571,1129.794828353144,117.1429185460626,255.5936116649032,-318.8352599382683,247.50714480097065,157.05257934575192
7.463414634146343,1.089281820380949,-0.7308455929753966,0.4574297898186349,-0.0974271040713385,0.1336836624224058,0.0035624548837205,-0.0085950454374326,0.0115491169209941,0.0264686572863462,0.9995457901947832,-0.006439671509125,-0.017733695997874,9.680001701653074,0.0322301513789771,0.035559574307823,0.0009016920834134,3.4907149567462823,0.0204533772940606,2.0755650517810036,1119.694626283773,1111.883921689934,1107.7900431095811,1130.5804920156384,-33.787749935403845,228.30554783435207,-25.44235646862716,14.84540455371378,157.04687993910076
7.4695121951219505,0.6349597660014241,-1.1536162749392969,0.2435157680556594,-0.0938439973812158,0.1269156276180916,0.0084587072851664,-0.0088102529185997,0.0119245970937897,0.0265258172133931,0.9995379800366108,-0.0056329208867481,-0.0210412030153658,9.68190431444738,0.0333144362055484,0.036696676931677,4.872877973761155e-05,3.4909021471032875,0.020682211737635,2.0755644113429335,1118.9180132314557,1113.137923134365,1108.461190650496,1129.9758698720918,-122.85242860880798,234.36696533959608,150.0348777264602,-163.70184971466725,157.04098712833124
7.475609756097562,0.4119923357098025,-1.1021415286568617,-0.500064724998156,-0.0918763233102223,0.1166074177508664,0.012448378458563,-0.0089963348662369,0.0122950329071987,0.0265724295773963,0.9995305250569284,-0.004513719165523,-0.0235309040915791,9.685412089551143,0.0344694703574471,0.0377915273910816,-0.0008033840311201,3.4910803584014127,0.0209271460824516,2.0755498879289056,1118.1964259348852,1114.7420554135877,1109.6197367403915,1128.5841279947279,-11.049768011848345,359.6896492282606,140.63931570593533,-220.11666966256823,157.0354506965467
7.481707317073171,0.1589520705669231,-0.623049696568921,-1.1996088367623492,-0.0883503952212157,0.1111336824493981,0.004555062080575,-0.0092641218145489,0.0126581849978419,0.0265609271971714,0.99952380754084,-0.0030325363027071,-0.0265110124267497,9.690322534177495,0.0357273553043909,0.0388168822970768,-0.0015966395225972,3.4912625650144076,0.0211881713523559,2.075528592141392,1118.7832599630185,1117.5243822712953,1110.176304256666,1127.2915202420604,145.58398670883935,468.5008811865876,48.88995469965584,-165.79920203997395,157.03037004158082
7.487804878048783,-0.3428193511347966,-0.1859517715674252,-1.0079046917568883,-0.0868420203916081,0.1108574441979458,-0.0093488295566698,-0.0095849547106868,0.0129270855660676,0.0264857199950887,0.9995193659590632,0.0005030290385807,-0.0286299732717448,9.696142812002416,0.0370852920882168,0.0397719200921087,-0.0022995168606058,3.491463755628865,0.0214603333184657,2.0754957642775502,1119.9718404069442,1120.455480793912,1110.2159557001435,1126.5621865064354,153.39174909714438,292.46151120583903,39.98458757379018,-140.9468813236981,157.02577297022793
7.4939024390243905,-0.8864463458558582,0.0035780079608107,-0.0487488820445458,-0.0914142525363254,0.1115235316671189,-0.0131270575240741,-0.0099486232106659,0.0131336301923543,0.0264245255552493,0.9995147681185346,0.0055440076880756,-0.0289056497859462,9.702184192954569,0.0385252339285479,0.0406914548734535,-0.0028837895348262,3.4916826637078806,0.0217237916239509,2.0754550812782435,1120.6538910495688,1121.0909860664883,1110.6639211782976,1125.572655835674,60.95899011812924,-140.95747588411223,123.53448489186924,-257.1332708479796,157.0217252178033
7.5,-1.1195861389110668,0.1436037573209373,0.6493509105605029,-0.0994818002270493,0.110352831110584,-0.0057647064423365,-0.0103225327753061,0.0134117922904308,0.0264103686226641,0.9995076700274796,0.0096551849836729,-0.0264376198636993,9.707702538587128,0.0400176678070961,0.0416450732640262,-0.0033512919257078,3.491911201714293,0.0219787372021741,2.075417761946932,1120.715242725458,1118.736487185569,1111.7224738085808,1123.4264149107285,-21.353430241987663,-436.2248284119129,146.0459944343188,-375.72810562471847,157.0182108848976
7.5060975609756095,-0.9592275260411152,0.358122783787899,0.6527578091562963,-0.106988355197439,0.1106898486647575,4.290843052287344e-05,-0.0106584348038352,0.013751152117888,0.0264451013048032,0.9994985999910712,0.0134263743492629,-0.02015627582878,9.711991524178675,0.0415422158994228,0.0427111428158894,-0.0037264374170217,3.49214918443436,0.0222360809961061,2.0753815035985776,1120.393483363691,1115.771171085855,1112.4449698909111,1120.9906057670796,-65.78546368031566,-344.29859206954814,35.83730506772102,-295.8092374704214,157.0154602480779
7.512195121951221,-0.6353598889020009,0.5038957476389724,0.3396624858837437,-0.1111512195347452,0.1143572558035811,0.0018038282532132,-0.0110026127473936,0.0141124505988137,0.0265052901950135,0.999488224397408,0.0179309854837353,-0.0116518293517133,9.714771365785051,0.0430793599145538,0.0439331488711883,-0.0040508652550264,3.4924010720865164,0.0224973496713023,2.0753406569989465,1119.9129809732588,1114.5377238676479,1112.1595141142848,1119.8189851854793,-47.647466902184405,-49.69649572775,-130.8594061669761,23.97990413644851,157.01299602778275
7.518292682926829,-0.5002268103554234,0.3829934685820565,0.1395741623901823,-0.1120049243351225,0.1178958885642583,0.00108511180371,-0.0113546290998742,0.0144875919853978,0.0265462865804317,0.9994778601233199,0.0237825361353492,-0.001526590075274,9.715932711777523,0.0446235520491075,0.0453428797101491,-0.0043687643670687,3.4926650112051325,0.0227693806112954,2.075306314896956,1119.8124166941523,1115.1651162599069,1110.8491234742407,1121.283043622402,15.788742505314636,45.13374236079768,-263.7914672357868,392.97165455085354,157.01102096951539
7.524390243902438,-0.5277807353084971,-0.0576835770617756,0.1168173752310782,-0.1159552297882396,0.1200514178679435,0.0017643221884788,-0.011717483419179,0.0148205227106557,0.0265694171545802,0.99946820962374,0.0322568750674145,0.0092693732140678,9.715855788275167,0.0461936078960342,0.0469213995373013,-0.0047288269304626,3.492936016850627,0.0230584552738844,2.075272270571676,1120.1055266135677,1115.0881353598527,1108.9425450016531,1124.6113224360993,2.573526516184206,-144.58898114381105,-295.0676002961335,525.0786711292008,157.00954915700856
7.5304878048780495,-0.4701773244877349,-0.6416144784465193,0.0621223365246647,-0.1197804927193864,0.1181443933984281,0.0038297568928957,-0.0120958941490563,0.0151511631453419,0.0265886604778158,0.9994582211335868,0.0425460080979485,0.0199453108986596,9.715145666045096,0.0478353188718198,0.0486335679733829,-0.0051571429693385,3.493205918643405,0.0233693095905143,2.07523837034077,1119.8438011638618,1113.4018360020555,1107.2507381047756,1127.6864420508073,-115.92833125318543,-234.36342651131952,-193.8443645875901,364.8218517227165,157.00854928657486
7.536585365853659,-0.2752766520100258,-1.0438352115403886,-0.0609005231387463,-0.1221410418965826,0.1114766795556178,0.0037165118921625,-0.0124883793830547,0.0154816645720984,0.026601902630142,0.9994479881421808,0.0541687777335459,0.0299800070196457,9.714587192751546,0.049604880584731,0.0504435165446184,-0.0056610009922956,3.493479273318289,0.0236977236761315,2.07520254305401,1118.6917664763337,1112.2300447926411,1106.5785893359507,1129.0603694083277,-200.4673500348657,-12.480902325792602,-30.653880645076423,59.301864751605834,157.0080647589084
7.542682926829267,0.073915372784353,-1.19943700846367,-0.1602473217151774,-0.1238117146961655,0.1042107161657988,0.0023682446956069,-0.0128674962672645,0.0157653559230617,0.0266327132329514,0.9994379687702571,0.0671878171805684,0.0395382057600359,9.714929176708702,0.0515485551152133,0.0523285806883347,-0.0062246828482434,3.4937613341087594,0.024032630355423,2.075153422983428,1117.3990773829487,1113.2496298761312,1106.8769102920307,1128.4096355233878,-103.00088122907805,265.4045368415426,122.49321982416475,-298.99271081351725,157.0079934005907
7.548780487804878,0.4079095777032059,-1.1871055336512923,-0.2097889693916873,-0.1210812993353813,0.0988195148436406,0.0012185718051457,-0.0132145979396419,0.0160262919467883,0.0266489986832033,0.9994288530224122,0.0799565438878792,0.0487622704159316,9.716844658894184,0.053707148820718,0.0542991454504921,-0.0068080148269637,3.4940465905256683,0.0243691235137996,2.0750920219357862,1117.435658168662,1115.4666854858308,1108.072409089904,1125.4141168374313,189.0693846670341,238.74524394633983,311.7681641526803,-626.3162910948489,157.00832345343719
7.554878048780487,0.5705589498849764,-0.8599141092284722,-0.2474448179234005,-0.1176345970201702,0.0906816085214169,0.0002058277546532,-0.0135285313804072,0.0163311505611685,0.0266025844222119,0.9994209200808736,0.0899513622388672,0.0576905960313067,9.720597858143615,0.0560707209410783,0.0563632705586793,-0.007361715704927,3.4943415985280044,0.0247134033988812,2.0750217312851453,1119.7048015862051,1116.1611572413303,1110.6789610743804,1120.771631973451,479.6106391178003,-113.13011680170062,532.6971003505797,-683.2613970220282,157.00899381309873
7.560975609756097,0.6227385326353808,-0.0305806106101304,-0.2704314960485484,-0.1146823379211636,0.0848849701367674,-0.001093366319894,-0.0138317664116241,0.0166757857065829,0.0265324467768525,0.9994129024692936,0.0958979387918882,0.0657834393910545,9.72640510631134,0.0586228201421519,0.058519869905047,-0.0078509053135723,3.494659979786407,0.0250729893200441,2.0749470206506433,1123.284568401806,1114.0870499150783,1114.5687151917407,1117.0816607761867,541.7037806073729,-487.6825006412332,574.6176625789925,-351.1115243289702,157.0098819154187
7.567073170731708,0.5386053220939555,1.0063739005740115,-0.1817129083305994,-0.110926956749043,0.0898677034076728,-0.0035222394425086,-0.0141761658071467,0.0170312725348122,0.0264780471977113,0.9994035263029772,0.0976973446994778,0.0721071896758521,9.73401781399426,0.0612916875709448,0.0607421490819401,-0.0082632965122611,3.495000400021579,0.025453015129204,2.074873138295729,1126.3109452521492,1110.2138096725344,1117.6864935448564,1116.4897841157804,394.807678470066,-610.6177188345284,248.4066047046756,39.196677403960194,157.01087337501727
7.573170731707317,0.2365103816372413,1.842364311215376,0.0361699505160936,-0.1078089185670186,0.0997115435888773,-0.0040603489826193,-0.0145659132394424,0.0173378610498846,0.0264577338467913,0.9993932089602152,0.0960365850264957,0.0766067228866478,9.743168205306942,0.0640001292308395,0.0630033178406089,-0.0086026942856495,3.495365988268467,0.0258543546458922,2.0748001607808666,1128.0992961880263,1106.640492368316,1117.5980640296025,1117.5596690372104,250.4329845939908,-460.6263138915824,-222.895972098737,73.71126140127478,157.01182713493276
7.579268292682927,-0.2797660756787664,2.3599497118891715,0.2626291711040202,-0.1074129823406188,0.1118507877007683,-0.002563543841973,-0.014996861038586,0.017610426980618,0.0264745640035826,0.9993816435833504,0.0909226193602796,0.0794834708120829,9.753378254221047,0.0666704331307613,0.0652814257523164,-0.0088684327616666,3.4957565037361604,0.0262773385504687,2.0747221618390608,1129.3650060398807,1104.5964156006862,1114.9682499826768,1117.388701937747,243.5703709311156,-239.85152992084585,-398.83977360547954,-210.77199388102807,157.01254860229895
7.585365853658538,-1.008943705357808,2.66441562283118,0.5141766406697229,-0.1112245553275066,0.1283161227191955,-0.0014964620919689,-0.0154266057922696,0.0179322295940072,0.0265194290412646,0.9993682187829532,0.0814680269138905,0.0816218578463985,9.764088166618832,0.0692510691013184,0.0675760727263286,-0.0090508808622771,3.4961637192576847,0.0267180133679841,2.074645051444038,1131.0696665652351,1103.7154737107446,1112.7341643514867,1114.9892788679297,250.1300925185103,-37.97240547826272,-139.35811509898375,-415.3108798548232,157.01302786137913
7.591463414634146,-1.764220354653547,2.8187300618735085,0.6665298742274874,-0.118103648767298,0.1450111369153231,0.0023105102055647,-0.0158149960291135,0.0183544672184113,0.0266004224296859,0.9993523682534888,0.0676656396094454,0.0836166716991899,9.77464006334764,0.0717271596624853,0.0699168913387401,-0.0091332373509515,3.4965786696812566,0.0271613500876044,2.0745575265912763,1132.4153730218138,1104.1333374850976,1113.2687607741525,1112.323935110249,54.18896615202413,208.37872151848623,195.50766425200447,-270.09646904472635,157.01309558611197
7.597560975609757,-2.167710986031704,2.976774497685846,0.4366623952547611,-0.1327086980941352,0.1607072607034543,0.0086724674822245,-0.0161470442559687,0.018855836064099,0.0266934053906467,0.9993352659105952,0.0511583573080125,0.0853755693597442,9.784345161486234,0.074116787376933,0.0723545948913197,-0.0091085348997923,3.496999396750412,0.027598888740808,2.0744631646558886,1131.7305076158696,1106.2566776317017,1115.118404159438,1111.6954194893356,-287.5502134939345,479.7609977203376,136.23014451446835,95.88206341406863,157.0126252566709
7.603658536585365,-1.896491487280732,2.9900591384901887,-0.0950723747001267,-0.1492059848376463,0.1796545541585178,0.0102888054358702,-0.0164700652703421,0.0194343516015601,0.0267841728900531,0.9993164115164312,0.0330642907282765,0.0851944069138065,9.792418976527207,0.0764444688381416,0.0749383255060633,-0.0089605745030829,3.497430922267612,0.0280472237408889,2.0743652825295498,1128.9086631011562,1109.9840813597357,1114.9301039999386,1113.493228566518,-440.5667034633138,652.0493426806395,-267.5165709021562,409.13010857454697,157.0115878498783
7.609756097560976,-1.2812419858285768,2.5074792379881288,-0.4741667204545473,-0.1585814702430592,0.1993585468080933,0.0066307934759475,-0.0168628221272842,0.0200818603109969,0.0268300610251644,0.9992957395029318,0.0144875344917049,0.0809944420247474,9.798394639915664,0.0787390525796801,0.0776617671384952,-0.0087036346626212,3.4978666214977294,0.0285230507384873,2.0742678762176974,1126.3577429394875,1114.208498883905,1111.856006953314,1116.684811057318,-223.92061259038135,692.6964996682046,-658.3620457285647,574.7024206661736,157.01008754795183
7.615853658536586,-0.952408588702452,1.5189389817952643,-0.5102313248207909,-0.161777153555112,0.2118915907704448,0.0015343511340918,-0.0173543326698338,0.0207468983822339,0.0268157092480444,0.9992740440386167,-0.0026028008563355,0.0714899803944566,9.80174203286678,0.0810153832434944,0.0804936664288673,-0.0083793130219782,3.4983122180334734,0.0290263551176571,2.074181821147997,1126.1779239232246,1118.4315996483726,1106.901298564224,1120.5017946722035,152.3018179700497,613.7621002271062,-779.3334606256038,549.9269318338183,157.00789476042465
7.621951219512195,-1.3129990475099895,0.562941907194045,-0.3514513101853213,-0.1654153805238379,0.2150193561775032,-0.0004688118442987,-0.0179911264331256,0.0213792483586668,0.0267613161455162,0.9992508144837068,-0.0165012025675952,0.0557523465893019,9.802420480052609,0.0832719341729376,0.0833740593141062,-0.0080399399803495,3.4987797215720167,0.0295440329981165,2.0741090367761608,1128.2150821830246,1121.6934025452108,1102.351940360319,1123.3912370552912,252.52287340804048,450.13056527007217,-555.5994819182167,298.6851479772096,157.0051798445849
7.628048780487805,-2.0309010832553573,-0.2229364346981199,-0.316770060259653,-0.1750595106956462,0.2167187036221724,-0.0003139172923316,-0.018729145079873,0.0220132477286345,0.026676864678415,0.9992257080971672,-0.027038190219696,0.0350404322090111,9.800431643068146,0.0854896296963298,0.0862378731221934,-0.0077204190601467,3.499277356326491,0.0300771215572125,2.0740376142583035,1129.257471159908,1123.9209967858123,1100.1256951261971,1124.1442964768034,-119.52248086168684,246.6375596770848,-93.6901730480528,-24.12046438720609,157.0019724294114
7.634146341463414,-2.2974003703749726,-1.0441384738003598,-0.3782815312190727,-0.1909017668119613,0.2158775461652353,-0.0020388292973382,-0.0194474010482749,0.0226635770893358,0.0265939104707633,0.9991997130471983,-0.0337647961651031,0.0128066834269713,9.795981376718991,0.0876639412045505,0.0889967018087165,-0.0074363543999833,3.4997968401794144,0.0306427833610299,2.073949096575116,1126.757490953004,1124.701177663224,1101.2093772743672,1123.0970850505691,-588.2352143827965,-61.29447641336172,385.14240397037486,-149.19560053320026,156.9983726978795
7.640243902439024,-1.5312566910076852,-1.6101946004144063,-0.2390879813594282,-0.2078607968087319,0.2054173814159535,-0.0066071116565417,-0.0201131419480093,0.0233131473975848,0.0265690505699758,0.99917236795923,-0.0359661329302913,-0.0086825760199552,9.78941769107767,0.0898361490972747,0.0915584790084708,-0.007171880517666,3.5003132500085457,0.031247089571594,2.0738414937895406,1122.0838709845077,1123.1735031710152,1104.822553711202,1122.3248379337156,-700.6574798818918,-482.78648138929736,665.2070039142368,104.05608262556149,156.99476243478628
7.646341463414633,0.1969464589559946,-1.7293723889918386,0.1881806327968923,-0.2144772725423233,0.1934868484338886,-0.0079308983615482,-0.0206939907122026,0.0239350596419592,0.0266279041056884,0.9991443653383268,-0.032850696871061,-0.026777137718206,9.781028909357063,0.0920822261028572,0.0938616993697188,-0.0069283571220215,3.5008219966701857,0.0318714934781588,2.0737343514129374,1118.2128875398105,1118.8135376462817,1109.3216578099064,1124.366061667954,-339.22881638237254,-808.5672689417225,632.1794405529433,597.363854192636,156.99064221126218
7.652439024390243,1.6892558789021008,-1.545759265759705,0.4945664061726933,-0.2023062112222051,0.1848192992613838,-0.0031066863073615,-0.0212121350709036,0.0244757768856858,0.0267507817471701,0.9991172005334767,-0.0240482126137228,-0.0401204153214228,9.77136465553821,0.0944637156387932,0.0959450384418445,-0.0067322333318164,3.501346308897355,0.0325021156232844,2.0736383587696854,1117.9469341993567,1113.3129267205068,1112.5320590837987,1129.609762984845,196.86315025756303,-746.8442783656308,416.32182739609055,870.3350420655468,156.9864262229634
7.658536585365854,2.1814671224624926,-1.1824611729290366,0.451145728642066,-0.1866231351152816,0.1757574555880926,0.0004412275757778,-0.021733257438887,0.024949217998146,0.026886245619427,0.9990906020280472,-0.0105220569703635,-0.0480943652324862,9.76095900883139,0.0970345205477136,0.0978990470278095,-0.0066123361367002,3.5018903242054873,0.0331288478528817,2.0735511165346647,1120.6136576649028,1109.705680593042,1114.3987532659564,1134.9799036443635,453.0411906455496,-301.7862416921713,323.79834068209647,576.1924535170514,156.9822496435386
7.664634146341462,2.1014389179462434,-0.6568090507784604,0.2133176332793009,-0.1751056058424565,0.1690440877309019,0.0025958759451876,-0.0222335380886698,0.0254336067516255,0.0269457727410183,0.9990657209321246,0.0047235283828572,-0.0497048998380952,9.750602962611918,0.0998050118780286,0.0998742429852408,-0.0065862019126578,3.502444288687303,0.0337508017871601,2.073459798830315,1123.4718267682051,1109.6326066998704,1116.4808193360195,1136.636500222858,364.7609550282552,241.6562210963029,452.85268321030816,-115.53067767001404,156.9782598049096
7.670731707317073,1.9418247339954728,-0.1432381126623272,-0.0349873369864735,-0.1639269875589776,0.1676408066531334,0.0027789214678501,-0.0227034843129785,0.0259389768043071,0.0269167421605113,0.999042927439067,0.0200337355007838,-0.0445874735331568,9.7411797894888,0.1028051902770778,0.1020042516232215,-0.0066769217197076,3.5030130671443365,0.0343714405222536,2.073369206385513,1125.0619619945155,1112.652707679582,1119.9213469636427,1133.5709929410707,202.3049465477292,578.4179837715361,586.3507477401736,-635.5791558771028,156.97464537678695
7.676829268292682,1.8317702554391937,0.1887107744396769,-0.1246396437111456,-0.1529065024111773,0.1688477511436009,0.0008937659439973,-0.0231324075770734,0.0264683434104203,0.0268694743123141,0.9990204811267632,0.0337717245529647,-0.0336597402787397,9.73351721159919,0.1060401664207792,0.1043640228985215,-0.0068873494176553,3.5036013097535763,0.0350134466216483,2.0732847699171786,1125.9389602626895,1116.6864845507423,1123.6314382108994,1128.885534907284,150.57613642307507,560.310229021472,416.9146670449744,-570.9137605837183,156.9715573288159
7.682926829268292,1.6909924121695887,0.3787158166472044,-0.0779592811757793,-0.1421102459836489,0.1697886368000204,0.000150096167232,-0.0235132093671081,0.0270673874077535,0.0268206204597818,0.9989968064800528,0.043578426562054,-0.0183405688810965,9.728294168501368,0.109485170259409,0.1069965541051983,-0.0071869061982349,3.5042167932119623,0.0356743323871433,2.073195983723892,1126.8982563411384,1119.4857592530147,1125.0056721715086,1126.6086300071227,183.3068809437072,324.932777919171,-84.80372477913033,-86.79845566939906,156.96932078367968
7.689024390243904,1.383888422629331,0.5453617155647614,-0.0715608084076917,-0.1317680246841738,0.1719908696528155,0.0007640021789204,-0.0239042096404917,0.0277057647810574,0.0267653289774668,0.99897140731519,0.0487635461993195,-0.0016843797888085,9.725898111593374,0.1130931586856248,0.1099190172407642,-0.007506036294822,3.5048567528182395,0.0363495658757559,2.073084476241625,1128.174410030296,1120.6490794034155,1122.5972464453002,1127.827017155218,169.21854955923538,72.4603603618128,-606.6348721877076,322.8812431382113,156.96765089459674
7.695121951219512,0.98655311175876,0.5933939384813676,-0.1917890453795393,-0.1241795703109169,0.1766335652320513,0.0013553246680946,-0.0243278494631668,0.0283568931270855,0.0267125451944413,0.9989442317117124,0.0492261152157013,0.01390985495458,9.72615410362669,0.1168095293530229,0.1130939484771538,-0.0077615107418904,3.505519974540997,0.0370481472811029,2.072954800030104,1128.9618971894215,1120.3694221842563,1117.6076859253171,1130.5462061429544,28.910859909862328,-135.6634393742677,-777.3770247429906,343.564270886311,156.9667619378527
7.701219512195123,0.6619723430168911,0.4635306660431192,-0.254977087430995,-0.1202757453417622,0.1793862109577137,-0.0009140989543675,-0.0247596797375927,0.0289934821255264,0.0266982543350431,0.99891564273465,0.0449791385814853,0.0271286010764822,9.72871987217468,0.1206008670346793,0.1164633786280926,-0.0078884741653523,3.5062041815295766,0.0377807302385199,2.072808186196295,1128.5269814926114,1118.9946472159245,1113.1170388264836,1132.0168253367583,-135.872563079627,-247.18158517771087,-562.6984596097731,120.76338490167748,156.96668853200455
7.707317073170733,0.4688004022962,0.1879990745252089,-0.0094273461299038,-0.1177482303516976,0.1818948912569606,-0.0042898221022807,-0.025190208596752,0.0296348127925003,0.0267149616954129,0.9988855820010056,0.0361783960152575,0.0371449722740423,9.732777997094761,0.124427556013531,0.1199412647505931,-0.0078607071486201,3.506903711163529,0.0385464955579164,2.072653956971222,1127.3049147128409,1117.3550126089183,1110.7455095886123,1132.0189303490724,-191.6747051472836,-179.83606446232,-229.64058715172047,-21.75994704875039,156.96733152097036
7.713414634146343,0.2542411082137822,-0.2342741987215694,0.4237523256057388,-0.1141738301592113,0.1837816480913734,-0.0034288828372874,-0.0256289291667287,0.0302783799684569,0.0267379416646387,0.9988545949525496,0.0233075588080912,0.0429154426612089,9.737749984601857,0.1282532840193429,0.1234769534455218,-0.0076922190878925,3.507619099988277,0.0393360401327883,2.0725079582800996,1126.189485088376,1116.801524478579,1110.3165438612186,1131.7514601288467,-205.71999873183543,16.578471787274474,13.02985716619697,-59.503601373633344,156.96851004590312
7.7195121951219505,-0.1372267339957308,-0.623607582517725,0.708133301745754,-0.112665495086382,0.1791429779752409,0.0021373486624646,-0.0259764900893651,0.0308614343958951,0.0267324521589838,0.9988281526285911,0.0089662554138531,0.0463929402263246,9.743213097373465,0.1320294190685906,0.1270413060492704,-0.0074994298514643,3.508356361217438,0.0401450874586072,2.0723808810464655,1124.7961342405015,1117.5571890941292,1110.9044102857613,1131.2932766737842,-262.49675236639155,137.27914372404743,91.60301322723679,-179.507456941878,156.97030707781792
7.725609756097562,-0.4998024955741308,-0.6725902572825613,0.5908201461700233,-0.116595020448352,0.1730895265929759,0.0086561701868228,-0.0262853574482974,0.0313136042470113,0.0267156315456971,0.9988066096689608,-0.003975630464318,0.0466215669250412,9.749240907867945,0.1356986530496589,0.1306238348188039,-0.0073684373411992,3.509136469400268,0.040967607333444,2.072264580443232,1122.988305181469,1118.4756603776527,1111.433653778624,1129.5623448002873,-225.2499152643384,99.07302708381795,-21.74741184245396,-395.36365601743614,156.97251291943059
7.731707317073171,-0.7336217301694268,-0.5298401550357646,0.285666045214943,-0.1203077013725006,0.1707927067253968,0.0091926466104006,-0.0266435798696248,0.0316703975813862,0.0267322610250048,0.9987854260707834,-0.0143514361774146,0.0424325341532867,9.756243675201938,0.1392192095408242,0.1342123442822647,-0.0073172887263214,3.509954433727593,0.0418067004370822,2.0721442651726902,1122.0491840543507,1118.7653967414929,1110.6391979462192,1126.4717686735714,10.320465372103696,49.841021890000725,-265.29978633612984,-464.7061696810424,156.97503748033273
7.737804878048783,-0.9742745361792364,-0.3930311084215965,0.0721245080105017,-0.1242996287756346,0.1682537982084914,0.0093140845592971,-0.0270535391803315,0.0320489865327227,0.0267621927203668,0.9987614473662964,-0.0225938962324434,0.0346406645150694,9.764739087189827,0.1425799029555885,0.1377963836395647,-0.0073145270177974,3.5107880993904024,0.0426724567219705,2.0720178203955513,1123.1141645152752,1119.0834777177747,1108.1982905306222,1123.8951963895427,279.66976915840894,59.191297871324714,-456.6591469778921,-284.1208847678405,156.97776172340156
7.7439024390243905,-1.1685702256289614,-0.2451672136926011,-0.1807843639256495,-0.1320167280221983,0.1658786158824714,0.0116381340940392,-0.0275147964882603,0.0324743230223535,0.0267770504256423,0.9987345917717728,-0.0274654384670754,0.0241959744762458,9.775204311596081,0.145817486198943,0.141351702143344,-0.007310720256975,3.511630343499049,0.0435672081621732,2.071882122154729,1125.459790995307,1119.4872418374844,1105.070183958684,1123.0068798349391,361.8571352002128,-25.34938229693988,-404.5911841259761,-79.25741126318152,156.98060764872747
7.75,-1.2388474734574484,-0.0921911214047757,-0.3566891820008936,-0.1393172187721443,0.1648088617573205,0.0073264661673558,-0.0279888381417002,0.0329825326238973,0.02675603103977,0.998705220206956,-0.0288930937984979,0.0130719872511384,9.787584152014716,0.1490217991286686,0.1448509129387017,-0.0072288961256188,3.512479874386853,0.0444909031343365,2.071734187969245,1127.5270564079603,1118.7743389092755,1103.2642516998178,1122.9286425936502,263.6661023526919,-224.3304675600828,-63.4782808758895,6.94049111618025,156.98350109557668
7.7560975609756095,-1.2129339980530887,0.0155265669358013,-0.3301689641032769,-0.1455774486653537,0.1646058572535682,0.0054809634977509,-0.0284475748019175,0.0335610742479516,0.0266993700230243,0.998674423409757,-0.0259986365235139,0.003074643327011,9.801543281661855,0.1523112875833361,0.1482646200379041,-0.0069752111771163,3.5133334887291907,0.0454427033802419,2.071566962018867,1128.6752312679007,1116.7515044282152,1104.2960585821488,1123.0915199705023,133.9816964230472,-361.9149540024088,386.29830054461775,52.88084408412608,156.9861706483784
7.762195121951221,-0.977565492977967,0.0478371154379615,-0.2696563436672955,-0.1539021930870484,0.1656111919867516,0.0047149761639563,-0.0289200680508669,0.0341385094460151,0.0266673472832189,0.99864218561092,-0.0183733261018483,-0.005351073432424,9.816067958005773,0.1558043015362982,0.1515886923999386,-0.006486017856337,3.5141884634862914,0.046409789834598,2.0713750619180376,1129.1609795350707,1114.360741909246,1107.9752065845084,1123.5735309361396,58.74341314652638,-300.0020046293123,630.9504214123546,47.48170622031362,156.9890183801234
7.768292682926829,-0.5028241303374734,0.0284633540441895,-0.1752756225997982,-0.1591843549510608,0.1663082606095925,0.0022280351013242,-0.0293684844318243,0.0346553847778555,0.0266652750701881,0.9986114642643532,-0.0059264832228995,-0.0104720861446695,9.829956919912707,0.1595886826800174,0.1548571117736837,-0.0057463662406562,3.5150584052636065,0.0473926216132689,2.071183009095356,1129.3916143550537,1113.0929433961503,1111.9905759164456,1123.6705651683112,112.91819066311965,-99.44906207359315,538.771177250871,-54.30502441162855,156.99178394644073
7.774390243902438,0.0240406698445444,0.1471382796886625,-0.0739231049869,-0.1599868416248571,0.1656393824982499,0.0022957595739952,-0.0298000039306678,0.0351315353057332,0.0266583239943084,0.9985822781944956,0.0090691971429421,-0.0119879432940186,9.84208318991194,0.1636590530429855,0.1581455498664723,-0.0048049186318004,3.5159653718829382,0.0483906643501148,2.0710185751163586,1130.5380306407187,1113.147948469324,1114.5455867948847,1122.9112745408759,303.734001382647,62.33239406615298,341.31050136156955,-70.75386360217462,156.99442186269692
7.7804878048780495,0.4231236684968998,0.493330776221931,-0.0244731651346161,-0.1590673742987394,0.1666263943814388,0.0021742726458476,-0.0302700605661966,0.0356538402347481,0.0266711494472118,0.9985492939469724,0.0230538861704827,-0.0108985984148347,9.851662243199224,0.1679857548330713,0.1615191936989595,-0.003711333899885,3.5169197854332475,0.0493976539298974,2.070873182656848,1133.095687542647,1113.8530945432988,1116.152899103782,1122.8077131731627,433.3655898753093,153.43530888868165,291.75420075374274,200.16579992471753,156.99690252703283
7.786585365853659,0.5320891408372052,0.92244164053042,0.0337257505797456,-0.1559513016415305,0.1698486681275595,0.0011608478938415,-0.030740528552441,0.0362102907008705,0.0266996938420427,0.99851417856986,0.0345789624491042,-0.0068641948638177,9.85849890543269,0.1725083203163451,0.1650357416349328,-0.0025782032539719,3.5179133762682215,0.0504212445771244,2.0707346027199227,1135.8229768587105,1115.0191107728447,1118.1035648528573,1125.3523208814213,381.80135752501104,286.734492288783,429.66233687641017,665.0140821020163,156.99901415584404
7.792682926829267,0.166738182287065,1.1931118673576002,0.0668324632935467,-0.1496686689084017,0.1780281391491128,0.0019583689220813,-0.0311893204783117,0.0367702568819204,0.0267648565792565,0.9984781114690812,0.0430084316664305,-0.0002931754608746,9.863075515557876,0.1771855024009329,0.1686977918185465,-0.0014922292228987,3.5189246138444887,0.051480588253761,2.070596778487185,1137.7518016588056,1117.3498566443811,1121.3926836998355,1130.9176410036748,202.91642442892265,461.9477367655364,575.1635237220548,888.8285100412796,157.00107245702168
7.798780487804878,-0.4102117839213361,1.0224713836895865,-0.0419500264058317,-0.1508560115668341,0.1874214871861611,0.0029368371981346,-0.0316318315706734,0.0373164901534251,0.0268649150350495,0.9984412312308673,0.0475555187346575,0.0076856894050476,9.866167696609459,0.1820018950813854,0.1724927427329686,-0.0004948958579594,3.5199512778839823,0.0525814368037258,2.070461440534494,1138.2975674005263,1120.65261975779,1125.1177541665406,1136.191692955095,-11.022515405015774,513.1120825725739,523.2204390141369,550.09449168827,157.0028646901514
7.804878048780487,-0.4870745419232528,0.5678827796760337,-0.2635128986494089,-0.158149513398105,0.1916367531069806,0.001609971283309,-0.0320767255495172,0.0378805999495276,0.0269684752299927,0.998402922422826,0.0473398093696359,0.0159900471541516,9.868902240565282,0.1869184413343007,0.1764005443669449,0.000431898088889,3.5210006880851417,0.0537106147682777,2.0703242620090325,1137.6173807392322,1123.607321065998,1127.7734207609833,1137.6261104145071,-207.43809352100968,383.9683751174896,277.7769075371317,-78.63884600039982,157.00431954913
7.810975609756097,0.0340054674644367,0.1920271413674718,-0.519433986512536,-0.1604180614249374,0.1919643562424032,7.850628832753783e-05,-0.0325326104732659,0.0384854078213898,0.0270013126889285,0.9983640378319628,0.041552044996138,0.0236840452261319,9.87230705935184,0.1918724492672167,0.1804553463568491,0.0013295338962422,3.5220866217526385,0.0548504704280884,2.0701760790114374,1135.7678345527092,1125.3351609177596,1128.5052774291887,1135.2326826380167,-408.4946134717309,234.0288544604172,-8.717002096854815,-471.8659223657779,157.00538962413836
7.817073170731708,0.7530157752402395,-0.0560611817111421,-0.6755655240610668,-0.1567234093729999,0.1924675272832273,-0.0036002438981373,-0.0330045673357717,0.0390796818126194,0.0269250720977433,0.9983274872297154,0.0319271797662324,0.0299864284089614,9.877081020027935,0.1967870433053092,0.1846738852441297,0.0022388071084086,3.5232024951316223,0.0560056560814436,2.0700210515180655,1132.635739111528,1126.4613314862468,1127.6671158573631,1131.8716479466316,-525.1475842569757,196.14701463995803,-177.43287665772726,-379.5191834790588,157.00596929848882
7.823170731707317,1.3253679108467746,-0.3646648227735696,-0.4766372502924056,-0.1506096509190621,0.1928167817936679,-0.0099577342469032,-0.0335121980592445,0.0396219393310878,0.0267509229099885,0.9982939245745198,0.0201529977973972,0.0338701781209966,9.883626877172908,0.2015974636999879,0.1890441402537761,0.0032071085238844,3.5243545874983875,0.0571954353220743,2.0698574574376436,1129.363595720307,1127.7271976816614,1126.341461860192,1130.6043999126628,-358.7257397109038,180.8656774840652,-266.7509592647484,-43.1979628019655,157.00601437345605
7.829268292682927,1.5113445662830052,-0.6932955199698663,0.0431354721828832,-0.1428403680609295,0.1893308643366231,-0.0114721589380734,-0.0340026894885921,0.0401107367327312,0.0265827951748439,0.998262414091755,0.0078263418360624,0.0359843744291683,9.891842406601373,0.2062822127265246,0.1934822908367606,0.0042540312090949,3.525547435578384,0.0584278859792842,2.069694615134586,1128.2610349687122,1128.667010479955,1124.4140553785248,1131.3448435222172,128.1471959715816,118.50754387191058,-495.00848293790995,52.582139777818014,157.0055067899947
7.835365853658538,0.9864380125004734,-0.9517061756793,0.6405407549802268,-0.1310426920433113,0.183553626474516,-0.0081301599912098,-0.0344245465971189,0.0405486601526404,0.0264817871730445,0.9982329928683444,-0.0034204566052554,0.0372155183917499,9.901292304104686,0.210834650781866,0.1979178247554785,0.0053819217870238,3.526774730142725,0.0597012532095612,2.069531822369992,1130.9263664028877,1129.1724116313187,1120.304773043876,1131.2456455197091,680.1592924311509,65.17540815278001,-810.3321727095127,-216.44727743413125,157.0043162165302
7.841463414634146,-0.2708015966536884,-1.094064058603924,1.0720202188498107,-0.1253580090944843,0.1782469006603542,-0.0026725145685904,-0.0348156264678625,0.0410401644647484,0.026497284627729,0.99819882501419,-0.0140787024166963,0.0368752555996847,9.911317718397596,0.2152924347562448,0.2023080707330037,0.0066622570526525,3.5280247148361696,0.0609943349341327,2.069363940615104,1136.5556604861656,1129.4618325305987,1114.5319557113353,1128.7052425778986,896.6811530842782,-20.216306272732066,-862.864228908659,-414.8580151080821,157.00245875980795
7.847560975609757,-1.487764479523883,-1.0290578843660556,1.239288130361191,-0.1347894929144298,0.1701198242709332,0.0046732270194787,-0.035254802209283,0.0416161569082218,0.0266037182030287,0.9981566204102754,-0.0237876929219491,0.0337100133770568,9.921143208050182,0.2197254192215723,0.2066717125368051,0.0081306203681087,3.529281389382985,0.0622979933583141,2.0692012180233745,1141.86150241611,1128.9258713109195,1109.7820385449902,1126.1864014330256,616.2051921106628,-200.4858215395205,-498.9864215308671,-147.01562223622818,156.999875470487
7.853658536585365,-1.9588190311319376,-0.7075916438410949,1.0749442416275845,-0.1501681032222552,0.1640616977001016,0.0133794249308765,-0.0357268446588299,0.0422363772849483,0.026733087117017,0.9981103825084726,-0.0310631983312284,0.0281409429013085,9.929975621653982,0.2242134530278863,0.2110532623780465,0.0097405148578417,3.530539989465788,0.0636319278516807,2.069058509365709,1144.0703579509295,1127.016883487434,1108.446755448764,1126.9123691359935,113.01122897156334,-330.3244759034277,48.64631951797811,314.8298799980635,156.9966058082128
7.859756097560976,-1.8646459352836044,-0.3344545452112824,0.6690041359368701,-0.1609700421752622,0.1620242888448711,0.0189059381197247,-0.0362325393365123,0.0427561143980351,0.0268484580475773,0.998067172198792,-0.0333824626693317,0.0204244629688187,9.937295857023049,0.2288220372978929,0.215468680230446,0.0113852965931362,3.5318183233017457,0.0649980075998431,2.068924692050404,1143.2396881352756,1124.8975240438047,1110.37528634399,1130.02579021349,-210.92669428443864,-284.0503984960236,420.58528629079706,446.97001979380013,156.99296939617847
7.865853658536586,-1.84086804923612,0.0326827409420973,0.2327915095008377,-0.1683662499253022,0.1608180838298802,0.0204782968470562,-0.0367439341866747,0.0431102881422732,0.0269114317465802,0.998031661705704,-0.0299244512575526,0.0112656238461473,9.942543564283989,0.233573452860603,0.2199292097139007,0.0129993220264387,3.533145012671615,0.0663968181757012,2.068794271656788,1141.498081191363,1123.5528542374823,1113.5758443059688,1132.363223035918,-186.21171084535925,-151.0248860204628,424.5017082722744,159.55144262573432,156.9884222488325
7.871951219512195,-2.046259615881547,0.3150559714318926,-0.0085856400796844,-0.1785948641014619,0.1619111166489044,0.0203050414637727,-0.0373269603299552,0.0434109797706144,0.0269667952591928,0.9979952843480638,-0.0239285229340952,-0.0002831369860376,9.945453694319358,0.2384681476871067,0.224398249849611,0.0146605433228439,3.5345172740367103,0.0678227989246362,2.068657840851752,1140.968813612771,1123.055757141116,1115.5521364448712,1131.9715395138037,87.1365029425223,-59.67326141017868,178.46531852967516,-163.42848937740507,156.98337305182764
7.878048780487805,-1.9865124252197013,0.4058677925188113,-0.0569287145009947,-0.1940100786256167,0.165132692944661,0.0200417920776989,-0.0380088204315875,0.0438699130740023,0.0270212862743453,0.9979475724702171,-0.0206045171737949,-0.0143089091545163,9.945721328205748,0.2435003227552919,0.2288505170321911,0.0165023479461475,3.5359131629869025,0.0692828252443815,2.068504785679273,1142.56072147115,1122.825131537358,1115.7522506295015,1130.370192677657,376.5173235429143,-10.163293557358504,26.686140261536732,-183.68462937972888,156.9779407354148
7.884146341463414,-1.2937228942385564,0.3223183490438512,-0.0193591776969129,-0.2075664028687744,0.1680127932746399,0.0199617518540592,-0.0387236139419089,0.044567542477916,0.027081760262758,0.9978872999065495,-0.0224625278944097,-0.0290143871784574,9.943254726122797,0.248680968545111,0.2332635402992515,0.0185471582908981,3.537318687674869,0.0707800735772999,2.0683543731494543,1145.560488290124,1122.931814536758,1115.877577179768,1129.7314830579533,469.45305000642,21.78046109963598,160.73655943047052,8.762352708110157,156.97229275910647
7.890243902439024,-0.2963866618644535,0.2267861764085336,0.0289394502900621,-0.2118131714608546,0.1694568235890221,0.019980113066814,-0.0393791956906658,0.045336509366301,0.0271486332123192,0.9978254825215034,-0.0268139657040116,-0.0421659349280594,9.938292528395321,0.2540130164959984,0.237641326869641,0.0206466497080575,3.538741263903833,0.0723006988759158,2.068217418536524,1148.2857586663504,1123.090746916622,1117.7124525737756,1130.477050637512,360.171276607277,-52.21449029169938,509.5735273983972,205.76159219126387,156.96699928226394
7.896341463414633,0.611892358041837,0.3199642209613976,0.0406605455110749,-0.2082813260842855,0.1696638447924929,0.020113349537653,-0.0399207517724045,0.045935186639435,0.0271916034351534,0.9977759689793811,-0.0292107716111968,-0.0522600181889197,9.93131282154755,0.2594501101994095,0.2420265518213703,0.0225948086888403,3.5402095327476424,0.0738454384568261,2.0680910097880587,1149.952820931676,1122.29505246003,1122.0918884895043,1132.2407707676027,133.85468526143967,-198.9334518759572,795.492319826265,340.8152616213427,156.96130091165068
7.902439024390243,1.1053797894838944,0.65514874214168,-0.055787252129209,-0.2015011648411169,0.1709109972956301,0.0203692207567133,-0.0404212090201446,0.0463066301417183,0.0272075489550501,0.9977385660420248,-0.0282703428024135,-0.0603867795307965,9.923338335067992,0.2648975530348208,0.2464496672412401,0.0243279154029594,3.541738266381368,0.0754105244775001,2.0679786299006855,1149.9181328768557,1120.6647292108175,1127.413578425315,1134.633334315821,-156.6146583722744,-188.6869020460988,794.310091109672,440.39297044208104,156.95572557946855
7.908536585365854,1.3156405879882291,0.9380958629551474,-0.3295634201074707,-0.1935775907864633,0.1766653794119567,0.0200759026751708,-0.0409503979773859,0.0466088793118812,0.0272231146480637,0.9977022957365016,-0.0264165000812598,-0.0673404462722035,9.915612657801454,0.2702650345140987,0.2509105779394278,0.025893626997029,3.543325369942352,0.07700234995701,2.0678791179338663,1148.0428860734776,1119.99399267898,1131.7785969176712,1137.611416748604,-434.39444356101984,64.1786135781598,587.6082863230871,527.2064127353623,156.95032394362806
7.914634146341462,1.5835456993225865,0.7529732002569294,-0.7111913685442265,-0.1856957088067205,0.1850817147513215,0.0172845358432506,-0.0414899687194208,0.0470413140691837,0.0272272239838595,0.9976586529188428,-0.026437232635757,-0.0723227312777229,9.909512813386785,0.2755040365987546,0.2553943180792197,0.027385470524091,3.5449323488591005,0.0786370727328242,2.06777426251294,1144.6206396626967,1121.4473952300636,1134.5795331365723,1141.062680812594,-630.9244667632689,351.1431415819604,324.76050605585414,528.7772403907285,156.94507661529323
7.920731707317073,2.1799952546574297,0.0563705117752787,-0.9911994991413904,-0.1767763934151581,0.1889015785575103,0.0110130803533887,-0.0420373995479079,0.047632388965688,0.027195101867316,0.9976065049137622,-0.0276639200761491,-0.0746614690602405,9.90647146044699,0.28062085795429,0.2598790780885791,0.0288504478154425,3.546550808954001,0.0803198754933727,2.067656281889195,1140.3486852592916,1124.2762261129062,1135.739090893962,1144.059919680198,-641.1660301442766,422.6975227146932,30.892041786481247,292.1124666202549,156.93995942231095
7.926829268292682,2.9339580554550495,-0.6668289423345727,-1.030896298584246,-0.1621241628667846,0.1849291729959091,0.0043004965753045,-0.0425662750727094,0.0483052739779444,0.0272173365822459,0.99754809301489,-0.0276731870582139,-0.0735559398792405,9.907406251662099,0.2857327828320173,0.2642998881585879,0.030301501073958,3.5481978438077246,0.0820349508840454,2.067539463423267,1136.8015417341082,1126.6022430680475,1134.9562653534808,1144.6250279664991,-394.2254730291923,261.2008606752359,-314.4185104032691,-180.2255516745805,156.93495800745353
7.932926829268292,3.2377671162906565,-1.0181161455427612,-0.8309046315797309,-0.1411842487702247,0.1775700308458256,-0.0009331290530708,-0.0430655326648038,0.0489142883524159,0.0273058440640705,0.9974918884394042,-0.0232911577133389,-0.0685848605825388,9.912772884181491,0.290937795886801,0.2686791688361964,0.031727141035009,3.549878707320625,0.08376629757363,2.067419563328741,1135.5410575394233,1127.4616024626043,1131.9047188158731,1141.8620470988003,-20.049822255888262,50.00778860228406,-656.6554053324418,-664.7014857884003,156.93047614129767
7.939024390243904,2.748703360727015,-1.1963535724080003,-0.3595772142867718,-0.1191962082168867,0.1722856372428848,-0.0060433702885069,-0.0435044781186083,0.0494090230564258,0.0274257895069608,0.997446054396404,-0.013975059517861,-0.0591748159474116,9.92240579289365,0.2963309188008483,0.2731010591853756,0.0331680280353048,3.5515680912869088,0.0855188172878034,2.067290399203735,1136.5570317065972,1127.2120941485632,1126.948272605524,1136.5189122861527,275.434869011435,-90.94170152195652,-740.2007506957274,-879.5183239919583,156.9258244941902
7.945121951219512,1.7648142790992605,-1.4052344371542451,0.252346121748611,-0.1062136537709134,0.1664160017571956,-0.0071286073365257,-0.0439026016919369,0.0498468494205997,0.0275573661870857,0.9974063649521752,-0.0021726972387703,-0.046361143592654,9.93529423745597,0.3019973551922972,0.2776454048883933,0.0347420374772527,3.553264098831008,0.0872998418561484,2.067151388430359,1138.9000193566355,1126.3525573220927,1122.877880392755,1131.1362138793868,417.87305680142686,-150.7328609868922,-430.31984604235527,-741.282188464438,156.9214259240405
7.951219512195123,0.801598505548597,-1.4263718093149322,0.6195405694749565,-0.1004129550520357,0.1559908570466736,-0.0021643946669742,-0.0442611443901101,0.0503523915782319,0.0276696584382813,0.9973644961133564,0.0078778709391195,-0.0310851648217305,9.95021609150146,0.3079875543457564,0.2824214079997171,0.0365858296792332,3.5549915652765325,0.0890989289134743,2.0670071647238806,1141.6530445944195,1125.373888526772,1121.7004696050076,1127.4788855975623,458.73773053540816,-134.73448556018545,-42.18962212141538,-453.977676106428,156.91733283351607
7.957317073170733,-0.0131787633268836,-0.9815677474973666,0.5585916396611382,-0.09774316192893,0.1462968160589057,0.0028250976909791,-0.0446178132057715,0.0509632272719786,0.0277082582596452,0.9973178478890072,0.0135662845976735,-0.0156021076474121,9.965555205373272,0.3142207226852893,0.2875222745555151,0.038728571586851,3.5567736885976413,0.0909043550417872,2.066871862896855,1144.4943819241407,1124.7094538396511,1122.3633728059085,1125.5999007561375,449.02083194452325,-43.25957833990899,90.75558092811688,-204.26823325179527,156.9135435397638
7.963414634146343,-0.6922209233890801,-0.2241925432314371,0.232198950821504,-0.0997332428045241,0.1421812986213367,0.0061556475691275,-0.0449501737293461,0.0516167223297545,0.0276770820479022,0.9972707702745746,0.0144173425629076,-0.001194559573039,9.979874456432432,0.3206243519914042,0.2929952288015015,0.0410729177542879,3.558612411043366,0.0927417245381046,2.066763762399083,1147.1289083986212,1124.8463326933584,1122.8072449821796,1124.9878095822964,458.6763777977612,124.2933587112478,12.375835037184046,-86.39442768781134,156.910319862955
7.9695121951219505,-1.3798806301364452,0.5905343065982271,-0.0274742578888987,-0.1056948672678073,0.1440881688172254,0.0046790332557011,-0.0452669867828103,0.0521594646240943,0.0276057872082147,0.9972304791528204,0.0128067375525631,0.0105580154983006,9.992156183073972,0.3270943617449794,0.298750039397506,0.0434373224716899,3.560509848979282,0.0946378279921815,2.066678860922421,1150.087996287528,1126.2252265068616,1122.5142976234351,1124.5463101745788,465.0948790712839,296.2864572694098,-17.954376518044413,-130.00787288778028,156.907084546418
7.975609756097562,-2.0008853728035008,1.0313048323128584,0.0947006430718245,-0.1153732314321289,0.151858117369871,0.0012852560669701,-0.0455783957524736,0.0525651404932456,0.0275451627278932,0.997196713812392,0.0090724823863714,0.0185321862091585,10.001674913381944,0.3335558121266543,0.3046227189583662,0.0457558777626979,3.562450675397451,0.0966085792777587,2.066586500600404,1152.800797167783,1128.4595821722535,1122.588289170984,1123.4023477178112,332.66227609400755,331.3610874958085,148.97206631255392,-221.73226359067112,156.9040390266704
7.981707317073171,-2.3365057756799263,1.0317755847310943,0.2755525789702307,-0.1302773365044186,0.1588083318603848,0.0052085446046591,-0.0459358675673557,0.0529963553824533,0.0275337403753887,0.9971575902683208,0.0006521363806679,0.0218085107716626,10.008161771051903,0.339953597223686,0.3104254577278023,0.0481600343543816,3.564413761197109,0.0986380798675517,2.0664722585776008,1154.1448533130647,1130.266215378762,1124.331030139442,1121.8422581795703,77.50551311908822,205.9259863054222,387.4080892050802,-170.84808301533894,156.9011187550646
7.987804878048783,-2.264716266203872,0.936645458315082,0.1039959185346105,-0.1454829737258717,0.1629131545760449,0.0088866687890465,-0.0463905793350374,0.0535377279647461,0.0275603607978429,0.9971065198446564,-0.0129585973878447,0.020205999342048,10.01166614509136,0.3462421461386807,0.3160601877945849,0.050751810807147,3.5664076293938374,0.1007053037681065,2.066351742312348,1153.745986352162,1130.9708746881731,1127.3127780637292,1121.3188345103072,-136.6075368383989,85.56696109333448,461.01703402906287,67.42100457491564,156.89827851768632
7.9939024390243905,-1.8354822613407704,0.8710426674968889,-0.2747453019042659,-0.1581035272113549,0.168473181977409,0.0080300793132347,-0.0469908571034465,0.0541814941600303,0.0276016837496617,0.9970421983424193,-0.030199508710607,0.0138607873652363,10.01238590124381,0.3523830430832606,0.3215146902124002,0.0535476543319391,3.568449631585812,0.102805430164436,2.066245461629318,1152.4789077418648,1131.3097149042903,1129.9531890910157,1122.664465552435,-176.93006153487147,130.538107524355,335.5957806128205,345.985686394456,156.89553026235245
8.0,-1.2096664116671227,0.7193795439229507,-0.4616408674141974,-0.1669640483073151,0.1742965915591317,0.0034925752245019,-0.0476639352128563,0.0548390280202324,0.0276413298892095,0.9969732166807695,-0.0476652512776232,0.0053944324101882,10.011008796966916,0.3583835124390417,0.326868628279203,0.0564002610966707,3.5705343492456585,0.1049234717364326,2.0661576810884927,1151.5883026749077,1132.5628028287142,1131.405409534617,1125.5381721492638,-116.58718126731814,272.0627232211674,161.50499659771987,537.4944875086558,156.8929039982648
8.00609756097561,-0.4692459616170223,0.476874957406027,-0.3498848141357538,-0.1737333218061592,0.1774331857565648,0.0004780226601338,-0.0483565205476631,0.0553681084385617,0.0276409473554585,0.9969108429464676,-0.0610474965378479,-0.0034098673036787,10.008262307770908,0.3642620237182598,0.3322613619345529,0.0591223706076452,3.5726515654223703,0.1070528517534991,2.066085616290892,1151.0571128483612,1134.6275529923532,1131.922762220256,1129.2192763757112,-129.36524636951168,304.6619463395963,27.561488451534917,613.2995608866872,156.89060938506535
8.012195121951219,0.3500250207093419,0.1368175316099814,-0.1183162976861958,-0.1739434251762859,0.1801358308745001,-0.0003105894815982,-0.0489804556380115,0.0557809296482597,0.0276499029996307,0.9968573461416852,-0.0696308824145354,-0.0105908029629861,10.005178530439398,0.3701317354668875,0.3377624792313709,0.0616388284665536,3.5747849409723,0.1092037418910008,2.0660263968232253,1150.010677719182,1136.2781924182211,1131.7415252474407,1133.017435086906,-187.1519172412503,115.09750720931567,-115.75097521373208,476.6124324987271,156.8882405163596
8.01829268292683,0.8009996734536132,-0.2066611450727819,0.0396652351333368,-0.1678463674499969,0.1798937883383203,-0.000158606616803,-0.0494976720265817,0.0561978931811674,0.0276989191946891,0.9968070283941964,-0.0751559555978481,-0.0155469418864535,10.00263778963612,0.3760811153520533,0.3434074502666775,0.064011977753319,3.5769399744313275,0.1113954571300375,2.065967365215257,1148.774772394199,1136.0311811290524,1130.511164961552,1135.0316231135012,-111.25291233781402,-143.90125019661133,-225.66805601419415,172.39725788172075,156.88592946981083
8.02439024390244,0.7474427163140674,-0.3550790505250567,0.0339302218805518,-0.1618164491950241,0.1762181601900245,0.0001828955841678,-0.0499816160151876,0.056698022960587,0.027763085631097,0.9967526645620076,-0.0793610936200577,-0.0200853526659705,10.001275508636388,0.3821237095167895,0.349194095552366,0.0664035383687233,3.5791360605032114,0.1136296158707663,2.065896743136712,1148.653934885794,1134.5232991231403,1128.9894757838526,1135.1198406708295,77.9273922913558,-184.57079077731643,-97.23786763612615,-36.47680343442964,156.88360517208434
8.03048780487805,0.4758545608744673,-0.3613057639014823,-0.168964973462615,-0.1569254735588647,0.1749853020352912,0.0005532000138034,-0.0504234997446775,0.0572462152950358,0.0277446407122709,0.9966995374402,-0.0819484801019269,-0.0242619999528169,10.001432284149733,0.3881971853371784,0.3551471871138274,0.0688509409376894,3.5813794881057537,0.1159133034251339,2.0658140884582115,1149.725106446533,1133.78031782689,1129.3253373074529,1134.5867840472279,134.78158350881472,-25.880317063272297,246.69335432416855,-73.91211089515618,156.88121180749835
8.036585365853659,0.4625965490283599,-0.3623571164929039,-0.5139279238400126,-0.1568448093176433,0.1732429941689249,3.426266753900364e-05,-0.0507948506697873,0.0577448970052546,0.0276217474474362,0.9966553813067972,-0.081533507674328,-0.0275100877457842,10.003111657020463,0.394281791348891,0.3612092344577788,0.0713198752859159,3.583666494100646,0.1182527381897894,2.065716581865473,1150.2976127334623,1134.2076855004177,1131.9979313243912,1134.2184734647913,-78.16384754015967,71.79284474835485,429.05229862395504,-22.49332383099761,156.87890323303623
8.042682926829267,1.0550284579597464,-0.3280500309672498,-0.7866323068962869,-0.1568519050515713,0.169169941974072,-0.004334431525526,-0.0510989404987633,0.058154410003293,0.0274876095085583,0.9966198181468906,-0.0779948853778116,-0.0295553152202596,10.006026847264867,0.4004424922527947,0.367229704800084,0.0737975744584278,3.585986877018751,0.120642517657082,2.0656203392469163,1148.771888793604,1134.6558403238212,1134.5576824126229,1134.3124752200204,-388.649170084843,17.723098351387936,94.05866749806833,37.81159787141676,156.87627246171144
8.048780487804878,1.7917272805623294,-0.4233825606253335,-0.5464466426091356,-0.1461726255408855,0.1686625009759253,-0.0126900821277468,-0.0514214967869584,0.0584679046812933,0.0273997004643913,0.9965872939834304,-0.0719741131318884,-0.0313953333850241,10.009932937611872,0.4067411503439636,0.3731020533205092,0.0763102006573279,3.588342542908535,0.123078054974358,2.0655483191342006,1145.5579887080376,1134.4238208461663,1133.1449882450993,1134.6795905120036,-450.92236290468384,-104.88835665371207,-602.680934520862,43.71537854024674,156.8735083172323
8.054878048780486,1.8689331723964513,-0.860581148930512,0.2070487801937592,-0.1307170972851303,0.1671412707844655,-0.0148936129505252,-0.0517968069435224,0.0587843533606786,0.0273584522400892,0.9965502193611464,-0.0663605309371417,-0.0329141509666706,10.014593932862068,0.4131873732080418,0.3788281446484485,0.0788918937643706,3.590737264141407,0.1255478872014189,2.0655064386995607,1143.2728355874497,1133.376714023166,1127.2079149184663,1134.8455895924626,-152.68685684743147,-248.05061453457452,-1019.9977673553024,25.82639081190337,156.87061652546276
8.060975609756097,1.2063781082495475,-1.334225729704526,0.8181903023420085,-0.1197991727495285,0.1594764154974649,-0.0082089156056261,-0.0522209041696583,0.0592480280646685,0.0273673111638002,0.99650015769301,-0.0649659629872644,-0.0332673141386404,10.020058379690331,0.4198063091043555,0.3844494375083397,0.0816089888527104,3.5931534633699265,0.1280482736820924,2.0654803961818304,1143.6959538684348,1131.3988133518424,1120.70599108223,1134.9945464975146,214.9801926774329,-351.064964072518,-777.5871703676983,0.531088198567905,156.86763254343128
8.067073170731705,0.2702500672833815,-1.3797932963042054,0.9108805848377662,-0.1163943383471901,0.149100257263799,-0.0018087099023302,-0.0526771014637706,0.0598310764871237,0.02740943991561,0.9964401384025776,-0.0678710810361283,-0.0321359353148561,10.02639320448972,0.4265867008965723,0.3900738335019222,0.084440524941358,3.5955916273146054,0.1305667107145695,2.065448918605532,1145.8945452542475,1129.0954339735015,1117.7251445481288,1134.8520662778108,383.8176574452687,-344.60547910589435,-145.61151545428615,-131.02342851181004,156.86482446362695
8.073170731707318,-0.6727755585028795,-0.9025813590382799,0.6616184127267504,-0.1189193896347325,0.141264814433576,0.0023027096936768,-0.0531181260351463,0.0603495748209092,0.0274292605407963,0.9963851214551944,-0.0718360947210383,-0.0290312825610383,10.033698982609303,0.4334578496137336,0.3958629489138468,0.0872543517019941,3.5980886068982687,0.1331054338805681,2.0653958125213787,1148.3766570080115,1127.196307509087,1118.930240893763,1133.396699808346,390.0746825550757,-166.56316708345489,487.1306475619344,-332.70362325641247,156.86176543647096
8.079268292682926,-1.366373834783402,-0.1445219387077694,0.2595213994063277,-0.1247730728298153,0.1386570430481835,0.0055454752926736,-0.0535291179450601,0.0607276480652424,0.0274369757851642,0.9963401481934074,-0.0750948427284368,-0.0247373560658821,10.041831683303547,0.4403192943514602,0.4018795657538762,0.0900358964558776,3.6006653173742476,0.1356764271847634,2.065322860453577,1150.6515535780904,1127.0641758383372,1123.6657622013236,1130.794705018586,454.12821781804246,141.04576832455905,916.6384119443486,-412.9461069210957,156.85873131669507
8.085365853658537,-1.6575692626373215,0.6864438534291987,-0.1571852074635224,-0.1349834793061907,0.1394553143298574,0.0057503290391529,-0.0539455578206287,0.0610035207568237,0.0274652519093654,0.996300109525909,-0.0776728668815096,-0.0212548232426221,10.050484832179327,0.4470805749312079,0.4080973939768554,0.0928679769580871,3.6033054772283486,0.1382967684512164,2.065251325519701,1153.9148060057923,1128.9163778545085,1130.1087581125962,1128.360771675162,624.8666462569876,328.27909317501354,943.9299688811847,-325.04448659395814,156.85575858329116
8.091463414634145,-1.4173766838656228,1.3597045274637036,-0.4039059595909144,-0.1477666569091067,0.1453085018303781,0.0028666600974332,-0.0544068891585926,0.0612470272619958,0.0274999710106336,0.9962590650061344,-0.0799862063898462,-0.0206061620568585,10.059313068071846,0.4536803213072687,0.4144765614574646,0.0958121806953204,3.6059877818244273,0.1409774389982016,2.0652097568165444,1158.2718785324437,1131.067579413642,1135.1771032852403,1126.8307478650013,649.1079206974449,238.77908336366616,527.2424611373036,-191.3487529808953,156.85285493809457
8.097560975609756,-0.8761193125950822,1.4277959217404468,-0.4129858136076927,-0.1537276577887031,0.1576348274972897,5.512752320630933e-05,-0.0548515178019404,0.0616095151853637,0.0275643547872333,0.9962104258625882,-0.0840531081401396,-0.0223014759096738,10.068011313291407,0.4601913067229023,0.4209096600457438,0.0988884324859753,3.608677944012351,0.143715618651999,2.065199952226364,1161.8307562582,1131.8283178955287,1136.5385442240265,1126.0272502973464,345.68614356488524,-3.716860833776668,-30.19413660410208,-65.0457394826331,156.85001138422197
8.103658536585364,-0.5331539250209409,0.8126524063749032,-0.2851200475442862,-0.1553392110517709,0.1665293908150494,-0.0022075870038272,-0.0553040605224699,0.0621361549815695,0.0276183930705411,0.9961510393922371,-0.0901980247732985,-0.0273794608949715,10.076341734301357,0.4667026785485652,0.4273476277739207,0.1021309686469368,3.611372131391064,0.1465017172953489,2.065196172019994,1162.487563210064,1131.0222518424985,1134.8088821071415,1126.0375071396031,-135.51253486440308,-177.37078330818616,-324.7839429499251,119.85160781229496,156.84718956027208
8.109756097560975,-0.4416182270348253,0.0210762913042637,-0.1328151412812895,-0.1582200584302558,0.1671784511218432,-0.0036770829180188,-0.0557700016460072,0.0627307998785639,0.0276295890930948,0.9960874028715956,-0.0965318611770402,-0.0356443013849633,10.08410453380285,0.4733154577360121,0.4337648315282082,0.1054827912157804,3.6140763138951426,0.1493270417320737,2.065184572089802,1160.17816436961,1129.665259562502,1132.5777644319544,1127.488855270667,-487.19414710706815,-133.74748350756747,-203.63722547034007,399.4115365003618,156.84455418200648
8.115853658536585,-0.3497862193817484,-0.6477358490349313,-0.0794867357813301,-0.1617388971986588,0.1635736000198798,-0.0037350713347895,-0.0562762001771131,0.0632970050805244,0.0275576538564295,0.9960250803395452,-0.1013752064460003,-0.0472803631980554,10.090869677689865,0.4800578279233353,0.4401649333000591,0.1089357402690832,3.616826971203997,0.1521967695739326,2.0651602089544747,1156.5461711721732,1129.391184970455,1132.3255013087228,1130.908379535949,-504.15600392442906,164.09224089908514,180.33591452506485,621.3560525813048,156.84158717286135
8.121951219512194,-0.1754400064463972,-1.0760810063995403,-0.2498588165418516,-0.1631226159634462,0.1586756331788352,-0.0032370422594665,-0.0568009744033951,0.0638143429922381,0.0274687806206461,0.9959647864651556,-0.1045623044270141,-0.0610544488145623,10.096096053086736,0.4869261201199265,0.4464899729696404,0.1124958088338578,3.6196493769274585,0.1551022454785634,2.0651316795485406,1154.029920419311,1131.6663844515156,1134.7769829017725,1135.0663681070253,-221.79343297724893,540.071051369183,455.4042502690703,581.3990548954877,156.83842453378548
8.128048780487806,0.1075957233761751,-1.2974318491591943,-0.5666541850320789,-0.1636794201312676,0.1507365938036263,-0.0052304889938152,-0.0573061746022159,0.064272759757301,0.0273949061346163,0.9959085198355516,-0.1058408999044004,-0.0754055275754602,10.099075427022912,0.4938404199001596,0.4527345670663968,0.1161346950104322,3.6225552644185695,0.158044722296877,2.0651047999755807,1153.8413732090355,1135.9774173042263,1137.8792116778584,1137.998611912724,103.4826176750626,641.5683022444132,350.9227478349709,300.5137000551747,156.83497665536302
8.134146341463415,0.5198511704576765,-1.342620062032014,-0.6996524784495028,-0.1626676388619033,0.1417331990700398,-0.0106787651653843,-0.057764993878965,0.0646270841864249,0.0273216775763207,0.9958612598528436,-0.1039621809542115,-0.0889766772212891,10.099247445181891,0.5007041329037951,0.458949684052423,0.1197571159892902,3.6255143703880823,0.1610208774923135,2.0650833334475385,1155.29190356169,1139.4903881374228,1139.0565286070769,1138.73116932721,220.8886985083869,324.43050380299445,-34.91566246777062,15.532841867452685,156.83121015076702
8.140243902439025,0.930162204492566,-1.3745619584947915,-0.4377613186170971,-0.1582540081259083,0.1347223827516222,-0.0163172204452737,-0.0581536973254596,0.064886578471984,0.0272869211106379,0.9958228083762896,-0.0985588278041173,-0.100625342441397,10.09642217655416,0.5075407162969968,0.4651222114102022,0.1232805370076304,3.6284957084674554,0.1640397466828323,2.065087658643547,1156.5351378249916,1139.9338868627992,1137.4534109160563,1138.1880368135467,78.611087769039,-124.43910286440163,-372.3437742574566,-76.8523515958891,156.8274160319089
8.146341463414634,1.2378123503383116,-1.560105914337014,0.0839958502059076,-0.1494567719413446,0.1270304554751421,-0.0175314717607181,-0.0585448380549311,0.0651275347978727,0.0273012320142771,0.9957837087912096,-0.0906912220099588,-0.1111560049686251,10.090674962823599,0.5143943005151748,0.4712250467480368,0.1267607996860418,3.6315123973273074,0.1671124283438886,2.0651171709833624,1156.2505753637515,1137.972838102491,1134.51575087223,1137.7939455272603,-161.9726692332527,-363.57037244775137,-294.92205708700334,-63.76708442086964,156.8229714872803
8.152439024390244,1.4884559039382188,-1.8314103796288812,0.4025160523741406,-0.1422750231525383,0.1165824251830723,-0.0133805526738235,-0.0589739465994623,0.0654491669609963,0.0273395330834221,0.9957361098641118,-0.0824391515077078,-0.1208000432146805,10.082842716816952,0.5213044118788268,0.4772671571541144,0.1302680055660055,3.6345602841059743,0.1702273419920791,2.065158812517488,1154.5598613709276,1135.5001018329488,1133.856800463776,1137.4103894425605,-251.80867139901403,-394.079548130588,234.86450329469488,-191.62888016971647,156.81824173573324
8.158536585365853,1.873631378382912,-1.936138844149176,0.3021139796598796,-0.1337196036099508,0.1039827237384689,-0.0087486212155959,-0.0594228685002191,0.0658443097734879,0.0273312328261009,0.995683520207642,-0.0740146834540217,-0.1285883262168381,10.073986834563287,0.5283101891968046,0.4833275040627891,0.1337411734493669,3.63763109854288,0.1733847335505955,2.0651973345421726,1153.179737907666,1133.1669899545573,1137.3799521319213,1135.457007964215,-99.92723910989017,-416.79995927304554,651.3487946230389,-425.03993254275673,156.81330388724106
8.164634146341463,2.173040683226072,-1.75141455854352,0.1864643699007967,-0.1197674609937291,0.0914440536241294,-0.0104118431847355,-0.0598191137602882,0.0662123663161818,0.0272606418180408,0.9956373994049058,-0.0643414730760571,-0.1329657111927873,10.065555477117046,0.5354855400297839,0.4894592198388154,0.1370148517086349,3.640730962904512,0.1765785199828519,2.0652324405156848,1153.3412365037339,1130.4171755003508,1141.8000784469834,1132.2269756310636,111.28284406811964,-514.136529583682,422.31586852272653,-379.8598376744053,156.8082936568196
8.170731707317074,2.1168032344132746,-1.290384319073638,0.3538614702352634,-0.1044957141901358,0.0821729866101716,-0.010296032981805,-0.0601060128560431,0.0664648361317171,0.0272084142745002,0.9956048248180932,-0.0526736745666149,-0.1327289404521209,10.05899638837919,0.5429654440903826,0.4956184044415647,0.1399348502062333,3.643875634675156,0.1798105383017182,2.065281063966809,1154.5368457621555,1126.8970322767068,1142.5301456504917,1130.8245709194048,189.51578798025733,-592.4019701614424,-152.98869060615377,54.630707431679994,156.8033687929967
8.176829268292684,1.7990076569982405,-0.7201944501287965,0.5399509113523527,-0.0907991199196076,0.0766512567170185,-0.0066295792733758,-0.0603139168611408,0.066599387851004,0.0272195986650784,0.9955829508472848,-0.0400428307214092,-0.1287084010003885,10.055435132608467,0.5507414287602806,0.5017762963842702,0.1425356117110807,3.64708688109926,0.183083195840719,2.065347493763949,1155.6524046498348,1123.1927612300883,1139.9343627078836,1132.8932037704744,161.92052674912455,-535.9710887768855,-331.19637486909767,416.9712762826055,156.79870390830612
8.182926829268293,1.6917841698913012,-0.0846189093101088,0.4327206824265793,-0.084780077724394,0.0722755284624786,-0.0021185700520929,-0.0605052279137438,0.0667259743407856,0.0272751229432244,0.9955612451279872,-0.0294979173440305,-0.1223755703492229,10.055625926109805,0.5586681315371163,0.5079541653765846,0.145037045009712,3.650368568723061,0.1864024254034235,2.065410142040332,1156.5114863322667,1120.360799486745,1138.4911654691612,1135.9095864838266,183.6638076676256,-363.468623561838,67.64072904615763,328.8571298133387,156.7948041176366
8.189024390243905,1.9714984793285797,0.567960341461866,-0.0339506596045251,-0.0752384901931279,0.0743568393476097,0.0002573694642049,-0.060719154717066,0.0669096207289219,0.027313670204722,0.9955347226407054,-0.0227785065764347,-0.1148632741487983,10.059808289834343,0.566560080116422,0.5142264761724628,0.1476440553812376,3.6537169179616984,0.1897650812091193,2.0654445605457035,1157.8922071823667,1118.76021704031,1140.759249647471,1136.903656573076,278.9131940309006,-74.69717693013574,513.7282217737494,-91.69077388274225,156.7911640872192
8.195121951219512,2.2066121993019863,0.852881626368502,-0.6016529213971084,-0.0604965692098375,0.081959155320561,-0.0015122216242113,-0.0609027337271622,0.0671777114867645,0.0272836367644586,0.9955061829775896,-0.020266886660622,-0.1056849074517108,10.067379069391231,0.5743028493183642,0.5206807379141989,0.1504399239894866,3.657107825803888,0.1931603446626919,2.06546305717208,1159.9128667472776,1119.4498583046702,1144.7561437834752,1134.7914063145247,338.40393650899136,321.64133294037,488.37875872041656,-486.5746016224821,156.78818755776936
8.201219512195124,1.9289663350437989,0.8007703876436773,-0.8646560942669849,-0.0457063039629955,0.0876855766942551,-0.0082721081852979,-0.0610149435009669,0.0675976027064309,0.0271859966056964,0.995473515270983,-0.0231381150298007,-0.0946565109142041,10.077409471077384,0.5818929614364862,0.5273506566818911,0.1535425362976787,3.6605223943887695,0.1965892047552152,2.0654885088087815,1162.0190844568665,1122.6826723200707,1146.7150881684515,1130.969819967924,279.3562675462617,610.8030945162449,92.38996137289278,-604.8789292346402,156.78594987583966
8.207317073170731,1.1030128191461719,0.8995778860659749,-0.6418109330027176,-0.0351658798737343,0.0899206813669087,-0.0156625195129613,-0.0611342060646294,0.0680650909785968,0.0270433538296392,0.995438340359466,-0.0289197461078069,-0.0841281048730196,10.088357629030215,0.5894288290259478,0.5341934802584078,0.1569257600524909,3.6639613452933206,0.2000627055742441,2.0655212834900114,1163.3196504978416,1126.8986765304778,1145.882850629486,1127.4148340067857,122.63435055786276,608.5029658205656,-145.14115918594655,-476.1297987534919,156.78440421995995
8.213414634146341,0.0364818301796478,1.3259346918286288,-0.2556317822453273,-0.0312078665555585,0.0948856681902019,-0.0173052871371442,-0.0612892025208674,0.0684660709864175,0.0269143948352494,0.9954050604860756,-0.0352525270980771,-0.0754362416043535,10.098796860831882,0.5970514585721834,0.5411200941424965,0.1604602570293115,3.6674379873674687,0.2035889233325549,2.065579868195438,1163.514625317328,1130.1034401959307,1144.9450740320376,1125.1633590075155,-3.0923700287354454,428.3592652950148,56.73369064341535,-316.37835557780653,156.78359120097133
8.219512195121952,-1.0610990566483427,1.8727559263564428,-0.1282956183603617,-0.0346146577801962,0.1050632318898033,-0.0149543716954785,-0.0614392756590762,0.0687724640278309,0.0268458492490986,0.9953768331335616,-0.041371010214742,-0.0681680546741872,10.107570304990347,0.6048277997822809,0.548032404057929,0.1639806987865199,3.670978313235715,0.2071737456674365,2.065664713742828,1163.281938668223,1132.122570009686,1146.574724905625,1123.5565613777876,-20.409931213996085,235.65068619491328,398.60974561010227,-214.10007366582252,156.7833173402093
8.225609756097562,-1.6456838769249107,2.117982660420948,-0.2788744584544277,-0.0459110027191619,0.118626382022299,-0.0162689730942762,-0.061581514260231,0.0690584197404452,0.0267864779005692,0.9953500499812142,-0.0488304844325598,-0.0623874608723509,10.113798396688013,0.6126491777187826,0.5549365839848341,0.1675043453756771,3.6745862447381663,0.2108255021588458,2.0657507886529034,1163.2657237171575,1132.9772290519668,1149.806168490698,1122.5523824993957,56.23047270279239,55.95468103653882,334.9931735530877,-13.9706320104015,156.78358040557393
8.231707317073171,-1.4955113128275275,1.7387718440281115,-0.3310032040682104,-0.0580099799692607,0.132668650005716,-0.0200010097968074,-0.0617224422744789,0.0693418951690353,0.0267194182652425,0.9953233601269564,-0.0578267592915638,-0.0582393517104858,10.117075066017213,0.6204494556611185,0.5618277560825023,0.1710318650835404,3.6782354677600937,0.2145233755811546,2.065835008799042,1163.967676140208,1132.804944168668,1150.6600075099311,1123.3861878166852,147.6337594071122,-121.33377866313432,-228.52885306212823,374.1900071938477,156.7843406654297
8.237804878048783,-1.0206815585479827,0.7979214640923346,-0.1512351465833428,-0.0648355607454915,0.1413345951726883,-0.0223050278788586,-0.0618561487753454,0.0695668528926712,0.0266408753758017,0.9953006820540684,-0.0668571150299843,-0.055673927674209,10.1173618659726,0.6282111637032576,0.5687454386009289,0.1744891771859998,3.681928651314797,0.2182439772493286,2.0659097635421007,1165.066135417244,1131.4975488243676,1147.019231258233,1127.115675270052,80.80958143036847,-283.9393960441071,-882.4660979562486,704.1419945771481,156.78550389157311
8.24390243902439,-0.7026724929573305,-0.4281431327401981,0.1345643315039269,-0.0678365311615267,0.1426456039788092,-0.0222073753854299,-0.0620092699456595,0.0697699472268743,0.0265849537292546,0.9952761811425604,-0.0761417673720951,-0.0555118382994431,10.114753742093288,0.6359351954890488,0.5756973127414305,0.1779515641223788,3.6856780926168486,0.2219839946766323,2.0659768730129304,1164.9531588405785,1129.3422686071547,1139.8982258275382,1131.973285311528,-171.75229714161395,-337.5057872297927,-1195.9754163751088,570.4403182644062,156.7870323326194
8.25,-0.6354344100118343,-1.5625300228370431,0.3279957514823427,-0.0720077249346886,0.1364626668678835,-0.0197940541919573,-0.0622140091882712,0.0700606372199203,0.0265924485812715,0.9952388004595568,-0.0872130377321823,-0.058594097191403,10.109818974183147,0.6436267979254994,0.5826458976475312,0.1815590636638496,3.689474710677071,0.2257679494608374,2.066066013061555,1162.9715952082,1127.381624589858,1132.4341652048784,1134.0722645171788,-341.7533829452508,-230.0002613360134,-1002.1237883592094,-6.030446602985863,156.78886053545153
8.25609756097561,-0.677649557534019,-2.17053523070596,0.3424656527599805,-0.0764828245426233,0.1238529507736774,-0.0164114917107101,-0.0624862998248686,0.0703952147273542,0.0266567025908991,0.9951918506295236,-0.0984992748401071,-0.0657019190327518,10.103145374447584,0.6512919826318642,0.5895865756041396,0.1851950323245079,3.693317937799891,0.2296188892033079,2.0661913515990946,1160.7854346583194,1126.5373873713495,1127.67720401828,1131.8997432797844,-224.7869363009484,-26.357999469464204,-532.4863966403534,-608.0832201533124,156.79080155742776
8.262195121951219,-0.8015771502366261,-2.142775864957211,0.3616725673139631,-0.0802911850110282,0.1085011368169992,-0.0158326460226429,-0.0628026880591503,0.0707415849671736,0.0267172797081662,0.9951453747658658,-0.1088524125594393,-0.0761497088950791,10.095697662061953,0.6588954278601176,0.5965443888462684,0.1887364101024885,3.697205914505692,0.2335311306416149,2.066342299017065,1160.2302911069692,1127.0601855719378,1125.9404286604843,1126.6566154909192,94.86976827012089,134.15138103111326,-89.0495818322149,-843.8897142765453,156.7931644941676
8.26829268292683,-0.9828323853853292,-1.6021931491617072,0.558924454743637,-0.0848005954292125,0.0967008988578414,-0.0151019969117652,-0.0631210263841643,0.0710657521471967,0.0267373742603292,0.995111462532728,-0.1170544463533646,-0.0888212079324145,10.08819442186202,0.6664297516651552,0.6035157467684457,0.1920841401420376,3.701134253742416,0.2374935399462115,2.066488363083261,1161.9423830518576,1128.1733798229488,1126.5912335081307,1121.6084053008008,308.39524864478614,54.33591327754986,138.52952755431326,-570.866932999529,156.7957777407336
8.27439024390244,-0.9694406605427572,-0.8890954562361179,0.6913833732258055,-0.0928885469524188,0.0898401013911013,-0.0093271107605206,-0.0634005721308899,0.0713260627226462,0.0267055769100705,0.9950868588267024,-0.1220300817961252,-0.1020502429874119,10.080966134354655,0.6739203767087897,0.6104720557527827,0.1952305436517017,3.7051039703471074,0.2415029045598258,2.066601729519152,1163.9912087733694,1127.7228186606883,1127.629813142854,1119.6948236250705,182.09883091512225,-269.265739197117,111.81576003045063,-59.39459845404946,156.7986486615029
8.28048780487805,-0.6417140348701469,-0.2530534270477269,0.4794303631773201,-0.0986461426358571,0.086607975209642,-0.0020043546385659,-0.0636818916313526,0.0715699511263728,0.0266661961499002,0.9950539498591964,-0.1245935132280306,-0.1155374441228328,10.073677060288212,0.6814197236394866,0.6172898493577332,0.1984185071683931,3.7091158132503215,0.2455560650041405,2.0666820762431795,1164.163100502042,1124.8896512961549,1127.9548403377703,1120.88408092941,-93.28734943072381,-535.1997102080153,35.82796173293482,241.4726630563441,156.80175283984255
8.286585365853659,-0.1806723916989316,0.1550382369781984,0.2516002206070107,-0.1012329004394034,0.0874854589028752,-0.0026091485895023,-0.0639659016077073,0.0718012154061047,0.0266709299647167,0.9950149863796962,-0.1248011077780048,-0.1279538965552732,10.06541747895852,0.6890068542163511,0.6238726158703635,0.2017453832194173,3.713171999210595,0.2496602664102579,2.066762433733707,1162.8535581705555,1121.1959929264447,1128.0667395054509,1122.6396121989283,-143.6758103373755,-591.4544817648285,121.3805673199556,194.00821989392176,156.80481186548587
8.292682926829267,0.2583545667655707,0.4364298152800554,0.3972540070411822,-0.1006096153313085,0.089114645288212,-0.0043295672612126,-0.0641963857566581,0.0719637383882068,0.026690870006839,0.9949839187233692,-0.1217665422284175,-0.1368717876025886,10.055095088720083,0.6966827076054085,0.6302973420571331,0.2050624574203991,3.717281659650984,0.2538157456444117,2.0668591286205897,1162.4109564735375,1117.6767917624377,1129.4350911587455,1123.2500348305555,147.5030726534958,-477.5132180673987,381.9213555947685,26.623293329003932,156.80828088857018
8.298780487804878,0.4136618384381455,0.6879350515888298,0.6346000759587397,-0.0970211071363399,0.0911079626595947,0.0006046883790334,-0.064330630526784,0.0722002724751669,0.0266661857836094,0.994956416385248,-0.1186397126494987,-0.1401159203865383,10.04150242205648,0.7043492239718988,0.6367052892417884,0.2084433667495338,3.7214297699161505,0.2580063187273173,2.0669786346562207,1164.6523761297447,1115.3726609987937,1132.724317012704,1122.9642865078183,501.8656463016847,-222.6281445594588,576.3762492948558,-50.5479113529568,156.8118236693122
8.304878048780486,0.2089267767213195,0.8314626855962798,0.452181934121393,-0.0944610019678699,0.0967984503883832,0.0070878913151413,-0.0644413027289435,0.0725762619460349,0.0265939151914051,0.9949228182299292,-0.117262886477102,-0.1388707203803158,10.024298856715623,0.7119823540908669,0.6431785562307031,0.2119676168853471,3.7256183128768567,0.2622192210502,2.0671245033433214,1168.5312692333139,1114.9618143897615,1136.4640698086823,1122.6335968872268,553.1032017400057,106.97702887032544,450.1288958018104,-68.50364333950635,156.81532969987114
8.310975609756097,-0.174844959484619,0.7141655640724655,-0.102073689914036,-0.0942694351948365,0.1030952789470656,0.0086074361814033,-0.0646088186532212,0.0730021239309755,0.0265339535009754,0.9948821815396308,-0.116203865144878,-0.1347930642763364,10.003520912958631,0.7196753801288938,0.6497225963496402,0.2155047652679901,3.729873534929652,0.2664627722178338,2.0672806135308885,1171.3975371265735,1116.6772589118464,1138.2136937907746,1122.1288762231904,228.64045723427745,351.14681996553327,62.83287598881124,-73.36000862381762,156.81867465047907
8.317073170731708,-0.5034821967211781,0.4641278005170286,-0.5858015079009483,-0.0960325489312248,0.1049424708993735,0.0044330299960515,-0.0648682189282832,0.0734178682190517,0.0265006058641179,0.994835615641186,-0.1147318642911588,-0.1295818088191432,9.980406303377949,0.7274342921485478,0.6563700830999786,0.218940928761,3.7341931612617465,0.2707491622568032,2.0674403058904613,1171.3195674922688,1119.2440926820243,1137.230324393912,1121.7389626357167,-314.85754701174835,337.20861810446934,-283.03630829812687,47.799527436413165,156.82148523788277
8.323170731707318,-0.5860265324007151,0.1192584024441791,-0.9002932365411435,-0.0995549794453405,0.1077558397943283,0.0001624739990637,-0.0652358549665091,0.073846111608006,0.0264428763847799,0.994781472844736,-0.1137982805339065,-0.1244896847400702,9.956584841583682,0.735176313662794,0.6632063628492002,0.2222660838897544,3.738555625979652,0.2750890686103413,2.067599232427914,1167.5578109435032,1120.789559132633,1134.7620314944556,1122.7117972894882,-831.5515561982529,6.654655046268781,-318.7102660230216,318.15400392196347,156.82408221225435
8.329268292682926,-0.1194708907203376,-0.2963047890835798,-1.0115803751849644,-0.104216494875574,0.1084359736416201,-0.0050274114309567,-0.0656143444900223,0.0742795055264009,0.0264109337190202,0.99472535476857,-0.1136249268537743,-0.118854408735969,9.934162867509231,0.7430075501151018,0.6701509583568028,0.2253181841080351,3.742947158055303,0.2794917045197537,2.0677717869819427,1161.178694855705,1119.325247011857,1133.3436138326558,1125.6188895128137,-1025.4217301682395,-498.05198717196566,-34.84578456961604,502.88253840856817,156.82612783695365
8.335365853658537,0.9946159245757674,-0.496232929495615,-0.7565567400079455,-0.1038312107084433,0.1030891255927634,-0.0121694516739944,-0.0659226523125475,0.074600903320253,0.0264182987926768,0.9946810056783222,-0.1123657688348916,-0.1121870492911585,9.915233818555182,0.7510328044669132,0.6771638107285337,0.2278314559799626,3.747381599828433,0.2839558944212962,2.067946064063247,1155.0526678926715,1114.715754411024,1134.3370829021433,1128.844511172519,-745.2819259895919,-815.9452388088638,222.58903360226049,329.5767626368828,156.82752859617906
8.341463414634145,2.28057374523924,-0.4044191974424306,-0.0579174696748125,-0.0929194238551862,0.0996382340390228,-0.0175815702747664,-0.0661288934728982,0.0748032116864744,0.0264234932103706,0.9946521533446464,-0.1105182713712248,-0.1046495612587313,9.901582830861086,0.7592203825169718,0.6842778677841943,0.2298201710967067,3.7518631829095472,0.2884640597914528,2.068107052291261,1152.0898908802224,1109.3746953190664,1136.0581142424392,1129.6381183254584,-182.08686958837063,-716.1605126180904,126.54420011142332,-148.9568388336814,156.82831396797528
8.347560975609756,3.1110231346679207,-0.303905262837131,0.6972353402219171,-0.0747064034863776,0.0993100241680368,-0.0137929713748291,-0.0662784274436611,0.0749839434813829,0.0264132470691536,0.9946289022252875,-0.1104052245100333,-0.0975836268116022,9.893850666545006,0.7674959237703021,0.6914712382694711,0.2316353076626326,3.756380575984173,0.2930035519121221,2.068233192307513,1152.8320963123256,1105.9820896229987,1135.8803048547215,1127.0279643574745,256.9919774004266,-349.46333603936284,-236.7798898017961,-547.7696563808407,156.8284605237242
8.353658536585364,3.1461365481719006,-0.3255950472128997,0.9978624553036928,-0.0529652903218363,0.0982245709504258,-0.0055504024516813,-0.0664385863293312,0.0751627640967761,0.0264268395522701,0.99460431503663,-0.1127196746526962,-0.0928546614797112,9.892473204316104,0.7758581030656305,0.6986567321156467,0.2335612044961724,3.760959748534946,0.2975831184788171,2.068321371189159,1155.2239393851055,1105.1129473185863,1133.1705546107103,1122.9580005647167,401.68161593554686,-17.10705933283013,-513.8482279280285,-583.2853211395711,156.8280164674733
8.359756097560975,2.368962987469683,-0.3073128882756438,0.8352288020315282,-0.0348855900668203,0.0953643685178613,-0.0001630191355872,-0.0665598603169434,0.0753480152960604,0.0264719598895633,0.9945809018662582,-0.1171847948851298,-0.0895739174641259,9.896350483142365,0.784248644041145,0.7058300449694525,0.2356313100180645,3.765605707456312,0.3022153293727032,2.0683998446747465,1157.7306526042223,1105.773466948208,1129.6138630507214,1119.9147287338214,428.50396761675097,175.81740198964405,-540.8513076485639,-373.3901481214212,156.82706519843313
8.365853658536585,1.0450737593651462,-0.1000947216613446,0.4740540630343026,-0.0252898208504248,0.0927159036287222,0.0030512828513388,-0.0666334615116159,0.0755490862098046,0.0264970461368407,0.994559913453552,-0.1234793276337722,-0.0877648045555047,9.904623699665914,0.7925323850682077,0.7130704373951746,0.2378616428793672,3.770301572803564,0.3069041470715919,2.0684896322167328,1160.4495975267732,1107.2570619769967,1126.5748069564595,1118.4044621729922,427.32783165832024,304.2009378665427,-347.9388716657362,-158.36201621407443,156.82545873225047
8.371951219512194,-0.2797781349190601,0.1729232117294189,0.1173891604916628,-0.0237670881985648,0.0929356765897692,0.0043692627661375,-0.0666885011067203,0.075837851574076,0.026496614310181,0.9945340973254672,-0.1320197692455019,-0.0879249195636827,9.915898786605917,0.8006492045235541,0.7203748034273808,0.2403279344988007,3.7750343084567928,0.3116372957059908,2.068614229848873,1162.9419676244463,1109.4832344831664,1125.3707060791876,1117.9834846336496,386.9136629176206,458.7809576596296,0.4432786094179813,-35.44407957756422,156.82329891760082
8.378048780487806,-1.3004701827938547,0.2326507183673973,-0.1889885248583904,-0.0290359395680764,0.0954601783196183,0.0043284463918727,-0.0668179172736543,0.0762424680131877,0.0264316675709145,0.9944960467389315,-0.1423387082778913,-0.0918649245646204,9.929178599287487,0.8085047151237844,0.7277875000349034,0.2431242573020158,3.7798272034541136,0.3164058713402271,2.0687677185343327,1165.1680568306472,1112.8519517045538,1126.58021279316,1117.972217300095,361.11322097192544,651.6450710944546,334.4465484253215,55.17208494350976,156.82058460690817
8.384146341463415,-1.8548159435101,-0.0565231196955459,-0.4406449157561282,-0.0396606303026751,0.0975552457584686,0.0024905911085576,-0.0670322703761314,0.0767395777339349,0.0262834706600411,0.9944471933256784,-0.1529011135115536,-0.0996154558419831,9.943604557025807,0.8160650754167608,0.7353378460033924,0.2461902380005029,3.784687025560548,0.3212203839509609,2.068921647176638,1167.3457873923965,1117.430125594074,1129.4493225233987,1118.6563149378387,310.1372035932401,735.8879515139222,420.7282109250172,145.20727676348696,156.8173863933102
8.390243902439025,-1.8274116037295496,-0.5307911546486268,-0.5708117096158104,-0.0519627968033451,0.0956538717062461,-0.0003543507310869,-0.0672762853629417,0.0772112081223688,0.0261403575583765,0.9943979797541762,-0.1604473044688544,-0.109767346998668,9.95836826424019,0.8235337218806126,0.7428701150137453,0.2492977160527192,3.789585000370975,0.3260968492560332,2.069045041098428,1168.9502178500768,1121.8261950156989,1131.7110446337088,1119.74303774843,173.42712610103743,613.4256997577877,235.6380960515814,145.6843685136111,156.8140198511041
8.396341463414634,-1.3529812084533095,-1.0117712009019884,-0.5246301528008033,-0.0626307564396885,0.0898193391117446,-0.0048062921403262,-0.0675044793769353,0.0775188861928043,0.0261503686798799,0.9943583667145474,-0.1615860538217488,-0.1209083054803388,9.972465794687032,0.831262324879877,0.7500937985069748,0.2522563044575579,3.79451250127871,0.331030051782527,2.069131422920921,1169.460752344848,1124.910926810632,1132.3229578411008,1120.4329535782483,-45.621370114334496,284.479491878477,24.780943272378835,64.01656345922629,156.80996119199884
8.402439024390244,-0.8186314447058624,-1.3518579966896382,-0.2986985083229525,-0.0675366991266151,0.0828078157427671,-0.0082504364245088,-0.0677703919571206,0.0776437914101874,0.0262807134402388,0.9943271493811712,-0.1565153918411962,-0.1329271867912992,9.984670143154222,0.8393043750202978,0.7569860211669456,0.2551924148184483,3.799471451983491,0.3360069173419023,2.0691978670962268,1168.3938596779508,1125.2954571117775,1132.0132512589817,1120.5237275467134,-244.1288509871711,-156.1580792071496,-34.92961394800556,94.6463865729281,156.80552693757267
8.408536585365853,-0.5039555886034127,-1.4890065131863273,-0.1195851848310587,-0.0693523086020734,0.0742833302457312,-0.0079506324070078,-0.0680133674009857,0.0777106155628192,0.0263919614053862,0.9943024792284294,-0.1488006914700788,-0.1429841595935784,9.993338657916135,0.8475173794188103,0.763746248472499,0.2582413767579283,3.804466546341647,0.3410498453994013,2.069281541651212,1166.4835712352483,1123.0065599910329,1131.8969869392959,1121.5871778047476,-218.75093288983817,-473.5428388586183,-20.422335276069404,355.5115645224013,156.8007296764478
8.414634146341463,-0.1907259486072951,-1.2750003565403074,-0.1089359151168013,-0.0740970448253134,0.0634118971876479,-0.0079842921830722,-0.0682384976665112,0.077845896989716,0.0264019412038312,0.9942762658964585,-0.1427701959605725,-0.1498431865615937,9.997505303292687,0.8557844960513433,0.7705217116796281,0.2615418538795333,3.8094967649881455,0.3461484079579087,2.069396187333333,1165.7261653744163,1119.5205444427704,1131.7641983897613,1124.8592344311328,79.1889111476884,-477.9066391111147,-38.03430802573793,575.8088099605131,156.7956229222456
8.420731707317074,0.3062399787482945,-0.7203528152491179,-0.1743117035500689,-0.0747084893988512,0.0561358373032358,-0.0093718620658757,-0.0684740611708377,0.0779889960621101,0.0263090050643976,0.9942513394811436,-0.139133528743184,-0.1530015132843732,9.996365602459917,0.8641486116017943,0.7773862398747519,0.2649473939770514,3.8145839743443175,0.3512723789709759,2.0695205656081206,1167.4492896638787,1117.1784302457747,1131.4331539145917,1128.6092364628034,348.89736786057506,-177.34644570904587,-16.877689705253903,380.55669428008326,156.79022334125787
8.426829268292684,0.714042756497471,-0.2484915497343962,-0.1924130180298457,-0.0689472855722062,0.0549259907818225,-0.011131594395673,-0.0686933872984178,0.0780780181703634,0.0262093492289538,0.9942318915423022,-0.1381198020571175,-0.1517903122181429,9.990206621502017,0.8727275983023196,0.7843206139604411,0.2682154131923669,3.8197348839219543,0.3564029411184154,2.069646664298556,1169.981011323936,1117.357782909733,1131.5583729055509,1129.5001697272319,234.1074212422456,107.12870081212505,61.71947579951431,-128.07102375888417,156.78458897479695
8.432926829268293,0.9497241197024096,-0.187893125430383,-0.1754781528538648,-0.0650390680379221,0.0552509662246485,-0.0127783773148138,-0.068946185453124,0.0781259763903369,0.0261337083873755,0.994212711869201,-0.1409830911249143,-0.1474945972816569,9.979916459885768,0.8814465409734811,0.7913598475904495,0.2713562760272666,3.824949871790492,0.3615627400842374,2.0697832294967755,1170.3042582156136,1118.4848778166543,1132.185830448732,1127.0473947096464,-241.39004978740465,43.43687643872881,55.96139911824656,-521.3707520890556,156.77922006312792
8.439024390243905,1.1721330581023408,-0.4989751505124228,-0.2612482266540236,-0.0596646211547896,0.0535711921383138,-0.0116317383097453,-0.0692133644587655,0.0781351790502506,0.0260876434554317,0.9941947438913776,-0.147857804194015,-0.1404623633590724,9.967099710921932,0.8901655709735437,0.7985342996040588,0.2742554332770554,3.830246693377699,0.3667859777093811,2.06992773048398,1167.0372302289677,1117.8875009150831,1132.2408289923587,1123.141989823707,-680.0231328381566,-254.39146376912225,-104.3648099555872,-584.3092795978699,156.7732957001527
8.445121951219512,1.2277217986002147,-0.9740544262925493,-0.3850290261793958,-0.0506802610309391,0.0496135311372899,-0.014391219427297,-0.0693944670668172,0.0781809542413619,0.0260493227324104,0.994179590443419,-0.1590803451534654,-0.1297300662306159,9.953904479155119,0.898689287882871,0.8058557883578678,0.2768331328034422,3.8356212005778314,0.372096425760066,2.0700648196801783,1162.0112931810022,1115.3825428926407,1130.913088863908,1119.9216717877212,-658.3859658481599,-301.48690890673856,-276.1965187975737,-466.63333320584366,156.76735127275649
8.451219512195124,0.9927316625889752,-1.2801528353314393,-0.2496314964973323,-0.0437614007823026,0.040676803181083,-0.0186903963663252,-0.0694590366326644,0.0783209427109498,0.0260038624239525,0.9941652297695907,-0.1741354671870832,-0.1156467350579155,9.942620397138263,0.9068755195962762,0.8132784887860715,0.2791202024798795,3.841043837607408,0.3774953251955625,2.070202898794132,1159.0081330844782,1114.2108312942696,1128.87257876312,1117.451339418758,-167.04130272423484,114.29616892290912,-296.90931699770556,-379.49626531357154,156.76150191888675
8.457317073170731,0.5357916766478235,-1.2268368085121086,0.0468609121208501,-0.0392283976037838,0.0310191438387519,-0.0187795702915623,-0.0695062123337762,0.0785134570300649,0.0259621976195902,0.9941477603598836,-0.1899878221792734,-0.1013506682092589,9.935031528380003,0.9147784947406508,0.8207156765746497,0.2812810127396279,3.8464913005440415,0.3829333818722672,2.070329927013641,1159.9742041233897,1116.7763986112127,1127.2922435346677,1115.29366855219,375.6816654633441,601.4515613621061,-178.75753752456873,-271.6295998337679,156.7558711517617
8.463414634146341,-0.0966066258559151,-1.0321654071321131,0.2308559671928352,-0.0374150934415125,0.0255591696113073,-0.0161405432063795,-0.0696171900398556,0.0787018761823039,0.0259144071949719,0.9941262963143324,-0.2033997208809072,-0.0897790469988933,9.93274099473968,0.9224660634442676,0.8282264543494507,0.2834576751119283,3.8519603875266686,0.38837552997144,2.070439915469229,1163.5896168096408,1121.5456064328316,1126.6926087933084,1114.1387833232243,682.5630930768283,717.0447804595348,-47.85897974149584,-95.87111114711561,156.75100243877355
8.469512195121952,-0.9981801006338508,-0.940123449967141,0.341828426164898,-0.0395439164119155,0.02138611414335,-0.015003505800904,-0.0698447916386291,0.0788168582760662,0.0258697780133679,0.9941023766297143,-0.2115020273250827,-0.0834320545273327,9.935973569713452,0.9300888392874664,0.8358784376526631,0.2857490067806586,3.857463823420668,0.3938235764432019,2.070540993015652,1168.298144282864,1125.520847153403,1126.7085974402592,1114.124508660152,757.9692706025937,300.8869892473126,32.9012669359022,-1.227250336175849,156.7462093142391
8.475609756097562,-1.9233917168865415,-0.9227431370120832,0.5178844254769218,-0.0456714826083724,0.0165303643643162,-0.0148519798526452,-0.0701799106732735,0.0788634081309854,0.0258690586841062,0.9940750959555535,-0.213199713230627,-0.0838851577837545,9.944423428877757,0.9377965312052046,0.8436568369205834,0.2882581300933267,3.863016528438088,0.3993165281446737,2.0706358415501294,1172.8331444999171,1125.2149599602383,1127.0938437559414,1114.12381685571,664.6514771345478,-411.6099280536888,174.76881213873483,-124.07253850628952,156.74197952142543
8.481707317073171,-2.158224923976332,-0.6021992330181776,0.540568217118204,-0.0634176574827804,0.0079973615781914,-0.008488517383329,-0.0705293550152881,0.0789071416939119,0.0259305829938948,0.9940452929109236,-0.2093877676794834,-0.090631589482371,9.956805127838349,0.9456591384534409,0.8515079345559161,0.2910090469427521,3.8686194933165914,0.4048891410218999,2.070726259696743,1176.4036501015776,1120.5012138844559,1128.8399244175607,1112.6114289222703,400.83207410084526,-847.0767403229524,501.8870420753738,-337.44507328774915,156.7384047994061
8.487804878048783,-1.2199653650846625,0.0724259028781899,0.2517598760681717,-0.078702333619953,0.0049546008239121,-0.0052590879345352,-0.0708209811173603,0.078928189342407,0.0260287008658316,0.99402031488356,-0.1999494516510578,-0.1028676977912436,9.971420256931955,0.9536852334193444,0.8593879514043163,0.2938568261910495,3.874272628103841,0.4105393529101279,2.0708136896615006,1177.7213405255372,1114.8847558099587,1133.2144174397872,1110.0086330351276,-44.185139926414855,-771.1277036383996,901.6688365019662,-309.39613276451433,156.7354736824574
8.49390243902439,0.4453981928378727,0.5796557100917396,-0.0887864330658733,-0.0805424710820979,0.0104210174308009,-0.0061339684172872,-0.0710479274508058,0.0788533857670352,0.0261073559563684,0.9940079695717344,-0.1840850143335467,-0.1203979814270727,9.986498918633332,0.9618408556342865,0.8672726604896067,0.2966414120466295,3.87997353694436,0.4162497667888442,2.0709005658432846,1175.8648069317435,1111.097217498622,1139.835885838316,1108.8383053519717,-477.88172105937537,-510.8966779792572,1069.7845789516264,77.70493866810924,156.73322963201275
8.5,1.9133710495412448,0.6636669501411495,-0.32814125041466,-0.0699439025330249,0.0157084516394807,-0.0070484591892338,-0.0712739103823309,0.0787115666626082,0.0260648356771377,0.9940041202067242,-0.163895151046711,-0.1427804181006392,10.000383538863025,0.9699388642047844,0.8752107012803664,0.2994707808729663,3.885721981149085,0.422015492304758,2.0709948846544943,1171.8935146589597,1108.6543085175288,1146.2605708416359,1110.9562542383972,-597.6694003345336,-392.2223198288455,794.3258580609081,526.7999207976624,156.731617585692
8.50609756097561,2.650437880393002,0.558112182174005,-0.4109212487238589,-0.0545222115659906,0.0179899706787908,-0.0095183882070784,-0.0714990905206744,0.0786502982092127,0.0258345382102477,0.9939988217056774,-0.1438047755516646,-0.1678809125365586,10.011616847261184,0.9778184785431508,0.8831963204669854,0.3025682579366563,3.891527294642773,0.4278514079676186,2.071102845731953,1168.5761557081519,1106.3140184763192,1149.5227865463755,1115.2626946299915,-328.79420367161794,-366.7781779399437,130.37770460949704,733.5077326482451,156.7306894570484
8.512195121951219,2.895609008136954,0.481744145537064,-0.2663429972590864,-0.0388368609049947,0.0199419975403875,-0.0120600713908501,-0.0716610810572673,0.0787031561259909,0.0255432692580285,0.993990576102096,-0.1262386649002995,-0.1915890066665926,10.019721870547235,0.9857103520471252,0.8909700744809325,0.3058174515458909,3.897382495378112,0.4337454331936512,2.071209065286479,1167.8838292483304,1104.1814039085054,1147.8505428490687,1119.9014704902047,93.47078337812599,-155.86042775659564,-708.3973085061673,582.8988805221487,156.73025304398112
8.51829268292683,2.750875899668068,0.3760037639728185,0.0989594201218634,-0.0221844545188675,0.0235717442983467,-0.0136820322007399,-0.071740422517582,0.078830078207995,0.0253051281762444,0.9939809624031448,-0.1123612462097858,-0.2106551410513817,10.024444670645549,0.9938935441018024,0.8983112165675871,0.3090599315123954,3.9032726254526975,0.4396777619835047,2.0713054022581847,1169.7160433103243,1104.413281552458,1140.883794979226,1122.3712175631895,310.7527181586487,334.5099160279883,-1298.55910041136,112.88490090225952,156.73034229788416
8.52439024390244,2.012414700244046,0.1441744274933276,0.5713083958081218,-0.0042094284342841,0.0261547210299821,-0.0122506944398476,-0.0717501724619051,0.0790170755507919,0.0252323302017468,0.9939672760852966,-0.1037427428443111,-0.2230410383706647,10.026265308001648,1.0026122521581404,0.9050820353934949,0.3122403094676278,3.909189806739272,0.4456349653427266,2.0714272923786607,1171.6734965429484,1108.2607931283594,1132.0144562586845,1121.2781156231595,244.5752415035045,787.92998519156,-1208.0223883621427,-437.9399814969548,156.7309436482653
8.53048780487805,0.7524302190563317,-0.0764018310074179,0.7894683769340921,0.0049728109481396,0.0253504531898407,-0.0050013639605962,-0.0716959342505858,0.0792504911712025,0.0253210096215482,0.9939503051336988,-0.1018781126337327,-0.2270822931207064,10.025871657074669,1.0118596595361848,0.9114097493806604,0.3152833837813138,3.9151535505851385,0.451637130098111,2.071580674212682,1172.6986682067084,1114.0221838108914,1126.1518146333467,1117.0304860815195,182.3160400355388,843.9510718732354,-561.9286918353955,-741.4937063702141,156.7319910382047
8.536585365853659,-0.5059348158185142,-0.1545449889572032,0.6572107790644935,0.0047675401458297,0.0241032062213994,-0.0005256264804806,-0.0716177460900934,0.0794519601627598,0.025493132504915,0.9939354165469846,-0.1063184991675675,-0.2228580980671913,10.02410633851607,1.0214143358867287,0.9175886779990652,0.3180911366311305,3.9212042450615936,0.4576743371425265,2.07173089088202,1173.8968628848452,1118.5528793707156,1125.1616673338629,1112.2355094479133,360.483628066344,582.133632112196,45.691974031617775,-633.2246412970974,156.73334829781655
8.542682926829267,-1.6240664270470644,-0.1531234345892335,0.4065484559048614,-0.0024645948883986,0.0235443267621428,0.0013863997411631,-0.0716291197707031,0.0796025351226427,0.0256859540923194,0.9939175653948856,-0.1165163663593011,-0.2133864235768885,10.021659035570211,1.0309593277423954,0.9238410086233542,0.3208979130353269,3.9273509541849294,0.4637281731815228,2.071839472688556,1177.094810012395,1121.1213744464055,1126.7090338288544,1109.3082343583844,673.5297946553761,255.9219463102736,217.29176665676093,-182.50734612771032,156.73522314791649
8.548780487804878,-2.297053738245645,-0.1276389797039233,0.161761059024334,-0.0153048030715031,0.0227724669522128,0.0035558460936597,-0.0717366998211165,0.0797354991529763,0.0258373612179587,0.9938951909219796,-0.1322482033858579,-0.2000770607165786,10.018857103981825,1.0401622611648849,0.9304146822718784,0.3238698264260895,3.9335863366382817,0.4698122347789893,2.0719258931899383,1182.110640868447,1121.6738787159627,1127.811566927238,1110.0098101048925,754.2073960761489,-18.48603413820476,47.40347967960347,328.63551918603645,156.7374834596782
8.554878048780486,-2.3727570115711503,-0.0812685321366374,-0.0701084786673166,-0.030997165670223,0.0218529623136295,0.0039153478716397,-0.0719139359808727,0.0798214640563266,0.0258876462067772,0.9938741132684956,-0.1505690417026339,-0.1849589450220341,10.015717623930064,1.0488519162737513,0.9374747914655792,0.3269467422128852,3.9398600420441254,0.4759575184265541,2.0720211292254143,1186.2924611840551,1120.895935005696,1127.2871250444591,1113.3159845923603,338.6243462777686,-192.22017015899564,-84.26480421223486,543.3887016223009,156.74012945439455
8.560975609756097,-1.9066587046994297,-0.0380503464022685,-0.2024476856994657,-0.0456982289767609,0.0215114486820464,0.0016130632841779,-0.0722003050257996,0.0797474129636691,0.0258241055032707,0.9938609288947307,-0.1668715104252718,-0.1713503025044572,10.011936159846517,1.057058397130876,0.9450261049319512,0.3299807166351492,3.9461482813483935,0.4821736322065005,2.072127566409846,1186.2402060669563,1119.3297302993897,1126.783947363674,1116.636501588091,-367.96824188106206,-303.2915810558368,90.56293054538084,387.27081391774897,156.74311075934705
8.567073170731708,-1.2076181198265836,-0.0492831020562824,-0.2915195455023936,-0.0537009038291336,0.0216682894872377,0.0005589371375872,-0.0725086101023146,0.0795806327951676,0.0257120439534098,0.9938548393067578,-0.1799842388431433,-0.1599784687099389,10.007169543405867,1.0649911713164204,0.9528698957566908,0.3329115004954805,3.952462090821267,0.4884610244965316,2.072241587560258,1181.8050436001395,1117.1972571879414,1128.3915510267202,1118.0387993962358,-872.2998479058958,-421.50265869895645,544.0660026714219,40.24319505048982,156.74613800566564
8.573170731707318,-0.4377499669761062,-0.1249794018553507,-0.5411587494805287,-0.0565497449556334,0.0210969624168664,7.433379144623238e-05,-0.072761700502537,0.0794760883185168,0.0255943956284916,0.993847873867648,-0.1909741010261756,-0.1513546497732129,10.001003746676032,1.0727433827969464,0.9608641557951216,0.3358724646365055,3.9588232938996937,0.4948037233678386,2.072358941127188,1175.6024030437125,1114.189453973792,1133.418898615765,1117.1272722594383,-834.4393710621931,-500.86967128423345,987.627482810649,-298.50983142433523,156.74965481240787
8.579268292682926,0.4399657467872579,-0.2326343289132015,-0.8632484687989586,-0.0586372662441733,0.0202834831410943,-0.0032113837645881,-0.0728969326146693,0.0794889261442256,0.0255121768071358,0.9938391517300754,-0.1997387677748306,-0.1456288404146049,9.993310704257222,1.0804361867856804,0.9689058481329674,0.3388127076746854,3.9652497787920225,0.5011795242270637,2.0724837242028396,1171.6289537091375,1111.0890904649632,1140.4357886219716,1114.3984355983782,-402.0975063033063,-449.8348498280348,1010.8460245853892,-425.3418847651338,156.75332927626707
8.585365853658537,1.568431318439406,-0.3174843373063996,-0.8040126255795351,-0.054562679349036,0.0186311028493739,-0.0114609510805174,-0.0728847342842241,0.0795253363633958,0.025465785887012,0.9938383416549754,-0.2040215375169122,-0.1430821971238405,9.98425403371515,1.0881701819665244,0.9770052693699438,0.341433669168928,3.971736645402293,0.5075952181420358,2.0726108461835335,1170.6987749180623,1108.7036631222309,1145.7462891594892,1111.9401761037664,-74.30612609242726,-296.0067573845395,446.3073268128805,-200.95564085380633,156.75707167871235
8.591463414634145,2.5610979751915943,-0.2773942073281306,-0.1383161204230543,-0.0415973847727928,0.0150742091873302,-0.0178090199695684,-0.0727809914465681,0.0795338830720155,0.0254631358484204,0.99384527437502,-0.203154737767873,-0.1452461332604833,9.974155549909575,1.0960445150125127,0.9850879851916862,0.343704892990111,3.978264134836381,0.5140554491372145,2.0727425725830977,1170.7227814397177,1107.4792519602738,1145.8785609001773,1111.9477570513807,2.845117279942416,-57.36598905110235,-449.72428658258247,239.73700619086765,156.76079519459967
8.597560975609756,2.7815309163888764,-0.1744116376024406,0.7091097647011922,-0.0215430371877151,0.0136115368605284,-0.0149084149404379,-0.0726300279502644,0.0795115197635234,0.0254891166402306,0.9938573699133892,-0.1985118383850937,-0.1522485412703876,9.963521555108601,1.1041094318283222,0.9930872169412412,0.3457022139023214,3.984815388073095,0.5205822083680862,2.072878562908429,1170.7334714702567,1108.0040778899004,1140.2618466401896,1114.863798130484,80.15672480289106,265.7779690510632,-1080.5339603814543,519.5637975542734,156.7644330978007
8.603658536585364,1.98912784594532,-0.3035165876937341,1.042666801384721,-0.0025322679041269,0.0148112546235679,-0.0051636841944398,-0.072513489076516,0.0794638198575779,0.0255088897766368,0.9938691394144052,-0.1920631325158754,-0.1647836473435647,9.95283759210368,1.112369774394426,1.0009162482967147,0.3476120161864883,3.9914010927340247,0.5271890396642988,2.0730014860083656,1171.7003024738992,1110.7204467047989,1132.7013174808917,1118.2839009239935,283.6140402888328,582.3116512063614,-1045.6972351440288,356.63709435404047,156.76794703249644
8.609756097560975,0.739849735835703,-0.6524291570299362,0.7466526862254407,0.0042537475744811,0.0118300754630352,0.0019496376029008,-0.0724323730398231,0.0794775052956923,0.0255383279109119,0.99387318222991,-0.1877957260406675,-0.1807280483286134,9.942534315310793,1.1208324709364075,1.0084412181255096,0.3496652574454179,3.998031032720344,0.533856212924326,2.07311065800806,1174.1921792786572,1115.1054394899777,1127.5094413335555,1119.21303098846,511.00043634205343,735.8805896835355,-609.7557757172998,-86.242426815067,156.77104651631004
8.615853658536585,-0.4023536776842806,-1.033959575158872,0.3047792283322944,0.0022304101727896,0.0056601677379674,0.0032738046910741,-0.0724114537908952,0.0795636203855003,0.025614952479742,0.9938658247497868,-0.1882078453147618,-0.1985210846050057,9.933034142631072,1.1295539624099669,1.0155099172459456,0.3519642714779596,4.004709544674286,0.5405691349734286,2.073217033738833,1177.9320151122167,1119.6946002375244,1125.265271435559,1117.2321640116147,579.6279301961388,488.4455527262584,-190.8208545761976,-398.9316181098572,156.77422046867963
8.621951219512194,-1.02755473314912,-1.3274030573385929,0.2651921513162739,-0.0036526798972223,-0.0010277441798954,0.0019083010252025,-0.0724296336206174,0.0795869869480655,0.0256728567100836,0.9938611143499244,-0.192246815809769,-0.2155640523139454,9.924717018283308,1.138385131380896,1.022354361938286,0.3541722542839643,4.0114567516259445,0.5473116235652665,2.0733275636874327,1181.260812573733,1121.062092572006,1125.1823577411626,1114.3480112554123,363.94992698308346,-134.16474394389047,31.703983760145693,-423.7203096137693,156.77718951898288
8.628048780487806,-1.2238506279766552,-1.429266071490328,0.6557295754510745,-0.0100333717117236,-0.0110607842377767,0.0031003699118482,-0.072465276702321,0.079482322912268,0.0256633529716564,0.9938671259926242,-0.1996451580504888,-0.2296318245888045,9.917999072260761,1.1471343528736195,1.0291942084058503,0.3560783596288703,4.018290614941222,0.5540869483209016,2.0734434075437917,1182.3704288559131,1118.0584448235743,1125.6519053838535,1112.0648431626655,-92.4066028514413,-645.8153804706528,44.6899232498074,-332.66282567709186,156.779920652202
8.634146341463415,-1.1835884799183465,-1.3371349410549667,0.951902183611576,-0.0169907115238753,-0.0197337988324434,0.0104266461639094,-0.072530645936048,0.0793772217154921,0.0256297957996818,0.993871646512328,-0.2127912471231984,-0.2399049675666888,9.913188394263702,1.1556912513718105,1.0360039871846722,0.3579798905979378,4.025184548611875,0.5608980625475505,2.0735557112398815,1180.1339027828617,1113.186295249193,1125.7273568051846,1110.2911475276433,-558.0196223519467,-694.8596367406614,-41.53053157941315,-221.7539147986296,156.7824115576585
8.640243902439025,-0.9201291867255712,-1.2079107809161236,0.7218073960622037,-0.0239669329806563,-0.0259512910120201,0.0180302568518467,-0.0725890834831253,0.0793223215588149,0.0256460101317003,0.993871340065609,-0.2314246419275983,-0.2455241328579078,9.910571214071254,1.1641200713589928,1.0427032558883356,0.3599155009931035,4.032110112632572,0.5677598813135603,2.0736674224707734,1175.565311510158,1109.5845468145424,1125.1454354865436,1109.3605271285362,-708.0851228685234,-447.6734230058364,-64.27608880441177,-44.47987177569097,156.78447615768115
8.646341463414634,-0.4127172555460734,-1.0355592153756428,0.035661227267955,-0.0275599705820607,-0.0323331858674071,0.0208198104461994,-0.0726153294051825,0.079225763813121,0.0257151277972968,0.9938752660717514,-0.2519647671255482,-0.2462851808657309,9.91053865284083,1.1724437644563284,1.0493750526041947,0.3616282433275455,4.03907311950122,0.5746724485301314,2.073782418737455,1171.498718357636,1107.7268632613175,1124.9435020636674,1109.748710066964,-320.2781022717886,-215.699907384886,189.1659848661228,129.56640943150757,156.7864480418625
8.652439024390244,0.260559624061348,-0.6641010542372001,-0.6564552367332273,-0.0284701635222197,-0.0390170646911729,0.0185932355974455,-0.0725735919935991,0.0790402434576056,0.0257718893604683,0.9938914896322742,-0.2710252045833647,-0.2426207219663442,9.913025012641375,1.1805480811808786,1.0562523006208495,0.3629538400192017,4.046088545203235,0.581614237623076,2.0739002073109822,1171.6594809946487,1106.954060139117,1127.4523377410085,1110.940605292335,321.8662516983259,-180.75826012383965,711.8378573694392,118.79146949389144,156.78814897253207
8.658536585365853,1.1001358068065348,0.0371501332264512,-0.8743554592257632,-0.026206241459288,-0.0433582284851089,0.0112074307986425,-0.0724948701313849,0.0788111412952613,0.0257848152564038,0.9939150318414524,-0.2867608592113918,-0.236251125677075,9.917870431201981,1.1882879565610303,1.0634374871284231,0.3641100561103001,4.053174541105757,0.5885849365095542,2.0740008701355706,1175.4239165490787,1105.522494235417,1133.6244515437822,1111.1973865242066,604.7435084547337,-359.2089961259831,1094.376077623998,-91.87606825066547,156.78955592823243
8.664634146341463,1.8112432651223147,0.7322707029400182,-0.4645780793459774,-0.0160811704950641,-0.0385205812588635,0.0044237052964156,-0.0724558180635521,0.0787343866298037,0.0258293674590828,0.9939227998085016,-0.300600073196003,-0.2301238693819713,9.924148216926127,1.195725342945139,1.070648524766356,0.3657865826897326,4.060305291081091,0.5956068116056727,2.074081240142452,1179.0344018294622,1102.5734626253857,1140.79838746813,1109.8201654356196,405.8910843688062,-519.7318327045224,946.5078110252019,-298.2649488368469,156.79068142647657
8.670731707317074,1.960197012909355,1.0890586513352272,0.2271535113642061,-0.001720959255028,-0.0309596261111408,0.0044385767909894,-0.0725055239156768,0.0787607263810327,0.0259053963206113,0.9939151063932384,-0.3091286382539922,-0.226291911803153,9.930993498715349,1.2029391410109298,1.0777891348829762,0.3680366934312767,4.067466267419472,0.6027078988347907,2.0741520841206373,1180.3738078218698,1099.184301153654,1145.1672297270177,1107.5600090993667,89.78843578058206,-416.88684474329966,341.04543461310885,-369.02994816989786,156.7915053527974
8.676829268292684,1.5613631823629444,1.311429451889538,0.6424396848591954,0.0098469154631854,-0.0252596805065938,0.008889638499007,-0.0725721815757829,0.0787658451675552,0.0260343994529649,0.9939064893016624,-0.3085575263363029,-0.2240081740163251,9.937459748228001,1.2101977896490212,1.0847607611305796,0.3704135160635838,4.074636219878243,0.60988399647779,2.074234167230692,1180.1293827536158,1097.4894767138815,1144.957478134144,1105.319800214035,-51.6632472827214,-35.25493712051991,-300.44874022670933,-309.07212128969246,156.79204363272774
8.682926829268293,0.9479926863514356,1.5631539259112128,0.5060022225742036,0.0169636207541383,-0.0182694006562899,0.0145076701746646,-0.0725284535947818,0.0788051086854119,0.0261739369682401,0.9939029929257284,-0.2994956072366049,-0.2208623704535743,9.94260007251685,1.217544028535778,1.0916717750179112,0.3727295923816673,4.08182906958888,0.6171084447701062,2.074332612213024,1179.743768220861,1098.7543628960866,1141.5032206998628,1103.7908368885169,-50.158214507825015,491.6999867665546,-598.4868445529331,-203.41403805264596,156.79227509469584
8.689024390243905,0.3355808123513361,1.7190142707819542,-0.0809674426838446,0.0193883459885911,-0.0077042746237044,0.0172205152174246,-0.0724077849455348,0.0789249720892421,0.0262645180620604,0.9938999825529244,-0.2834318408835637,-0.2173920087217506,9.945643506436737,1.2249119363576333,1.0986623043889323,0.37512609466872,4.089088189254318,0.6243535226142257,2.074430533920696,1179.5176972108375,1103.4858180159124,1137.6588580786204,1102.839141213393,-74.73892884692206,931.599651277756,-410.41671596140674,-153.93461612047304,156.79223936044355
8.695121951219512,-0.0889151911984928,1.4990934423640374,-0.5890728288742465,0.0196412856414241,0.0040746076554206,0.0123635801737014,-0.0723118141129247,0.0791172750775632,0.0263158778163238,0.993890407772023,-0.2620755662591134,-0.2154625441420428,9.946337661495651,1.2323519864242356,1.105718376544012,0.3777720062346775,4.096408705796108,0.6316138326579923,2.0745305628244526,1178.8323178690691,1110.115334253132,1136.4981387978946,1101.9135854724136,-121.9850705688216,976.0920036756352,24.27475072111879,-172.06075406486315,156.79192096908852
8.701219512195124,-0.3964883956286689,0.7880744103002395,-0.6157778873868883,0.0189466838678297,0.0136173704607163,0.0055910185606266,-0.0722606907696257,0.0792956676193377,0.0263506143673652,0.9938790949703062,-0.2357163227929625,-0.2155117194179139,9.944736536703706,1.2400263984978053,1.1128300292908295,0.3804628362627753,4.103763272925416,0.6389304238791486,2.0746384683738386,1178.0300743990226,1115.3893790363463,1137.954891624,1100.7408393345531,-97.79942792871344,591.4749590257162,210.06996944165004,-104.0877870345244,156.79130621744238
