t,ang_acc_x,ang_acc_y,ang_acc_z,a_vel_x,a_vel_y,a_vel_z,quat_x,quat_y,quat_z,quat_w,acc_x,acc_y,acc_z,l_vel_x,l_vel_y,l_vel_z,pos_x,pos_y,pos_z,mot_1,mot_2,mot_3,mot_4,dmot_1,dmot_2,dmot_3,dmot_4,vbat
0.005,-1.1874080804404652,0.366077353275869,1.1529542187095183,-0.2974943139599079,0.2374724776217042,0.0172762176680515,-0.0131519494948402,-0.0004073449090986,-0.9891034649628854,-0.1466340486745567,-0.0076458678116003,-0.1086689603509814,10.850075002231742,-0.1694026681970797,-0.1392207850296023,0.7506189010434342,3.623933791949783,4.9743584967070165,0.2428336646395557,1212.1677307488253,1170.6634592528972,1192.2931362732645,1171.1124843947507,-182.76808791861188,-435.83991685054576,602.2751524381421,-164.0590992961734,149.40993879259324
0.0074999999999999,-1.114964199683325,0.4369612683270038,0.7045151417533351,-0.3002143493353325,0.2365279831699624,0.0190505368611267,-0.0128113457127476,-5.085768675173601e-05,-0.9891114038225712,-0.1466089385034525,-0.006298499534496,-0.1076260764742923,10.856884938841468,-0.1706677777516645,-0.140072605535814,0.7529858868025374,3.6244840766182578,4.974558897463169,0.2447064790230913,1211.7108105290288,1169.5738594607708,1193.7988241543599,1170.7023366465103,-187.88455474345935,-517.3965763604883,849.1693585940993,-224.8388165447977,149.40838963056214
0.01,-0.9825399298125224,0.7376953445964005,0.1761936492186724,-0.3018348175930279,0.2356840382671978,0.0192211850132351,-0.0124668489512069,0.0003031348257469,-0.9891182988339294,-0.1465905580503384,-0.005016010133279,-0.1065145668291907,10.863689290541643,-0.1719372489886876,-0.1409225762490573,0.7553646250322498,3.62503700285004,4.974760091942262,0.2465799108217332,1211.228307975108,1168.0764763710947,1196.538983066235,1169.9882903120267,-175.97708018770388,-556.0268542673838,1125.7931074450876,-271.09612846425074,149.4064658125323
0.0125,-0.8705313879953949,1.1426624542819377,-0.2149530429034449,-0.3024344372632974,0.2362961529271981,0.0180559835370129,-0.0121130707018085,0.000651726651377,-0.9891243820179052,-0.146577557360082,-0.0039117324809022,-0.1052722466688441,10.870470027382323,-0.1732179407160062,-0.1417636959842799,0.7577605936055389,3.6255932910424735,4.974962602620505,0.248453403880694,1210.8309251280903,1166.7937251894339,1199.4277896915853,1169.346856004189,-175.7561265243567,-495.5077736103249,1228.0121765966217,-227.67092875496928,149.40481280924803
0.0149999999999999,-0.7766438874301802,1.6474321210755647,-0.5236565101373936,-0.3033231280842955,0.2394011596578677,0.0160461403987318,-0.0117503672988473,0.0009942773183988,-0.9891298215062808,-0.1465685380059423,-0.0029714857405389,-0.1038708096745582,10.877203727191269,-0.1745070796442922,-0.1425904184887102,0.7601805048226122,3.6261530066691834,4.9751666360791935,0.2503270234832932,1210.3495273424862,1165.598937503043,1202.679043949218,1168.8499356682519,-219.54658651975473,-449.029524190746,1314.5966414646407,-151.07486022625375,149.40311300426723
0.0175,-0.6953422189415325,2.177597784544074,-0.7546597748083615,-0.3048192489706128,0.244847692051873,0.0138702570819407,-0.0113809830227618,0.0013300096610903,-0.9891347035940627,-0.1465625303219487,-0.0021457096404693,-0.1022788572945741,10.883862246182604,-0.1757984348700288,-0.1433963655897298,0.7626304702153398,3.6267158404639033,4.9753721100387045,0.2522031193778511,1209.7331921954915,1164.54857756848,1206.0007728989085,1168.5914817030575,-287.5258806326655,-373.1537093197402,1287.4351733363253,-34.71528521140498,149.40137802788027
0.02,-0.6161332193383952,2.6745305267181,-0.8938890147305638,-0.3067268046473137,0.2526727662194832,0.011825086404217,-0.0110055748833862,0.001657934175455,-0.989139045687001,-0.1465591943578861,-0.0014258777617745,-0.100472924376509,10.890414164678392,-0.1770875836124815,-0.1441753180227003,0.7651138969613425,3.6272815723666896,4.975578494989155,0.2540841937422782,1208.911897939323,1163.7331689564444,1209.1162198158995,1168.6763592421948,-403.91875268951503,-294.90007296271887,1252.6018467796807,103.91066186371069,149.39960501614368
0.0224999999999999,-0.5082825844018884,3.1802428182676685,-0.9636905486244624,-0.3089428008942057,0.2635212916522376,0.0091175301801356,-0.0106213552423881,0.0019759952161804,-0.9891427282537312,-0.1465594227564842,-0.0008882196096783,-0.0984261018842931,10.896827228646451,-0.1783748530464447,-0.1449207809402553,0.7676304832877671,3.627850375129284,4.975785167226573,0.2559728714875326,1207.713598432044,1163.0740772036663,1212.263782132807,1169.1110350123763,-459.1984279817551,-185.46680950798867,1012.9342344240284,190.91582942382956,149.39743906045425
0.025,-0.4026821535469164,3.51679645676944,-0.9478223549732934,-0.3105086928371761,0.2726978129341611,0.0066389927880219,-0.0102270617527162,0.0022831759130158,-0.9891456745733976,-0.1465637167334556,-0.0005804820583831,-0.0961371036233119,10.903071938877408,-0.1796579298684899,-0.1456275954916574,0.7701775980166984,3.628423409698233,4.975992139613707,0.2578715128389951,1206.615905799414,1162.8058349089044,1214.1808909880199,1169.630938389314,-431.45491660516194,-49.111985707395434,585.3614901179297,208.26847509206343,149.39560624311625
0.0275,-0.2829546533949212,3.78168355635835,-0.8652497796775072,-0.311674794295228,0.2811112145568332,0.004199418261143,-0.0098238632943618,0.0025805743033029,-0.9891480007739144,-0.1465710740614247,-0.0004984855008743,-0.0936498902585367,10.909124459355052,-0.1809307265500412,-0.146293102557697,0.7727507034016493,3.629001966113029,4.976198623622843,0.2597814299149758,1205.556323849018,1162.8285172751296,1215.1905895833963,1170.1523773878366,-424.3674226437181,73.5452097686903,218.3435060494959,205.2773258311846,149.39374939686127
0.0299999999999999,-0.1342888888506327,4.045467535054007,-0.7056920135600615,-0.3124461342928941,0.2906863906053124,0.0015444654532932,-0.0094087703682151,0.0028719909885307,-0.989150251034588,-0.146577840765059,-0.0007252779545349,-0.0910862510005246,10.914967920560196,-0.1821940315989304,-0.1469192670718442,0.775341151690337,3.629587008267535,4.976404965903067,0.261703410105805,1204.4940686861955,1163.173560957748,1215.2726085182671,1170.65732501847,-337.5252317703143,174.12047146785875,-153.49041447461784,164.1072722330136,149.3914990646504
0.0325,-0.0181373695538374,4.22938891279538,-0.5387457155072448,-0.312529862473496,0.2992133892853925,-0.0001802524044355,-0.0089776195551198,0.0031583107307133,-0.9891530137601156,-0.1465801758734271,-0.0013828184861523,-0.0885146062422879,10.920594902820149,-0.1834521131682354,-0.1475045612237748,0.7779393937064024,3.6301778483043474,4.976610980418105,0.2636380671153801,1203.8686976901663,1163.6991196324689,1214.4231375110235,1170.9729137490017,-187.63737147105516,248.35741106894577,-508.2362414298582,124.87823722976816,149.38960942768864
0.035,0.0754862859599542,4.364504653621459,-0.360638712373348,-0.3122152752753841,0.3088294175612436,-0.0010300450223042,-0.0085259005013797,0.0034446652181288,-0.9891567201661988,-0.1465752067777273,-0.0025888704073018,-0.0861005557822176,10.926007627098587,-0.1847101003720299,-0.1480553843042367,0.7805344290363923,3.6307725669088096,4.976816268449081,0.265585294468935,1203.5558818288403,1164.4153480130926,1212.731427311118,1171.2817162046188,-69.3634139548067,338.8400142344837,-898.8283437657177,175.71152287841875,149.387709458132
0.0374999999999999,0.1486088631749466,4.436335269397892,-0.1620312385465509,-0.311375732165483,0.3214100075362112,-0.0012065910155956,-0.0080506906581949,0.0037339151508364,-0.9891615463205512,-0.1465617297851021,-0.004433349232549,-0.0839579873818067,10.93121814792656,-0.1859726716128265,-0.1485760672830554,0.7831169834182307,3.631368923855211,4.977021042718376,0.2675437122505557,1203.5218806203925,1165.3933197036413,1209.9289957921949,1171.8514713633936,33.52137538095123,360.40763789351354,-1121.3127048655683,273.759057310008,149.38542237086284
0.04,0.1718516688421427,4.391635572543392,-0.024762105441199,-0.3103232578813189,0.3325366971757683,-0.0009562623664019,-0.0075528054278896,0.004027002719127,-0.9891674436947921,-0.1465398882185735,-0.0069278284398356,-0.0821471716737773,10.9362470105473,-0.1872408441004415,-0.1490688097282658,0.785681074110659,3.6319648901196127,4.977226320136022,0.2695122527212753,1203.723488705745,1166.21738620256,1207.1248637867902,1172.6505114911688,106.82415086944263,312.06339676355094,-1174.0588915935848,415.10074514981136,149.38351372602384
0.0425,0.1591488420668822,4.208542363170016,0.0726120977099899,-0.3092930424814435,0.3440662787703248,-0.0005212247092346,-0.0070390676266643,0.0043243729934467,-0.9891742284884064,-0.1465104191640009,-0.0099490020277113,-0.0806955089970625,10.941121070420344,-0.1885080829087104,-0.1495350736756592,0.7882252265620918,3.6325585787123,4.9774317862059165,0.2714905108472859,1204.0560013747397,1166.953636687459,1204.0587013342267,1173.9269750891428,133.27446906546362,271.66448095918,-1235.4804047708972,599.0637636605246,149.38160568273585
0.0449999999999999,0.1271977692979758,3.899779246330592,0.1344053087740927,-0.30857118219917,0.3553302648141088,-7.24825932367754e-06,-0.0065151184817071,0.004628965514926,-0.9891813911277944,-0.1464762642801081,-0.0133822004013217,-0.0796836549486352,10.945869028663306,-0.1897698090377277,-0.14998252158203,0.7907492228715587,3.633148505382712,4.977636055729274,0.2734763272546286,1204.3898610510723,1167.575708607356,1200.9474617629355,1175.6458303094714,104.63979300225223,224.2725932540453,-1214.877535960614,790.3133076384167,149.37970043932094
0.0475,0.0924237369072734,3.4478127755884977,0.1551144820411115,-0.3082554235641655,0.3652982227520101,0.0005746992148509,-0.0059834724190768,0.0049412696713481,-0.989188245292944,-0.1464418222524052,-0.017177845345306,-0.0791426151124511,10.950517713875263,-0.1910272088343338,-0.1504173325071073,0.7932546555343634,3.633733390438224,4.977837362827604,0.275467102233073,1204.5792003397507,1168.0749996537293,1197.9843136544239,1177.8785416273347,14.31638665617355,214.34178331733145,-1223.4545759442415,1080.368990638998,149.37780103455816
0.05,0.0775926623690877,2.777713044188989,0.1396190767319108,-0.3081335278740138,0.3749720956426372,0.0013091640101219,-0.0054442299884829,0.005258084295639,-0.9891942472233652,-0.1464107983266457,-0.0213392345535823,-0.0790223404056128,10.955088534559156,-0.1922863858568195,-0.1508407646720506,0.7957453671050666,3.6343136420340767,4.978035341526751,0.2774604953655932,1204.4614429843532,1168.6474175239427,1194.8301888832143,1181.0476752626664,-120.67615665541784,233.78834946784093,-1063.7021122591707,1219.8720535199307,149.3755312869065
0.0524999999999999,0.109435549442948,2.1536581883689565,0.101698016117023,-0.3082061076049228,0.3809375496331491,0.0018504217553225,-0.004896147529074,0.0055762472411275,-0.9891990605398708,-0.1463856083754463,-0.0258874269161036,-0.0792679738241365,10.9595941688208,-0.1935553168082542,-0.1512538869388138,0.7982264987367951,3.6348908408828673,4.978230649533537,0.2794558133284931,1203.9758195564739,1169.2439414010685,1192.665803093128,1183.9779018949343,-287.06169479496583,303.34394551409804,-750.1125189522556,1195.4135799676812,149.3736496037426
0.055,0.2099088786639881,1.515430622267724,0.0521991228541775,-0.3084699346641788,0.3846483858233855,0.0020292425540019,-0.0043437073671888,0.0058935283359168,-0.9892020041584608,-0.1463707956525273,-0.0307060143064474,-0.0798174273936004,10.964037372172148,-0.1948308390475072,-0.1516582111336896,0.8007065829342456,3.6354672038933167,4.978424704107536,0.2814533931959996,1203.0261345103784,1170.1641372515132,1191.0796262884533,1187.0247431625048,-521.9829741763983,521.1412281606496,-556.552349090452,1315.7363091247576,149.37178022216023
0.0575,0.4263003822439974,0.7895955797024949,-0.0016177674937837,-0.3086466490514133,0.3865884766250113,0.0013339182501846,-0.0037920499433708,0.0062076160902747,-0.989202977843082,-0.1463670180015932,-0.0356554323207648,-0.080594004581884,10.96840839349068,-0.196108214438506,-0.1520525637091517,0.8031949601122623,3.6360444845181186,4.978618117507489,0.2834541201028918,1201.3659046855919,1171.8496475418715,1189.8830413476755,1190.5565834405584,-681.9573683709226,733.8016375777446,-324.34577444387304,1233.1867715271987,149.3695538090001
0.0599999999999999,0.6877201074265654,0.2471498643264277,-0.032526158832018,-0.3083471531308427,0.3866011736722874,0.0001537435672598,-0.0032498538796683,0.0065146853192386,-0.989202126032824,-0.1463733015685621,-0.040517116013404,-0.0814675498698904,10.972684977781704,-0.1973760366779239,-0.1524309310433519,0.8057027261907614,3.6366237381858335,4.978810468970631,0.2854583083691795,1199.6163476685235,1173.833145439402,1189.457897416234,1193.1906770201408,-750.2685507584378,916.094941338088,-65.56481820566663,944.6569558359901,149.36771450955396
0.0625,1.0192025459890603,-0.2159542488754917,-0.0526610152038754,-0.3070228351279783,0.3857554088794643,-0.0004066506209154,-0.0027257718796202,0.0068110324237295,-0.9891998335534782,-0.1463870964994871,-0.045067874945836,-0.0823024244399788,10.976831817679413,-0.1986215054091371,-0.1527858798338446,0.8082402503273145,3.637205794289528,4.979001588711414,0.2874662855547291,1197.6145619317997,1176.430122248562,1189.5552172566474,1195.2798682197383,-904.4407412000957,1259.8001448905948,133.8415824007369,760.4577611101824,149.3658943791874
0.065,1.46369595976246,-0.6850332731715943,-0.0850150213891844,-0.303560972640667,0.3842265362284872,0.000304742312941,-0.0022232829286072,0.0070936297799993,-0.9891962466109082,-0.1464075896625573,-0.0491926077077208,-0.0829884726106586,10.98080031543243,-0.199837773140779,-0.1531120279457857,0.8108142410396771,3.6377910261243698,4.979191435311495,0.289478660263102,1195.0941439625233,1180.1321461638547,1190.1271053282376,1196.9929658256915,-918.6678691426088,1420.8703912205679,255.6024988757142,491.95774704935457,149.36373546314832
0.0675,1.842560673895428,-1.014439773218239,-0.1315085202490441,-0.2992816723600718,0.3824199764872801,0.00118834121595,-0.0017409502062556,0.007360514150424,-0.989190875347527,-0.1464383310012516,-0.0528801838494573,-0.0834509387010288,10.984530279866885,-0.2010230782944527,-0.1534077941419729,0.8134272526263655,3.638380353697968,4.979380922045808,0.2914976086865969,1193.0212225860867,1183.534474204665,1190.833229751026,1197.739656954985,-795.9103316096382,1373.6693940221346,288.56187506767094,178.85142036561757,149.36195976017325
0.07,2.1967131265801245,-1.2926188407740051,-0.1973375294058304,-0.2941246951840782,0.3799224754164334,0.0015776840450296,-0.001274798536005,0.0076098559547882,-0.9891837046943434,-0.146479705293831,-0.0561762960632546,-0.0836216406380487,10.987952905517464,-0.2021798815375989,-0.1536704608085938,0.8160787090214705,3.6389750723848153,4.979570386580493,0.2935257138958233,1191.114592304475,1187.0004931339656,1191.569914703576,1197.8872229275198,-717.5902519813021,1354.813718345306,269.1016088185284,-7.321469442513277,149.3602112861265
0.0724999999999999,2.5097765867489112,-1.5348094224922235,-0.266259712321867,-0.2886251189069976,0.3767296884677722,0.001399475262622,-0.0008190566249351,0.0078406918784849,-0.9891752510225256,-0.1465284825827552,-0.0591662288288928,-0.0834537454847948,10.990993699893856,-0.2033141954914026,-0.1538972640537888,0.8187651269049537,3.639575140577912,4.979759669995152,0.2955647049028334,1189.43327132618,1190.3085427963915,1192.1787377951186,1197.7030496077723,-602.52495840714,1241.3678094209922,182.8072747530772,-100.76169650824357,149.3584875635602
0.0749999999999999,2.7500866873333094,-1.738210569130498,-0.3145512251499538,-0.2827846924275768,0.3725867770151175,0.0003481215938359,-0.0003702729069029,0.0080558102896178,-0.9891663548261288,-0.1465790099927038,-0.0618767870002565,-0.0829729047937288,10.993576399788916,-0.2044284555449092,-0.154089934489869,0.821481628824905,3.640179130391292,4.979948398951096,0.2976146597511213,1188.1019675124392,1193.2073321810703,1192.483951077341,1197.3834144449784,-492.94117483905165,1143.4165722832847,41.69513105666734,-102.06035173800947,149.35679587359263
0.0774999999999999,2.91880239907244,-1.944433203842692,-0.3179913357306929,-0.2749964836058361,0.3668768152716703,-0.0017119638453706,7.387261238917023e-05,0.00825998054937,-0.9891579523432112,-0.1466248462851646,-0.0643079531112675,-0.0822441601236788,10.995625541824632,-0.2055238109795696,-0.1542531263049343,0.8242223971240005,3.6407849849656673,4.98013606410753,0.2996758686911272,1186.968565451985,1196.025625657808,1192.387213450402,1197.1927478490825,-334.8359578552842,911.5069494064749,-113.79820047850434,2.4742893033362607,149.3548049264594
0.08,2.9284926953179755,-2.0940284466480104,-0.2623071705902346,-0.2674584308473709,0.3620732797349917,-0.003671136192317,0.0005170803610896,0.0084595123799899,-0.9891506062875784,-0.1466619594093555,-0.0664888747059506,-0.0813722720140546,10.997068242883923,-0.206603640447997,-0.1543958318448498,0.826980219618673,3.6413915169234623,4.980322108422441,0.301748601863663,1186.4277877231627,1197.7648669281027,1191.9149600749488,1197.3957858914953,-132.1128511932328,570.2785839502208,-251.47342067375553,178.6708250941045,149.35317930787687
0.0825,2.7674423515356787,-2.2347171782086974,-0.1487160918677591,-0.2589555910133506,0.3577006723067505,-0.0051752188042093,0.0009583784163008,0.0086575469073153,-0.9891445415810692,-0.1466887358147913,-0.0683607299959676,-0.08038041399602,10.99783815695895,-0.2076648642399233,-0.1545222731028762,0.8297509651862388,3.641997374667053,4.980505933460914,0.303830443400224,1186.3080011960187,1198.877018577559,1191.1298463470332,1198.086101974553,43.127422675979645,357.57214731765964,-374.20462603577073,403.2754406394812,149.35158893021128
0.085,2.3604359831030512,-2.4013138679333754,0.0274166221761576,-0.2490037327605459,0.3524834253100413,-0.0056307220600528,0.0013969375524877,0.0088551330728536,-0.989139670117502,-0.1467057465713777,-0.0698771719221194,-0.0792496308391982,10.997875761344863,-0.2087055095092132,-0.1546345124206635,0.8325315674880902,3.642601645003999,4.980687191732392,0.3059190024858453,1186.6434248365429,1199.5527276646912,1190.04393694477,1199.4121630946927,200.1556783474369,151.04614706010565,-382.9534622560456,537.5135779149782,149.3497209419838
0.0875,1.8584924299002967,-2.530116628505695,0.178827151322697,-0.2421150374877812,0.3471590140947963,-0.0047304946221471,0.0018356374891151,0.0090566772661544,-0.9891357797124491,-0.1467141426493223,-0.0710633337694296,-0.0780491609754893,10.997128544581663,-0.2097295615401614,-0.154741352040904,0.8353171327683129,3.6432037536867705,4.980865809969712,0.3080133625290756,1187.308779587756,1199.6322493128596,1189.2150790357528,1200.773669864128,338.16194866435643,-52.193272795648326,-272.32714793431165,547.2834085469012,149.34819727006635
0.0899999999999999,1.2389613597512468,-2.6244244137440975,0.3047323388125872,-0.2375424714056105,0.3403926788237479,-0.0030721461452995,0.0022806726257241,0.0092683582805354,-0.9891332332500185,-0.1467110286440539,-0.0720109468932025,-0.07690020078099,10.995552411412838,-0.2107478709495102,-0.1548534391374827,0.8381013241711319,3.6438039660322494,4.981041861978455,0.3101136579914245,1188.3342345798646,1199.291761300713,1188.6823012050984,1202.1485801374272,514.7868723231578,-229.0711892813765,-133.8292983718932,553.5229577659276,149.3467063309906
0.0924999999999999,0.4478420418026523,-2.670717458776087,0.40934548928418,-0.235135563752585,0.3313957095757932,-0.0010581342577544,0.0027331541832958,0.0094979996950353,-0.9891316324235822,-0.1466985779299051,-0.0726968172493104,-0.0759494853721525,10.993115368004336,-0.2117612566130888,-0.1549846074987681,0.8408799811834206,3.644402703282136,4.981215730320217,0.3122202181821219,1189.8827139493717,1198.4868933664527,1188.5459325438935,1203.5412846529575,598.7140670829369,-349.4018462844903,39.724110049837655,440.57168771687384,149.3449524525373
0.095,-0.1802309642250232,-2.6466051201207432,0.4586753907116412,-0.2355950705012403,0.3238352973616906,0.0002963405661567,0.0031874143356377,0.009747577570415,-0.989130236922838,-0.1466817169200031,-0.0729699252119044,-0.0752009754175599,10.98979939183348,-0.2127598105371861,-0.1551377499276253,0.8436535710784862,3.645000657122421,4.981388286609157,0.3143327727236177,1191.327804915279,1197.5447520692903,1188.8809217553476,1204.3514385760116,576.927061962578,-419.7101406174166,213.9599393723527,237.46729632975965,149.34351764569132
0.0975,-0.6986925339209897,-2.5693730906002443,0.479289813353747,-0.2381587330487652,0.3167544905150514,0.0011020011050027,0.0036397130790116,0.0100166624864438,-0.9891285783012984,-0.1466636610034142,-0.0727294039431519,-0.0746185442304981,10.98559897940945,-0.2137375928866631,-0.1553104885631925,0.8464221224147299,3.645598216776624,4.981561046022954,0.3164510920446767,1192.7673492591844,1196.3883426633656,1189.6157322407553,1204.7286211346063,548.0126640267367,-486.98521875976394,340.165319160769,81.2762791502336,149.34210649137495
0.1,-1.082486546085203,-2.4705038908671826,0.4845158534439277,-0.2420217949026143,0.3104522852410511,0.0015553940568193,0.004088379871025,0.0103006984324955,-0.9891267522704936,-0.14664408022248,-0.0719333556598383,-0.0740894627684289,10.980522396674463,-0.2146937283317339,-0.155491511874047,0.849185311760884,3.6461962238721592,4.981735609198253,0.3185755821732257,1194.067868235413,1195.1098259754915,1190.5817483511514,1204.7578199717627,456.74386081454895,-525.1477957962829,415.6988040720531,-58.68630527156706,149.34071111604715
0.1025,-1.2753910805726312,-2.3813477974300414,0.4737854877183046,-0.2467012898420854,0.3054076386201717,0.0020679870681099,0.0045288405123115,0.0105947404465995,-0.9891247006369112,-0.1466238159390143,-0.0704804282693624,-0.0734914308406792,10.974594382069254,-0.2156215974717226,-0.1556678630213974,0.8519436130642714,3.6467948532827217,4.981912189984294,0.3207065041577047,1195.051068563257,1193.7626036843842,1191.6942262611155,1204.4351896082485,330.7428387367515,-587.702821602262,499.70684231220827,-199.3008316974741,149.33932921688583
0.1049999999999999,-1.284449917640497,-2.3262146385431937,0.432972393207614,-0.2522309181236007,0.30080150941944,0.0032350812109948,0.004957686858862,0.0108937830006759,-0.9891221150797074,-0.1466054078709487,-0.0682986052637786,-0.0727128858122693,10.967856123458281,-0.2165153099422867,-0.1558271726279783,0.8546961076145315,3.647394687667164,4.982090579910371,0.322844339308003,1195.7215824290968,1192.1713118674804,1193.0802825627125,1203.7613158132751,151.72766679916123,-566.704511242143,512.5248999202096,-277.3540333599163,149.33767819291864
0.1074999999999999,-1.1289058391673836,-2.3356397430126967,0.3635061280263319,-0.2562990595720057,0.2975269719514093,0.004773216876029,0.0053770176920925,0.0111939775358654,-0.9891186445515592,-0.1465914742107997,-0.0654364664849006,-0.0716923551088674,10.960365017611956,-0.2173772543655322,-0.1559606159795067,0.8574379686942601,3.6479967846204575,4.982270390445538,0.3249896828549881,1195.8097068972531,1190.9290811281735,1194.2568507607164,1203.0484194414487,-55.91158267789064,-471.3254196318299,485.3352588252615,-299.0224174160173,149.33630148708292
0.11,-0.8528825287935886,-2.3833580188203487,0.2466307128027814,-0.2593180478814316,0.2934007472359148,0.0065884189852601,0.0057905761024373,0.0114923682267558,-0.9891142592485181,-0.1465823937872088,-0.0619808347417094,-0.0703986289123197,10.952196561400488,-0.2182125108901666,-0.156061063125435,0.860162283338413,3.6486019322876513,4.982451140337179,0.3271443786518788,1195.442024515707,1189.8146847693213,1195.5069588568388,1202.2662037261953,-237.08890211287303,-460.54184214312914,589.5586502992495,-343.8888378628232,149.33491469725058
0.1125,-0.4578466669145736,-2.423587871275501,0.0567281553976647,-0.2604755085017336,0.2861646729298078,0.0080604927932946,0.0061949252931948,0.0117884400459729,-0.9891088359652996,-0.1465792830225089,-0.0578625165875282,-0.068834979454528,10.943446903415042,-0.2190127643480386,-0.1561253410512587,0.8628640221174141,3.6492090268512154,4.9826315379385,0.3293103881914923,1194.6242623866888,1188.6263719174578,1197.2046440122128,1201.3289752521348,-329.80923469408447,-414.8340904061112,670.7551673072425,-332.5756541426469,149.3332272691474
0.115,-0.1309392971927909,-2.3899030844862086,-0.1253257243809425,-0.2590259606454246,0.2783948205779143,0.0080830316446745,0.0065839689231396,0.0120818623918139,-0.9891024029193282,-0.1465823622115252,-0.0529628254283108,-0.0670024948499961,10.93423079125628,-0.2197651694583016,-0.1561511791195158,0.8655389017122325,3.6498154488954127,4.98280938405763,0.33148835682719,1193.792978342237,1187.7405143172907,1198.8607346933748,1200.603325455482,-321.3990521095181,-338.60538982598854,720.206319617818,-266.41690425344655,149.33179324752882
0.1175,0.1509030420884657,-2.242899194776279,-0.3032026891606238,-0.2565043412136682,0.2703978245730075,0.0070422782235935,0.0069547638183161,0.0123714868135665,-0.9890950263338278,-0.1465915673587964,-0.0472438614957321,-0.0648951872903654,10.924678454784557,-0.2204624579108712,-0.1561372383668322,0.8681814646377006,3.650418926113904,4.982981968969366,0.3336776950799228,1193.0172671261412,1186.933344968328,1200.805675610302,1199.9968907308676,-274.92676835181607,-313.5388053452067,818.7676067590944,-215.4335742373864,149.33032094457997
0.1199999999999999,0.392517116503086,-1.9973274481636865,-0.4582603514070912,-0.2545233433551429,0.2634763390787311,0.0054622268266027,0.0073040094411244,0.012648235951795,-0.9890867037251752,-0.1466079659626191,-0.0406963886137288,-0.0623335517482415,10.91493409374722,-0.2210982752208038,-0.1560701888343681,0.870789136315155,3.6510190071218016,4.98314821028158,0.3358769009899848,1192.4183445004778,1186.1728202905647,1202.9545727271704,1199.526157584295,-179.0002191956322,-296.5337311595255,881.7114950520606,-151.83395270864847,149.32881043218677
0.1224999999999999,0.6107761123206549,-1.659835719254802,-0.5713793161556197,-0.2536344241408748,0.2586518939518001,0.0036168864397027,0.0076293097930312,0.0129078389584978,-0.9890772877019548,-0.1466331406127684,-0.0333268286986223,-0.0592425102360892,10.90515209494876,-0.2216660703874605,-0.1559459391806957,0.873359037967609,3.651617049950042,4.98330863615983,0.3380845709097012,1192.122266030163,1185.4506763125303,1205.2142330855622,1199.2377209673243,-56.61520192811617,-313.1546547705963,964.6135126846266,-88.48473410980651,149.32724669819737
0.125,0.8861366786048737,-1.2043478066340216,-0.6524797456827471,-0.2529315525164803,0.2554100911093924,0.0015272355046831,0.0079343543408403,0.0131487658648501,-0.9890669923820988,-0.1466656928502245,-0.0252748942767471,-0.0556216343459688,10.895491906458668,-0.2221695204957573,-0.1557652506854894,0.8758863541987267,3.652215091113384,4.9834642368953626,0.3403007165925544,1192.1352684908372,1184.6070470167117,1207.7776402905936,1199.083733913746,57.33101413620711,-308.1535057468497,867.02815099461,-32.18190876232253,149.3253003231601
0.1275,1.1455607272193635,-0.8217709598211339,-0.6761934670101131,-0.2516230816093739,0.2541715412860196,-5.4779205936299215e-05,0.0082249709757844,0.0133715420361206,-0.98905629886411,-0.1467021296982824,-0.0167303250387444,-0.0515173308657937,10.88611450342417,-0.222615783479707,-0.1555314889997208,0.8783666656233685,3.652814465112449,4.983615998089773,0.3425252933709199,1192.408921100844,1183.909908783796,1209.5493738405353,1199.0768114235127,145.9864463551638,-278.3109948844865,579.8001571169145,11.502548846237904,149.32361462515624
0.13,1.439240613994424,-0.4662658966211811,-0.6586185906073422,-0.2489646071480183,0.2536239995029538,-0.0016274672279494,0.0085059641346688,0.0135799214284629,-0.9890455826065144,-0.1467394213259193,-0.0078612322725671,-0.0470381213771717,10.877177988669896,-0.2230092423910575,-0.155252747500496,0.8807974616396969,3.653415844130445,4.98376509241814,0.3447580039269576,1192.865200722613,1183.2154920422893,1210.676641076178,1199.1412466579773,220.2884849153632,-298.863857111655,310.00033874211084,36.24142685634976,149.32185701038537
0.1325,1.8188370955406068,-0.0832063137542228,-0.594624507075123,-0.2443437201536296,0.2535577432851557,-0.0036753602476587,0.008784166735471,0.0137800172742457,-0.9890350511260256,-0.1467753144529554,0.0011180722094745,-0.0423457915553879,10.868831786586323,-0.2233573367793713,-0.1549412138883447,0.8831771099770452,3.6540187063464225,4.98391231282781,0.3469963716459352,1193.5103635254209,1182.4155894982375,1211.0993755342458,1199.2580185577945,238.98585464480652,-276.95751749361057,-1.5679742208249068,47.86443010661965,149.31965891901103
0.135,2.145438711540701,0.2016246672730243,-0.5103806342953361,-0.2395169801447499,0.2538594601544331,-0.0054422049008835,0.0090652298831153,0.0139748759259844,-0.9890249111756688,-0.1468078711804303,0.0100002909206883,-0.0375289657923833,10.861211887810947,-0.2236669083788344,-0.1546027310966351,0.8855077762636446,3.654622810838744,4.98405839245648,0.3492383677214689,1194.060129995837,1181.8307044548212,1210.668801205074,1199.3805688085104,212.0962367460832,-197.06597613107968,-306.55409273354024,56.178764961214206,149.3177492378562
0.1375,2.4689758540482676,0.4595116643664571,-0.4051076172786303,-0.2341069947440307,0.2542979186756446,-0.0067446570491747,0.0093552973606904,0.0141699278926998,-0.9890150115548262,-0.1468372669964496,0.0185674960752216,-0.0327264509280114,10.85443584942517,-0.2239454912105418,-0.1542476998594536,0.8877930397268669,3.655227352211284,4.98420467903663,0.3514833274376648,1194.5708447091513,1181.4302596175824,1209.566605070578,1199.5389123826003,213.11771979903804,-106.0325467009078,-582.3539547407103,78.46052056524961,149.31575447961606
0.14,2.837848454242858,0.7458676815444756,-0.2739264043751599,-0.227317210863096,0.2552551761505021,-0.0071733388926086,0.0096593467029357,0.0143636664543304,-0.9890053333917131,-0.14686346869316,0.0265998357865923,-0.0279224075668039,10.84859850485976,-0.2242017118701331,-0.1538735085983606,0.89004050585681,3.6558308804478408,4.9843519467892685,0.353730945068941,1195.1257185948323,1181.3005417213167,1207.7570314313705,1199.7728714113366,197.73607601446184,29.14030917841044,-697.6678797588642,88.2477434914107,149.31325801828822
0.1425,3.1119916281731554,0.9638742799946703,-0.1730006160147781,-0.2210855125062574,0.2567611526449148,-0.0070007782946731,0.0099790341835201,0.0145547556260219,-0.9889960484959353,-0.1468853247703741,0.0339469993916833,-0.0230931145025517,10.843769047006615,-0.2244398505825851,-0.1534763827667576,0.8922606185931266,3.656432183812724,4.98450020002407,0.3559803441070432,1195.5595250892236,1181.5759611634744,1206.0782656717838,1199.9801511000576,177.4055985233198,202.764340437353,-657.7209449966662,73.38463959895341,149.31108910661567
0.1449999999999999,3.3188261534222017,1.149249135674868,-0.0857927575472107,-0.2134722202695047,0.2594967046228976,-0.0071053685159225,0.0103123588333953,0.0147374282774346,-0.9889876967753825,-0.1468998340655242,0.0405234148239508,-0.0181077638965531,10.83998859169589,-0.2246604178478541,-0.1530431952440542,0.8944673137795472,3.6570307784785414,4.9846492126032,0.3582309898817918,1196.0127465874489,1182.3143634235034,1204.4684267063872,1200.1397946093311,193.91306222601176,371.2785451134568,-606.045272937402,46.50162934958666,149.3088251960789
0.1474999999999999,3.439221026904759,1.2967016387276908,-0.0076912694836123,-0.2041475428033077,0.2631140542231671,-0.0075316308196806,0.0106630669908889,0.0149110261405823,-0.988980499597758,-0.1469052069877077,0.0461381818730661,-0.0129630675373426,10.837269475071432,-0.2248731153440159,-0.152572439810884,0.8966704184956673,3.65762628448042,4.984797526894106,0.3604816026117017,1196.5290904003537,1183.4323538890417,1203.0480393070968,1200.2126592468055,232.27962077280588,521.9732448562804,-505.42701875515326,4.52603454782547,149.3064804559961
0.1499999999999999,3.4278630550123284,1.392054370294316,0.0614271281400094,-0.1934018369767745,0.267091323782395,-0.0078819201371348,0.0110364750882186,0.015077011393426,-0.9889744972809724,-0.1469005588403392,0.0505776556869575,-0.0077056630969083,10.835596561732581,-0.2250900913054902,-0.1520680031549111,0.8988775792755663,3.658218366066442,4.984943302046501,0.3627319847099907,1197.174144691313,1184.9242296477848,1201.9412916126112,1200.1624247820705,320.2629744088878,702.4355733962233,-410.3774530018196,-38.0092911608244,149.3040361204721
0.1524999999999999,3.2652048396584616,1.45240777358469,0.129279019095314,-0.1814422320013544,0.2715027561175679,-0.0078130564336932,0.0114311424435253,0.0152367097334329,-0.98896933034187,-0.1468882032771203,0.0537778112983605,-0.0023568347302932,10.834929495273938,-0.2253108043422055,-0.1515339795492453,0.9010979702791044,3.6588072034003423,4.9850850568788525,0.3649846050996922,1198.130405272398,1186.9445317560228,1200.9961520420875,1200.0226127910012,377.0021017465748,740.8263345891093,-290.0506063536338,-42.580184127837086,149.30098549773408
0.1549999999999999,3.0397755509524487,1.4693808480214812,0.1656088675751166,-0.1734628337572792,0.2748154393517364,-0.0072922400053808,0.0118425755773381,0.015386900568297,-0.9889645259574787,-0.1468719202908646,0.0557334237941797,0.0031698472825536,10.835205097631087,-0.2255300124280535,-0.150966660761815,0.9033408003472048,3.659393280041954,4.985221928664801,0.3672430958913293,1199.0591552000456,1188.6283613207304,1200.4910385808432,1199.949523861431,381.05104903033833,628.290191354244,-159.29584901732582,15.838702997871208,149.29834414441964
0.1575,2.782198288528333,1.4665628135214748,0.1718952342920435,-0.1675167786852937,0.2777284973511966,-0.0063060044656386,0.012266643580477,0.0155243749074234,-0.98896000376859,-0.1468528449820964,0.0564432813252915,0.0089587595566445,10.836341592293907,-0.2257436879095799,-0.1503612955696984,0.9056122781848516,3.659977362379119,4.985354236596049,0.3695095262994956,1200.0356605175496,1190.085982712794,1200.199672797001,1200.1018063059907,406.45377411910846,553.0258284991301,-99.86373062888553,162.26549687276005,149.29559870519907
0.16,2.5015219578949934,1.4495153706192043,0.1422588945853093,-0.1619834360234651,0.281003170200502,-0.0045930173660516,0.0126988444294438,0.0156456761810235,-0.988955845147568,-0.1468311203650647,0.0559264357243683,0.0150995463673579,10.838243092214247,-0.225947361478871,-0.1497117563094418,0.9079161346207856,3.660560283903232,4.985482443558372,0.3717855996961138,1201.091424070641,1191.393490463226,1199.9917199276988,1200.7608513457951,338.9691908635993,398.6193380605069,-67.3624480215039,344.12878862808583,149.29218305281873
0.1625,2.320626987644255,1.421204569117478,0.0963603912243763,-0.1580844423143475,0.2839442683499227,-0.0032148656279824,0.0131334974486579,0.0157510396414265,-0.9889521006888924,-0.1468068373893144,0.0542535428266024,0.021604369420014,10.840804651774167,-0.2261334952298683,-0.1490175513168738,0.9102535230331696,3.66114230421524,4.98560727188565,0.374073100442241,1201.7305064718676,1192.0790794030963,1199.8628605568936,1201.8224502491312,175.06173163915247,207.33686821454268,-58.991306564075735,536.6855740255228,149.28923553123295
0.165,2.2000990804764493,1.364739852797226,0.0580608319551187,-0.1540803083595979,0.2874616221684285,-0.002589871999373,0.013568135989117,0.0158427177991368,-0.9889487970821812,-0.1467797846336846,0.0514493622720116,0.0284285088187877,10.84391636572613,-0.2263001497567909,-0.148281730164688,0.9126219146522881,3.6617230297142576,4.985728696778719,0.3763718711680152,1201.966732728837,1192.4301748042988,1199.6967633948784,1203.4442792159227,-8.724406342116701,122.76373728832355,-101.04774027513476,813.0994935359915,149.28618322981498
0.1675,2.097714258535094,1.245925086121455,0.0711673518345781,-0.1485165144000027,0.292090817220284,-0.0030475329299474,0.0139995764601912,0.0159292734699635,-0.9889457547584452,-0.1467505433409272,0.0475918625948384,0.0353896164141629,10.847467890897393,-0.2264426925451346,-0.147518087396788,0.9150168109487696,3.6623024903542873,4.985848039502361,0.3786804022083907,1201.6868844401572,1192.692898089538,1199.357621855518,1205.8879477168111,-194.08929237015383,111.08744928815202,-162.40313249395498,935.3081411762552,149.28240015914304
0.17,2.0146701112388974,1.097594697792562,0.1674763394170688,-0.1433607347513887,0.2955925821462919,-0.0043711636494975,0.0144259369509613,0.0160131410286454,-0.9889428342870544,-0.1467199720275602,0.0427312980599823,0.0424267603147424,10.851349420928592,-0.2265611839966075,-0.1467289592165504,0.9174342373036216,3.6628813679279753,4.985967003441105,0.3809990774961748,1200.9962862669863,1192.9856120507395,1198.8847477324086,1208.120819921804,-346.28204740338305,177.32881807182804,-246.99125271258683,869.9730490176072,149.27914834634862
0.1725,1.8930580978420328,0.9020724818456052,0.3777256551118208,-0.1380495866107476,0.2981306694470001,-0.0061754610840321,0.0148464362256511,0.01609525973227,-0.9889396224471136,-0.1466908614092487,0.0369096356968174,0.0495010804718809,10.855454098092151,-0.2266585510443411,-0.1459144351886468,0.9198703015693334,3.663459003959881,4.986086715277091,0.3833270554675631,1199.9554742031403,1193.579542179897,1198.1226655919547,1210.2378129618992,-442.3540282099107,309.8822587468018,-365.7285129966564,783.2174969884811,149.27579517989955
0.175,1.714335692897788,0.6761604445828091,0.6766110699612651,-0.1327227114598847,0.2998475258519266,-0.0075696849286233,0.0152632696634739,0.0161781554623955,-0.9889356248421814,-0.1466661204963343,0.0301320152479403,0.0565226028463988,10.859679585176128,-0.2267438070807702,-0.1450780894578502,0.922320049458439,3.664033373465785,4.986207164483571,0.3856626228056166,1198.7845161259368,1194.5350233444735,1197.0561051674251,1212.0369074067464,-453.68786591489186,476.6910766350088,-510.6045777298756,606.1465976010396,149.27235947230227
0.1774999999999999,1.4492092031815387,0.4241322093813887,1.037244976456993,-0.1277309359767571,0.30079319018319,-0.0068657407578639,0.0156752813741736,0.0162636131276003,-0.9889306994531472,-0.1466467360368371,0.0224970453291864,0.0634197416217339,10.863928420088792,-0.2268216032446493,-0.1442206431058405,0.9247813875297228,3.664603263573944,4.986328223645031,0.3880046475085233,1197.6870348735658,1195.9629975630723,1195.5696427033056,1213.2685459499044,-410.6946382285533,720.169713498766,-751.8973576633051,391.11651815401456,149.26882619003788
0.1799999999999999,1.0307470076030134,0.0997224265438967,1.4462570963161028,-0.1230248087014087,0.3013497094893282,-0.0021242563651364,0.0160775940490613,0.0163507308629526,-0.9889242542434054,-0.1466374241862864,0.0141951346600353,0.0701836316094697,10.868107700405792,-0.2268902442363919,-0.1433391004598149,0.9272557393049008,3.6651679058615776,4.9864496457586895,0.3903528321293449,1196.731042934794,1198.1358719119671,1193.2966183791088,1213.9924899975165,-260.68087038629506,843.087880052507,-903.417748722358,144.70922285036053,149.26447610703104
0.1824999999999999,0.61361391751875,-0.1865106151726786,1.6954444947248464,-0.120557900250817,0.3014733868175652,0.004263521324842,0.0164644303361438,0.0164388721985896,-0.9889162260219166,-0.1466394179052573,0.0054608027767959,0.0767950109944771,10.87212942522234,-0.2269473927678392,-0.1424300537535005,0.9297459939094692,3.665725822523204,4.986570059122994,0.3927061837083107,1196.3836305216344,1200.178436963335,1191.0525539596936,1213.992092064156,-28.49729224990367,814.3545265823825,-941.4132820871135,-102.37268415144165,149.26076129747406
0.1849999999999999,0.1553275753413656,-0.4861009314652444,1.7945661290961592,-0.1196281525496429,0.3012406770760751,0.010854536673269,0.0168256567801452,0.0165286403032571,-0.988907097439192,-0.1466506092407703,-0.0033515832256036,0.0832154108275957,10.875910946674583,-0.2269827209874361,-0.1414907920169305,0.9322578667664718,3.66627649769408,4.986688230289423,0.3950647872679856,1196.5885564735445,1202.2076445448793,1188.5895519686733,1213.4806265767593,212.9863421725984,825.0690732390004,-1085.1769185580897,-305.6797357702632,149.25695592180296
0.1875,-0.4020613836920597,-0.8490162163924273,1.729327035266816,-0.1201694205625204,0.3003076004608047,0.0174804726911074,0.0171568503580481,0.0166224062560753,-0.9888979027252924,-0.146664313048771,-0.0119844427570794,0.0893447561866963,10.879374008479276,-0.2269958969610487,-0.140522414439632,0.9347946691461504,3.666820294425909,4.986802675579368,0.3974275557986344,1197.4485622324971,1204.30378232953,1185.6266693669031,1212.4636933853049,399.02492060405126,672.0086405943215,-1045.7378846212112,-413.26048734827026,149.2522879616098
0.19,-0.8441803169272935,-1.1355242294438872,1.5396744262142417,-0.121933504279845,0.2986817212683474,0.021798521236296,0.0174611736485656,0.0167230880426959,-0.9888896356552555,-0.1466731730598005,-0.0203277553997073,0.0950435684700391,10.88244372046291,-0.2269988804228256,-0.1395295578658345,0.937356368144702,3.667357841788289,4.986911902096532,0.3997931175261,1198.5836810765647,1205.5676877478509,1183.3608625455672,1211.414324140018,505.0215878354261,378.02894653527767,-814.4973016507257,-436.01523266042886,149.2483158792381
0.1925,-1.2331417081505969,-1.3704137981293865,1.2452969689096336,-0.124939865838667,0.2957809148012449,0.0251143246606052,0.0177486923099155,0.0168346394791997,-0.9888829466486726,-0.1466712054564355,-0.0284091911246642,0.1001260126994208,10.885048589734032,-0.2270136681313204,-0.1385216101019433,0.9399393887494693,3.667891025872705,4.987015724089176,0.4021615059750875,1199.9736701716745,1206.1939270622063,1181.5541828586497,1210.2836172220027,620.1905654659635,130.1911882452713,-642.1577187048564,-494.88956950362945,149.2442617405799
0.195,-1.6122962165240036,-1.5434482030950072,0.816841279938073,-0.1295763978322355,0.2906413634344298,0.0280053717739015,0.0180342877060819,0.0169576623368312,-0.9888779941139152,-0.1466555246612027,-0.0363699016297777,0.1044622284067068,10.887119765624576,-0.2270690787014193,-0.1375042200725226,0.9425380090662472,3.668421857769717,4.987114847679853,0.4045332619927282,1201.6846339038943,1206.2186436890772,1180.1500739520427,1208.9398762924995,598.6594276134377,-90.10990790602582,-366.7530555042955,-477.73414272724,149.23930628695888
0.1975,-1.842870321604949,-1.5658655248337314,0.4302934157008341,-0.1340490605545012,0.2853373462797108,0.0293536233410918,0.0183300094983214,0.0170911133722775,-0.988874695842654,-0.1466253683750273,-0.0442993901196853,0.1079667801187521,10.88859380343626,-0.2271862746558544,-0.1364795622166626,0.9451472048006097,3.6689519488740254,4.987210488885936,0.4069097968079054,1202.9669673097417,1205.743377522676,1179.7204175811282,1207.8949465083665,448.1954903317724,-253.0768595046536,-12.588329497248184,-387.1555813140272,149.23510534211715
0.2,-1.9770553424556967,-1.4448365823367528,0.0505377303061537,-0.139104748292512,0.2799065494314911,0.0295142946585749,0.0186369007501347,0.0172320950249168,-0.988872742911646,-0.1465830018214299,-0.0520661619136453,0.1106302509147928,10.88941605516526,-0.2273633465190525,-0.1354439038028464,0.9477662785379815,3.669482536821025,4.9873035417846046,0.4092937812761339,1203.9256113555534,1204.953259391554,1180.0871323045567,1207.0040983859296,312.53793647456376,-337.42524175886473,268.9189826050549,-318.55358543371005,149.23083614191913
0.2025,-2.0308288866086444,-1.2134190143121015,-0.299042769091086,-0.1445251216710428,0.2749513794666125,0.0287129401660367,0.0189561195725793,0.0173785552958577,-0.9888718658877772,-0.1465302776820433,-0.0595510904847658,0.1124261098732241,10.889541893241615,-0.2275963794999633,-0.1343942704367795,0.950392764367209,3.6700158383750168,4.987394767946998,0.4116873296828943,1204.5296569921145,1204.0562513138818,1181.0650124941535,1206.302178581198,147.71438330953956,-355.1967110581696,511.8214922018064,-220.44736539928613,149.22651553186867
0.205,-1.995659393838514,-0.8864615967496934,-0.5895780361249038,-0.1501388018805187,0.2712687608711233,0.0268580478181045,0.0192882802347759,0.017527685605164,-0.9888719594816424,-0.1464680875043925,-0.0666422121733137,0.1133485855660354,10.888938275345886,-0.2278793108045913,-0.1333253391986688,0.953023279722436,3.6705532802069025,4.987484566317001,0.4140901796451285,1204.6641832721011,1203.177275836263,1182.6462397655655,1205.9018615589332,-44.5831279663707,-358.0186776413026,784.4684630142176,-90.0368108667407,149.22214021897113
0.2075,-1.8753432162813903,-0.4601211759169698,-0.8536593419896557,-0.1565313152407202,0.2692657620738982,0.0237880582574955,0.0196351875417216,0.0176781116301416,-0.988872404719816,-0.1464004500681993,-0.0732716931009641,0.1133618739555935,10.887585845713504,-0.2282063649101304,-0.1322362918261772,0.9556525661206592,3.671094087718052,4.987572212271713,0.4165030063125979,1204.3067413522826,1202.266157925675,1184.9873548092244,1205.8519945268642,-204.8938228335383,-299.86955043055013,886.0958010674534,61.525040144488514,149.2168373294906
0.2099999999999999,-1.7387347740266712,-0.1411865154802318,-1.0025673733234028,-0.1611828969981604,0.2696265603040891,0.0209947474504629,0.0199948380111962,0.0178333256175965,-0.9888716827394558,-0.1463373463255037,-0.0793019678555649,0.1123442857815752,10.885482744803086,-0.2285617848980542,-0.1311377309342687,0.9582756791077364,3.671636553835643,4.987656772216494,0.4189264334117662,1203.6397141579334,1201.6779280841104,1187.0767187709027,1206.2094867596556,-323.506640023608,-191.63826190797496,804.1881019938994,227.96091188734056,149.21238327643303
0.2124999999999999,-1.6073335355925145,0.071866144530598,-1.0886285691539253,-0.1649070184834061,0.2714795418787263,0.0184152104292758,0.0203695673517556,0.0179970610741446,-0.9888686111020556,-0.1462858540989916,-0.0847104153467576,0.1101637211408298,10.88264195923694,-0.2289392697197672,-0.1300417519678875,0.9608854352721248,3.672179081080388,4.987738189337104,0.4213586299886795,1202.6892081521646,1201.3079666161354,1189.008295319194,1206.9917990863007,-464.5741961223389,-102.06039889285412,747.7710515745906,432.21684815284743,149.2079044630221
0.2149999999999999,-1.5062412192603372,0.1578030846459837,-1.138820162988275,-0.1682372908992658,0.2744384975831699,0.0158598639455543,0.0207617055289504,0.0181685834291056,-0.9888626854194774,-0.1462490235429249,-0.089510012255149,0.1067957335729087,10.879090924982972,-0.2293357813269917,-0.1289514744296111,0.963475815854724,3.672720133188791,4.987816525288044,0.4237978872695086,1201.3168431773215,1201.167626089646,1190.815574028776,1208.37057100042,-535.3122003488347,8.826905862133565,541.2714056623822,563.4920298072298,149.20251505909812
0.2174999999999999,-1.4978446568960544,0.082189529011221,-1.1474083693321002,-0.1702921208417667,0.2764718743837115,0.0139610855220879,0.0211711969845462,0.0183454853202143,-0.9888542094098304,-0.1462249933721584,-0.0936880262230844,0.102273564752747,10.874873115798293,-0.2297465312267375,-0.1278653962072497,0.9660427442946679,3.673258212524473,4.9878918231596,0.4262443587856605,1200.0126471504204,1201.352101145446,1191.714652347506,1209.809259235337,-555.6697232556867,146.89172266726004,215.12569698193127,614.1598959709421,149.19802103602322
0.22,-1.5819199562012995,-0.1206062344289122,-1.123188534135923,-0.1721264203085655,0.2771800338512985,0.0115797103143839,0.0215925331904874,0.01852805177754,-0.9888439031341044,-0.1462095394854538,-0.0971272414820257,0.0966066273468696,10.870049950713284,-0.230157131261522,-0.1267860673058104,0.9685848100110708,3.6737917462484617,4.9879633967547035,0.4286964496501573,1198.5384945610433,1201.9020847029824,1191.8912025136856,1211.4413704802744,-690.909034710466,326.408683891668,-70.08567150610355,745.9546642920023,149.19353450570833
0.2225,-1.7703173154823033,-0.4552577735033978,-1.0462367098418515,-0.1747273485175858,0.2761132340068196,0.0080019084223923,0.022022784151984,0.0187186697463845,-0.9888327320114456,-0.146196167854001,-0.0997793878834231,0.0897699010604397,10.864697176266256,-0.2305588026529475,-0.1257212242249101,0.9710993988723609,3.674320305323172,4.988030118187705,0.4311539566489963,1196.558101976868,1202.9841445649045,1191.3642239899755,1213.539032556797,-758.4443380441363,451.3142993938796,-276.3650896761644,790.2914183255227,149.18817036509407
0.225,-1.96041786946454,-0.7658323624043971,-0.9354250015427548,-0.1778320577264128,0.273694479727717,0.0048657093874969,0.0224605888640277,0.0189204556561003,-0.9888214286919216,-0.1461796847993847,-0.101648664936716,0.081738609876081,10.858902955460028,-0.230945786923406,-0.1246822244272587,0.9735832907731212,3.674844195828504,4.988090522337425,0.4336177861398744,1194.7462728708226,1204.1586561999516,1190.5093770653048,1215.3928275719022,-744.6528799604032,484.80975776051264,-362.4939012061983,770.9468883494529,149.18372400348156
0.2275,-2.1113707988437955,-1.0668478401860095,-0.7776169881998583,-0.1826608856030831,0.2701978721284387,0.0024822487563333,0.0229011359928636,0.0191335634641558,-0.988810455441611,-0.1461576741880663,-0.1026945661322296,0.0725845468301197,10.85276638092656,-0.2313061890456398,-0.123675730483855,0.976035698720536,3.6753643555016313,4.988143719940561,0.4360890635707782,1192.834837577066,1205.408193353707,1189.5517544839445,1217.3937669985444,-764.1453973790243,467.07554808654055,-350.6841950039413,832.023214410173,149.17931024092567
0.23,-2.1655398364454843,-1.3424562457633855,-0.5891598309863249,-0.1891678630092354,0.2662135397673787,0.0010491003974941,0.0233387501206595,0.019356824151267,-0.9887999494324776,-0.1461302785555009,-0.1028798298351276,0.0624325210017385,10.846395226955016,-0.231626412817827,-0.1227069188701883,0.9784567411489123,3.675882003896677,4.988189782975464,0.4385686052550455,1190.9255458839275,1206.4940339403845,1188.755956090285,1219.552943643953,-739.2344518088513,335.80975708573504,-234.39328335989535,903.5167354577871,149.1749288446432
0.2325,-2.03573494641537,-1.584674733929312,-0.3748749199415944,-0.1967547526735961,0.262112202651405,0.0003427657331942,0.0237673792026781,0.0195872378966984,-0.9887896901663932,-0.1461004253188759,-0.1021800787047124,0.0514687631405482,10.839903298871135,-0.2318922905735711,-0.1217781323016847,0.9808474784960828,3.6763967585721495,4.988228798738877,0.4410561149133888,1189.1386653180218,1207.0872421391357,1188.379788067145,1221.911350675833,-729.9493326301665,88.46991407804117,-38.56423327329136,1067.2622971715543,149.17059222731933
0.235,-1.6206902790275075,-1.8493312960439052,-0.0957831844488294,-0.2049236224689929,0.2576137930109076,-0.0002991277525272,0.024176791241468,0.0198183791900594,-0.9887793780291464,-0.146072759029543,-0.1005037558112471,0.0399851151054043,10.833408703189296,-0.2320825130164509,-0.1208836460170718,0.9832123106314148,3.6769080149942286,4.988260986693056,0.4435509413124862,1187.2757992207767,1206.9363835107747,1188.5631349239184,1224.8892551298109,-620.9657251896256,-215.6538832595286,175.64875274410937,1088.5216169735477,149.1654467255746
0.2375,-1.0597765266568897,-2.059134400739685,0.1524433318138745,-0.2099845668460789,0.2541414227142458,-0.0006929462629979,0.0245566543832509,0.0200414866275043,-0.9887688634378036,-0.1460512806210053,-0.0977718311266104,0.0283394079446991,10.827030078951326,-0.232176764920655,-0.1200113046314183,0.9855569703376053,3.6774152916363154,4.988286607717907,0.446052597423708,1186.0338366920737,1206.008972722838,1189.2580318308655,1227.353958760701,-420.67513918437015,-518.2098203212287,377.28813531866933,933.8961471971331,149.16121201944944
0.2399999999999999,-0.3119430799443809,-2.2582933342025524,0.4103631553297142,-0.2128194399431596,0.2500550639664537,-0.000678767019171,0.0249024274474141,0.0202509433490811,-0.9887581086116268,-0.1460378674704524,-0.0940228941636928,0.0168153571641924,10.820882608863922,-0.2321659558807676,-0.1191537501848994,0.9878848236912104,3.6779193861281834,4.98830724465719,0.4485608265487273,1185.1724235248548,1204.3453344091683,1190.449575600512,1229.5587358657965,-282.68715594845287,-837.4821121100051,611.5041083631269,849.0480194536342,149.15703763239537
0.2424999999999999,0.727235045705337,-2.462311367695063,0.711810531384905,-0.2132542141131751,0.2436978600202135,0.0002339928007302,0.0252176730998123,0.0204494877761878,-0.9887472951636266,-0.1460303900404548,-0.0894420662950236,0.0054991865450027,10.81507436110925,-0.2320556944467223,-0.1183182590844802,0.9901950087173949,3.6784210151957466,4.9883254171704925,0.4510758103964173,1184.6204009123314,1201.821562162288,1192.3155523726812,1231.5991988579692,-117.4437901257078,-950.9970552733184,732.5819860408494,612.9689633335596,149.15210365756633
0.2449999999999999,1.642435168441948,-2.576804495695239,0.9333366650436956,-0.210573083050048,0.2371503942714012,0.0021111291022414,0.0255093929426249,0.0206427730582718,-0.9887368592500176,-0.1460239836288913,-0.0842761874793993,-0.0055935457380924,10.809702902693571,-0.2318586228407533,-0.1175153438347467,0.9924858159871645,3.6789205828286176,4.988342682393049,0.4535976873751886,1184.5852045742263,1199.590349132802,1194.112485530716,1232.6235806824643,78.60278522030049,-847.0537823494843,738.3650477674103,254.56159713598916,149.14805859289103
0.2474999999999999,2.5196972714269488,-2.6041802099827844,1.0914125556585579,-0.2040080107996502,0.2296738301158954,0.0054550215611429,0.025777460453031,0.0208270851272701,-0.9887268141054992,-0.1460190829586967,-0.0786485161741414,-0.0162254263084823,10.804853806122155,-0.2315757976567144,-0.1167351071652651,0.994761989303046,3.679418343238064,4.988360199278807,0.4561248519711458,1185.0134148384327,1197.5862932505406,1196.0073776115182,1232.8720068436492,297.1743440868974,-769.9530140968811,823.668175094098,-48.091911498704526,149.1440869844926
0.25,3.4413654836067944,-2.52162096806266,1.1789637202247216,-0.1925504156308461,0.2205837874832823,0.0105078265553485,0.0260235982055797,0.0210007973006367,-0.9887168283877636,-0.1460177675258332,-0.0727095953732821,-0.0262159097994226,10.800597128077968,-0.2312116899557847,-0.1159711275716221,0.9970283671464388,3.6799146446345854,4.9883785182146685,0.4586554869554023,1186.0710762946608,1195.7405840623176,1198.2308264061867,1232.3831211249708,474.5641814773076,-564.0837194011506,789.4289173909322,-272.7589003121009,149.1394107469063
0.2525,4.064704942840473,-2.365359603542845,1.1628260757607796,-0.1817531404102074,0.2136507602276906,0.0145088045481214,0.0262491893234542,0.0211631727780233,-0.9887065158590262,-0.1460223926232244,-0.066590712024784,-0.0354130557985462,10.796985571239478,-0.2307705632121146,-0.1152174199180776,0.9992909339582052,3.680409207718796,4.988397709053518,0.4611885492564719,1187.3862357458195,1194.7658746535349,1199.954522198473,1231.5082123420887,602.0257417985698,-277.7727435059203,653.7185838385079,-388.64606750553287,149.1355919403181
0.255,4.532095848448009,-2.150010250635783,1.0720786558719864,-0.1710004454857213,0.2080090019531891,0.0174554923690648,0.0264506692059408,0.0213090078934905,-0.9886960184712528,-0.1460332133833644,-0.0603186527012324,-0.0435686041882961,10.794053865546411,-0.2302493892034421,-0.1144559707831531,1.0015594954102383,3.6809014059144296,4.988416992584809,0.463723620893905,1189.0812050036536,1194.351720344788,1201.4994193253792,1230.4398907874431,721.9267625711376,-92.4486781962968,589.5497452390822,-415.6830359498141,149.13185793143327
0.2575,4.881792198635317,-1.9185769442908924,0.9427815790621809,-0.1603803050213178,0.2036646391062993,0.019459312367848,0.0266295758780927,0.0214340387592696,-0.9886855562282704,-0.1460488797221363,-0.0540118124247875,-0.050488193782177,10.79181574204617,-0.2296560431122529,-0.1136709629520667,1.003841291741679,3.6813906451042726,4.988435759387808,0.4662606049845508,1190.9958695586752,1194.3036312625532,1202.9022709246683,1229.4297971623396,786.4809839663387,35.23322423266106,531.0856986003723,-349.48396400727654,149.1281969402789
0.26,5.102988509938185,-1.7056448625636875,0.7943566340093987,-0.1494678369782405,0.2006017721889738,0.0207750665055728,0.0267951974880193,0.0215386255205923,-0.9886753525915672,-0.146065964025275,-0.047923167320885,-0.05612060209053,10.79026359429218,-0.2290136278644458,-0.1128570816466354,1.006138587025508,3.681876585747088,4.98845396334675,0.4688003659065466,1193.013609923485,1194.5278864659513,1204.154847818381,1228.6924709674067,864.6023751877683,118.89641602756444,514.1462686417067,-236.2816763917633,149.12462713103483
0.2625,5.221294127810814,-1.5026171247331233,0.6178533399748323,-0.1351532393808198,0.1972708671124365,0.0224080939841729,0.0269579615992802,0.0216253250658373,-0.9886658411833684,-0.1460791978255408,-0.0423056396951639,-0.0604862729298509,10.78937108739942,-0.2283480057243244,-0.1120132094919037,1.008451817692082,3.6823583843145,4.988471250916177,0.4713436976796951,1195.318881434614,1194.8981133426912,1205.4730022678768,1228.2483887803808,795.036861124617,130.75334592722345,441.0408023077703,-93.35325980359805,149.12045267087336
0.265,5.188399717685481,-1.3839187958820836,0.4819652250046347,-0.1221557890519655,0.1943377002663825,0.0239793029237442,0.0271241054844679,0.0216958830232731,-0.9886578282567008,-0.1460818853455523,-0.0373073619402324,-0.0635967487755176,10.789096073459625,-0.2276778096320621,-0.1111352356422006,1.0107822613541255,3.6828350661324696,4.988487292065698,0.4738919421375512,1196.9887942291084,1195.1816531955872,1206.36005182992,1228.2257046683887,592.7834929923841,101.38223647040824,286.51375214449195,35.317372113877326,149.11706779366992
0.2675,5.009986932119166,-1.312768245896856,0.3687930301563265,-0.1089945973338728,0.1914028715982989,0.0252710570392285,0.0272944266573343,0.0217525789381729,-0.9886518822415656,-0.1460701583353243,-0.0329429224280653,-0.0654780487682488,10.789383008240527,-0.2270104544437607,-0.1102202139589058,1.0131321501726527,3.6833056905555344,4.988501848055101,0.4764467906737677,1198.282798899576,1195.4050245250432,1206.9055710285993,1228.42497564095,480.153509345882,102.42110268918614,126.68505900905971,89.08641714974684,149.11378350009457
0.27,4.633740001343796,-1.2685109343600882,0.2774946180846041,-0.0943473592282962,0.1877002004742606,0.025883347125082,0.0274794436979275,0.0218045507380838,-0.9886475148839156,-0.146044888260337,-0.0293987197126587,-0.0663520491082636,10.79016217404448,-0.2263699952062587,-0.1092843270417273,1.0154964024343944,3.683770961573885,4.988516008713392,0.4790097682711962,1199.3895617758378,1195.693758709033,1206.9934771249652,1228.6711367541375,344.9383733259762,134.77319108874315,-84.954838219437,52.169527557225535,149.10996221843345
0.2725,4.201526385113746,-1.2541366366683466,0.2520912761709908,-0.083585735397219,0.1842010066026512,0.0255809546155716,0.0276887223606166,0.0218586763293792,-0.98864393246317,-0.1460101935165263,-0.0268343096064701,-0.0664070091981508,10.791355120071028,-0.2257784923318593,-0.1083409311372812,1.0178694641513844,3.6842310303034966,4.98853029689601,0.4815814364148497,1200.0074907662058,1196.0788904804867,1206.480796837502,1228.6858232787363,211.15461178833337,217.8439013991463,-343.46957970988086,-75.13310284857644,149.10688027486762
0.275,3.673028844195695,-1.2535995904788848,0.2856255908418314,-0.0745245085000759,0.1802491515285542,0.0249540679218785,0.0279241948802718,0.021910121909086,-0.988640641538717,-0.1459721619578184,-0.0252708616960628,-0.0655731669152809,10.792878887213442,-0.2252452627385302,-0.1073790008796009,1.02025024206776,3.684685772169315,4.988543692239862,0.4841615377142118,1200.4453348347795,1196.782978216029,1205.2761292264158,1228.2954712398944,186.8007451889296,411.3866227835384,-687.22514716278,-298.6809831768821,149.10390780618263
0.2775,2.95786089716218,-1.2734017478665984,0.3784196828066207,-0.0655162342444895,0.1758321702879517,0.0247989040326137,0.0281834724666959,0.0219509292718956,-0.9886374726712888,-0.1459358035010413,-0.0246360580191191,-0.0637154692446096,10.79464755731364,-0.2247710547554425,-0.106380235890156,1.022639535000007,3.685135399749428,4.988554629348132,0.4867489354502739,1200.9414944921505,1198.1358235944047,1203.0446711016882,1227.1924183628519,201.06542064463596,585.8542787529581,-927.5452864068019,-520.0793659328606,149.10047140773804
0.28,2.3117535592949,-1.3219900857189584,0.4728721173297815,-0.0592604296641323,0.1731968245582146,0.0255938121060395,0.0284634352682401,0.021983663052725,-0.9886342736072856,-0.1459013391036602,-0.0247993069203807,-0.0609356718374246,10.796573527713887,-0.2243514467903972,-0.1053464930302502,1.0250366409399028,3.685581112300044,4.988563083358723,0.4893436050358786,1201.4506619380027,1199.7122496097938,1200.6384027943818,1225.6950744102303,245.351856400566,710.3991374776335,-1025.5065286358777,-708.9050076261622,149.09771979213517
0.2825,1.6300082101307731,-1.4239690147118291,0.5439507378404966,-0.054345074257369,0.1713817869539831,0.0272681372672117,0.028760963432453,0.0220127564122748,-0.9886310153837115,-0.1458687527654928,-0.0256198811861305,-0.0573857068743444,10.798569442843476,-0.2239800177930994,-0.104284281471393,1.0274405220528167,3.686023025645469,4.988568928687529,0.4919445556703638,1202.1682537741533,1201.6878192817928,1197.9171384585088,1223.647893324721,330.54634178638446,835.5236928075548,-1087.9065122989223,-885.2264131120583,149.09508875895327
0.285,0.9319086548988398,-1.5741089027137836,0.56595391026565,-0.0508289309096802,0.1693548183732061,0.0294195075854565,0.0290727350854051,0.0220468782606287,-0.9886276796509116,-0.1458352345467111,-0.0269375310135705,-0.0533163462145826,10.800549963700968,-0.2236475774470939,-0.1032085906229574,1.0298497207270043,3.68646171480438,4.988571905059176,0.4945514867545236,1203.1033936469344,1203.8898680738316,1195.1988702328872,1221.26894234467,427.62515971644416,903.9670842613295,-1014.2416444840356,-985.3460943171731,149.09256122647463
0.2875,0.2351521008830652,-1.7648549900300972,0.5026550193380336,-0.0490801033246456,0.1661882099711826,0.0320081792739941,0.0293938497692588,0.0220939877638695,-0.9886239357094224,-0.1458006661288619,-0.0285647667140344,-0.0489627697415056,10.802433384751753,-0.2233400055036284,-0.1021345257669459,1.03226372297174,3.686897806400955,4.988571437160932,0.4971637481383495,1204.3063795727355,1206.2076547030995,1192.8459302360886,1218.7211628531352,582.1771767249234,1003.1055168632168,-863.826193879149,-1094.2761519183134,149.09016313232755
0.2899999999999999,-0.5640254325080465,-1.9962873557805128,0.3159455936648882,-0.0489796728784048,0.1606453790174608,0.0352734988320236,0.0297156572506734,0.02215955284516,-0.9886197968657524,-0.1457645236438183,-0.03024749067316,-0.0444984411736425,10.804142987299572,-0.2230349297218318,-0.1010716295491593,1.034684176964337,3.687331519277482,4.988566504793005,0.4997819839603547,1206.0142795305592,1208.9053956581477,1190.8797392634915,1215.7975615850785,657.890356249943,941.0683771610916,-530.9909418170773,-1008.533317333796,149.08744154925643
0.2924999999999999,-1.1668579415955391,-2.154093085099058,0.0807335861766987,-0.050610185948533,0.1547380745590448,0.0374071612151125,0.0300264247910195,0.0222410480286017,-0.9886155849975476,-0.1457265752820907,-0.0316996424038137,-0.0399174050164187,10.805607228497188,-0.2227048144163204,-0.1000127475923584,1.037115214510905,3.687762403670972,4.988556404688056,0.5024071906976209,1207.5958313539852,1210.912996588905,1190.1909755270033,1213.6784962664663,645.5453071669575,708.1387761895251,-53.48436913691325,-750.9758433943255,149.08530877537527
0.2949999999999999,-1.6583650932803848,-2.240702328826231,-0.1940480466588723,-0.0541868400456744,0.1482473518006788,0.0376950708238471,0.030324912279163,0.0223354120314287,-0.9886115319868218,-0.1456855840260365,-0.0328715504629221,-0.0352355147872668,10.806757291697917,-0.2223430323035271,-0.0989525156023142,1.0395560679716316,3.688191109998733,4.988541318114918,0.5050397824403208,1209.242006066394,1212.4460895390953,1190.6123174178067,1212.0426823681069,710.6726441773836,511.56843849503224,425.40472138989526,-599.4866252442074,149.08332272706215
0.2974999999999999,-2.064159436780522,-2.2451878447732767,-0.4981433804926315,-0.0607465847244495,0.1409290392150738,0.0353956665535954,0.0306110138110856,0.0224405763211483,-0.9886077070104164,-0.1456414018337093,-0.0337478025595783,-0.0304916702626959,10.80752918497521,-0.2219442999726453,-0.0978883163854605,1.0420054102618015,3.6886184517958207,4.988521694567109,0.5076782124022662,1211.149194574872,1213.47083878138,1192.3179991339528,1210.6810631402452,663.9689371683737,207.94163834643751,785.7747498496329,-408.4366449424575,149.0811160920676
0.2999999999999999,-2.2166443437759447,-2.1675114555429342,-0.6827676498403376,-0.067611782572069,0.1357245599284556,0.0320981737779761,0.0308875369387795,0.0225564747851483,-0.9886035039082026,-0.1455977713112079,-0.0343846225208827,-0.0257732403818383,10.8078634893927,-0.2215080805992424,-0.0968238148940118,1.0444604424090185,3.689045463686908,4.988498229973649,0.5103220907678367,1212.5618507522358,1213.4857977308275,1194.541191167055,1210.0004991433943,498.2045570014175,-186.7902934161064,985.3679316890056,-199.91669912646995,149.07942889185034
0.3024999999999999,-2.1609272375820097,-2.012627191685259,-0.7646771938857768,-0.0746917690614608,0.1315347741979896,0.0287874215562818,0.0311518925472089,0.0226816839721428,-0.9885984520058584,-0.1455589847703547,-0.0347405407557148,-0.0211187407294444,10.807706876380326,-0.2210234321714034,-0.0957581108966899,1.0469211602456767,3.689472460848364,4.988471358685838,0.512971603252687,1213.6402173598792,1212.5368873142995,1197.2448387923976,1209.6814796446129,366.7060732754632,-628.8064852635209,1205.2621015695863,-83.08358812923862,149.07790367680286
0.3049999999999999,-1.8732012231989668,-1.7372966987244143,-0.7442410720920168,-0.0820438504031406,0.126707573328287,0.0257286534762388,0.0314023951828549,0.0228128955386368,-0.9885922115168456,-0.1455286186447759,-0.0348109315784955,-0.0165267782178411,10.80701057110704,-0.2204828789402023,-0.0946859875561163,1.0493873475401516,3.6898986985334825,4.988440856412055,0.5156280336747032,1214.3953811186132,1210.3417653045099,1200.567501674903,1209.5850812027484,173.46606974219853,-951.9728513012061,1162.2975294267223,-0.437804652665363,149.07626501151856
0.3074999999999999,-1.4858108051439172,-1.4243007191135548,-0.6444523437801806,-0.086634907322689,0.1221962695420033,0.0240822605934802,0.0316353149117481,0.0229476010600787,-0.9885849004269548,-0.1455074859221575,-0.0345533430844492,-0.0120050241958191,10.805731017798296,-0.2198762407525259,-0.0936018727794329,1.0518596047105286,3.690322754672645,4.988407115487246,0.5182921372306794,1214.5075477085902,1207.7770230577935,1203.0563264395314,1209.6792906213495,-63.95231684723506,-1128.8897660438568,865.1817867118544,68.51830669488658,149.07506163369752
0.3099999999999999,-1.0036706428443578,-1.01576232641094,-0.4838612031992535,-0.0893982148347265,0.1176674077758034,0.0231284263555835,0.0318485621986554,0.0230828959361641,-0.988577067812566,-0.1454931877665825,-0.0339672097749246,-0.0075566746764738,10.803828893571882,-0.2191990500380051,-0.0924983328430654,1.0543379274761828,3.690742113607388,4.988370814947198,0.5209642706551225,1214.0756195343768,1204.6973164742903,1204.8934106084623,1209.9276727362228,-252.5535181278426,-1276.612730164378,585.9081101204532,125.42444553041592,149.07402884325202
0.3125,-0.489415145920612,-0.5354328267499416,-0.2892909461297334,-0.0907447780546865,0.1140482741611311,0.0226144024019947,0.03203736914224,0.0232153461075486,-0.988569688247598,-0.1454810859855855,-0.0329996959721053,-0.0031638793533551,10.80126985026064,-0.2184435034797707,-0.0913649273254317,1.0568239338013972,3.691154395508685,4.988332830211865,0.5236428964703785,1213.2447801179508,1201.3939594069716,1205.9858669901337,1210.3064128490016,-402.9030894031162,-1329.4213023402324,230.5230615457274,181.7036997746525,149.07313864229255
0.315,0.0123463582621318,-0.0026297683898253,-0.0674054416363495,-0.0906030748143127,0.112651565004695,0.0226226858009621,0.0322029993652882,0.0233379496046249,-0.9885634776762025,-0.1454675108705685,-0.0317407520820906,0.0012507334643072,10.798022327653932,-0.2176169360571868,-0.0901856906198237,1.0593173295777303,3.6915586858464216,4.9882937322424015,0.5263256042011296,1212.0611040873614,1198.0502099625894,1206.0460259161907,1210.836191235096,-552.903391424024,-1430.2944037192433,-211.74386979246245,255.56560747368144,149.07242118991516
0.3175,0.5454259333232226,0.6300242303889044,0.221078601771272,-0.0889168410006477,0.114051204364062,0.023036594311693,0.0323511718388568,0.0234470842636009,-0.9885588034859872,-0.1454496105187941,-0.030364912645793,0.0056803465094108,10.794058890997318,-0.2167359715290181,-0.0889533092231778,1.0618157624730136,3.69195569411982,4.988254295145787,0.5290114294620735,1210.4802631608309,1194.2424873883751,1204.9271476411711,1211.58424088637,-558.7719379607273,-1332.8926253689576,-581.7646935891838,274.2623943160195,149.0717607966476
0.32,0.9020805137176507,1.0998105973482348,0.4773479170792251,-0.0863565817996838,0.1173734224157757,0.023546316349709,0.0324956891747484,0.0235445978062645,-0.9885559981145504,-0.1454220412568519,-0.0291974834211618,0.0099766739502647,10.78935651295706,-0.2158334115603391,-0.0876736633457673,1.0643127118483182,3.692346221345217,4.988213981685024,0.5316994309232803,1209.2672443975575,1191.3857468357446,1203.137202448245,1212.207503206676,-398.6135508086587,-1052.1811510552643,-834.3743629832708,219.2892154144372,149.07137827450288
0.3225,1.1453857965851975,1.4628096241688704,0.7459555255279547,-0.0828780591710962,0.122104298607338,0.0244264626090038,0.0326426258409395,0.0236302248530579,-0.9885555493636992,-0.1453803922889513,-0.0284008948152994,0.0140634982096192,10.783899368787305,-0.214926414142414,-0.0863465523635078,1.066805063215559,3.692730323459136,4.9881715734991205,0.5343891602789212,1208.4871954067876,1188.981581633099,1200.755275826255,1212.6806869634422,-173.67665601045687,-937.8263272379165,-1096.2758538866628,139.7379278324023,149.07117085840585
0.325,1.2999060890052756,1.751180862979637,1.0684457274941603,-0.0785003248009698,0.1285772419515119,0.0264051383485764,0.0327905721728145,0.0237056877534278,-0.988557522758078,-0.1453243832106818,-0.0279685984472375,0.0178500054100001,10.777680060128628,-0.2140147717127208,-0.0849756936451094,1.0692918535029796,3.693108438381552,4.988125958816384,0.537082619012657,1208.3988611175055,1186.696615199555,1197.6558231788115,1212.906192845838,142.61188222462795,-735.3196080132412,-1113.7139482000284,9.778509342868336,149.07112562367263
0.3275,1.3215446735576175,1.8738510815286236,1.3192192957683566,-0.0753529899991318,0.1338899159190019,0.0288553613590545,0.0329430770720106,0.0237721617990448,-0.9885607922950628,-0.1452606991763283,-0.0280001628561565,0.0212474619240289,10.770697938986427,-0.2131074151688377,-0.0835680777878876,1.071768453376175,3.693481662997913,4.988075783187272,0.5397827762066214,1209.2002548179107,1185.3049835930328,1195.1867060852549,1212.7295795101563,510.48750508075454,-456.50637619473815,-907.5042828122595,-147.9501625392912,149.07125864102807
0.33,1.246887464651845,1.9016821442956668,1.5223785040277509,-0.0727559205553336,0.1384437394173946,0.031978030275285,0.0331067918188916,0.0238285378590051,-0.9885641312214822,-0.1451962483384711,-0.0286614285305063,0.0242097584253064,10.762960215751619,-0.2122198336543867,-0.0821269760515708,1.0742275658579583,3.6938508743005434,4.988020125821813,0.5424921081125464,1210.9512986429093,1184.414083318581,1193.1183017647504,1212.1664420331415,955.2284663307538,-293.16871350374606,-786.790093601757,-315.89941890215385,149.07157015557578
0.3325,1.058567135651678,1.867919576936162,1.6705765557561616,-0.0698395197550739,0.1430309760622442,0.0365821401806458,0.0332827717756326,0.0238702368405693,-0.9885670324702996,-0.1451346615111089,-0.0299996716309536,0.0267847673933707,10.754484010348632,-0.2113564225522806,-0.0806451706021403,1.076663495174778,3.69421704460846,4.9879594691434335,0.5452104769708556,1213.9763971495645,1183.839140025514,1191.252755617246,1211.1500824156456,1213.024345860366,-145.3545377531553,-582.2747372168573,-402.21346883981784,149.0721519903736
0.335,0.8228827510271653,1.8102923233564168,1.6828205531823297,-0.06740324322942,0.1463164810732349,0.0414012031701019,0.0334696254465051,0.0238980448107361,-0.9885695007728492,-0.1450754647819781,-0.0319825547965968,0.0289163589899365,10.745297543887615,-0.2105145735455034,-0.0791243479581131,1.0790702708343816,3.694580851880517,4.987895340091232,0.5479372983216569,1217.016420372211,1183.6873106298156,1190.206928078666,1210.1553746889426,1246.5429291982207,-15.15668834440474,-333.55615412460764,-389.35131870880434,149.07281150582367
0.3375,0.5082017446680575,1.7386300967608832,1.5488624582421688,-0.0648631880423923,0.1495587371831397,0.0470429524963867,0.0336680759968354,0.0239204980345345,-0.988571469737828,-0.1450165483287582,-0.0345895471389211,0.0303816422928893,10.735439481218062,-0.2096936608131293,-0.0775826609967834,1.0814399233323804,3.6949426984800393,4.9878294725698495,0.5506748073601261,1220.2091117955556,1183.763356583792,1189.584974846623,1209.2033258221015,1241.4773872780177,51.89718745655223,-200.1666149986248,-343.9693479644572,149.0736539761605
0.34,0.1365517362396224,1.6544828781217116,1.28633650180737,-0.06241026361524,0.1533460575845318,0.0526324386531381,0.0338831673384721,0.0239475804276771,-0.9885730466398696,-0.144952946065623,-0.0378768781768739,0.030919099955724,10.724956270801089,-0.2089022627748465,-0.076041801090511,1.0837628236141779,3.69530293208138,4.987763480869826,0.5534249214880435,1223.2238073086012,1183.9467965670983,1189.2060950036728,1208.4355279491203,1096.113312470242,81.77818503231713,-115.94527183151502,-229.73752510583813,149.0746494935574
0.3425,-0.2736650999867328,1.5449918878356148,0.8896830588842666,-0.0608714384094235,0.1576981644068427,0.0568720124346133,0.0341114736121169,0.0239855367018646,-0.988574586667854,-0.1448807157571755,-0.0417244041926442,0.0303816729020275,10.713901607186513,-0.2081323437482555,-0.0745137489346233,1.08603455573839,3.6956608724482978,4.987697097329136,0.5561862718606819,1225.6896783579068,1184.1722475089537,1189.0052484874655,1208.0546381965723,887.1995642011361,91.41056119146916,-63.75172611042211,-42.37925393804286,149.0758312703547
0.345,-0.7386983744492577,1.3748151972472664,0.3222528463223885,-0.061506960663089,0.1627260855731148,0.0589717537708128,0.0343466659397927,0.0240298905349548,-0.988576717570064,-0.144798889715993,-0.0459766871848896,0.0288691183066868,10.702331529240368,-0.2073734467641207,-0.0729884391419506,1.0882548276526591,3.6960146277284456,4.987628152319558,0.5589554491808225,1227.6598051296069,1184.4038493730557,1188.887336373121,1208.22363167943,517.4248849144074,71.33083949206588,-22.606323831814713,184.60175274326485,149.07746705260635
0.3475,-1.034047940450949,1.2025978912549906,-0.166634833937503,-0.0644389203076094,0.1662039630702915,0.0581393979657833,0.0345826698125182,0.0240762034746197,-0.9885797207115132,-0.1447091127347059,-0.0504764116152097,0.0264903105054733,10.690302848126894,-0.2066162923911692,-0.0714580912509938,1.090425628240306,3.696362125897143,4.9875551534952685,0.5617289277200375,1228.2768027824789,1184.528901706414,1188.8922168683064,1208.977646960289,-0.4526263669504256,35.65675104232466,36.39244130795301,435.4493600440033,149.0790133487515
0.35,-1.1521909599804232,1.0103251726751852,-0.6070536767395025,-0.0690682171238715,0.1686293016910914,0.0556681440354808,0.0348156465336401,0.0241205284785379,-0.9885832591266208,-0.1446161788003429,-0.0551051159966906,0.0233488886098032,10.677869673753568,-0.205856871098149,-0.0699189837868668,1.0925504645169355,3.69670192005546,4.98747696566479,0.5645042279382533,1227.657541997772,1184.5821331282673,1189.0692985796607,1210.40087847965,-577.8512246832238,14.669508612451104,140.96082717774297,761.8190660128752,149.08075194299585
0.3524999999999999,-1.024325484155923,0.7718119884070975,-1.0308662423950257,-0.0752791829499822,0.170502902831833,0.0519563356156508,0.0350447798572003,0.0241584167719269,-0.9885870673283969,-0.1445234077109439,-0.0597991209959604,0.0195610084851151,10.665080096835336,-0.2050986229055161,-0.0683676195817279,1.0946338819383696,3.697033483793787,4.987393029807162,0.5672796768293354,1225.3875466590628,1184.6022492494762,1189.597021004195,1212.7867422903532,-1082.3857408173008,8.089798987703118,261.3162866250631,954.0609452844008,149.0830632206104
0.3549999999999999,-0.6776174032557674,0.5724886930068028,-1.2797282806253643,-0.0800384787886554,0.1714863217057175,0.0485431807522962,0.0352703744769493,0.0241877599533633,-0.9885904939945572,-0.1444358343961556,-0.064503406663427,0.0152032563163561,10.651974607077277,-0.2043467897108961,-0.0668069645086186,1.0966814774970295,3.6973571591760495,4.987303026461148,0.5700537268823443,1222.2456132936857,1184.6225821232058,1190.375880012786,1215.171183206072,-1483.2059606051175,18.789492303676507,391.0046055642848,974.8759200415852,149.08517868683023
0.3574999999999999,-0.1066358634564332,0.369528427963011,-1.415057642253622,-0.0829259865120121,0.1721648897146974,0.0448717026421092,0.0354952410339118,0.0242111686480239,-0.9885931158476132,-0.144355347341081,-0.0691909829177575,0.010256775871022,10.638584490625213,-0.2036106037438147,-0.0652498902692221,1.098698412619678,3.6976738562438864,4.987207575352644,0.572825133621841,1217.9715168560372,1184.6961967109946,1191.5520440320165,1217.6611218905612,-2067.236969218855,57.14536701993888,602.1059871413394,1032.2951849005212,149.08749282305547
0.3599999999999999,0.760027340967748,0.1070533910953213,-1.4519391088186235,-0.0830605516653806,0.1727258327951144,0.0403896886952661,0.0357224177379049,0.0242359267976683,-0.9885947979853004,-0.1442809073595426,-0.0738170401964652,0.0046156434438937,10.624931627598375,-0.2028979129231083,-0.0637180431605001,1.1006894650099173,3.697984064247568,4.98710864305107,0.575594763865173,1211.9094284475912,1184.9083089583055,1193.3864099484927,1220.3326591305747,-2303.1732344145876,109.108100377989,723.5794850736049,861.8290983318722,149.09050142934083
0.3624999999999999,1.5568439086535,-0.1419055543910463,-1.3874163582476704,-0.0802721850123081,0.1728426712073704,0.036712247106922,0.0359543227530734,0.0242714331998718,-0.9885951560771472,-0.1442129167913681,-0.078314739128801,-0.0018554201458804,10.6110286741437,-0.20221347143853,-0.0622372215699238,1.102658561892032,3.698288138603981,4.987007888099963,0.5783645373503447,1206.4556506839642,1185.2417372128843,1195.1699414573843,1221.9702673822203,-2162.9830482129346,180.41258143680332,725.8689636018509,469.17101261301434,149.09320275371937
0.3649999999999999,2.3339523572790446,-0.4392393744749933,-1.2398819490972663,-0.0746469848442244,0.1724908955596929,0.0331827236248008,0.0361875473358376,0.0243191275915984,-0.988593973556536,-0.1441533606410103,-0.0825196381694838,-0.0090949320096015,10.596880893980204,-0.2015504237650546,-0.060813572435735,1.1046107528448548,3.698587025580376,4.986905331874372,0.5811358310790192,1201.0945132065267,1185.8103718654895,1197.015754766502,1222.6785141936396,-2054.9494221290824,276.94710823302535,708.1586875920486,102.25313725127297,149.09610655255975
0.3674999999999999,3.0281411220172783,-0.7865247943515086,-1.0395255718714305,-0.0668412727221526,0.1717696567250158,0.0300171615385015,0.0364183156957523,0.0243757674658886,-0.9885909617775333,-0.1441056051339637,-0.0862778170148272,-0.0169332053744538,10.582488010942344,-0.2009008790513057,-0.0594423624225701,1.1065490032383152,3.6988818504652734,4.986800326835024,0.5839112540991802,1196.1809035733188,1186.6264727540497,1198.7107348953448,1222.481533068477,-1785.2596302453533,395.06944783565774,588.8591974074636,-295.5389790669412,149.09917867092
0.3699999999999999,3.56025469625947,-1.1978116162367896,-0.8009524043741649,-0.056975036337709,0.1703982657925026,0.027761752985516,0.0366435757692361,0.024437080551395,-0.9885858240875932,-0.1440730943323267,-0.0894600945042676,-0.0251753535457778,10.567847458316429,-0.2002571096182953,-0.0581159690263503,1.1084732265289536,3.6991740567101505,4.986692309177816,0.5866946430899331,1192.1682150553,1187.7857191046678,1199.9600507535392,1221.200819298305,-1499.6872938853799,592.1251044299873,389.93558873576114,-766.807428318088,149.10245389398452
0.3724999999999999,3.965392781023836,-1.7530509239832812,-0.5077757332759937,-0.0439473731950077,0.1674907482601702,0.0264491788974116,0.0368646457920479,0.0245005133416398,-0.9885782916723906,-0.1440577069384687,-0.0920321351890154,-0.0336728114517284,10.552956422985032,-0.1996189074410781,-0.0568306533053827,1.110378844379449,3.699464711558997,4.986580621459424,0.5894882443508869,1188.682467103892,1189.5870982761996,1200.6604128390236,1218.6474959268864,-1043.2388163391795,722.054254643671,100.41649325089556,-1044.0470603406527,149.1066186534058
0.375,4.101816496756481,-2.243362196860742,-0.2821591721779538,-0.0331082879447375,0.1635732582657153,0.0262325372007298,0.0370756047606662,0.0245571605732345,-0.9885685001561064,-0.1440614583176713,-0.0938403307402258,-0.042120902640983,10.537817549880645,-0.1989709174042292,-0.0555656984343356,1.1122626563486877,3.699753408953379,4.986464006304488,0.5922927638446441,1186.952020973604,1191.395990377886,1200.4621332197937,1215.9805839966018,-462.55441105554337,766.7132309817126,-240.84782837244325,-1087.4493827631786,149.11028410308373
0.3775,4.04725107253284,-2.718471608613773,-0.0948608902403882,-0.0229892707754273,0.1576441112912801,0.0263772370117429,0.0372708133383306,0.0245988516470207,-0.9885574373257874,-0.1440803321205951,-0.0947469169717563,-0.0502350700263898,10.522439369844347,-0.1982975472955159,-0.0542993307054859,1.1141202190597532,3.700039960743364,4.9863425718153325,0.5951085813262698,1186.369695048614,1193.4206644311082,1199.4561736971611,1213.2102490130703,-34.25613331864949,901.2883883350688,-593.1780801828148,-1138.1004054682298,149.11415061597157
0.38,3.79884452036148,-3.211721783112776,0.0774782437198349,-0.0118057265736947,0.1484322598462923,0.0267734756823071,0.0374454792309861,0.0246190424726342,-0.9885461361166806,-0.1441095493346022,-0.0946447639059396,-0.057771441791715,10.50683686393293,-0.1975840927578297,-0.0530125413061124,1.1159465370625248,3.700324352104853,4.986217350711062,0.5979351477496563,1186.7807403070108,1195.9024323195615,1197.4962428188796,1210.2900819692607,293.33186454759897,882.0086936525505,-800.5782779338452,-943.2199361519897,149.11902096223875
0.3825,3.4694019536501566,-3.519566632139124,0.177880791320141,-0.0032498586056461,0.1395992510525298,0.0273338139208174,0.0375963816732424,0.0246147596080209,-0.9885359806309904,-0.1441409397473414,-0.0934662889575576,-0.0645724022549382,10.491030947928447,-0.196818227262008,-0.0516927766725612,1.11773669729499,3.7006066010597753,4.986089233671279,0.6007700988835387,1187.836354371352,1197.8307078993707,1195.453282307492,1208.4941493323104,514.1638073423105,693.877068827714,-843.3249722337669,-547.9768883188622,149.12326989456412
0.385,3.04678412494881,-3.685953913697285,0.2389824235240394,0.0044470848625975,0.1299588420178717,0.028076325180599,0.0377230462936681,0.0245859944294395,-0.9885285089895296,-0.1441640907187748,-0.0912108824764664,-0.0705587194894432,10.47504672650404,-0.195993093700929,-0.0503334778666306,1.1194862376441697,3.700886342297234,4.985959488028516,0.6036114566507883,1189.3515593437223,1199.3718176637,1193.2796179577108,1207.5501975276663,709.0962776075678,535.2123677020695,-927.4726441318753,-224.86448418558192,149.12771372679688
0.3875,2.469312716940902,-3.7021136074740055,0.278488968616682,0.0124293800625695,0.1179700365312601,0.0288824747446607,0.0378244760596731,0.0245361242790132,-0.9885251374767728,-0.1441690063735348,-0.0878769688503589,-0.0757286773040604,10.458912656276828,-0.1951000873014173,-0.0489350784561556,1.1211929601027903,3.7011627824191815,4.985828983235543,0.6064580521716754,1191.38183575939,1200.5067697378813,1190.8159190868328,1207.3698269113827,740.2502297667971,267.0322764162845,-850.1358701772907,56.6925732676736,149.13326794412845
0.39,1.9570434286437024,-3.563618837987121,0.2936625366975386,0.0178022176235938,0.1083716913000791,0.0293722377158041,0.0379035225158105,0.0244687978878786,-0.9885262518798372,-0.1441517144338892,-0.0835640473975104,-0.0801055441012417,10.442656886004892,-0.1941395489450299,-0.0475015127400382,1.1228555434908267,3.701435493122641,4.985698009955404,0.6093080760690714,1193.0528104925563,1200.7069790457815,1189.0289386068243,1207.8336603940047,631.9323258746857,-91.97583036802817,-643.626660719064,245.2042695436828,149.13807799475634
0.3925,1.4463991987028855,-3.285952300488433,0.3015930412872191,0.0217381415390065,0.0998332368024227,0.029698749527729,0.0379627634908135,0.0243848362656727,-0.988531698986353,-0.1441125159437607,-0.0783935310438394,-0.083662364522785,10.42630671232694,-0.1931127907582838,-0.0460316634339032,1.1244753650553443,3.701704805451064,4.98556678175084,0.6121587422655345,1194.5414973887634,1200.0468905860412,1187.5977857832374,1208.595848259101,554.0773401698513,-401.73118468446734,-513.0869996131419,296.97013700356337,149.14307217735455
0.395,0.9623403943247376,-2.9153051771740848,0.3083682453034836,0.0245512254211643,0.0921609979796263,0.0299786109480832,0.0380037460129581,0.0242877139101957,-0.9885409677145444,-0.1440540183393276,-0.0724736929681937,-0.0864340576442332,10.409886958297845,-0.1920186953980811,-0.0445310203449542,1.126056296248268,3.70197111213976,4.985434884852942,0.6150081768553347,1195.8231971934056,1198.6983231223592,1186.4635036087586,1209.3185110790223,461.32754009772685,-676.6994218499343,-390.3207261982967,217.60691800818657,149.14821549523856
0.3975,0.5396055222761326,-2.464684061301486,0.3133089121946981,0.0259651072571594,0.0854032940900786,0.0303470843025767,0.0380325804469448,0.024184671152936,-0.9885530869420264,-0.1439801811248967,-0.0660090346120223,-0.0885569102412215,10.39341701167116,-0.1908658911845489,-0.043015960805036,1.1276018949134203,3.7022346718135193,4.985301823216463,0.6178552665116712,1196.848135089252,1196.6633934767915,1185.646182152246,1209.683882849142,395.67752843158786,-995.0436232782058,-303.1112098855826,21.532898828127127,149.1535344247879
0.4,0.1365913022741917,-1.8792064941400048,0.308647177861005,0.0260114619606171,0.0786984330402716,0.0310750080880983,0.0380555214956674,0.0240836716233326,-0.9885665805138614,-0.1438982953818307,-0.0592165896366887,-0.0901906588393135,10.376912160495383,-0.189663964644586,-0.041506340226299,1.1291164632050728,3.7024945107937057,4.985166701594434,0.620699506832183,1197.8015848355635,1193.723105005968,1184.9479475593307,1209.4261755731632,304.39999211794174,-1111.9790653182451,-224.32028038356276,-230.67863010105592,149.1601153796351
0.4025,-0.0955224015369104,-1.3945695275798815,0.2861466461900545,0.0250076215568429,0.0748580644452731,0.0320063493058493,0.0380714450471173,0.0239841877951781,-0.9885803520705934,-0.1438164062004325,-0.0521950148193552,-0.0913071965876122,10.36038697084526,-0.1884097222585691,-0.0400015705610156,1.1306072655936332,3.702748274037832,4.985028055151929,0.6235404876515047,1198.3701350498416,1191.1034981502003,1184.524580750328,1208.5304896986368,174.31209738501806,-1031.6488063268923,-157.4412700560059,-497.2411336163527,149.165761743017
0.405,-0.2149707346037072,-0.9641628734311132,0.2333717306433827,0.0236839362305622,0.0730835067776442,0.0332331540793929,0.0380840128062651,0.023887321634632,-0.9885937738377077,-0.1437378231781892,-0.0451393915520739,-0.0919376004783207,10.343853263637657,-0.187111001274624,-0.0385053874723034,1.132078505769386,3.7029950187487537,4.984885564906832,0.6263784411492131,1198.6731453224886,1188.5648609743337,1184.1607412090507,1206.9399699050812,56.58327594992438,-1060.906097104952,-171.25780815481434,-825.6884213754339,149.17157356336904
0.4075,-0.2430531132729234,-0.5576903249191139,0.1311028399743036,0.0223922561591846,0.0728161655186713,0.0346726621989076,0.0381009540787142,0.0237951038040756,-0.9886060047892472,-0.1436661216736961,-0.0383279912478061,-0.0921524502136743,10.32732340321668,-0.1857849496131457,-0.037025270075091,1.1335307219922883,3.703235666514056,4.984739294575958,0.6292152111432556,1198.6530514295914,1185.7989676646755,1183.668291709554,1204.4020475917596,-83.54457777431881,-956.4657346398227,-205.4354889145996,-992.325088411916,149.17873634877105
0.41,-0.1913554548951412,-0.3272077043296637,0.0202521637611756,0.0217319396171507,0.073392976298146,0.0354528102271311,0.0381262647489619,0.0237062714950957,-0.9886166456182,-0.1436033786969408,-0.0319713385844777,-0.0919524690791791,10.31081606035944,-0.1844416584929094,-0.0355595193148689,1.134963107139485,3.703471623074406,4.984589704632264,0.6320529220944693,1198.255422433617,1183.7825323011343,1183.1335637644777,1201.9783444630218,-247.4622232343788,-747.5617812312514,-250.5945884513492,-970.1159666964932,149.1848610042127
0.4125,-0.0918429856469905,-0.2020390308410462,-0.0978447281815298,0.0216401799773083,0.0736425713839797,0.0353939781491138,0.0381678822782395,0.0236235038130083,-0.9886254611630136,-0.143548815806496,-0.0263446963432596,-0.091439721688829,10.294357679348195,-0.1830989061562415,-0.0341154129224809,1.1363699768561406,3.7037042484978575,4.984437514274262,0.6348950557407254,1197.4157403134195,1182.0611587585192,1182.415318767297,1199.551467758277,-469.75330101822647,-698.0507705193297,-356.56719390890396,-996.2147788088249,149.1911459646044
0.415,0.0492475175871081,-0.1393998472509636,-0.2189571382736857,0.0222229632319467,0.072996460374805,0.0342960619212747,0.0382271769949462,0.0235474881148919,-0.9886326534480177,-0.1435006614041423,-0.0215894557616333,-0.0906637626456421,10.27798868783018,-0.1817605201399116,-0.0326929072251578,1.1377447666447948,3.703933467204039,4.984283266805873,0.6377453743683466,1195.9066559285259,1180.292278448538,1181.3507277949332,1196.9972705689777,-624.7875890554105,-605.9471061583342,-411.9258503440548,-836.5150050035567,149.19887232543087
0.4174999999999999,0.165984144762171,-0.130473376961173,-0.2850789844036586,0.0231811520814042,0.0720780745522686,0.0328930593143225,0.0383011504044248,0.0234741285231668,-0.9886388039156836,-0.1434563840391849,-0.0177644884304239,-0.0895714248971883,10.261765710365973,-0.1804223605201757,-0.0312790874826059,1.13907959483898,3.7041583604477526,4.984126790181945,0.6406059373059383,1194.2918023681425,1179.0314232277276,1180.355689515577,1195.3688927332591,-693.060141644635,-467.0122200855578,-394.904114047908,-525.3811230919436,149.2054641458078
0.4199999999999999,0.2699877433073562,-0.1375692900586822,-0.3053261441469379,0.0244907197728909,0.071220680216245,0.0315158077953759,0.0383839498182762,0.0234036470643025,-0.9886446306511196,-0.1434123919196878,-0.0148480077047098,-0.0881963405669358,10.245762167025708,-0.1790728828796131,-0.0298692568647909,1.1403654273524868,3.7043779230982494,4.983968062165063,0.643477269403447,1192.4413552203027,1177.95721734811,1179.3762072246936,1194.370364953518,-752.1155062093378,-404.5912432406109,-365.32787748265,-301.54279591129097,149.21221441665512
0.4224999999999999,0.3639721591568251,-0.1436198409688861,-0.2895795127701327,0.0259196205833302,0.0705462720200356,0.0303765883847117,0.0384754233255335,0.0233415660462393,-0.9886502836146182,-0.1433663456821164,-0.0129070501730957,-0.0867014420364212,10.23006664045158,-0.1777122352438707,-0.0284726952566014,1.1415901346593005,3.7045925945505274,4.983807428397006,0.6463598189700296,1190.5312248370958,1177.0084670115243,1178.5290501281638,1193.8611787537027,-743.2507238341706,-360.7486967092424,-278.0462878510659,-118.65454674693854,149.21909565814323
0.4249999999999999,0.457601805507419,-0.1378464892249839,-0.2412064667082293,0.0271773638279492,0.0700988777331898,0.0295964281768788,0.0385789602917963,0.0232928378220531,-0.9886553964587498,-0.143318250876527,-0.0120680206992446,-0.085251328440643,10.21478193130634,-0.1763494664607848,-0.0270990352090014,1.14274069344362,3.7048033819419945,4.983646341682231,0.6492540208173724,1188.7251016011319,1176.153473864564,1177.9859757854383,1193.7770922197833,-730.69000925775,-376.0425925213436,-138.9228739604731,0.8504245394306045,149.22613427270332
0.4274999999999999,0.5934526828744464,-0.1077916158023687,-0.1645623112875048,0.0282695172474085,0.0697469431483939,0.0291078643468901,0.038694213688733,0.0232559322570425,-0.9886591973197838,-0.1432724784322922,-0.0123848082431019,-0.0838691573933631,10.20002280720652,-0.1749882123096125,-0.025743179530022,1.1438071258368168,3.705010833343712,4.983485660253604,0.6521584702183351,1186.877774790807,1175.1282540489178,1177.8344357583615,1193.8654308764,-603.1183596693148,-392.75819535614534,39.516084254501,18.992571793796724,149.23476172887405
0.4299999999999999,0.743211923648657,-0.0573552439899032,-0.0996454043204838,0.0289550580800873,0.0695401324181958,0.0290808616891518,0.0388186949921196,0.0232266816059134,-0.98866153386904,-0.1432295600497676,-0.0138536198302186,-0.08252281927853,10.185909672209643,-0.1736291325464848,-0.024392639580887,1.1447831249147056,3.7052145415000814,4.9833254756178365,0.655070234171577,1185.7095098027853,1174.1896828877832,1178.1835562067108,1193.8720550787523,-377.9113337037412,-406.98595205703856,236.3822875025105,-53.572422528986806,149.2421015176909
0.4324999999999999,0.9408679304502158,0.0267633866335075,-0.0477158139901841,0.0297974779309756,0.0693728079126141,0.029292746640901,0.0389457241552824,0.0231997094703223,-0.9886625253002383,-0.1431898846739499,-0.0163674266044509,-0.0811441430279362,10.172561599229127,-0.172264949112765,-0.0230316077896516,1.1456676375021675,3.7054132956322854,4.983165352963424,0.6579861268296398,1184.9882181222883,1173.0933242886326,1179.016347195874,1193.5975687637551,-215.25329585424493,-519.385870827045,453.4864949719118,-213.833650587412,149.24959628901348
0.4349999999999999,1.2232678197197875,0.1736446914828016,-0.0096149560537776,0.0316128287002041,0.0692364273528912,0.0296004983647183,0.0390688994729161,0.0231669759441181,-0.9886631216103748,-0.143151622632631,-0.0198075476386096,-0.0796116602434785,10.160087317388744,-0.1708910068568325,-0.0216388935466116,1.1464638062967896,3.7056057446862862,4.9830043665305395,0.6609032522006975,1184.633243323514,1171.592753533648,1180.4509886815704,1192.8028868258152,-53.87466815882357,-569.553888496102,566.0715410797816,-375.279428702606,149.2587678092553
0.4375,1.4731039977668512,0.3360749764219684,0.0001819784697969,0.0342527403257635,0.0692612001687833,0.0298103297226259,0.0391849315964293,0.0231268872551788,-0.988663671174582,-0.1431153813568308,-0.0240758248471337,-0.0779374618859274,10.148575481801636,-0.1695087194386351,-0.0202111558024755,1.1471781404782022,3.705790267568924,4.98284118548647,0.663819201021717,1184.7188447814942,1170.245554846152,1181.8467049012727,1191.721171620242,97.00515082699884,-536.0028381677233,547.8968068148329,-512.2641902064966,149.26655746890472
0.44,1.697056635574128,0.5345761395817658,-0.0104036471972106,0.0383867091034806,0.0696294810203516,0.0299201768070941,0.0392831294141768,0.0230723478208673,-0.9886648917289972,-0.1430815016963647,-0.0289162007589968,-0.0759952650151138,10.138088684275244,-0.1681052326184737,-0.0187314974586185,1.147823867785802,3.7059649887985,4.982674506520157,0.6667311369594467,1185.118269077649,1168.9127393428091,1183.1904727156443,1190.2415658747827,196.31011791534527,-512.9941191197299,485.3560845032912,-642.4533567588236,149.2744967509248
0.4425,1.8670367941022663,0.751198571484349,-0.0338828623538165,0.0436893904746218,0.0705007824421591,0.0299309715105446,0.0393557455312178,0.0229966082492858,-0.9886673210318708,-0.1430502305706438,-0.0341067897993669,-0.0736663973970237,10.128653375078494,-0.1666744340146833,-0.0171859109484281,1.1484167847573383,3.706128864045066,4.982503640331609,0.6696366401263162,1185.7003953710707,1167.6805842505535,1184.2734853237891,1188.508904836448,253.24976630786273,-454.3816876618617,320.3686360458502,-726.3422116572193,149.282557284914
0.445,1.9433625123518792,0.9654996982081911,-0.0666936067262736,0.0499230934491716,0.0722769417727653,0.0298146537580266,0.0394014667947329,0.0228930125064889,-0.9886710428058794,-0.1430228151031643,-0.0395325716634142,-0.0708426953413011,10.120252454969172,-0.1652242782840464,-0.0155636063313149,1.1489732299887332,3.7062822709480168,4.982328711100624,0.6725347674685178,1186.3845179091884,1166.6408309045,1184.7923158958736,1186.6098548164966,284.59307295775005,-408.21000205937673,47.65525834104661,-831.660641535472,149.29075957662795
0.4475,1.917409651807116,1.1802863912100408,-0.1082885228450545,0.0574031735133803,0.0757170329312817,0.029533511777816,0.0394258944348911,0.0227620481523703,-0.9886759792368612,-0.1429983076952237,-0.0451754203551468,-0.0675696472461085,10.112820148360152,-0.1637746791300125,-0.0138719163325347,1.1495090636418843,3.706427121272119,4.9821501223294815,0.6754253968812453,1187.1233607358597,1165.6395342402564,1184.5117616154946,1184.3506016287706,220.40127217906027,-330.9585884236182,-273.61725001501304,-794.4822543045568,149.30075908730544
0.45,1.8143460144755656,1.2951103450224715,-0.1387088443657692,0.0627643755238979,0.0795720362169496,0.0292095110261031,0.0394384624274144,0.022610586790236,-0.988681662464232,-0.1429762226005601,-0.0510596010657325,-0.064020164229774,10.106240328547928,-0.1623501526309499,-0.0121337674051413,1.1500396351744335,3.7065658921072218,4.9819686183685485,0.6783091801946846,1187.4865242700837,1164.986037962382,1183.4242296457987,1182.6374435449738,43.50896347236809,-235.46933156785576,-612.7878756865351,-621.9916020299928,149.30921643705366
0.4525,1.6675329193173039,1.319085079686664,-0.1579448627231464,0.0666116564075798,0.0837048376362992,0.028886061459179,0.0394524725036057,0.0224506483238838,-0.9886869736941352,-0.1429585794730175,-0.0572618303470635,-0.0604693229470338,10.100346690748044,-0.1609799940639456,-0.0103850448435774,1.1505786796798747,3.7067009421127537,4.981784868248704,0.6811864435510772,1187.3409055532215,1164.4621875824173,1181.447822237062,1181.2406436186207,-235.14657647215225,-217.66805895172163,-1048.0654275326278,-528.4441572799547,149.31779429091975
0.455,1.494442492720759,1.2347031824314403,-0.1601665163522783,0.0697932650027959,0.0879612494102236,0.0286160742177279,0.0394745621430595,0.0222908641494058,-0.9886911313885068,-0.1429473803263122,-0.0637290485584407,-0.0570955602092518,10.094928175249638,-0.1596768939364438,-0.0086508594436662,1.1511404261743379,3.70683430998878,4.981598570828979,0.6840581042634628,1186.3107913877227,1163.897697667623,1178.1839025081356,1179.995222758574,-548.3345561982328,-210.3780565091254,-1313.3480047505589,-390.5372024154073,149.3282154750133
0.4575,1.38203346142016,1.0745831326816313,-0.1374591145300893,0.0718576412412306,0.0906478668601807,0.0284459549361133,0.0395097128493016,0.0221413675528029,-0.9886935587415616,-0.1429434349530991,-0.0703695639610119,-0.0540953583652397,10.089732905074143,-0.1584468570898501,-0.0069580920103103,1.1517369300430436,3.7069670063123454,4.981409449905877,0.6869262838755716,1184.5992327722304,1163.4102972998717,1174.8810822133091,1179.2879576065436,-873.3884203696554,-215.7241877137947,-1399.3484599663575,-235.9202934927905,149.33699724861444
0.46,1.316702856133818,0.8298286677654876,-0.0777999114735867,0.074095960925242,0.0925560137750056,0.0281296448709956,0.0395621203391702,0.0220080906854789,-0.9886942277104818,-0.1429446528102515,-0.0770910463711438,-0.0515744124022995,10.084475024878323,-0.1572933627156749,-0.0053222677975665,1.1523767240606844,3.7070992637921463,4.98121671577116,0.6897932265980675,1181.9438492858746,1162.8190767290544,1171.1871602083036,1178.81562129111,-1365.494974425154,-300.5636973528905,-1671.5406485423484,-188.26458404123497,149.34586953148815
0.4625,1.2846145200277177,0.443770670664035,0.050973248143884,0.0775658356200345,0.0943436110941292,0.0273452184948741,0.0396323704073381,0.0218922013235684,-0.9886938334755896,-0.142945713204467,-0.0837501824245079,-0.0495303552757512,10.078844257954287,-0.1562115841771891,-0.0037452964386724,1.1530650162698444,3.707230987608765,4.9810204107246525,0.6926614516216837,1177.7717579001046,1161.9074788131072,1166.5233789705972,1178.3466346863374,-1654.8237303487426,-374.8642879220821,-1723.860978803121,-180.45528591846943,149.35660892642895
0.465,1.282417826335552,0.0463099901740757,0.2117481055715955,0.0810467569524528,0.0954879506097825,0.0266143470588069,0.0397191089356341,0.0217894965624635,-0.9886930974414024,-0.1429425229947909,-0.0901942746525448,-0.0478457548170807,10.07251535455076,-0.1551931897359517,-0.0022156395279879,1.1538027808758928,3.707361798903397,4.9808210437633775,0.6955344350403933,1173.6697306341307,1160.944755289444,1162.567855314288,1177.9133448615175,-1700.4459130222115,-427.85710254156544,-1576.4300352906944,-204.59471301664945,149.36562710976622
0.4675,1.2908955579464971,-0.4245658575835176,0.4213363770755444,0.0844446492753309,0.0958636719621745,0.0266045785009366,0.0398194707319541,0.0216941613414768,-0.9886928177178496,-0.1429311744919128,-0.0962617353855157,-0.0463670412146216,10.065158683817279,-0.1542265951831144,-0.0007168226085321,1.1545869109290716,3.7074911837436337,4.980619554196411,0.6984141090899758,1169.2695283349935,1159.7681933003992,1158.641228794144,1177.323661121254,-1746.7356196980727,-500.263638113483,-1556.0290585817243,-271.23834339013206,149.3747066339917
0.47,1.3020206646219263,-0.944156876547782,0.6550153385696337,0.0874049833334449,0.0951654224828204,0.0274527461519836,0.0399254090112736,0.0215999893499339,-0.9886939026460436,-0.1429085339368779,-0.1017083005030945,-0.0449200454103334,10.056452187859074,-0.1532886711116445,0.0007707177866852,1.1554119268200531,3.70761832551004,4.980417125113588,0.7013006835965127,1164.9360525356403,1158.4434370988763,1154.7877100213796,1176.557153144567,-1640.865066819832,-550.3747802591529,-1514.1517808073315,-352.36788433244294,149.38382972545423
0.4725,1.3103954572624896,-1.4947046259582815,0.8889097720195513,0.0900017930025697,0.0929750272807182,0.0292325777041184,0.0400306963928838,0.0214979268048478,-0.9886975265367778,-0.142869572431625,-0.1063540280986097,-0.0432842432895494,10.046089022019835,-0.1523616979520875,0.0022733654078997,1.1562684559309186,3.70774148526406,4.9802136325593835,0.7041936592165721,1161.0652030008944,1157.0163193991036,1151.0704698901072,1175.561821699592,-1512.2490811236717,-622.7320303747541,-1589.4120849955912,-487.5376996949849,149.39299664671972
0.475,1.303002127596998,-2.139497253069658,1.1283477712722936,0.0932931288246449,0.0884495303872821,0.0324326473708154,0.0401218942106314,0.0213770071529879,-0.9887047296790245,-0.1428124872600591,-0.1099048722737023,-0.0411852040709483,10.033789685574186,-0.1514128207058594,0.0038237546857312,1.1571466709960274,3.7078586289123647,4.980008544928224,0.7070936007286202,1157.374807130022,1155.3297769470028,1146.8406495964016,1174.119464646092,-1151.6934186066,-589.8654631575477,-1497.4547720863015,-564.75122818515,149.40403649624352
0.4775,1.265679729626202,-2.6165041592934783,1.2644557439133883,0.0965936887191625,0.0827956112759075,0.0360255598854672,0.0401905929977509,0.0212343487703551,-0.9887154437945572,-0.1427405032679332,-0.1121697302619539,-0.0385293293627839,10.019305973520538,-0.1504188265400845,0.0054332307146703,1.1580338285947407,3.707969669437923,4.979801968244878,0.7100004381232765,1155.3067359078611,1154.0669920833159,1143.5831960296755,1172.7380655586662,-596.4952584789505,-449.7166668900764,-1222.102872891868,-581.362725281548,149.4132613873209
0.4799999999999999,1.1750925801733405,-2.9704701588105573,1.3085900514164575,0.100536992048711,0.0750320152543331,0.040312323253621,0.0402338131364756,0.0210745845672254,-0.9887289283628816,-0.1426588629365969,-0.1130682702417287,-0.0353945090900038,10.00242708373292,-0.1493668776168992,0.0070935701864807,1.1589150758912372,3.708075557584668,4.979594348316611,0.7129118926044326,1154.3923308376275,1153.0811936125524,1140.7301352319423,1171.2126510196845,-148.26963487357867,-352.1115725283416,-1123.5341244262258,-691.8383929769859,149.4225033863852
0.4824999999999999,0.9940282880250508,-3.1946697908679664,1.245533348154683,0.1051378777937329,0.0640122109505423,0.0452868221761431,0.0402577702740172,0.0209073221142056,-0.9887440831613872,-0.1425719726460561,-0.1127102507681096,-0.0319903502662475,9.982983078917524,-0.1482636195996025,0.0087820386391928,1.1597729895810707,3.7081779146851215,4.9793861687084995,0.7158256793510573,1154.5653877334935,1152.306434220674,1137.9655254075446,1169.278873593781,244.15092371141304,-214.78799786145808,-874.2050490374359,-714.7460209318972,149.43360428990167
0.4849999999999999,0.7911364463209694,-3.1920754354705387,1.1054075332236193,0.1078266259422182,0.0543771087031775,0.0486933990538643,0.0402704243831041,0.02073947009314,-0.988759844045962,-0.1424839143658146,-0.1112680787840221,-0.0284833480448703,9.960850679832589,-0.1471205885050013,0.0104811740626069,1.160589724404306,3.7082777097262576,4.979177316924636,0.7187418898476937,1155.6130854561843,1152.007253623245,1136.3591099867551,1167.6389209150248,551.0203259856548,-59.867736542491855,-470.2482898184367,-647.1117912461062,149.4428576761895
0.4874999999999999,0.5590690861702602,-2.9982780424730167,0.8991872803460531,0.1087595408409869,0.0454553464723092,0.0511834720263484,0.0402762981435328,0.0205750836084461,-0.9887754503920244,-0.1423980779407392,-0.1088730781203133,-0.024978554797037,9.93595723277251,-0.1459423852060675,0.0121806714586404,1.161348583146227,3.7083752353245374,4.978966537179844,0.7216605530787334,1157.3204893634215,1152.0070955379615,1135.6142839584525,1166.0433146375508,826.4023418997106,42.25517334698448,-120.99907306178454,-679.0740475488286,149.45210721721554
0.4899999999999999,0.2743968677157521,-2.5883577602467205,0.6115345032275188,0.1087063011162039,0.0365212558750114,0.0531959605662923,0.0402783634870746,0.0204156048971211,-0.9887905934966827,-0.1423155566589205,-0.105649731248617,-0.0215298118780274,9.908280649028992,-0.1447309387962132,0.0138763665109662,1.1620335483541204,3.708469128161592,4.9787515136975165,0.7245834998563829,1159.745097165683,1152.21852948998,1135.7541146214462,1164.2435506772808,893.3732918308115,88.66580757676267,205.59413256287357,-637.9641519882165,149.46319545006563
0.4924999999999999,0.0401445981163906,-2.147089455956068,0.3646910660641871,0.1085719017543548,0.0309175250758672,0.0540840578579832,0.0402813914693889,0.0202634166169388,-0.9888049123436344,-0.1422371785415808,-0.1017705202768505,-0.0182175471347342,9.877847834216114,-0.1434923983633269,0.0155605520794236,1.1626288165517422,3.708558607063816,4.978531512133785,0.7275118972992158,1161.7873558225758,1152.4504245758455,1136.6422546212668,1162.8534938776097,756.3431191383637,74.23838043878268,465.084280180508,-537.6089911319009,149.47242188073713
0.4949999999999999,-0.1945107137889762,-1.665183447696565,0.1382460898933448,0.108975910058028,0.0272750363817826,0.0543335782960806,0.0402894460117244,0.0201210574599593,-0.9888183755743338,-0.1421616692162546,-0.0974050716427622,-0.0151256669050408,9.844733653683663,-0.1422316096476482,0.0172252589812604,1.1631200248471136,3.7086443216252407,4.978306849123755,0.7304456031014511,1163.526812761375,1152.589721392174,1138.0795360223487,1161.555505721621,603.8479150146026,19.06279614399862,612.2196804847584,-510.47816708783057,149.48162929490397
0.4974999999999999,-0.4324620837769493,-1.1910929846660876,-0.0544539237086034,0.1095717456235501,0.025032900102011,0.0540895632511797,0.0403044352200826,0.0199874432462677,-0.9888309345088482,-0.1420890075545088,-0.0927016346475989,-0.012261818230214,9.809057868860112,-0.1409504745824884,0.0188711181617719,1.1634949562761907,3.708726804589876,4.978078278135231,0.733382733777944,1164.8065953976488,1152.5457385565655,1139.7033530236906,1160.3011030421703,362.4923331100032,-84.01807877617094,623.3869324770689,-500.5609647563683,149.49081770265497
0.5,-0.6636601800750725,-0.7610910531590644,-0.1914780518295587,0.1092738690907871,0.0238133898743793,0.0530637705758539,0.0403282103099344,0.0198589071789095,-0.9888423055491388,-0.1420211946395722,-0.0878226507737044,-0.0095836799058664,9.770980441040896,-0.1396527429172318,0.0205043948832487,1.1637434819262131,3.7088056362010895,4.977846434968454,0.7363206209857333,1165.3392744269247,1152.169630998293,1141.196470684734,1159.0527008978395,29.8563227164319,-264.8006788865555,545.65387635211,-561.3011554102674,149.49997941362037
0.5025,-0.8969419947800604,-0.3189273127588725,-0.2830217858690364,0.1068903552482533,0.0228620795544308,0.0513344014771317,0.0403615907864328,0.0197325127734416,-0.9888525051141748,-0.1419583322234409,-0.08291116140883,-0.0070622132730095,9.730697587489447,-0.1383404766304437,0.0221305808462425,1.1638583058585843,3.7088802449479896,4.977612393898227,0.7392554651790981,1164.9558770112308,1151.2217351621327,1142.4316224054512,1157.4945972651192,-320.2349135356596,-442.17957885557513,317.4210874600246,-591.995351041532,149.5109377808152
0.505,-1.0216743112845632,-0.0179518465239728,-0.3035050147931445,0.1035264982634179,0.022493363250436,0.0499915224097109,0.0403981852460944,0.0196055734007883,-0.9888617291309844,-0.1419012696626,-0.0779721253166758,-0.0046539169039605,9.688438459222327,-0.1370002734290333,0.023757069333729,1.1638363032686028,3.7089502648114574,4.9773773100487775,0.7421837189500861,1163.7380998592466,1149.9587331040152,1142.7835761220342,1156.0927241426318,-667.817139977978,-612.8389958238125,-26.701800938189965,-595.2527185404044,149.52003650633574
0.5075,-1.0450563427356971,0.2102549210962046,-0.2844891605648409,0.0996851480998561,0.0227325089588539,0.0491945493429804,0.0404320096206584,0.0194778284072992,-0.9888699274565034,-0.1418521136709914,-0.0730122079655038,-0.0023633133521015,9.644457870187194,-0.1356201172832541,0.0253854883501219,1.1636759124880667,3.709015629719546,4.977141234600952,0.7451048335191203,1161.616791311341,1148.1575401830137,1142.2981134007603,1154.5183336724172,-1116.055586340416,-922.2660364334834,-408.86572590488834,-747.0097327618524,149.5290965055835
0.51,-0.9479106193862717,0.3973055350513017,-0.2449921298296766,0.0953929691088969,0.0238782163166675,0.0489712030701922,0.0404610499429441,0.0193525789121076,-0.9888772629565996,-0.1418098563359884,-0.0680990331465954,-0.0002749459937775,9.599030699419764,-0.1341966132648893,0.0270086296872101,1.1633754589539171,3.7090756928280513,4.976903748853288,0.7480203560400485,1158.1578219275443,1145.3474029218476,1140.7392474925095,1152.3576754788223,-1391.1125451518567,-1137.8354617904067,-718.5029513054968,-846.6835407994221,149.5399187520995
0.5124999999999998,-0.7747122256052595,0.4801907903774235,-0.2167443787836085,0.0926110295294186,0.0254361071811386,0.0490955639194204,0.0404857000173104,0.0192314880847905,-0.9888843196778888,-0.1417700879910093,-0.0633411803046742,0.001551020836873,9.552447183466718,-0.1327328251566766,0.0286229357033234,1.1629323463434196,3.709130151675512,4.976664823712213,0.7509321849022312,1154.661228585582,1142.4683628740615,1138.7055986442329,1150.28491596842,-1483.32962434706,-1254.9466354078036,-930.7399955831888,-893.5909485382574,149.5488921029383
0.515,-0.5359276524835431,0.4925046481707652,-0.2059478328564235,0.0909851674379373,0.0271100874959701,0.0491819122989532,0.0405083804383755,0.019114207523571,-0.9888915575962473,-0.1417289617327729,-0.0588806165837395,0.0030881514026026,9.505008480718248,-0.1312377240783081,0.0302286840937497,1.1623425757714767,3.7091788593958657,4.97642503244333,0.7538428010799808,1150.7411738058092,1139.0726697448088,1136.0855475145938,1147.8897207361313,-1768.4408970060742,-1592.753694191195,-1232.9484204168682,-1131.8067272675298,149.55781395164647
0.5174999999999998,-0.2167708756339849,0.442227327192843,-0.214477796898479,0.0903269308305674,0.0287205087786855,0.0489773298224797,0.0405350217526357,0.0190009878013411,-0.9888991535369918,-0.1416835200128079,-0.0549105674293815,0.0042904232153408,9.457022165468675,-0.129728565604839,0.0318233309197794,1.1616005377968248,3.7092215259205346,4.976184268302829,0.7567563854894491,1145.8190241005516,1134.5045944031056,1132.5408565421485,1144.6258823320825,-1801.1403544225216,-1734.9780772124616,-1322.5415256510576,-1259.0867585655349,149.56845505282288
0.52,0.0467933891450828,0.3631818713930347,-0.2339925267821499,0.0907015989738155,0.0296130515690141,0.0484547603357796,0.0405675192769662,0.0188919807275101,-0.9889071664311304,-0.1416327899739018,-0.0515341240829011,0.0051266717549458,9.408799175764162,-0.1282136799428014,0.0334053087159469,1.160701280338789,3.7092583070060794,4.975941776407739,0.7596747053512165,1141.7354720336966,1130.3977793587464,1129.4728398863383,1141.5942869433036,-1585.1279800934649,-1671.8808956649339,-1204.1355494470267,-1267.171175353086,149.57726411162432
0.5224999999999999,0.280750288957081,0.2669981103178444,-0.2570599741787339,0.0917886834537655,0.0300904875038776,0.0475952994105047,0.0406038738958268,0.0187855824123147,-0.9889155313045002,-0.1415780096952198,-0.0487721435225415,0.0056108948196614,9.36064808491087,-0.1266932595472118,0.0349777140362786,1.1596411270399365,3.7092896302978113,4.975696439856464,0.7625966232050948,1137.8933842000843,1126.145189924781,1126.5201787949131,1138.290026455317,-1469.3803349357936,-1695.9983900329444,-1137.537434947261,-1353.7566312662864,149.58600706969915
0.525,0.477896599382126,0.1705525839279526,-0.2775603391516893,0.0932507784734364,0.0303143259854988,0.0466348528275199,0.0406444148543189,0.018677613600954,-0.988924308982468,-0.1415192141071463,-0.0466793607036783,0.0057983295938004,9.31286768011806,-0.1251734500709338,0.0365487792874152,1.1584170839105177,3.7093153337439135,4.975447060802887,0.7655204659010266,1134.3885703590176,1121.9177874085815,1123.7851527116022,1134.825503786972,-1299.2868224574963,-1645.0707710010631,-1029.1179492822712,-1402.4513162602022,149.5946909866891
0.5274999999999999,0.625318121887152,0.0863064170691041,-0.2926746034226194,0.0950307069024333,0.0303357166426911,0.0459749623173302,0.0406888204835014,0.01856411218651,-0.988933734997898,-0.1414553807714081,-0.0452810645740907,0.0057411582705265,9.265741716867522,-0.123658577017606,0.0381265533327348,1.1570287639382175,3.7093355073659406,4.975193256296346,0.7684443225393459,1131.3969500877968,1117.9198360697756,1121.374589048502,1131.277769874016,-1189.0642989295416,-1653.7063320521142,-989.9221959880368,-1545.5679357772156,149.60329828210308
0.53,0.7476256048725352,0.0098062750873613,-0.3041928949629223,0.0973925281649955,0.0302158043052661,0.0456198038495429,0.0407312490975653,0.0184444475843428,-0.9889439881127768,-0.1413870189677965,-0.0444781004531295,0.0054457280732048,9.219533709210632,-0.1221393546170119,0.0397132195465272,1.1554805172658023,3.709350833654825,4.974936071222779,0.771364693960276,1128.44324886437,1113.6492557483211,1118.835541731662,1127.097664108086,-984.3645501222899,-1444.6709910871944,-885.8139822500098,-1491.283700756729,149.613531002498
0.5324999999999999,0.8116196628248762,-0.0292109320945345,-0.3048110642240262,0.0993159054405538,0.030023457273087,0.0453086354743807,0.0407701520915334,0.0183163524293277,-0.9889548519488,-0.1413163633813964,-0.0442413803866223,0.0049384712486491,9.174477415827896,-0.120617065519889,0.0413136087389365,1.1537788976949033,3.7093614430837984,4.974677439126745,0.774277866523481,1126.4751273371853,1110.6964811143398,1116.945519137252,1123.8213513702324,-706.5716387063269,-1028.0903327312435,-731.8778620703134,-1232.5267207430886,149.62197245503114
0.535,0.8485362254605284,-0.040691912826011,-0.2850738584948222,0.101051788839914,0.029741125448885,0.0444202797034928,0.0408064060136509,0.018178894288725,-0.9889660957921612,-0.1412448776762805,-0.044567915312122,0.0042154858058,9.130771448141136,-0.1190979132926965,0.0429294762675495,1.1519333605975568,3.709367413498224,4.974419367626102,0.7771816348627024,1124.9103906708383,1108.5088040846647,1115.1761524213105,1120.9350305043706,-629.2413907728582,-775.1550702172145,-777.4229984238439,-1144.4159761269011,149.6303174846603
0.5374999999999999,0.8737928731970828,-0.024380624490393,-0.2229663072722045,0.1028821374581224,0.0293044745820718,0.0424153415227171,0.0408385904522229,0.0180326483825001,-0.9889771977045572,-0.1411765321835236,-0.0453974243053672,0.0032540097417197,9.08857484232139,-0.1175825076865319,0.0445599940627165,1.1499568185625815,3.709368814267628,4.974163148202849,0.7800751036562716,1123.328920383321,1106.8207057632535,1113.0584041451327,1118.0992714895979,-555.7843551508081,-469.5938403198848,-791.2640174202346,-918.149010901424,149.6402111156622
0.54,0.8824206660374652,0.0096655073683967,-0.1371809366542537,0.104259866318576,0.0288966584010251,0.0403959114295592,0.0408668901616298,0.0178796779839216,-0.9889879978134886,-0.1411121095541988,-0.0466818937241735,0.0020009768450155,9.04800199993332,-0.1160737840076919,0.0462010406031245,1.1478640807213936,3.709366119378827,4.97390871815723,0.7829576615937973,1122.1314688950843,1106.1608348830655,1111.2198323342093,1116.3442854498635,-480.1722622399661,-131.42377286289943,-761.8989842231251,-572.25859032992,149.64834901989727
0.5424999999999999,0.8718248453861126,0.0538660340441701,-0.0357099312282952,0.1058212210850383,0.0285788967155747,0.0392467571054834,0.0408927037101143,0.017721085076557,-0.988998194100654,-0.1410531731673928,-0.0483882372670998,0.0004208080757185,9.009119680094846,-0.1145772111940618,0.0478498514744065,1.145670812553356,3.709359332124499,4.97365466346304,0.7858291561640863,1120.9280590721212,1106.1635868989392,1109.248909224017,1115.2379785379483,-553.8306376213309,116.45141779085851,-900.3589271277169,-358.3867883120544,149.6563686478978
0.545,0.8165998707385796,0.0976244193794904,0.0552219857893799,0.1083977300643807,0.0285977598927363,0.0399163752965323,0.0409196815944761,0.0175594340186053,-0.9890073226323788,-0.1410015964967418,-0.0505119823279634,-0.001549985949553,8.971946055979101,-0.1131021276877119,0.0494988615835264,1.1433928003832803,3.709348696421269,4.973398957744293,0.7886894921007013,1119.3623157069776,1106.7430919720196,1106.7180376985707,1114.5523515083032,-606.009430477115,277.02058743302564,-951.6398294425464,-175.52235229504717,149.66584714443263
0.5474999999999999,0.717497380068452,0.107016754014783,0.0666669467260091,0.1111570752641782,0.0290274989826026,0.0419705998945341,0.0409501676310413,0.0174005868804843,-0.9890154330591308,-0.1409556219632574,-0.0530092397917852,-0.0040263515072086,8.93645257230232,-0.1116523960710154,0.0511331240062101,1.141046196132398,3.709334810371839,4.973139941750168,0.7915383854695878,1117.8980119197356,1107.5486898361044,1104.4907100768044,1114.360366776473,-627.0609335602779,350.3882899692141,-906.6749885317214,-45.49916168725753,149.6736191130807
0.55,0.5509361079844515,0.065372812063464,-0.0143404253617862,0.1137946889352696,0.0296526091303499,0.0442687612722539,0.040985473037186,0.0172490450253099,-0.9890230011333891,-0.1409109836603159,-0.0558168324737495,-0.0070906254293283,8.902565937236185,-0.1102287084878357,0.0527407281022138,1.1386460219853884,3.7093176744607352,4.9728769407969855,0.7943756801026692,1116.2270110391762,1108.4950334218659,1102.184662755912,1114.3248556998667,-704.8952588147124,373.3977431569198,-928.2596734376958,-24.40084524660049,149.68125262015155
0.5524999999999999,0.3318742510734328,-0.032172211685285,-0.1655394224955374,0.1157766232454292,0.0302588542696598,0.0457126065834838,0.0410240153056061,0.0171081240482331,-0.9890305841424084,-0.1408638427762491,-0.0588231885895764,-0.0107892269731496,8.870172980518273,-0.1088249357782652,0.0543127835713544,1.1362056857863672,3.7092975252800446,4.972610850629837,0.7972021341272381,1114.373535625662,1109.4156785518887,1099.8494117096159,1114.23836255024,-784.1086062003789,329.6450847722551,-934.0891761859884,-83.64830479986259,149.6887662768684
