t,ang_acc_x,ang_acc_y,ang_acc_z,a_vel_x,a_vel_y,a_vel_z,quat_x,quat_y,quat_z,quat_w,acc_x,acc_y,acc_z,l_vel_x,l_vel_y,l_vel_z,pos_x,pos_y,pos_z,mot_1,mot_2,mot_3,mot_4,dmot_1,dmot_2,dmot_3,dmot_4,vbat
131.5625,-1.8481780290810477,-0.9813169029110008,-0.2628687512509776,0.00023709089069,0.0026451920611305,0.0209179238988079,-0.0034755609717666,0.0017975050640945,0.7082941973475735,0.7059059090414085,-0.00630317482529,3.596680993371744e-05,9.851619835578836,0.006530609219416,0.0023342545223312,-0.007764756654123,-2.6897796420322795,1.5365277086073024,3.1853955250989294,1118.9522260003685,1091.7331848188403,1080.1243906995956,1122.952663164897,311.2922933923176,219.25678116765016,133.50962702782772,-324.3086009267011,150.1302875343684
131.565,-1.8493862548155444,-0.88932213856527,-0.5512896225626661,-0.0054190369725046,0.0008928306075387,0.0200696063679459,-0.0034621449917787,0.0017916625183668,0.7083199563747276,0.7058801205435002,-0.0068854863370848,0.00046798720093,9.851463078939588,0.0065723984042522,0.0024301689625451,-0.007686521843731,-2.6897849405878222,1.5365409750371497,3.1853738538483176,1119.7700310754583,1092.1864526110544,1080.574583124746,1122.160580758874,373.0743528502199,114.86379964304876,245.5034003396536,-327.9345736345276,150.13096544618188
131.5675,-1.744634958261636,-0.7652897859401397,-0.8426927582135744,-0.0119165962175353,-0.0011686563677389,0.0179607936811731,-0.0034467447242624,0.0017772072045803,0.7083383446891113,0.7058617574692883,-0.0074785330665182,0.0005276328628765,9.851351149975926,0.0066193647627745,0.0025288851633966,-0.0076029633738557,-2.689791681491547,1.53655387512596,3.1853509695548774,1120.8175977646179,1092.307503817055,1081.3519077012927,1121.312990296726,385.95785880328174,-44.165238364798064,320.8442463278251,-284.81295785976255,150.13168590071177
131.57,-1.5842738953724271,-0.6518737046992671,-1.0166150106564142,-0.0162682087918282,-0.0029798922362431,0.0151691177604349,-0.0034404449360881,0.0017591444688157,0.7083511674920066,0.7058489424764797,-0.0083099472870654,0.0001291692107691,9.851262433205594,0.0066715516676601,0.0026274544676994,-0.0075122684238004,-2.689799318655828,1.5365655968912615,3.185327380941876,1121.6998203694732,1091.9656264192306,1082.1788043563838,1120.7365159695764,338.3814189500648,-228.83251352384727,365.78209196115114,-192.04016621537636,150.132209230189
131.5725,-1.3788888307063183,-0.5283941640697714,-1.0968945895547269,-0.0193233476213793,-0.0048941942382775,0.0114304761914716,-0.0034446712538209,0.0017373648217268,0.7083611014168434,0.7058389827737017,-0.0093978231992111,-0.0007407622203014,9.85117399258403,0.0067282153556203,0.002722978742473,-0.0074134080750369,-2.689806935882592,1.53657693816861,3.185303379403912,1122.5095048593666,1091.1633412494368,1083.1808181610968,1120.35278946565,297.6749813842595,-379.891913243482,429.64798109931473,-112.00779959027568,150.13265374078617
131.575,-1.1592110285810475,-0.400506535461864,-1.093782411691796,-0.0215790188592059,-0.0066152913855477,0.0074397737067941,-0.0034548155343295,0.0017122463114336,0.70836957927854,0.705830468892173,-0.0106780797417845,-0.0019957257958541,9.851062040147674,0.0067877971329312,0.0028126721433973,-0.0073061756304464,-2.6898147467416718,1.5365889503824643,3.1852804963364103,1123.1881952763931,1090.0661668530147,1084.3270442618784,1120.1764769716256,224.23803424537505,-471.7926819234645,493.6213677997862,-9.596082755842527,150.1330340286414
131.5775,-0.9408367217202114,-0.2803408328938912,-1.002477753489805,-0.0233022257941669,-0.0074488395076274,0.0040454602558907,-0.0034649002653685,0.0016853783655617,0.7083774871945134,0.7058225445379764,-0.0120785537549599,-0.0035047288290868,9.850902784675197,0.0068479824343,0.0028938907084521,-0.0071910979315015,-2.6898234466517006,1.5366020878912352,3.1852598241013856,1123.6306950305989,1088.8043778398082,1085.6489250001075,1120.3048090518705,125.68868234910964,-533.6981506348349,622.3715923873738,135.7292568799834,150.1333385056271
131.58,-0.6891412448777773,-0.1673371937097463,-0.8284232061893554,-0.0250690457261751,-0.0070527128133653,0.0011565286615075,-0.0034796438386286,0.0016543443958671,0.708380955355599,0.7058190793774544,-0.0136139910289989,-0.0053340335616728,9.850672806963678,0.0069058366189605,0.002964435924084,-0.0070691037778488,-2.689832992780876,1.5366163844702008,3.185240877440949,1123.8166386881417,1087.397676099828,1087.43890222383,1120.8551232560287,5.0727777571911,-456.66416167815134,689.597213284687,267.0796186623348,150.13361866500173
131.5825,-0.4858749447622489,-0.1095321993540055,-0.6647792761395522,-0.0262896058723858,-0.0061904608154932,-0.000343600787555,-0.0034984256210419,0.0016163163865027,0.7083766086011369,0.7058234748792928,-0.0152116812091818,-0.0074747207745653,9.850351666224151,0.0069578713823323,0.0030223485785631,-0.0069414712807119,-2.6898437246717966,1.536632333322945,3.18522359692501,1123.6560589193848,1086.5210570314196,1089.0969110665278,1121.6402071451807,-132.09731307141018,-254.3576786762554,694.5132569057881,369.13315374828846,150.13378312405123
131.585,-0.2812164273085041,-0.0846211926100506,-0.5229647512879143,-0.0272077768327291,-0.0058881882800566,-0.0011875391873637,-0.0035112612489433,0.0015722633730306,0.7083662311171722,0.7058339789416426,-0.0167138285143887,-0.0097289013482677,9.84992327792377,0.0070003032117118,0.0030658710853407,-0.0068096558355025,-2.689855698249796,1.5366509867740188,3.1852068319562075,1123.1561521227852,1086.1258877064479,1090.911468508356,1122.7007890247685,-298.3582663089677,-49.722408995967015,824.1602255091258,500.2299911157481,150.1338786172444
131.5875,-0.0227388352184306,-0.0693658877022143,-0.4167887978025403,-0.0278798713555317,-0.0066507929203427,-0.0017373463717899,-0.0035179524918409,0.0015242647813219,0.7083492752784368,0.7058511244172286,-0.0181079226354706,-0.0120157688049401,9.849374781146704,0.0070294694228136,0.0030939640511469,-0.0066749222623929,-2.6898683166917126,1.5366725887944934,3.185189635830834,1122.164267587841,1086.27244498644,1093.2177121940697,1124.1413571007574,-427.70584520092393,146.94678931223,852.5849023529668,526.7055231198599,150.13391690703995
131.59,0.210031329032609,-0.0513431459655323,-0.4014756045493788,-0.0279451718143474,-0.0078946459102296,-0.0018927716530965,-0.0035221790727056,0.0014716121363112,0.7083251674777512,0.70587546260222,-0.0193910654978,-0.0143453911015027,9.848698116536339,0.0070421490995381,0.0031063515798263,-0.0065384752646232,-2.6898806582855026,1.536696471678453,3.185171694159009,1121.0176228967823,1086.8606216530084,1095.174393020117,1125.3343166403652,-519.9873760409173,301.9447725133449,763.2253405460808,438.33993463084727,150.1338879566856
131.5925,0.4648452934101333,-0.01997526296337,-0.4734078081887936,-0.0274983495134667,-0.0088644559532204,-0.0016400896003426,-0.0035291317943769,0.0014171941740275,0.7082958893663712,0.7059049710409387,-0.0206273056342359,-0.0166982339381864,9.847890376991188,0.0070360047255145,0.0031033997209101,-0.0064015855630795,-2.689892094228294,1.5367218035099948,3.18515311122486,1119.564330707639,1087.7821688490053,1097.0338388967966,1126.3330567739097,-695.1690910848312,437.6717513196015,754.1837600016189,359.5713162741591,150.1337992970609
131.595,0.7938070726678378,0.0213568902741924,-0.6512419329300536,-0.0265391898599626,-0.0093794645124897,-0.0011624163669942,-0.0035375902574969,0.0013659093233282,0.7082632210797545,0.70593786033783,-0.021816968634724,-0.0189392882690153,9.846955498620584,0.0070097556840373,0.0030860350549658,-0.0062658628018552,-2.689902828859571,1.536748001287102,3.1851344213800314,1117.5417774413615,1089.0489804096044,1098.9453118201216,1127.1321732217343,-768.9526762672986,461.19203531685446,613.2135647364187,213.2893394500236,150.1336278869073
131.5975,1.0779590915604884,0.0410817087927749,-0.8475067075623078,-0.0251733431405939,-0.0093974260304039,-0.0015634315587034,-0.0035376323077366,0.0013211370570946,0.7082281238558953,0.7059732048939328,-0.0228179476937833,-0.0208373111976734,9.845905260962537,0.0069633046704452,0.0030556601282793,-0.0061334160615553,-2.6899127868039168,1.5367739359615964,3.1851158752705664,1115.719567326306,1090.0881290255875,1100.099906720476,1127.3995034711588,-727.2349247725534,388.13934912076377,331.88099728916484,27.71660197506909,150.13343367148767
131.6,1.3486955021594151,0.0201208189994826,-1.034374813712874,-0.0225573212045305,-0.0086399388852224,-0.0039479653296583,-0.0035264619880046,0.0012825913961543,0.7081913962746694,0.7060102132246651,-0.023539104926689,-0.0223163296934801,9.844757142391993,0.0068979157980292,0.0030141883088563,-0.0060066701699038,-2.689921931669404,1.536798295715491,3.185099305354622,1113.905602817502,1090.9896771552064,1100.6047168065659,1127.2707562316095,-700.6248468794189,331.0762970582628,73.07485463640941,-101.12751777424012,150.13318933070008
131.6025,1.5830536114671592,-0.0504438058842877,-1.1603843263402576,-0.0186810800002534,-0.0072880799863235,-0.0080201089139926,-0.0035068436484637,0.0012492902210286,0.7081567291375093,0.7060451684296648,-0.0239621716072425,-0.0233933875106045,9.843533887230594,0.006816118842306,0.0029638276411199,-0.0058882480971631,-2.689930356602399,1.5368198393949934,3.1850859960641196,1112.216443091912,1091.7435105108773,1100.4652809936576,1126.893865882288,-622.2430773033668,269.12184975055345,-218.97310234491573,-181.2136491846388,150.13290569893215
131.605,1.7439104339941576,-0.1845223425424116,-1.1607983942184827,-0.0135417179478792,-0.0062175756232945,-0.0129433619453858,-0.0034839792324956,0.0012218545492428,0.7081280261341956,0.7060741274118832,-0.0241321877757059,-0.0241044887994041,9.842263139884908,0.0067213751849436,0.0029069828761612,-0.0057806856988084,-2.689938009707991,1.5368389925770287,3.185075030864832,1110.794387430988,1092.335286403958,1099.5098512948423,1126.3646879856872,-546.0675612308324,234.1656108011381,-591.6682682188309,-227.9877555763988,150.1325773049451
131.6075,1.8298699490896269,-0.3970946770651849,-0.9847927662805344,-0.0067432968541525,-0.0063995745225882,-0.0182994305114111,-0.0034613584554103,0.0012000165578846,0.7081062010336179,0.706096157425748,-0.024066634630878,-0.0244829277621004,9.840977273585299,0.0066176400074329,0.0028462067120014,-0.0056861376950024,-2.689944975886504,1.5368562953665468,3.1850660860085487,1109.4861052857448,1092.9143385648883,1097.5069396525491,1125.7539271044006,-409.4413336998063,198.56056029417007,-845.5575538787442,-194.98538805776323,150.13213469360983
131.61,1.8141734120327957,-0.5882060508110041,-0.6964684120245792,-0.0015116870858021,-0.0079560619422283,-0.0217344508349095,-0.0034396294869261,0.0011864335291757,0.7080915903981903,0.7061109147696694,-0.0237941804828464,-0.0244906939842579,9.839712005449758,0.0065091121409511,0.0027840295084605,-0.0056060705355831,-2.68995184883311,1.5368722954978755,3.1850585948616033,1108.7471807624793,1093.3280892054336,1095.2820635254284,1125.389761045394,-225.30029271413267,155.68587539383378,-951.552266151431,-95.76850950365566,150.1317276224266
131.6125,1.729128168677863,-0.7581573022537702,-0.294871696122133,0.0024519990033435,-0.0105614472360397,-0.0237118486002825,-0.003422751568747,0.0011843129741276,0.708083081771296,0.7061194939506737,-0.0234082476893786,-0.0241374525160684,9.838503977658336,0.0064000510850488,0.0027230060598104,-0.0055409640402683,-2.689958700695804,1.536887556085394,3.185051958979616,1108.3596038221751,1093.692767941857,1092.7491783217963,1125.2750845568828,-94.6053965862071,145.2168193242371,-1116.7039192138116,14.857701007726844,150.13128337701383
131.615,1.5781467008686139,-0.9108009731927018,0.255550732950271,0.0061293876338661,-0.0141201640893413,-0.0239030529163368,-0.0034105375530124,0.001193780169119,0.7080802077428207,0.7061223692031816,-0.0229130852158633,-0.0234271882399452,9.837390371915252,0.0062945747932233,0.0026656441900148,-0.0054902834627522,-2.6899649109934543,1.536901537997784,3.1850453872085756,1108.2741537795487,1094.054173302054,1089.6985439293644,1125.4640495504325,30.86916054469918,111.8023919242767,-1076.515166008518,118.89844055992297,150.13071003392847
131.6175,1.4262219071763427,-0.9894836821501944,0.7192642890554923,0.009021352569507,-0.01708121495233,-0.0221229000025121,-0.003394021529233,0.0012102033544793,0.7080842490323721,0.706118310159759,-0.0221359325677287,-0.0223167038083811,9.83640788005181,0.0061964956695488,0.0026143266361919,-0.0054525044156401,-2.689969837847724,1.5369139864614996,3.1850374976868583,1108.5139496248987,1094.251779901478,1087.3666024917588,1125.8695767596819,164.5363704152392,44.67796748871904,-854.6612765304914,197.45366536103344,150.1302005815928
131.62,1.2511896782246783,-1.0249605613547543,1.1310678978894664,0.0119541988185701,-0.0198709059670448,-0.0186928636879887,-0.0033660433547026,0.001229625405719,0.7080946772908712,0.7061078930112125,-0.0209491668829049,-0.0207868411231395,9.835588967085936,0.0061092479934123,0.0025712982540607,-0.0054250673754486,-2.689973757316197,1.5369249013693396,3.185027336839626,1109.096835631624,1094.2775631394975,1085.4252375467158,1126.4513178772368,344.20362831614887,-43.458678054588255,-751.0297421711593,269.0914727518876,150.1296603602034
131.6225,1.0089424412015282,-1.0373714257376507,1.5184961729091828,0.015097498412538,-0.0227548420226653,-0.0134210689246724,-0.0033235640531215,0.0012496806028782,0.7081072475301189,0.7060953965130634,-0.0193141007072546,-0.0188611650481459,9.834960041420196,0.0060357040950623,0.0025385659622777,-0.0054046382216347,-2.689977385104888,1.536934493369468,3.1850141743318865,1110.234967766478,1094.0344865112052,1083.6114537809065,1127.21503412344,494.56218264571777,-142.9927674878336,-585.0880591448778,268.8380264732303,150.12897878972723
131.625,0.7738882260588694,-1.0393181231640916,1.7352567565484032,0.0174342552724207,-0.0246121782433949,-0.0086189244372108,-0.0032652200998542,0.0012621016659955,0.7081203645552726,0.7060824417008018,-0.0171416092889191,-0.0166743855353786,9.834541336729838,0.005977980804042,0.0025177447991494,-0.005387592632591,-2.689981055773045,1.5369446136083167,3.184997975561447,1111.5696465448505,1093.5625993020587,1082.499797250994,1127.7955080096017,610.8416713305459,-247.7564840478842,-379.9104444529166,196.54793628137355,150.12838460475737
131.6275,0.4977539835228667,-1.0468302834869379,1.839501064754682,0.0196386836030848,-0.0260585642056922,-0.0039688592659979,-0.003197277605903,0.0012643629181079,0.7081338772756584,0.7060691541441018,-0.0145348923292664,-0.0143917006580518,9.834344883597502,0.0059375370572889,0.0025100233947454,-0.0053703468115532,-2.689984850670492,1.536955752504385,3.1849798028418848,1113.2891761231278,1092.7957040909669,1081.7119015586436,1128.197773804846,740.3288150742721,-351.506246886403,-277.79085044546974,117.91762030595048,150.12776493000683
131.63,0.1878897411873662,-1.0595258321947916,1.857295296081052,0.0213825675750399,-0.0276755242965635,0.0003807262990647,-0.0031280061828806,0.0012571207708619,0.7081448661788725,0.7060584261461813,-0.0116734231445166,-0.0121652986562218,9.83437558941495,0.0059151992098366,0.0025162272160335,-0.0053498298369323,-2.689988542910092,1.5369676964955503,3.1849602522641485,1115.2712906202185,1091.8050680676283,1081.110842998768,1128.385096111131,830.7604094466394,-437.1135023946746,-211.79792201115723,14.12471051031764,150.12712530553563
131.6325,-0.1502462323545808,-1.0647428490717659,1.7815487350476615,0.0219695115477745,-0.0299378351751238,0.0045742069013586,-0.0030707388436811,0.0012410708968678,0.7081513040268689,0.706052238293062,-0.0088099594765339,-0.0102186304233268,9.83463156296803,0.0059113240998873,0.002536802305728,-0.0053237182059132,-2.6899917389615884,1.5369793479808167,3.1849411217759305,1117.4429781703573,1090.6101365789955,1080.6529119485888,1128.2683973573976,954.4941738019174,-547.9987433275692,-178.6864542505361,-124.62383820245545,150.1264630116532
131.635,-0.5587740139535275,-1.0340837966353795,1.5941737211785896,0.0211126536973922,-0.0332283317562383,0.0095896867165584,-0.0030341177793439,0.0012210988005731,0.7081548693805991,0.7060488626481121,-0.0061902097192162,-0.0086513110130556,9.835105740149489,0.0059258128974252,0.0025716173058486,-0.0052905998203575,-2.6899944815822447,1.5369896779903283,3.184923845980956,1120.0437614892237,1089.0650743509932,1080.217410727516,1127.7619769201192,915.528973971564,-563.4616672565821,-137.56990002465278,-244.31303708442493,150.12564404141622
131.6375,-0.8747354413341744,-0.9568975172942272,1.3661348395097892,0.0191968784223585,-0.0360944855771983,0.0134926564747006,-0.003009965635576,0.0011984064945635,0.7081580494490602,0.7060458247250408,-0.0037723069863379,-0.0073790562400946,9.83578827348839,0.0059578428475234,0.0026199104713559,-0.0052500190829487,-2.6899972531003904,1.5369997205224593,3.184907881282353,1122.0206230402107,1087.7928282427151,1079.965062448466,1127.0468321719763,709.752288217054,-479.8229311043824,-62.707318106204895,-340.60411346437087,150.1249430820153
131.64,-1.1343807076938244,-0.8073885376633878,1.0776595605520265,0.0161448229199827,-0.0389316991680224,0.0166752406429406,-0.0029917641373885,0.0011726769261813,0.7081625281148408,0.7060414564200279,-0.0015121513836507,-0.0063586720421161,9.836664982216783,0.0060058980739606,0.0026803996479974,-0.0052020339340972,-2.690000698824676,1.5370097671614609,3.1848932027262085,1123.592522930326,1086.6659596954598,1079.9038741369836,1126.0589563527892,566.1554151470933,-437.3724209176124,41.1298002375898,-487.39229434772017,150.12422526673964
131.6425,-1.3542289628540582,-0.5358067012379095,0.6846648715012729,0.0114528689182637,-0.0423556355024832,0.0193461534610017,-0.0029772960570241,0.0011440452040908,0.7081705219565007,0.7060335431609749,0.0005742923839348,-0.0055956668594086,9.837717920622536,0.0060677622474425,0.0027512971571233,-0.0051469718535012,-2.690005155903908,1.5370196182475393,3.184880551111181,1124.85140011596,1085.6059661381166,1080.170711449655,1124.6098707002263,351.5107850117615,-328.87225812358236,168.223519932206,-565.1621292477695,150.12334749435814
131.645,-1.452585200493849,-0.2405275365204507,0.337843456539124,0.0070969775016827,-0.0446065047608473,0.020607347111711,-0.0029680042287491,0.0011096563774242,0.7081807104575568,0.7060234135647047,0.0024693866989878,-0.0051822881240442,9.838926512751184,0.0061404326555144,0.002830497167545,-0.0050852091027771,-2.6900105763938007,1.5370304389416667,3.1848700846672604,1125.3500768553831,1085.0215984048434,1080.744991736644,1123.2331457065527,102.64916328015047,-169.35876499630407,307.14917419732694,-568.5363583181866,150.12260487266678
131.6475,-1.4691017251637435,0.0958323245636007,-0.0045578167502726,0.0029505075124018,-0.0452577251455116,0.0209795146750835,-0.0029625369151751,0.0010683586193507,0.7081894918620416,0.7060146941047493,0.004179849668804,-0.0051412396387965,9.840268573330388,0.0062201630821608,0.0029155925757641,-0.0050169418584274,-2.690016660226643,1.5370431173739967,3.1848608883498937,1125.36464593236,1084.7591723131359,1081.7064573206403,1121.767188908638,-60.30320651262655,-51.62219200938273,499.6094133748553,-637.4791397577042,150.12185399804355
131.65,-1.419005286030823,0.4929635048439639,-0.3817255189242851,-0.0012082185854647,-0.0437856077943508,0.0204571077394269,-0.0029498178557399,0.001017454427046,0.708192084886671,0.7060122279325209,0.0058794105593489,-0.0053737333979013,9.841721617652883,0.0063025912337279,0.0030039294648663,-0.0049420773532414,-2.690023301878244,1.5370588338151896,3.184850917651904,1125.0485608228203,1084.7634874447967,1083.243038803516,1120.0457500077673,-130.5545600842202,40.48631014096871,608.502350437137,-600.353068717914,150.12094765120435
131.6525,-1.341693002004531,0.7792408151027396,-0.6467282915454706,-0.0039565665339124,-0.0409511667679121,0.0191605344809692,-0.0029287594050953,0.0009590207630282,0.7081860577441159,0.7060184504663085,0.007546636098813,-0.0058445936454847,9.843261306646927,0.006383297353953,0.0030927102908775,-0.004859941764388,-2.69003085711082,1.5370778251344888,3.184838947595065,1124.7118731319397,1084.9616038638403,1084.7489690728232,1118.7654235650512,-105.23285490885904,98.84026153076668,623.1539923563315,-450.7961438181617,150.12019131019045
131.655,-1.2499995511901412,0.9881163579359382,-0.8358375045940842,-0.0063496540993445,-0.0373280197719083,0.0168550878431768,-0.002901744605,0.0008998820601202,0.7081725730124176,0.7060321743414296,0.0090558330939393,-0.006491910628463,9.844862729113217,0.006458202354276,0.003179009407973,-0.0047695738177082,-2.690039836935884,1.537099203167302,3.184824963097071,1124.5223965482764,1085.25768875245,1086.3588087652947,1117.7917692886783,-29.95935864953932,119.6648272474428,644.673503601775,-320.98680708038137,150.11943820787735
131.6575,-1.1555502127380912,1.1272965189636432,-0.9470378047608844,-0.0086462822579028,-0.0337427727000723,0.0137178621420695,-0.0028695830938243,0.0008437561950534,0.7081548591678936,0.7060501572704359,0.0103557025339013,-0.0072667620620429,9.846501866724797,0.0065238645630234,0.0032599591343032,-0.0046701459620051,-2.6900501568024495,1.5371219753210474,3.184809583294218,1124.562076338692,1085.5599280000772,1087.9723365908292,1117.1604895296507,75.42433599840062,109.2374126856241,636.033999774314,-159.10533404304175,150.11869126621127
131.66,-1.0593204397799403,1.1951070623691136,-0.9578767526789542,-0.0109869389605134,-0.0305620995324634,0.0099813554155417,-0.0028331067622674,0.0007908053984236,0.7081360935197146,0.7060692170635012,0.0114520890589294,-0.0081623337657474,9.848156147420074,0.006577742854996,0.0033329745085858,-0.0045612229394767,-2.690061729698848,1.537145465481084,3.1847945281051198,1124.899518228268,1085.8038758158775,1089.5389787641634,1116.996242618464,195.0341143006836,87.37614808345587,681.0712159007209,32.23688825394878,150.11795625223095
131.6625,-0.9357173751587404,1.2238606851587195,-0.8710837953730854,-0.0139843669679836,-0.0271445926889214,0.0059625090103159,-0.0027893543291943,0.0007396764519046,0.7081199442897343,0.7060856905242983,0.0124312065407167,-0.0091332352786205,9.849805443178953,0.006618338708191,0.0033958730386995,-0.004442930803683,-2.69007425646634,1.5371691557003977,3.184780194919053,1125.5372469101947,1085.996808740494,1091.3776926703297,1117.3216739709203,241.42283697364425,57.9234940833957,679.002340692822,191.09208911540108,150.11709421603211
131.665,-0.820426073190837,1.2283203812028702,-0.7458316483969663,-0.0163985532659884,-0.0245293397722633,0.0036704414216764,-0.002747704469788,0.0006923173752442,0.7081056838410031,0.7061002582346712,0.0131657570193726,-0.0102540624557867,9.851431369439506,0.0066453250161603,0.0034471742517699,-0.0043156894817392,-2.690087075538738,1.5371918865141767,3.184766622788631,1126.1066324131352,1086.0934932862945,1092.9339904676244,1117.9517030640402,191.3750348066436,38.581529117380875,645.4584622718771,296.63145796025367,150.1163972952218
131.6675,-0.6894360295325777,1.2385290163764844,-0.6142594677860876,-0.0183728052099313,-0.0221910824643339,0.0025376641095116,-0.0027158509612818,0.0006490317021655,0.708090860859308,0.7061153397974274,0.0135773587160312,-0.01159457139765,9.853019400091297,0.0066593625944992,0.0034860591548079,-0.0041803643913308,-2.690099551122489,1.5372129210515735,3.184754045011771,1126.494122084227,1086.1897163860808,1094.604984981686,1118.8048312607202,82.43642592689613,63.00049787607281,773.625257489119,386.08780548745295,150.11572867865752
131.67,-0.5158763326830113,1.277904214485258,-0.5041776196414494,-0.0200757163232663,-0.0195586640084356,0.0020323773232055,-0.0026972537670381,0.0006126259872343,0.7080769908477196,0.7061293942632426,0.0136124996846159,-0.0131274986083574,9.854559589528236,0.0066619605596143,0.0035122014519102,-0.0040382110116998,-2.690111119927572,1.5372320479407184,3.184741838456381,1126.5188145427717,1086.4084957756763,1096.8021167550885,1119.8821420914867,-87.05177680248468,111.66816211604213,832.4610296055012,376.72460545902334,150.11496649397264
131.6725,-0.3600871334244994,1.3383662545314108,-0.4828137601226562,-0.0209949810257794,-0.0172002675728439,0.002083562421274,-0.0026923484596371,0.0005895359972793,0.7080658140983883,0.706140667905861,0.0132083487752313,-0.0147312710537711,9.856046980240578,0.0066551742619874,0.0035257443985295,-0.0038908068083996,-2.690122072426424,1.5372491275593332,3.18472999037191,1126.0588632002125,1086.7480571966637,1098.7672901297335,1120.6884542880243,-292.90097480870173,179.8379232024034,788.7825672336372,281.5817721608542,150.11437039557669
131.675,-0.1943081144789495,1.4206040217440359,-0.5530102500971603,-0.0214737730914796,-0.0143466436459923,0.0024637606283744,-0.0026961591647884,0.0005816150533542,0.7080580322123674,0.7061484746822777,0.0124390613392194,-0.0162728585240771,9.857482379111772,0.0066412300102835,0.0035272489689813,-0.0037401083885625,-2.6901329114124795,1.5372643956648984,3.1847189608221935,1125.0543096687295,1087.3076853916875,1100.746029591253,1121.2900509522897,-553.6795714887863,299.6471406696852,826.1728491878112,210.68210046820303,150.1138209736394
131.6775,0.0175453469014644,1.5239258904290771,-0.7344623572022253,-0.0216085418886544,-0.0104345860533241,0.0028074035698488,-0.0027037014615088,0.0005823586568069,0.7080531698856914,0.7061533156714049,0.0114920401440311,-0.0177370928087606,9.85887202907765,0.0066222586160623,0.0035176809246899,-0.0035883485399309,-2.690143814942699,1.537278913503932,3.184709234425326,1123.290465342771,1088.2462929000108,1102.8981543756688,1121.7418647903644,-714.344112381754,382.51515372106263,711.8867039339074,128.3363509715658,150.11322121080323
131.68,0.2077586619553497,1.5941638218809324,-0.9362732900222626,-0.0214801150034419,-0.0070516876603756,0.0023609410929718,-0.0027098297007877,0.000587467690904,0.7080502867083,0.7061561615181913,0.010522394555026,-0.0190783497324863,9.860227126737488,0.0066001783914202,0.0034983266344708,-0.0034378830881314,-2.6901549431515623,1.537293764959777,3.184701345209884,1121.482589106824,1089.220261160291,1104.3054631109192,1121.9317327071467,-750.2345017207064,413.2498198051173,437.3718393476223,57.30768898384422,150.1127739802006
131.6825,0.4154890302004948,1.619876288673746,-1.1267239615190139,-0.0211549537726109,-0.003235482627625,6.857270736175167e-05,-0.002712067315248,0.0005963607019179,0.7080490393185515,0.7061573737525093,0.0095919650122881,-0.0202398514077671,9.861562949895312,0.0065766898897741,0.003470793550591,-0.003290969497904,-2.690165446513442,1.5373093869710854,3.184694839789014,1119.5392928341707,1090.3125419990345,1105.0850135724047,1122.0284032352831,-763.232795399211,439.428672025851,181.6950275542983,41.9701303479014,150.11238351457604
131.685,0.6369926294790099,1.585326871831394,-1.2483933627231745,-0.0205631765074103,0.0014144990454741,-0.004333338464542,-0.0027137788345568,0.000608917744458,0.708050038311068,0.7061563338794499,0.0086702423278674,-0.0212441612786865,9.86289765543074,0.0065533412819296,0.0034370001095726,-0.003149541105404,-2.6901748467107165,1.5373249831186075,3.18469045162651,1117.6664251298312,1091.4174045204184,1105.21393824869,1122.1415833588862,-690.2634609874806,421.2188731684557,-120.11506171608752,70.1749714238487,150.11204077348992
131.6875,0.8660821018601818,1.4562367310280335,-1.2261311520281208,-0.0193889608095579,0.0065713314611461,-0.0102664824911972,-0.0027170409093394,0.0006250579411495,0.7080536763907815,0.7061526456348556,0.0077400103683778,-0.0221005077542901,9.864251765155982,0.0065315211986196,0.0033990535781308,-0.0030150913912272,-2.690183449592269,1.5373392573434974,3.184688046007884,1116.0879755292367,1092.4186363648748,1104.484438263825,1122.3792780924023,-584.1204410823449,386.29428637999473,-511.655164842488,151.741524106548,150.1117551720086
131.69,1.1257199979921384,1.1876271665160707,-1.0003048169343636,-0.0169105156019355,0.0118915736725823,-0.0165507261619628,-0.0027321497295018,0.0006427011353689,0.7080573212522807,0.7061489135969901,0.0066934657212494,-0.0229662625936674,9.865645694843021,0.0065123680873825,0.0033592166723799,-0.0028883012134656,-2.6901909850853354,1.537351551154699,3.1846871628931965,1114.7458229244223,1093.3488759523163,1102.65566242448,1122.9002909794183,-382.1469842233293,276.79704266590926,-804.3528815561825,234.83979343066932,150.11147645864602
131.6925,1.30512070676326,0.8855401726434002,-0.6611367516898775,-0.0137619191012443,0.0150088653368768,-0.02002072232449,-0.002762697047665,0.0006585223293102,0.7080575745056367,0.7061485349654483,0.00553066154604,-0.0239284763859811,9.867099662965469,0.0064965064806877,0.0033196578956895,-0.0027690319337673,-2.690197228749352,1.5373625086440788,3.184687245997901,1114.1772406081216,1093.8026215782031,1100.4626738560476,1123.5534770595543,-110.265865006759,98.55528531015676,-967.7674005520365,300.15979391178024,150.11129505850894
131.695,1.4169398237493338,0.5375572607875944,-0.21647911715011,-0.0096707862321918,0.0166537686281675,-0.0214375163587833,-0.002797793001557,0.0006692681776001,0.7080550525613907,0.7061509266398763,0.004450359686354,-0.0248764962362384,9.86863292651083,0.006483856918913,0.0032821701529617,-0.0026563027585925,-2.690202179260457,1.537374196417832,3.1846861455913054,1114.194493599389,1093.841652378867,1097.816825421724,1124.4010899489758,123.53314807107702,-86.12945671469436,-1199.0489382867045,396.6515251588104,150.11116307042025
131.6975,1.4506067864209116,0.1141939380985459,0.360034179011612,-0.0045652850899122,0.0171062884476694,-0.0209181164327019,-0.0028255775255572,0.000676224969671,0.7080498261605348,0.7061560547773388,0.0035999418242762,-0.0256275405607159,9.870260598533024,0.0064736377723266,0.0032481279847635,-0.0025481485442788,-2.690206832946148,1.5373881709709498,3.18468294476946,1114.7949063484766,1093.37197429463,1094.4674291646195,1125.5367346853468,290.28055734501345,-254.45500243859397,-1204.0553418850811,414.91862078675234,150.11105821925875
131.7,1.3902138782989413,-0.2119236919705753,0.8175904975262838,-0.0006621657098078,0.0164189342993785,-0.0187748430751209,-0.0028387527356389,0.0006812285923745,0.7080420461926948,0.7061637905512999,0.0030542463005678,-0.0260588437239937,9.871991598050931,0.0064645876983211,0.0032184114036319,-0.0024418348206921,-2.6902118603925063,1.5374044583802216,3.184677582663225,1115.6458963861128,1092.569377366675,1091.7965487123042,1126.4756830529077,373.1724229539312,-389.8400383049223,-986.1213364420771,347.9112473705058,150.1110131570518
131.7025,1.243580185065716,-0.4813104477457992,1.1905289984407736,0.0028099357109858,0.0147390185393337,-0.0151865090675777,-0.0028341518335003,0.0006807709258343,0.7080328449758813,0.7061730123053869,0.0029041139678019,-0.0261832420465037,9.873827645561523,0.0064552964454903,0.0031934149663423,-0.002334250219681,-2.690217585164899,1.5374232753417452,3.184670374737942,1116.6607684632552,1091.422774103096,1089.5368224823856,1127.2762909222076,436.06225475792655,-550.8280796806122,-851.459270197374,296.80416567702355,150.11100965512514
131.705,0.9834667386964256,-0.720368188948133,1.4902412652812176,0.006529448298142,0.0121424320495104,-0.009672024633376,-0.0028136651866687,0.00067371301978,0.7080234004052495,0.7061825314964106,0.0031361378660748,-0.0260535876729736,9.875762233712404,0.0064446049180766,0.0031731292978366,-0.0022222003869398,-2.6902245024845204,1.537444341909038,3.18466219407185,1117.8262076599128,1089.815236968259,1087.539252361297,1127.9597038813,387.5364399644128,-596.865081561279,-596.8669939480121,195.42442317596888,150.11105124473903
131.7075,0.7133992756229495,-0.8467239793863252,1.5981484790330651,0.009006749529989,0.0100773320649542,-0.0044749974421743,-0.0027777293965672,0.0006656487436429,0.7080158901485711,0.7061901567839454,0.0036626959732312,-0.0256100557119429,9.877781076370658,0.0064319603357291,0.0031572391878674,-0.0021027418684371,-2.690232344603399,1.5374662787704716,3.184652978201995,1118.5984506630755,1088.4384486952924,1086.5524875126484,1128.2534130380864,241.40643011250305,-517.7433220475157,-258.50445218685167,60.47150924497188,150.11112273602447
131.71,0.4151681111093568,-0.9020329800501448,1.5607517121141254,0.0104432114338412,0.0081634464361186,0.000588656786417,-0.0027334595054927,0.0006618072501827,0.7080116110507033,0.7061945567413387,0.004307067025886,-0.0248922235859439,9.879861532451056,0.0064176254138459,0.0031453691649828,-0.0019733036940123,-2.690240656629655,1.5374871191779511,3.184643605865325,1119.0332398104742,1087.2265203580237,1086.246730100364,1128.2620614275245,102.63609774151757,-451.39352646815615,-8.855814208262796,-49.626345681099,150.11123125319995
131.7125,0.061883361228823,-0.8919748767854231,1.3796671913760383,0.0110141939517719,0.0055508520209502,0.0058121011900363,-0.0026916465635923,0.0006687890805132,0.708012734655955,0.7061935082260207,0.0048207942067643,-0.0239722020821192,9.881973575834856,0.0064026656514902,0.0031371486101873,-0.001831852849294,-2.6902491429978976,1.5375049868475772,3.184634682353623,1119.1116311517826,1086.1814810629537,1086.5082084416072,1128.005281309681,-37.34272082386937,-291.01459970169435,166.05160308155615,-123.63067317075875,150.11140322692344
131.715,-0.201409688862089,-0.8229505770988333,1.1533328347318728,0.0105371252782481,0.0031536368646337,0.0088936944197046,-0.0026555367290938,0.0006890027416277,0.7080216006484694,0.7061846532718479,0.0051182026410479,-0.0228753880494738,9.884082144791009,0.0063886139084599,0.0031322649450609,-0.0016771176244316,-2.6902573540450296,1.53752028510634,3.184625812988741,1118.846526206355,1085.7714473595163,1087.0769881157707,1127.6439080616713,-147.5494543843047,-54.828643456225855,254.92403486546655,-153.84406154180746,150.1115804612674
131.7175,-0.4036149593021418,-0.6976431748342533,0.901086894033352,0.0087923041774332,0.0009854328048979,0.0101244278248978,-0.002627706358024,0.0007199182644723,0.7080383913555782,0.7061678105035984,0.0051908687016733,-0.0216865514379398,9.886147449313345,0.0063770779679704,0.0031305203717267,-0.0015085130317089,-2.6902649596471035,1.537533586658662,3.184617760831077,1118.3738838798615,1085.9073378456728,1087.782828615933,1127.2360610019728,-193.83707617279816,141.3397723527772,274.15968269799504,-155.5521872876903,150.11179143724624
131.72,-0.5415771330878323,-0.5349389853424461,0.6600051674309428,0.0063332317309096,-0.0008364621057663,0.0102054793805019,-0.0026077591390305,0.0007531880857717,0.7080621540659349,0.7061439595134391,0.0051523741222723,-0.0205295671500039,9.888126538519808,0.0063694027170552,0.0031317483342804,-0.0013261486962256,-2.6902723079257647,1.5375456768329947,3.18461170398592,1117.877340825492,1086.4781462212795,1088.4477865292597,1126.8661471252335,-166.3491251605286,311.8016377248858,228.66656920930717,-124.97223372672576,150.11202894920783
131.7225,-0.603184398315717,-0.343642411249162,0.4494220429484205,0.0039457959485484,-0.0021791285384444,0.0101718147712222,-0.0026036947346493,0.0007792265635631,0.7080915540196016,0.7061144373520867,0.0050156036490917,-0.0196617106394994,9.889973277816429,0.0063664636273481,0.0031357445664532,-0.0011305032482433,-2.6902795686105465,1.5375568463253366,3.1846083038509447,1117.5421382540599,1087.4663460342958,1088.9261614619788,1126.61119983334,-72.06228765169004,486.43804537981526,148.6460065883863,-77.15438957650545,150.11229629016316
131.725,-0.6127277038986145,-0.1085480063255791,0.2240284630360919,0.0018330965035027,-0.0030265933570787,0.0109880636777586,-0.0026228554856601,0.0007928352794446,0.7081214993976986,0.7060843376404214,0.0047415830434297,-0.0192684184854997,9.891640489344418,0.0063684485237384,0.0031422591000748,-0.0009222520254763,-2.6902866317750465,1.5375671494559766,3.184606965627868,1117.5170293872338,1088.9103364481766,1089.1910165622007,1126.480375177351,66.42495126399483,533.9725642000158,44.16275405887441,-20.181985942799823,150.1126482421296
131.7275,-0.5936380479603695,0.0684774204334295,0.0430601631542641,0.0007561835807643,-0.0028349743781923,0.0121743909049481,-0.0026545735228537,0.0007864919514976,0.7081473607490907,0.7060583363639819,0.0045768342865789,-0.0193142406109522,9.893083223482268,0.00637474678924,0.0031508872813361,-0.0007022738965227,-2.690293358247017,1.5375785558174027,3.1846057169453976,1117.8742630103795,1090.1362088552935,1089.146975232273,1126.510289903626,215.7468372646833,453.38365935449775,-61.82692152793773,31.778850735901663,150.11296466067245
131.73,-0.5775716932911009,0.1986485255571512,-0.1434681406969935,0.0001835818974081,-0.001684370611499,0.0131979985851364,-0.0026895391965654,0.0007641862323179,0.7081666628865233,0.7060389302607649,0.004589462582109,-0.0196191222891678,9.894257427145742,0.0063840471495312,0.003161033423009,-0.0004712456698481,-2.6903005379154736,1.5375919164249308,3.1846037135208936,1118.5957635735563,1091.177254744947,1088.8818819545615,1126.6392694310307,374.1291686786424,384.9473946110984,-143.11287296268225,64.1526074565838,150.11330124754198
131.7325,-0.5853261922029454,0.2804246293134322,-0.3675107976807365,-0.0003051861349938,0.0002742703853288,0.013197300183176,-0.0027252159990262,0.0007347227000395,0.7081761250305953,0.7060293990716318,0.0046873310626093,-0.0200279547076004,9.89512080359716,0.0063944996106524,0.003172000230352,-0.0002297166188133,-2.6903086728327907,1.5376069936080259,3.184600526788236,1119.7449088537817,1092.060945828358,1088.431410867456,1126.8310529409105,442.231311836875,256.6445585807311,-163.4896269309972,64.95525273840848,150.11372345776374
131.735,-0.6188127411905651,0.2849034354129969,-0.5373279339376382,-0.0008476408757659,0.0018753654465235,0.0117672469828632,-0.0027648965089821,0.0007003970774907,0.708172449438601,0.7060330305599142,0.0047896599005944,-0.0205561142077805,9.895634511626504,0.0064039728499326,0.0031830627334029,2.16072155425736e-05,-2.6903173095169164,1.5376235551068966,3.184596768639955,1120.8069201327512,1092.4604775378568,1088.0644338199027,1126.9640456947243,417.5191327679545,98.16433105888623,-113.13798014731503,36.94102882135388,150.1140866470976
131.7375,-0.670112513083975,0.2377763563191432,-0.6672347122522508,-0.0018472685575575,0.0028323604010603,0.0092511928801783,-0.0028056244367941,0.0006623413802211,0.7081556879860009,0.7060497825713895,0.0049214584723209,-0.021145758957112,9.895765566686148,0.0064103388855617,0.0031934915031133,0.0002815153393832,-2.6903261677244568,1.537641672117646,3.184593628779614,1121.8325045176196,1092.551767483652,1087.86572096672,1127.015758085017,420.46819079289014,-10.403409090904828,-13.75040806807533,-1.1709368132880362,150.1144568580994
131.74,-0.725403384605624,0.1514422615715321,-0.7659179631237063,-0.0037805525302444,0.0029873391392899,0.0060046837467867,-0.0028341390309979,0.0006231226681444,0.7081303159682678,0.7060752087454523,0.0052336398957595,-0.0215729306509578,9.895488459246211,0.0064117418169166,0.0032026039783924,0.0005481483552807,-2.690335218310752,1.537661850226105,3.1845911468893706,1122.9092610867135,1092.4084604924024,1087.9956817795623,1126.9581910106579,361.56774228430686,-78.91958144307766,126.36923747647997,-38.60122564391404,150.1149036528871
131.7425,-0.7424866626560561,0.0763011294670313,-0.806818274363768,-0.0059234349849634,0.0026964802889209,0.0035987621013304,-0.0028449605685196,0.0005864955838812,0.708099787112159,0.706105857152588,0.005752488981076,-0.0217045588506116,9.89478429529414,0.0064068162869585,0.00320989533753,0.0008192277240083,-2.6903444372019956,1.5376834583267671,3.1845893506436918,1123.6403432290394,1092.1571695764371,1088.497567154102,1126.8227519567977,256.1095564494791,-114.01846760228545,285.60735461745537,-62.62850300355478,150.11527399339437
131.745,-0.7039835916803036,0.0158500775760845,-0.8251049647619412,-0.0081691588557594,0.0023700249850387,0.0018049076525466,-0.0028416913013009,0.0005539972090771,0.7080681209060135,0.706137678014731,0.0064080464315074,-0.0215647691692466,9.893641712231677,0.0063949376167758,0.0032150156780659,0.0010920730385756,-2.6903538518392573,1.5377053256267323,3.1845891513766356,1124.18980886896,1091.8383681543914,1089.4237185526483,1126.6450484956404,190.11005874926025,-133.2780448073511,427.36519273924154,-67.92055373741088,150.11563732346235
131.7475,-0.6059628543711661,-0.0253484164831922,-0.8427063979854825,-0.0102911277581537,0.0020465721440179,0.0004600323387777,-0.0028305161703947,0.0005275932646018,0.7080390412277173,0.7061669128391262,0.0070872499868768,-0.0212075634435439,9.89205832505043,0.0063763414182263,0.0032178079318832,0.0013636082547193,-2.6903635039651608,1.5377269053145255,3.1845913032813944,1124.5908935227849,1091.4907793524008,1090.6343931177962,1126.4831491881107,123.45207750552022,-143.63240398560595,519.766912063478,-49.20579660897529,150.1159911095617
131.75,-0.4281576309245919,-0.0405751728507725,-0.875348358580677,-0.0123911006793468,0.0015901569035922,-0.0006439130623874,-0.0028164159544662,0.0005106920048283,0.7080126881818031,0.7061934013038487,0.0076719064412619,-0.020650469000243,9.890041633604621,0.0063520960527623,0.0032184013248986,0.0016305019034715,-2.690373097060258,1.5377471446120654,3.184595651282893,1124.807069256487,1091.120206134464,1092.0225531129631,1126.3990195125955,46.90191716735799,-166.53556453226568,597.8519686334929,-8.851176101105786,150.11632882844495
131.7525,-0.1265459162293181,-0.0320147803904949,-0.9365308703423572,-0.0147363625457575,0.0010419225832868,-0.0021414826062619,-0.0028005539994075,0.0005020470891573,0.7079900178825815,0.7062161815681823,0.0081592959626642,-0.0199236854504943,9.887609603273663,0.0063240361756698,0.0032171342125614,0.0018893305630718,-2.690382250056549,1.537764899265493,3.1846012433180126,1124.8254031086215,1090.6581015297404,1093.6236529609607,1126.4388933076054,-39.345187094740446,-169.5856013644694,537.9000774493196,40.84746512229761,150.11670956745624
131.755,0.180104672178303,-0.0101017349232744,-0.9961721177941568,-0.0158211655336425,0.0008054540364618,-0.0037853407688429,-0.0027924899654856,0.0005005366804699,0.7079707546383466,0.7062354937211026,0.0084236644069829,-0.0191743461755661,9.884789050050813,0.006294437010905,0.0032145359915867,0.0021369287192821,-2.6903913563472415,1.5377805689188844,3.1846079504131977,1124.6103433210135,1090.2722781276425,1094.7120535002075,1126.603256838207,-140.33453852520356,-148.55512155968296,350.4342120631468,91.25677956134608,150.11700202981845
131.7575,0.5024341107988959,0.0135485242651408,-1.0402573720575674,-0.0151759639388308,0.0009309918391071,-0.0061248294661562,-0.0028008189282711,0.0005060037182062,0.7079550528268787,0.7062511541957793,0.0083351412689326,-0.0185242853750834,9.881616064581353,0.0062657192936595,0.0032112877343434,0.002370355947791,-2.690400585726359,1.5377947223520976,3.184615538394673,1124.123730415996,1089.9153259219427,1095.375824021275,1126.8951772054115,-279.6581982078166,-141.98708784391965,177.91297255269265,151.24684833667857,150.11726344564107
131.76,0.8454887690291343,0.0275751985349943,-1.0391146522414996,-0.0121516744236123,0.0015037177286697,-0.0100838469190853,-0.0028265787486197,0.0005160745603938,0.7079464957315743,0.7062595751935731,0.0078961838409567,-0.0180227362293759,9.878135820761791,0.0062402430024891,0.003208179065994,0.0025868556682323,-2.6904091689700675,1.5378076995635033,3.184624024809902,1123.2120523299757,1089.5623426884235,1095.60161836297,1127.3594910798895,-385.771447060493,-112.45687307288104,-7.37411929336065,182.15298913795064,150.11753505280987
131.7625,1.0548086690314271,0.0192250307168857,-0.97195708785581,-0.00815735741963,0.0022216030781071,-0.0140121462100886,-0.0028649141674553,0.0005263107952571,0.707947336427153,0.7062585300694949,0.0072163813119742,-0.0176680952995654,9.874401153614976,0.0062200756996236,0.0032061531379883,0.0027839421112559,-2.690416972812209,1.5378202558611787,3.1846342839113513,1122.1948731806951,1089.3530415565788,1095.3389534248083,1127.8059421511007,-450.1898419926297,-66.5530291301371,-176.51372624629704,180.7636703100352,150.1177217462951
131.765,1.1591354893573855,-0.010445574588544,-0.8303193100297601,-0.0037396026653874,0.0028557507460477,-0.0173113890970428,-0.0029024751627564,0.0005360819120405,0.7079566934375829,0.7062489603605925,0.0064673570491557,-0.0172899492841228,9.870471175885056,0.0062068600149627,0.0032062838949438,0.0029595142902914,-2.690424455510738,1.537832976629602,3.184646244044664,1120.9611031200016,1089.2295775427713,1094.7190497317345,1128.2633094314442,-575.0870240553293,-44.47659799381336,-317.19553737992527,191.23340380824268,150.11786178043502
131.7675,1.1701571638045056,-0.0579213664585066,-0.5953908433600815,0.0010018449546891,0.0029094233910992,-0.0194161370295818,-0.0029360018600422,0.0005469863110117,0.7079693855136882,0.7062360741638374,0.005645925646254,-0.0168306219354262,9.866407672945614,0.0062017047536199,0.0032096367802099,0.0031122732674063,-2.6904317170679244,1.5378456566925762,3.1846594634538854,1119.3194380604048,1089.1306585666086,1093.7529757379011,1128.7621091701465,-613.2154513082817,-40.41879921404909,-361.4847350493724,165.955783918449,150.11796941673094
131.77,1.1099915409139467,-0.0927687744652103,-0.369263004147305,0.0040719613937435,0.0023000750673403,-0.0198480303225375,-0.0029655052706481,0.000558538367141,0.7079805885162572,0.7062247091390313,0.004730786338823,-0.0163097719615256,9.862274017670703,0.006205264265565,0.0032171393947115,0.0032417786949138,-2.690438852968771,1.5378580273057796,3.18467420912976,1117.8950258634632,1089.0274835467012,1092.9116260564892,1129.0930883510357,-560.2682256529627,-62.003693359894896,-313.6878303653827,106.26982704762328,150.1180040138665
131.7725,1.0210243630584936,-0.1079127640669567,-0.1339770017892833,0.0059600899604326,0.0014850311545881,-0.0196342153241941,-0.0029800614677769,0.0005701046254173,0.7079905740474964,0.7062146343515731,0.0038551762632306,-0.0155988006829608,9.858134616769194,0.0062178218776406,0.0032295403331683,0.0033484062226276,-2.690445926389875,1.5378706997636076,3.1846886058472035,1116.5180969321427,1088.8206400998095,1092.1845365860756,1129.293458305384,-524.5900360099537,-110.08818829855961,-257.40247156614475,53.70296518208643,150.11797575234004
131.775,0.9392664358442824,-0.101808487755408,0.1017533580240639,0.0071406095733137,0.0007606117652833,-0.0191005462418566,-0.0029740972069305,0.0005849398302315,0.7079998924511307,0.7062053169510953,0.0030247841293621,-0.0145914371931973,9.854051104520968,0.0062391506741499,0.0032474213738826,0.0034335927735978,-2.6904529269172808,1.5378833369725824,3.1847007289020683,1115.2720756834156,1088.477042605209,1091.6246136986597,1129.361603176946,-441.6790119652357,-176.71392293552955,-180.0601842566994,-8.894722123440163,150.11789149111624
131.7775,0.8902890807885532,-0.072040529872291,0.3399373812652809,0.0082633756593534,0.0002773150161677,-0.0183286390333572,-0.0029551424496599,0.0006031796663447,0.7080051213011945,0.7062001520656335,0.0021090182276236,-0.0134090889449618,9.850079978627694,0.0062684653262503,0.00327117877364,0.0034996903982561,-2.690459704635409,1.5378954603762607,3.1847106607007527,1114.3097018723183,1087.9370704851326,1091.2842356647927,1129.2489846947667,-325.4550441980659,-280.820101811042,-112.89286966053886,-95.30989992008045,150.11773600150016
131.78,0.878969546662991,-0.018548172879804,0.6385186812042329,0.0098723642216203,2.663166851865944e-05,-0.0174314413009566,-0.0029352537783632,0.0006173871053909,0.7080023868556145,0.7062029752882835,0.0010242767345743,-0.0123423877209982,9.846272241324032,0.0063044808147135,0.0033009477995787,0.0035494937281955,-2.6904663020041766,1.5379079228612351,3.1847195695434367,1113.6448004624267,1087.0729420961547,1091.0601493503575,1128.885053677346,-143.9406498376174,-343.25376169553533,-71.9615711773458,-172.47545251504786,150.11746368098423
131.7825,0.9034086772885273,0.0311936358266848,0.9038999289220836,0.0112053429832809,9.532640964087747e-05,-0.0167044575016873,-0.002919541337029,0.0006246355316062,0.7079927103408762,0.7062127395030077,-0.0002727555441752,-0.0115219223979546,9.842672921772301,0.0063454444866717,0.0033365917750713,0.00358587163169,-2.690473021809037,1.5379207118924858,3.1847284010343326,1113.5899986231311,1086.2208016766565,1090.9244278089063,1128.3866074321925,89.13499160761523,-348.553405808842,-73.40987085028556,-236.2822580855084,150.11716383641428
131.785,0.9434992605352922,0.0745206921057111,1.181103069248886,0.0127948019761001,0.0004460360511297,-0.0152424524071849,-0.0028991944921252,0.0006271311350098,0.7079796436205246,0.706225908346057,-0.0016952144367524,-0.0108124256153417,9.839320864963875,0.0063891721837247,0.0033777710864043,0.003611543320815,-2.6904799309190084,1.53793345124002,3.184736581843582,1114.0904754204644,1085.3301750671124,1090.6930999961064,1127.7036423869195,332.82015556781766,-372.33935548849536,-155.18091152435335,-331.5623791337944,150.1167877534986
131.7875,0.9725635472341267,0.1084472250042787,1.4990329641527291,0.0156651209916673,0.0011592640045175,-0.0118402083483624,-0.002866602495586,0.0006265094680742,0.7079655735937382,0.7062401151057744,-0.0031564437386656,-0.0101023239786794,9.83624694592531,0.006432973480116,0.0034239165018805,0.0036291756813797,-2.6904874127892247,1.5379461251226827,3.184744282155164,1115.2540994009687,1084.3591048992157,1090.1485232512855,1126.728795536525,493.170202053164,-319.88819250661425,-259.5606849747215,-371.6871769318656,150.11624917261793
131.79,0.9503327182543138,0.1180917521476679,1.721110684606482,0.0188171477231414,0.0019145297468451,-0.0076106631194536,-0.002823974586766,0.000624475428329,0.7079502493138183,0.7062556021144512,-0.0046980173305241,-0.0094139872139245,9.833472980542501,0.0064735733106861,0.003474260213268,0.0036414187629031,-2.690495729657172,1.5379591095387968,3.184751651027188,1116.556326430728,1083.7307341045807,1089.395296571234,1125.8452065022618,545.3639367389727,-196.2461490860244,-368.9130855835801,-355.1093738796727,150.1157292437027
131.7925,0.8515366654211503,0.1113319651144663,1.8626555306754808,0.0221124520301777,0.002585615161483,-0.00257065617163,-0.0027807561224992,0.0006220804374882,0.7079314994374868,0.7062745154352214,-0.0064430570807071,-0.0088771036439306,9.831012163454144,0.0065071579966255,0.0035279125779708,0.00365079087684,-2.690504322960281,1.5379740180303492,3.184757953973523,1117.980919084661,1083.3778741537865,1088.3039578233693,1124.9532486671283,602.440987403531,-82.68854173722129,-547.0267048683837,-384.57433704336927,150.11513857409474
131.795,0.6325908379768032,0.0968044267723729,1.9097452126308876,0.025349491886771,0.0028045927326079,0.0038129287261893,-0.0027464446030273,0.0006243341051842,0.707910409648642,0.7062957372931578,-0.008560187154672,-0.0085636158278133,9.828869940781619,0.0065296082248942,0.0035838836204951,0.0036594802599527,-2.690512605725598,1.537991890669892,3.1847628705005446,1119.5685313677602,1083.3172913958927,1086.660163046879,1123.9223348170356,532.4219725656848,36.9794652118852,-639.9827654303318,-368.2856376188888,150.11435255367786
131.7975,0.3723647573813966,0.0908412845098706,1.8359297844052629,0.0269925125708325,0.0024125812253894,0.0091663674654586,-0.0027232760517054,0.0006382951607147,0.707891704127731,0.7063145250407395,-0.0111357608734449,-0.0084122607767968,9.827045516666857,0.0065369013453059,0.0036410864327711,0.0036690424467987,-2.6905205630621194,1.538012672306837,3.184766199130708,1120.6430289475022,1083.5627714798468,1085.1040439962023,1123.111820479025,361.6296934904873,150.73065627734715,-631.3307301767794,-313.23028320736125,150.1136368696849
131.8,0.0495004027124467,0.0992494354704475,1.6458949648257624,0.0274873895913759,0.0019063110110749,0.0139563549160141,-0.0027192579395523,0.0006619910250136,0.7078778687761554,0.7063283642525212,-0.0142025128396163,-0.0085639538777347,9.825531932503791,0.0065254684027961,0.00369826356873,0.0036803387425811,-2.6905286317787476,1.5380354779522625,3.1847703317249985,1121.376679835211,1084.0709446772787,1083.503509395998,1122.3561834010004,239.20921231391657,236.21544268270208,-623.3973095827181,-293.1088453316471,150.11286295176208
131.8025,-0.3088344803708152,0.1172021275275223,1.3700333504375235,0.0271591233253082,0.001677148963979,0.0178254311503232,-0.0027364261780248,0.0006915510079968,0.7078693776933567,0.7063367810173475,-0.0176768506310556,-0.0090992310503716,9.824317862931855,0.0064925865918654,0.003754051389964,0.003693355927101,-2.690537494561772,1.538059098926537,3.1847768126989657,1121.8390750090707,1084.7438486932592,1081.9870574482916,1121.646276252368,134.89254654958577,293.112641056353,-560.0372179142687,-272.48143154367654,150.11204454043988
131.805,-0.6903246004138026,0.1346862053033926,1.0100876344703928,0.0258545022004017,0.002002541411638,0.0205692348386378,-0.0027604633280961,0.0007212571494,0.7078693991563973,0.7063366503115707,-0.0212173158935816,-0.0098928129657927,9.823389960520233,0.0064367162330668,0.0038069946036344,0.0037072625470185,-2.6905474070281246,1.5380832306277468,3.1847853371386927,1122.0511425679583,1085.5365078825591,1080.7033233064292,1120.9937762432833,60.02293735292371,354.98562108241913,-486.020713296999,-272.1451042545797,150.11117738902212
131.8075,-1.1509802334289227,0.1358527747430395,0.5073136400414238,0.0232822143045879,0.0030379482906288,0.0228756443961922,-0.0027826850036817,0.0007494162836769,0.7078802320607693,0.7063256976735643,-0.0246142268804244,-0.0108375956887243,9.822730527741284,0.0063574398552094,0.003855646471526,0.0037210691676369,-2.690558659456632,1.5381070804807746,3.184795741564395,1122.139189695835,1086.5187767986697,1079.5569538818088,1120.2855507310965,19.282048059830487,350.95529049263035,-344.05969005706,-245.01989639215483,150.11008721706216
131.81,-1.520093178845147,0.1102140933009701,0.0487976414488291,0.0204128767094747,0.0042006518616142,0.024138001634458,-0.0028035428685945,0.0007767487033496,0.707900651243367,0.7063051471543622,-0.0278183916766071,-0.0119163150269412,9.822317349945108,0.0062554487870954,0.003898746687977,0.0037339720711356,-2.690570873688333,1.5381295312763277,3.1848074216331534,1122.1475528082572,1087.2912843350207,1078.9830248561454,1119.7686767613236,-0.880078028513599,286.20860785903113,-145.40537925035588,-187.69339190547515,150.1091426437448
131.8125,-1.8508180134958148,0.0566256146330363,-0.4221343703312413,0.0166347251444093,0.0050284194057914,0.0245494133563165,-0.0028344581561174,0.0007990893218983,0.707926118798096,0.7062795040209562,-0.0308677832803543,-0.013328905360968,9.82212394780018,0.0061324689514314,0.0039353091590738,0.0037455977394478,-2.6905831791179597,1.5381497667715631,3.184820515628984,1122.1347893056925,1087.9498198379636,1078.8299269855577,1119.34708377157,-10.769793342761448,254.33074796838292,29.654606825515344,-157.5073172196494,150.1081671793531
131.815,-2.170947287860199,-0.0248006636580562,-0.9532785469192644,0.0108335254392723,0.0050801007267574,0.0232744198195825,-0.0028808485360113,0.0008156243483318,0.7079525956020841,0.7062527954993743,-0.0337682416471061,-0.0151423486282369,9.822121183376398,0.005991120059238,0.0039647494064054,0.0037559935047235,-2.6905953588936207,1.5381678446837983,3.1848347941218624,1122.0937038415436,1088.5629380748614,1079.131297890273,1118.981140175226,-24.79535904001277,192.40893355430887,188.69737032631627,-105.55119356836762,150.1069685561621
131.8175,-2.3484657889144067,-0.091486648168215,-1.3217796796552224,0.0050659385059075,0.0046893851677186,0.0201296701287432,-0.0029317676775619,0.0008255983043682,0.7079798032765063,0.7062253355903539,-0.036305926911688,-0.0171926640686732,9.822279278107192,0.0058347596166789,0.0039868570167742,0.0037656492580638,-2.690607046927481,1.5381851053781315,3.184848756358707,1122.0108125104923,1088.9118645057342,1079.7734138371884,1118.8193278037284,-51.521023903616445,105.4915816862426,332.1960436978608,-27.438609258231224,150.1059513615658
131.82,-2.406771324114489,-0.1408107244130666,-1.5577943049538554,-0.0013180483973587,0.0042760136270402,0.0148694703037186,-0.0029739278516286,0.0008273504202641,0.7080062573417379,0.7061986658888332,-0.0382306266579176,-0.0192942281325172,9.822565884454841,0.0056671874210439,0.0040017432641409,0.0037757516107608,-2.690618000904801,1.538202055240259,3.1848610412725025,1121.8360987220256,1089.090395983292,1080.7922781087607,1118.843947128935,-104.1441167464692,40.32359250440124,524.799642809944,64.41922967730027,150.1049202701115
131.8225,-2.3197422369176595,-0.1652950816011444,-1.6472318466027112,-0.0093473647168446,0.0035560812859947,0.0075315650644812,-0.0029961059137785,0.0008199966992278,0.7080306770944492,0.7061741229606214,-0.0393417579991416,-0.0212777766361172,9.822945094953152,0.0054925764337051,0.0040097020372609,0.0037881029276059,-2.690628241571628,1.538218030451126,3.1848708818065514,1121.4900919267607,1089.113482468256,1082.3974120512355,1119.1414239521148,-149.24026813841851,-22.21545336990149,642.0009964065612,161.44891468753616,150.10367174362753
131.825,-2.114612369632816,-0.1485837597278984,-1.5592780172708849,-0.0159020982268068,0.0025765103504535,0.0017726260553305,-0.0029993067862196,0.0008062817859293,0.7080524239514949,0.7061523458185281,-0.0396702715929347,-0.0230921090376062,9.823375344974547,0.0053153457059313,0.0040110481791489,0.0038049553141429,-2.6906376952862714,1.5382312923299732,3.184878709935387,1121.0898973813344,1088.9793187164428,1084.0022830907903,1119.651191702372,-176.99876446487974,-83.17635849949812,683.2130473139961,264.5087769280156,150.1026247616441
131.8275,-1.788714463098126,-0.0904410561243981,-1.3365660749045756,-0.0214898132816598,0.0015862205947843,-0.0028887011020819,-0.002987949003259,0.0007934388469937,0.7080700962769017,0.7061347145579516,-0.0393683975963861,-0.0246705292689806,9.823811124355549,0.0051399631941448,0.0040060773147697,0.0038285476845899,-2.6906467199905753,1.5382408097459737,3.184885684546644,1120.605098104432,1088.6976006757563,1085.813477287822,1120.4639678367612,-200.12032860640767,-133.6493597662396,748.1675930625643,375.3822143628252,150.10157346805357
131.83,-1.3892034607331167,-0.003867989599985,-1.0476167312860796,-0.0258039581807774,0.0009272388360539,-0.006330127391629,-0.0029572924755712,0.0007837770319841,0.7080830287302724,0.7061219064775235,-0.0384041320162287,-0.0258874878400466,9.824206844694004,0.0049706842588612,0.0039949729729238,0.003860686663573,-2.690655619319973,1.5382477326091997,3.1848920298288608,1120.0892957382976,1088.3110719176084,1087.7431210561213,1121.528102774195,-203.36140320719403,-172.3550109210667,789.9252164246626,478.2160616203584,150.10051980762506
131.8325,-0.9437853270773764,0.1005049692484874,-0.7471783526623037,-0.0282889034654381,0.0008881390089668,-0.0077616605204958,-0.0029097562532549,0.0007771142537925,0.7080871689307636,0.7061179689083121,-0.0368211697350435,-0.0267523050636692,9.824514747516979,0.0048110166960766,0.0039777550955121,0.0039028205958617,-2.6906650932515825,1.5382539442036327,3.184897315272787,1119.5882910883968,1087.835825621152,1089.7631033699415,1122.8550481448608,-206.38920521274156,-216.5751175407118,899.5188543069613,622.7695602937025,150.0994639921132
131.835,-0.4127258157334604,0.2187921574399965,-0.4587615947342141,-0.0292481115471153,0.0016817909330705,-0.0070819978601617,-0.002853623309557,0.0007743581117073,0.7080794841100513,0.7061259080953032,-0.034769771859219,-0.0273409298459738,9.824686158771865,0.0046635683846982,0.0039542834807063,0.0039558693905166,-2.690675642503132,1.5382607742311418,3.1849013661215015,1119.0573497122348,1087.2281963299058,1092.240715327652,1124.6419505756608,-179.6259593787723,-219.2225937250616,910.591736768684,664.4574270918515,150.09819473590954
131.8375,-0.0067194387419573,0.2923051198409281,-0.3218376357789222,-0.0286351228260353,0.0030189727502038,-0.0054939443149703,-0.0028012818609286,0.0007750618790931,0.7080606141603958,0.7061450382172267,-0.0324472106817159,-0.0278055321977011,9.824673634017978,0.0045301354957216,0.0039243438279225,0.0040200179254911,-2.690686910211908,1.5382687189084872,3.1849052736198926,1118.690161291504,1086.7397126525275,1094.316062053781,1126.177335280317,-133.96846003682546,-182.47804255914383,820.8038238709566,591.7739793780509,150.0971351376379
131.84,0.3378087304152072,0.3254152892079748,-0.3059800772441259,-0.0270113890223141,0.0047972598431305,-0.0042910398227894,-0.0027577988119135,0.0007758491583664,0.7080342928273072,0.7061716036580384,-0.0299153326278394,-0.0282385800911774,9.824434759915416,0.0044119478682745,0.0038878564998003,0.0040944730306007,-2.6906987357190406,1.5382781339716975,3.1849105752311395,1118.3875074120513,1086.3158061171107,1096.344734447003,1127.6008204725483,-128.45287836933352,-165.35272104134978,860.1256639626719,566.2553808351879,150.09607360052513
131.8425,0.6775004731628859,0.3203418257622556,-0.3960428255348847,-0.0246075745701607,0.0066520535957708,-0.004235762671235,-0.002716096392517,0.0007754622371745,0.7080071236243612,0.7061990062477639,-0.0271018413412962,-0.0285363669034328,9.823934155595,0.0043099095190633,0.0038450555094508,0.0041774813037559,-2.6907109400988958,1.5382886039966084,3.1849172964361054,1118.0478968996579,1085.9129490473215,1098.6166903735905,1129.0086121844904,-130.0749262934733,-127.58582071312736,784.394804879625,448.79495077775465,150.0947975499664
131.845,0.9110825579890144,0.2929638262708677,-0.5197864671628719,-0.0226480672991176,0.0073265567880325,-0.0055331337526287,-0.002675896413278,0.0007744213704794,0.7079822063287584,0.7062241333729379,-0.024057032235099,-0.0286683319714753,9.823141768629927,0.0042246397636609,0.0037965424908034,0.0042667153307712,-2.6907231727723824,1.5382986418199616,3.184924603611939,1117.7371327805845,1085.6778770135459,1100.2667084713976,1129.844795226435,-139.55830023263803,-70.93694576548927,579.5065767299361,257.3544157230639,150.09373237604004
131.8475,1.1148058570475248,0.2645321741830938,-0.6385330891012891,-0.0207532103574892,0.0072982781298589,-0.0078613887670737,-0.002642590387819,0.0007719966972507,0.7079614177635177,0.7062450848470356,-0.0208944317264264,-0.0287036574066428,9.82203471135532,0.0041565939581269,0.0037432831774254,0.0043593765941067,-2.690734963266362,1.5383068272354607,3.184932547883831,1117.350105398495,1085.5582643184944,1101.5142232572375,1130.2953842631043,-191.78063925373115,-24.145957120958105,421.3898297765094,118.6905255894714,150.09266540434268
131.85,1.3449551730658487,0.2480877337051272,-0.7229570614259674,-0.0181284609084753,0.0071981267790833,-0.0109003225434204,-0.0026265228199542,0.0007691918194425,0.7079481614990545,0.7062584161666688,-0.0178206426688651,-0.0287598929797013,9.820598373644778,0.0041059471708801,0.003686574990003,0.0044522644491476,-2.6907456976659194,1.538313014906838,3.184941798749054,1116.7782295843167,1085.5571472279412,1102.3736576202782,1130.4382478543819,-224.1687003291865,22.99053816875402,188.84192306308145,2.511544431947652,150.0913830729834
131.8525,1.5304466829520964,0.2532591679161225,-0.7197348435819966,-0.0152733198952953,0.0071171920981134,-0.0133672650075134,-0.0026384391809404,0.0007676160626428,0.7079428224711463,0.7062637048925544,-0.0150543405931099,-0.0289565061791011,9.818827985865816,0.004072329150395,0.003628023364203,0.00454184640575,-2.69075488477802,1.5383177825910523,3.1849530519683964,1116.2292618968504,1085.6732170093383,1102.458432872552,1130.3079419852643,-224.3832920967856,66.88026366979727,-109.1156822119584,-78.62522104817674,150.09031293411223
131.855,1.7052298228016303,0.271516766868998,-0.6239427116464433,-0.0115225051676017,0.0071051740474414,-0.015850457569409,-0.0026751102154025,0.000764627873463,0.7079421480132599,0.7062642211035565,-0.0125574162838755,-0.0292832136291032,9.816731182071246,0.0040547083514363,0.0035694372937752,0.0046243113379336,-2.6907625427418087,1.5383217638545104,3.1849660606427226,1115.6563131238336,1085.8915485462899,1101.828079209219,1130.0451217491411,-223.3601573369718,98.65370830678515,-368.18226922679696,-108.64000889658168,150.08924137250685
131.8575,1.8634716950207113,0.2874142570996517,-0.4494579233964608,-0.0072899922043615,0.0075250088799468,-0.0181769550287053,-0.0027326964502071,0.0007545595774562,0.7079415728709912,0.7062645619177118,-0.0102366498203999,-0.0297680486838676,9.814325515175351,0.004051180254842,0.0035125222830798,0.0046959798308036,-2.6907690443213483,1.5383261409898275,3.184981654259079,1115.1124611101602,1086.1664855508743,1100.6175215264093,1129.7647419407788,-200.2170695355279,114.7889947047564,-607.437528024876,-99.8463766926996,150.08816878395044
131.86,1.9913186145625204,0.2779721125338623,-0.1921897072707278,-0.002943439483956,0.0086512974593213,-0.0198802297617252,-0.0028005586484799,0.000735512446366,0.7079362713683172,0.7062696099026559,-0.0079508912399438,-0.0302969231629099,9.81163844057196,0.0040589657692381,0.0034587822158563,0.0047535543189457,-2.6907754056147577,1.5383326930418053,3.185000059504764,1114.6552277761512,1086.4654935198164,1098.79089156908,1129.5458898656755,-174.01537006664876,126.65682999097648,-913.2164521250736,-71.4694306332344,150.08709518254096
131.8625,2.093299175631984,0.2112533612414788,0.1774802662875009,0.0024943321388265,0.0105252617747362,-0.0206524652029362,-0.0028571136360049,0.0007107691287422,0.7079263575320711,0.7062793223662214,-0.0054727399046622,-0.0305360793968601,9.808706833729683,0.0040746720480751,0.0034094184178174,0.0047944321405219,-2.6907817410769024,1.538342027582478,3.1850189814068113,1114.2423842598275,1086.7997697008288,1096.051439265788,1129.4073947876127,-128.83506240607753,113.87811730134113,-1069.233625949318,-30.30307920187652,150.08580603858275
131.865,2.119238817346259,0.1005151877904588,0.4999091870468365,0.0075651718330907,0.0117881780693462,-0.0198535787224503,-0.0028903861551176,0.0006849683196025,0.7079134988972526,0.7062920611325174,-0.0027205177372286,-0.0302704316577367,9.805572850714542,0.0040944928944323,0.0033651961974376,0.0048171447948161,-2.6907880843899474,1.5383535949532932,3.1850374569144537,1114.0110524641216,1087.0348841063224,1093.4447234393383,1129.3943744696662,-74.3153123262112,84.52397479503318,-1081.1077625999415,7.370316110661743,150.0847313661238
131.8675,2.062182241135228,-0.0626895243421333,0.789090150965654,0.0133189550371103,0.0119617490785765,-0.0172707071281782,-0.0028985377216749,0.0006645641118351,0.7078984741617634,0.7063070435784929,0.0002281953722231,-0.0294042976748485,9.802282410796243,0.0041145437874264,0.0033264882567072,0.0048213764922377,-2.6907950675652947,1.5383668890359872,3.1850550051267508,1113.870807698197,1087.2223895748036,1090.6459004527933,1129.4442463681662,-49.77175240906015,75.34303140635107,-1248.2266149299433,17.997571861877073,150.08365670848144
131.87,1.8813316424558133,-0.3030561771267839,1.0529341702238804,0.0203009370591038,0.011187855161445,-0.012893439203079,-0.0028866829521013,0.0006588158824009,0.7078829971584693,0.7063225287392658,0.0031664234541717,-0.0279028985759112,9.798884199496392,0.0041312029187022,0.0032933475141483,0.004807818728585,-2.690802917616949,1.5383818870239296,3.1850708060285235,1113.7621937020765,1087.411599263354,1087.2035903646943,1129.4843623289755,-35.947534621924156,65.93244602774206,-1258.3649285364647,-5.062325554040456,150.08236769770883
131.8725,1.6382220977229298,-0.5293464703613822,1.188307718415566,0.0255126332259735,0.0103568156329506,-0.0092546049652956,-0.002860926666187,0.0006768154897472,0.7078707084829968,0.7063348526671424,0.0058805401763411,-0.0257506187963654,9.79542913889306,0.0041414478157031,0.0032656401744711,0.0047778946527315,-2.6908117129851994,1.5383982595051535,3.1850843377906246,1113.6910700250876,1087.552051804942,1084.3540758101167,1129.418934740396,-27.84872029763196,50.90836130834842,-1113.910273491605,-65.4810354824035,150.08129447016745
131.875,1.3181581908291031,-0.7702922077688273,1.2383221514250162,0.0294508151441476,0.0093080638922474,-0.0060171482051356,-0.0028229803192718,0.0007182813941126,0.7078656575831235,0.7063399730201508,0.0083506363378201,-0.0230039891181843,9.791969852665764,0.004143175399069,0.003243190315304,0.004733389502009,-2.690821419939675,1.5384157744949136,3.185095303674588,1113.6229501005885,1087.6661410698955,1081.6340389972413,1129.1569571515638,-25.857499168638117,33.63167514088094,-1137.4810511344435,-176.00177947558768,150.08022285478782
131.8775,0.8820226951871434,-1.05539609309835,1.2163376520145963,0.0323490179315919,0.007030647080605,-0.0023173306537947,-0.0027769474797658,0.0007720617874903,0.7078661082896556,0.706339633377362,0.0106749853332199,-0.0199062218826837,9.78855880602685,0.0041353057433248,0.0032259550619936,0.0046761759957936,-2.6908318887331735,1.5384343143417623,3.185104993855114,1113.5617825292445,1087.7202101806463,1078.6666705544496,1128.538925843019,-11.277991295229436,-5.493380372040968,-1015.7330608284752,-281.4568242470445,150.07893960567145
131.88,0.5036860568288706,-1.268808001620923,1.1453258175863048,0.0334463043418445,0.004300795244476,0.0005864137462014,-0.0027342888564567,0.0008324387406106,0.7078685329467062,0.7063373206371825,0.0127729680635701,-0.0167290856645155,9.785246907533296,0.0041178383794098,0.0032141906378653,0.0046080268688955,-2.6908424368907005,1.538452887974909,3.185114845305003,1113.5665601441124,1087.638674168035,1076.5553736931035,1127.7496730303299,27.2624940825856,-71.50752061317826,-745.5684068544047,-367.76538336786666,150.07787314291056
131.8825,0.1369395143243389,-1.4299213571657223,1.040144326166954,0.0335348951586844,0.0009747740920697,0.0033300701283083,-0.0026922303300904,0.0008906035484719,0.7078723622039231,0.7063336092990052,0.0147995729087784,-0.0135921351695401,9.782085363660208,0.0040921875927862,0.0032085501797607,0.0045303008573468,-2.6908524068379345,1.538471945224689,3.185124947897872,1113.698094999657,1087.3626725775807,1074.938828520181,1126.7000989261812,104.13230480976756,-171.97607636914833,-580.4984013223298,-504.18184060318174,150.07681058761753
131.885,-0.271357387046125,-1.5320708324503336,0.9006408262932665,0.0326824083739885,-0.0038858421804251,0.0063696072705599,-0.0026460464328172,0.0009416817963781,0.7078782904049371,0.7063278221726373,0.0168757614775537,-0.0105353321891206,9.779123712838494,0.0040610923507626,0.0032100409121194,0.0044441103454933,-2.6908618272191367,1.5384912573116352,3.185134394365887,1114.0872216681607,1086.7787937861904,1073.6528816864943,1125.2287638273162,189.92660032921768,-250.922210761656,-361.8136984849223,-555.9785920640079,150.075541179929
131.8875,-0.5800534088366277,-1.5229568869855834,0.7950892114829902,0.031415952665547,-0.0087143191561807,0.008398164263334,-0.002600229304797,0.0009873164173956,0.7078867778744335,0.7063194799525823,0.0188964192420506,-0.0076373884545389,9.776408673077224,0.0040285624968797,0.0032199059027234,0.0043504244688994,-2.690870528915924,1.538509485103536,3.1851422567802414,1114.6477280013023,1086.1080615237736,1073.129760027758,1123.9202059658635,274.70115683077694,-289.2130679670405,-110.44857802259696,-515.7337118905547,150.07448896780403
131.89,-0.8569463858122892,-1.4082699143486073,0.7283582115490222,0.0297099908319462,-0.013526080705912,0.0094613479665049,-0.0025733684496571,0.0010305115436742,0.7079013941742837,0.7063049311475478,0.0205329422069159,-0.0051537826301116,9.773984143052967,0.0039998356567048,0.0032394161923837,0.0042499956546706,-2.6908776216893484,1.5385238312501768,3.1851497572440945,1115.4607274523212,1085.3327284463483,1073.1006387963787,1122.6500952678512,359.95864181087217,-309.38490869659813,47.30497795017222,-484.54964982329886,150.07344378410716
131.8925,-1.1099517824521603,-1.2158080357738688,0.7104109850231131,0.027602716911815,-0.0175493931270936,0.0096774662302904,-0.0025761728050491,0.0010722737817227,0.7079269352571473,0.7062793278548086,0.0215833593944853,-0.003258951348492,9.771892884098914,0.0039811376439867,0.0032698265308325,0.0041430551298249,-2.6908829130170977,1.5385322712083724,3.1851591279833236,1116.4475212103655,1084.5611369802832,1073.36628491751,1121.4974577167357,418.9735417328111,-286.0248264614584,139.72916666142712,-416.3755758688388,150.0724053926356
131.895,-1.335284364359888,-0.9577878635294944,0.7543803168639975,0.0249883115624707,-0.0202751352444962,0.0096309033134619,-0.002603089686982,0.0011120550564497,0.707966519258715,0.7062395507035134,0.0220822836967955,-0.0019236298225585,9.7701764943723,0.0039789805562235,0.0033121968455245,0.0040293750312163,-2.690886797949111,1.5385349892425677,3.1851707918960415,1117.555595160983,1083.9026043140423,1073.7992846296854,1120.5682173885089,486.7711332018523,-244.04542605561255,179.80169459640803,-342.1273301926632,150.07137645563972
131.8975,-1.5697503831352315,-0.6178210152739154,0.8505395912218765,0.0212338972855462,-0.022003798173453,0.0107574306673778,-0.0026514715156331,0.0011490437504611,0.7080177964644386,0.7061879521600078,0.0220190981198515,-0.0011603888723014,9.768873698424034,0.0039991290171962,0.0033670660619525,0.0039087960835212,-2.690889546373582,1.5385324649267411,3.18518435878678,1118.8813768763723,1083.3409098500063,1074.2652933904913,1119.786821065774,465.9036438231541,-163.14131422365168,134.70646921390173,-223.41134923292284,150.07015442447457
131.9,-1.7276028473786142,-0.3403928388861918,0.9268575861629976,0.0174707436364442,-0.0223259018071215,0.0133859483678857,-0.0027153841269144,0.0011819437250161,0.7080765877194833,0.706128739593538,0.0214290734841122,-0.0009396216216047,9.76802033978929,0.0040458210702226,0.0034342361880585,0.0037815250331539,-2.690891966903306,1.5385258086907148,3.185199827760067,1119.8851133800968,1083.0868977429247,1074.4728169757543,1119.4511606423453,366.0972341310445,-63.054616557031345,32.43717878879801,-63.34865326376834,150.0691480262153
131.9025,-1.8333906061954064,-0.0953534257098556,0.9478269467422432,0.0129220370519517,-0.0219897192941251,0.0172814766979137,-0.0027878456551177,0.0012094889285013,0.7081401482874363,0.7060646952385968,0.0203586859340253,-0.0012117092909526,9.767648704630604,0.0041210572035795,0.0035126010353686,0.0036484872083492,-2.690895096575366,1.5385170976498987,3.1852162498907153,1120.711863047026,1083.0256367672212,1074.427479284435,1119.470077799455,321.30372827075126,1.2145436459388423,-65.74253645304975,91.03077006015248,150.06815581334862
131.905,-1.8865016105568424,0.1483634802619531,0.8720636158923579,0.0068474054754667,-0.0212758148523233,0.0217376596100233,-0.002859654546292,0.0012295592625926,0.7082021330239628,0.7060022282140825,0.0188980478291345,-0.0019016181614681,9.767787073886076,0.0042240763411099,0.0036002137691471,0.0035115440915913,-2.6908997936908983,1.538509177125461,3.1852311408578875,1121.4916320214493,1083.0929704611544,1074.1441042934891,1119.9063144926456,258.05225905783846,34.862945487370645,-117.14034074604308,223.80902620268333,150.06698376800227
131.9075,-1.8657740314243725,0.3096123849356604,0.7202696277301582,0.0018259272174769,-0.0205375479343313,0.0245064144461945,-0.0029154591979795,0.0012364354877716,0.7082550245341293,0.7059489535679345,0.0172775103527147,-0.00289124084949,9.76845963305898,0.0043512913674756,0.0036944085008958,0.0033734248641009,-2.690906298422132,1.538505371105661,3.185242165452237,1122.002124342314,1083.199951494658,1073.8417775807054,1120.5891229304675,189.92417672333423,41.17420506985688,-94.34316763280945,324.4517324455723,150.0660242921014
131.91,-1.783317004071317,0.4336246487964254,0.4909743256972054,-0.0027851602742091,-0.0196132042546442,0.0261823501790683,-0.0029482339749513,0.0012249520659732,0.7082959009383997,0.7059078421273726,0.0156143522095208,-0.0041602952986232,9.769685103336288,0.0044965919458632,0.0037919010143804,0.0032375480254841,-2.6909144830421328,1.5385079503963048,3.185249216618145,1122.441252905065,1083.2988414865035,1073.6723884553255,1121.528573154872,194.23132451970037,35.255145002688785,2.9527629194517,443.860759419198,150.06508488311775
131.9125,-1.6281944150402279,0.5490688014956111,0.1548422157380799,-0.0076924396606835,-0.0181610332002889,0.0272064081592497,-0.0029627197239598,0.0011966334884235,0.7083246726276548,0.7058789622066024,0.0137840494955513,-0.005747964257385,9.771476016419111,0.0046520359761914,0.0038890540317188,0.0031075759725983,-2.690924198509081,1.5385172606259885,3.185253705845801,1122.9732809649115,1083.3762272196711,1073.8565413953027,1122.8084267275617,204.97580559459035,21.58033281995957,157.6146297752599,468.1677722277238,150.06398349011263
131.915,-1.4652560228038822,0.6249039200583905,-0.1529026223102211,-0.0110227290178944,-0.0166285278629722,0.0273278090786767,-0.0029673810550695,0.0011586729408122,0.708343671906628,0.705859928803896,0.0115481814798924,-0.0076555865572704,9.77383933328446,0.0048088312352177,0.0039821110994342,0.0029869041495459,-2.690934590639621,1.538531893246832,3.185256678314025,1123.466131933037,1083.4067431506032,1074.460461604201,1123.8694120160085,210.15321634550688,8.176944321720091,348.59256732802214,390.59345347322096,150.063089251071
131.9175,-1.28011803703569,0.6898669929167822,-0.4605320178367071,-0.0137415000687043,-0.0149595204177932,0.0265397899178035,-0.0029629247776519,0.0011154675989281,0.7083546547822692,0.7058489758706465,0.0088317117581396,-0.0098054627744074,9.776778135315633,0.0049582546749723,0.0040673749020616,0.0028782459979863,-2.6909455766268375,1.5385504130264507,3.1852588740220455,1124.0240470466383,1083.41711194128,1075.5995042319412,1124.761393994926,228.56045450116656,2.832001902866188,540.1974427714904,308.80781585949876,150.0622217196365
131.92,-1.0804602706836424,0.754972882163995,-0.7461581639749418,-0.0164008386275025,-0.0135944547172836,0.0248906156082728,-0.0029430454785968,0.0010731313262527,0.7083586372411659,0.7058451063581608,0.005651083724995,-0.0119889790054011,9.78029233470326,0.0050922875237293,0.0041413057516118,0.0027834965537164,-2.6909582009907784,1.5385718903347751,3.18526038110993,1124.6089342055484,1083.4209031601176,1077.1614488180717,1125.4134510953131,224.73008723774925,-0.1224825199181913,706.1147515652855,190.6208302887983,150.06137779830783
131.9225,-0.8627314092960038,0.8290935565275375,-0.9808421640750286,-0.0188324865769718,-0.0127985264343322,0.0223986015191054,-0.0029098228844138,0.001039471736548,0.7083560704136164,0.7058478507458807,0.001900774811037,-0.0140802133914873,9.784378175285212,0.0052040370896339,0.0042006022257427,0.0027038568452126,-2.690972894762087,1.5385952155023992,3.185261555892769,1125.1476974828324,1083.4164995286803,1079.1300779897845,1125.7144981463744,196.88021434212433,-7.313810909324558,920.0716302359709,54.82253981167998,150.06056387323835
131.925,-0.5798437118996749,0.924988479716936,-1.1785929979879817,-0.0209900218183123,-0.01148313599788,0.0187216575731943,-0.002868980258887,0.00101366567342,0.7083444790774025,0.7058596704108621,-0.0024398502446935,-0.0161152565613124,9.789029727272915,0.0052881013390696,0.0042424685093961,0.0026397358346343,-2.6909896821192687,1.5386200563835604,3.1852631578587327,1125.593335277258,1083.384334105571,1081.7618069692471,1125.6875637943715,105.41248691416097,-20.010684408471217,976.8905528724888,-58.2486832997422,150.05962350633567
131.9275,-0.3270394907356589,0.993375684695002,-1.2614427468974403,-0.0219724997491799,-0.0093287087228081,0.0151416458869381,-0.0028235150955339,0.0009881296356168,0.7083272651568623,0.7058771480879633,-0.0072461931104642,-0.018179639405924,9.794240279336188,0.0053409177511775,0.004264801540347,0.0025907138468807,-2.6910076010130064,1.5386460874279386,3.18526617477528,1125.6747599174028,1083.316446106638,1084.0145307541425,1125.423254729876,-53.392954527410794,-39.03460103050659,877.9317859872007,-123.7716754007795,150.05887115030396
131.93,-0.057296403489685,1.0197235753644909,-1.25451555376166,-0.0223018903196545,-0.0061909323359441,0.0112398487921157,-0.0027782484913185,0.0009598399516978,0.7083109430642928,0.7058937328233396,-0.0124704010065699,-0.020316197464512,9.800001933095377,0.0053608265370143,0.0042664701978391,0.0025557917630792,-2.691025386779918,1.5386711799656378,3.185271773639003,1125.3263705046213,1083.1891611004187,1086.1514658991791,1125.068705417368,-267.89729246244667,-68.4027067019255,884.5774865455356,-130.6891663301764,150.05815220066614
131.9325,0.2873151898828256,0.9740951716224726,-1.1534638357131897,-0.0222852569278805,-0.0022877365873955,0.0069269799244001,-0.0027353211782132,0.0009333696022951,0.7083002534665076,0.7059046569538839,-0.0181236550038966,-0.0224230328113025,9.80630612367254,0.0053479742649121,0.0042474836320235,0.0025336499589232,-2.6910418674465943,1.538691982738584,3.1852798858424327,1124.3352734550915,1082.9744325731288,1088.437418186866,1124.7698088982258,-454.61230168375965,-81.94415933801967,780.5714591223757,-54.34766344701925,150.05732885143587
131.935,0.5917721968938676,0.8619982182317383,-1.0113665541627463,-0.0219468863464527,0.00058612925454,0.0042073975707015,-0.0027033896054396,0.0009127498052925,0.7082943062500715,0.7059107817060452,-0.0242938946819969,-0.024496569002034,9.813142477383192,0.0053038590467513,0.004208891091202,0.0025231547102224,-2.6910567758993555,1.5387076620530236,3.185290810075587,1123.0533089962044,1082.7794403037287,1090.0543231947877,1124.796967100133,-581.791030654296,-63.59645331041392,583.1126410817734,102.857447338877,150.05667594040895
131.9375,0.9061889284781096,0.6742930527652239,-0.8392311037113029,-0.0209923063532064,0.0028071273004344,0.0025565228335988,-0.0026911475874374,0.0008981059432421,0.7082903083014522,0.7059148777692297,-0.0310118595180377,-0.0265909464907242,9.820499176854671,0.0052307297257412,0.0041525371041149,0.0025236684440787,-2.6910702157727795,1.538718899630634,3.185303675511315,1121.426318301823,1082.6564503065767,1091.3529813922723,1125.2840961349195,-744.7869118266177,-6.992336598256763,500.33158378742,345.965262559408,150.05605795857767
131.94,1.2696897051216312,0.3743712837907686,-0.6283882400743483,-0.018506000123542,0.004388399302959,0.001329317120294,-0.0026922257271644,0.0008907452981355,0.7082896013374831,0.705915610645188,-0.0381136840355308,-0.028538975609751,9.828364488196623,0.0051309911100202,0.0040808196774221,0.0025351920088326,-2.691081866683272,1.538727226640619,3.1853161463605275,1119.3293744370749,1082.7444786207377,1092.5559811137225,1126.5267934129288,-749.5285919431803,96.03487560766192,386.12934718160983,571.1985717697382,150.05535748551745
131.9425,1.5328457337910075,0.0747356158289878,-0.4623783699658718,-0.0148799471529296,0.0046982490885924,0.0005905890771162,-0.002696143746017,0.000888454147185,0.7082907674521193,0.7059144398939929,-0.0453286207746842,-0.0301716960434097,9.836724799807378,0.0050065724996281,0.003996509280145,0.002558632273558,-2.6910920101247564,1.5387348193481516,3.1853273298987697,1117.6786753421104,1083.1366246846148,1093.2836281281786,1128.1400889937659,-592.9963988212812,247.33959527306737,242.00061395849116,757.3503191273242,150.05480869359477
131.945,1.7192630399589999,-0.2632988562452357,-0.3112275559667525,-0.0098371690801019,0.004360155661012,6.846636606765472e-05,-0.0026931887786375,0.0008856959384926,0.7082927288293913,0.7059124920109837,-0.0523507027450723,-0.0313843640284985,9.845562735284682,0.0048587066763721,0.0039024718481784,0.0025957756174547,-2.6911014900381476,1.538743470577068,3.1853378410038538,1116.3643924429712,1083.981176597102,1093.7659841835139,1130.313545008562,-445.96401548683014,422.15728397825126,160.75241920913027,946.6417772548509,150.05429716153594
131.9475,1.8240774312366224,-0.6256494533059129,-0.1697659385202815,-0.0043362393635195,0.0036236899082161,-0.0003052464615627,-0.0026791834720414,0.0008794965378862,0.7082967124745011,0.7059085596319735,-0.0589880846177674,-0.0321214632028373,9.85485432217282,0.0046879680056332,0.0038015111421062,0.0026492153025742,-2.691110679374809,1.5387537629909795,3.1853483227097694,1115.4488552646783,1085.247411104504,1094.0873902242236,1132.8732978800358,-261.02237508495,603.9547343398262,101.13571577258077,1088.3116506296012,150.05381741260717
131.95,1.826965548530404,-1.0067864221838727,-0.0322718584510525,0.0010330408167874,0.0020979878173081,-0.00054863331828,-0.0026508271843582,0.0008676164585262,0.7082984571977385,0.705906937008341,-0.0650732236851822,-0.0323402524637663,9.86456870654,0.0044944603287666,0.0036964347533205,0.0027221960391271,-2.6911195609789575,1.5387659068933053,3.1853576704939863,1115.0592805675476,1087.0009502687983,1094.2716627623763,1135.755103261705,-63.0896214475513,858.1297259227492,60.03131054202171,1294.9493168220229,150.05337723212813
131.9525,1.73010204784258,-1.4649451283784591,0.139664224015859,0.0069472788867566,-0.0010663440141222,-0.0007050850952983,-0.0025993101959263,0.0008465332086046,0.7082931588709842,0.7059124791606431,-0.0703467747943299,-0.0319495768323152,9.8746689516256,0.0042782528852864,0.0035899873339189,0.0028184084843657,-2.6911284550468584,1.538780656687792,3.185364891526792,1115.133407157439,1089.5380597341384,1094.387546776935,1139.3480444641768,95.40645569236321,972.159941749984,27.000473098140212,1299.7477173611298,150.05289658318247
131.955,1.5904664103937611,-1.8268477503242553,0.2951917632816714,0.0110762142474887,-0.0049173793899757,-0.0006719201249216,-0.0025278784905459,0.000819113033281,0.7082817408273079,0.7059242329398951,-0.0748116254094242,-0.0309456122990552,9.8851065773889,0.0040397547376468,0.0034847557407533,0.0029419341779698,-2.6911374409576454,1.5387968694950416,3.185370270627796,1115.5363128460117,1091.8617499775714,1094.4066651278677,1142.2538418485417,202.31014018286467,932.3060715580434,-13.096093606566768,1093.9927657490844,150.0525371043829
131.9575,1.4259738531372836,-2.1408478185737123,0.4650390052750024,0.0140084200099669,-0.0100711888231069,-0.0003181457767785,-0.0024459698550973,0.0007927732153396,0.7082683750711861,0.7059379567966269,-0.0786272320469268,-0.0293564641431316,9.895822636994462,0.0037800677363251,0.0033832677424017,0.0030968269558851,-2.6911460688593785,1.5388123757285077,3.1853746421243025,1116.1449578583524,1094.1995900919244,1094.3220663089023,1144.8180082929173,290.2764863846553,990.6361917781312,-72.28234039700716,996.9602364814792,150.05222166598685
131.96,1.2366057526981176,-2.4346319587581395,0.6763606808894123,0.0164548890035943,-0.0176444496646181,0.0007541470930584,-0.0023609709920989,0.0007697705688938,0.7082587985021189,0.7059478567694117,-0.0818598807593251,-0.02726347923178,9.906751466144918,0.0035011846659938,0.0032880240186594,0.0032867388857616,-2.6911535850991264,1.538825886319462,3.1853786462549216,1116.9876952779337,1096.8149309364576,1094.0452534258827,1147.2386430309443,320.4211007307735,906.3492782217567,-139.14850457466778,750.7902298224061,150.05189494812154
131.9625,1.0997707844538465,-2.598933418072845,0.8448127346170339,0.018015541240529,-0.0246081092090949,0.0024129814782995,-0.0022801177032826,0.0007515664781445,0.708257489190705,0.7059494108677966,-0.0845707913913521,-0.0247672662142067,9.917820927277683,0.0032058432116488,0.0032014707570889,0.0035147655791724,-2.691159969649567,1.5388366080006903,3.18538236867743,1117.7470633620048,1098.731336483029,1093.6263237860296,1148.571959442026,318.1428138291432,699.7957701973971,-212.9308609653553,379.7340165361945,150.0516659756233
131.965,0.981962831320885,-2.6815389599967143,0.983782629681918,0.0198218959882218,-0.0315433790098183,0.0050370284742137,-0.0022062483735745,0.0007390024158277,0.7082663971126552,0.7059406562908137,-0.0867596469057096,-0.0219256580542009,9.928954986681997,0.0028972796287198,0.0031259050656001,0.0037832665864338,-2.691165625603304,1.5388439443184738,3.185385264303842,1118.578409347078,1100.3139097874412,1092.9805991210571,1149.1373131136238,390.92078290999854,618.4906780370225,-335.0346547647724,90.52703290725779,150.051481484303
131.9675,0.8396737324021852,-2.7052674941856703,1.094698230019422,0.0227459904472395,-0.0393601122363941,0.0090643099123595,-0.00214206748506,0.0007294066215692,0.7082833487296855,0.7059237787195352,-0.0883843424957868,-0.0188538048039938,9.940075035719273,0.0025788519821225,0.0030633273755197,0.0040937393420573,-2.6911703581862225,1.5388473173299209,3.1853877221689513,1119.701667276553,1101.8237898732111,1091.9511505122073,1149.0245946065615,436.91237173833264,493.09595354542864,-412.0339599607742,-138.60913913612293,150.0513102234068
131.97,0.7010022343695538,-2.6811713566896054,1.1339408396044657,0.0253125799805651,-0.0455012336454293,0.012527921356147,-0.00208341938741,0.0007150987974006,0.7083020157243737,0.7059051570971717,-0.0892455316885171,-0.0156500650290321,9.951103948666034,0.0022536793073428,0.003015346252894,0.0044465933858367,-2.691174482825152,1.5388485314968094,3.185390841454521,1120.7629712057676,1102.7793895551663,1090.9204293212551,1148.4442674179438,449.54463779358736,324.93071192209294,-433.0062414891772,-277.15268051085974,150.05120780481468
131.9725,0.5268097167842485,-2.632464593922825,1.1242127048517623,0.0273707595753485,-0.0514563483812898,0.0154901015577806,-0.0020158729989518,0.0006889064015241,0.7083209906513266,0.7058862556880279,-0.0890158586041125,-0.0122655396987999,9.96196811268776,0.001924428967843,0.0029830836704301,0.0048410422421949,-2.691178317722615,1.538850491133193,3.185394980647787,1121.9493904655187,1103.4484434328203,1089.7861193047631,1147.6388312040087,489.8923744835337,222.454817064156,-458.4973635882384,-316.5414257291255,150.05114482695024
131.975,0.320560304501299,-2.575030584629179,1.0856525733665812,0.0288678953817661,-0.0572770931087675,0.0180696071119643,-0.0019296517485755,0.0006509961502715,0.7083408217786655,0.7058665565386831,-0.0875462311743477,-0.0086165064905134,9.972594588357818,0.0015931622159052,0.0029671288064671,0.0052751899820138,-2.691182083198682,1.538853806673424,3.1854000590261413,1123.212433078183,1103.891663640486,1088.627942503316,1146.8615602892996,512.0465441855795,124.34471721410257,-457.00048664062433,-262.99696625902743,150.05111234986043
131.9775,0.0807128538399332,-2.5154683472939814,1.0282431831076646,0.0295908780863044,-0.0630284812936097,0.020261942429102,-0.0018200827692009,0.000600067649547,0.7083627425873461,0.7058448492063559,-0.0847490296320312,-0.0047141660918875,9.98291445249188,0.0012616155443936,0.0029674828402721,0.0057460316446568,-2.691186835120328,1.5388584814011779,3.1854069131611573,1124.5096231864443,1104.0701670188903,1087.5011168715623,1146.3238463727148,558.5047833924441,21.39315651849883,-479.10687597907696,-151.7568514262182,150.05111381874138
131.98,-0.2325614187381996,-2.445891570303812,0.9540291213467376,0.0294628568989842,-0.0701729559343401,0.0225015866428349,-0.0016997660567926,0.000536209981676,0.708386835058068,0.7058210278838072,-0.0808111245579939,-0.0007956612927538,9.992861717906743,0.0009313693606689,0.0029835513413933,0.0062495767925001,-2.691193449864586,1.5388640420118278,3.1854178880502872,1126.0049569951427,1103.9986294230785,1086.2324081234228,1146.1027760321692,521.4550725138564,-67.43573591247329,-447.3672807555898,-7.557446293876931,150.05115136059163
131.9825,-0.5027070158812526,-2.3909747719144714,0.8939886656055682,0.0285047510413454,-0.0763200066917011,0.0240494942980818,-0.0015863894019383,0.0004584666184079,0.7084087641603019,0.7057993909911789,-0.0759884425408394,0.0028126435891258,10.00237849565114,0.0006041908251082,0.0030143837514573,0.0067810364154276,-2.6912017345994497,1.5388702450089389,3.1854341743406063,1127.1168985490262,1103.7329883393263,1085.2642804677737,1146.2860591412452,398.1649225870657,-137.2368787215505,-363.9822302075473,134.10326656907816,150.05121011320975
131.985,-0.7682412446383798,-2.344719118338712,0.8335445606521654,0.0267220788134372,-0.0823564265866537,0.0253500493222754,-0.0014807797248138,0.0003662111755735,0.7084295710830286,0.7057788631841974,-0.0703145427878049,0.0060290714697417,10.01142000025618,0.0002825517327618,0.0030590960480245,0.0073352093778836,-2.6912102742298254,1.5388764333066423,3.185455003930899,1127.9957816080876,1103.3124450294674,1084.4124969723764,1146.7732923650178,317.19148694161703,-204.74073475279943,-338.5918782628219,250.91617499888423,150.05129478868665
131.9875,-1.0689778510292363,-2.31377813999516,0.7431087438816169,0.0239203858987466,-0.0888362507845745,0.0272266281932867,-0.0013829504162306,0.0002641371751034,0.7084513688191502,0.7057573016533555,-0.0638979082932974,0.0088611134732081,10.019950267386116,-3.041848468863853e-05,0.0031169674949284,0.0079070936928866,-2.691218388956319,1.5388813623368867,3.1854790696631894,1128.702855983733,1102.7092846655632,1083.5713210764611,1147.5406400162385,197.07292055236127,-226.5821218552233,-267.7381195348223,282.3822185504763,150.05142363579387
131.99,-1.2982530157702137,-2.3209922812938126,0.6325466857638214,0.0212398587624852,-0.0934414542732505,0.0294163511284877,-0.0012924144601367,0.000161089999111,0.708474140880642,0.7057347125205988,-0.0569102072425356,0.0113847150314115,10.02794202349374,-0.0003309521768733,0.003187436626761,0.0084922594586801,-2.691225975813696,1.5388837021504915,3.185504719829494,1128.9811462108485,1102.1795344201923,1083.0738063747035,1148.1852034577687,52.795331356312815,-207.1783622912855,-140.0099707139725,223.20704112041605,150.05155188979845
131.9925,-1.4980369971445386,-2.3686412866972466,0.4631566018845957,0.0180951693445628,-0.097565995904234,0.0321208692032351,-0.001214425469201,6.345092640656535e-05,0.7084967618264892,0.7057122158056812,-0.0495812917781637,0.0135633526683607,10.035376116448484,-0.0006148256186411,0.003269861276212,0.0090870665919177,-2.691232976632796,1.5388822061851175,3.1855319136700415,1128.9668326405142,1101.6733928541075,1082.871271222892,1148.6566752218396,-52.57347056558735,-208.82145976452995,0.7473570310601165,128.90328913593194,150.05169986257292
131.995,-1.6919115169661931,-2.4549330343943208,0.186605758386275,0.0134780170173837,-0.1028407996033058,0.0351029216218911,-0.0011557468610006,-2.6923760755400203e-05,0.7085196587751871,0.7056893709939447,-0.0421091962550911,0.0152798622116744,10.042241404584573,-0.0008776418904164,0.0033634060807718,0.0096887023744582,-2.6912394445834424,1.5388759672617096,3.185560963294489,1128.7182788580208,1101.1354271213706,1083.0775431598588,1148.829719903448,-106.39152137446798,-180.93215467191013,164.23053158870445,-26.49731774638576,150.05189822340304
131.9975,-1.805494669375236,-2.51850697648362,-0.0867928616399682,0.0089529857476226,-0.1082265241995198,0.0364154871152389,-0.0011089897228991,-0.0001101147288558,0.7085457834277132,0.7056632208481509,-0.0344724441305176,0.0165960762439705,10.048534496817663,-0.0011151437320344,0.0034671739307788,0.0102951466330673,-2.6912453468924675,1.5388661149844676,3.185590893989353,1128.4348750336424,1100.768732080749,1083.6924238808347,1148.5241886331075,-96.50062191780897,-125.00936780400026,346.25315001571494,-237.7057331774156,150.0520795655784
132.0,-1.8610038648291527,-2.5189995409438124,-0.3592562185974691,0.0042415387298476,-0.1151218340760618,0.0355204776891267,-0.0010632146097503,-0.0001891145208995,0.7085753023629131,0.7056336169764829,-0.0265652280655032,0.017588456876352,10.05425604196898,-0.0013238580359575,0.0035799491485444,0.0109051987732657,-2.691250884661426,1.538854355119032,3.185621173793851,1128.235775748432,1100.5103802823512,1084.8088089099358,1147.641191237562,-41.35488885675964,-83.32594552583335,526.3367618333417,-457.5051892120041,150.0522762302039
132.0025,-1.8665679169127916,-2.427769141953085,-0.5907000839003697,-0.0003733461243736,-0.1228553563631136,0.033005473275132,-0.0010083599216763,-0.0002708772992673,0.7086059128874302,0.7056028910762285,-0.0182435772075865,0.018271322435466,10.059408302327087,-0.0015014493207887,0.0037000044078389,0.0115183755163426,-2.6912570084397247,1.5388427058218237,3.1856517678857483,1128.2281005893587,1100.3521023531202,1086.3241076899988,1146.2366626870498,67.52653198965848,-40.975273140194055,684.7388966088463,-684.807470508517,150.05248476318823
132.005,-1.8136338832409944,-2.1985991882548683,-0.7369446893597159,-0.0050044824250061,-0.1301372114095851,0.0297396922442514,-0.0009474749850878,-0.0003601771587542,0.708636330882691,0.7055723303423573,-0.0095847033051068,0.0185120302729625,10.063991692732904,-0.0016470590417509,0.0038249674797479,0.0121347337947819,-2.691264413867936,1.5388318273320871,3.18568348809262,1128.57340840838,1100.3055039166504,1088.2325033929767,1144.2171538850223,253.87544077407608,-5.9641438168054846,895.1258716832809,-1008.5709543508606,150.05270678002432
132.0075,-1.6889523775542683,-1.7639229491278403,-0.7980750434642924,-0.0106408942370311,-0.1368974864829421,0.0260419142076835,-0.0008816544675687,-0.0004585962037067,0.7086640835738143,0.7055444195652681,-0.0006847543235349,0.0182592662046195,10.068005039186028,-0.0017610268169076,0.0039521466131667,0.0127546820971201,-2.691273420108266,1.5388217891028884,3.1857164261720343,1129.497477793228,1100.3222816340362,1090.799737048411,1141.1938079153,428.2669515852178,2.480241041896516,958.7272897030824,-1180.051125313075,150.05298795463096
132.01,-1.5442684046510928,-1.2871842320955567,-0.7624752892744405,-0.0150035533974896,-0.1406715089572271,0.0235498341897763,-0.000801282178942,-0.0005690103649212,0.7086913773033615,0.7055169518541458,0.00853257131515,0.0176048165600029,10.0714451857662,-0.0018443913579808,0.0040788303765713,0.0133789142408161,-2.691284037195698,1.5388134790645407,3.1857502685330545,1130.7147431663043,1100.31790512186,1093.026139841488,1138.3168982584623,571.8237022223292,-31.43449032198208,879.4629462362803,-1180.9448242986773,150.05323412226085
132.0125,-1.3778792197277907,-0.7216633357095935,-0.6629773317516527,-0.0184984492987893,-0.1427588563832501,0.0219128790471417,-0.0007028211751684,-0.0006907022917561,0.7087227148976618,0.70548540831657,0.0180090933843923,0.0166141625499508,10.074304340992832,-0.0018990432034289,0.0042022845486721,0.0140083469110845,-2.691296341921076,1.538806631167831,3.185785390766211,1132.356596304337,1100.1651091824265,1095.1970517795887,1135.289083793812,796.119302130019,-133.3699308504036,922.0146221611769,-1311.5456420629148,150.05349226975267
132.015,-1.182453806185677,0.0264784247258134,-0.505740927967195,-0.0216930449405894,-0.1435427121072992,0.0207334377651681,-0.0005879844835173,-0.0008239275919713,0.7087542050264743,0.7054536976261757,0.0276300026828856,0.0152716526725456,10.076570372181294,-0.0019275125957212,0.0043198070758107,0.0146440783378836,-2.6913099857379987,1.5388010351436334,3.185821213010074,1134.6953396769732,1099.6510554676047,1097.6362129523159,1131.7591700481166,893.3618924052189,-262.16464848878206,861.2157811124039,-1239.2390439074406,150.0538157685496
132.0175,-1.0420516910536266,0.6868550369251759,-0.3660814167589114,-0.0237059621205591,-0.1426666046138599,0.0201659709803239,-0.0004662001728799,-0.0009697456128145,0.7087805953118451,0.705427094594293,0.0371882438808663,0.0134486485452332,10.078226801352981,-0.0019327375522211,0.0044288641252809,0.0152873091435899,-2.691324386604305,1.5387961694397252,3.185857983716317,1136.8234057663844,1098.8542859399763,1099.5031306851713,1129.0928885742453,853.4527430481862,-406.4718702283303,712.9487635847572,-973.942938804179,150.05409685658574
132.02,-0.9388687280221488,1.3630571427421962,-0.2370849438970682,-0.0254010217583679,-0.1400666600051916,0.0199060963355234,-0.0003508161645948,-0.001123692885617,0.70880212203498,0.7054053505885133,0.0463504022773549,0.0110475514456846,10.07925325425441,-0.0019179033474928,0.0045274361956496,0.0159391688429846,-2.6913391866868035,1.5387912215400636,3.185895788668878,1138.9626033922104,1097.618696116465,1101.2009567702364,1126.8894553541,906.32559212832,-641.7849835019222,711.2677753454238,-839.9741484790775,150.05439016539813
132.0225,-0.8606581921037563,2.1688999109778515,-0.1074562266373439,-0.0275160782721138,-0.1349927524020398,0.0198627592687807,-0.000239197463493,-0.0012807106041743,0.7088215504888931,0.7053856735372117,0.0550120350697601,0.0082130200478608,10.07962655312561,-0.0018858655982685,0.0046144055379543,0.0166005766426194,-2.691353770549993,1.5387866531826024,3.185933721322576,1141.355033727022,1095.6453610224696,1103.0594695618952,1124.8930178318535,828.5151066387502,-792.4349722352802,653.3065958277376,-621.8728100568313,150.05475682995734
132.025,-0.8282747540405636,2.8191632338757966,-0.0240109787635876,-0.0293637498049538,-0.1292272612382646,0.0199953100458689,-0.0001287437135972,-0.0014371166288464,0.7088400313831443,0.7053669017117215,0.0630975498303904,0.0050748680696239,10.079321131963606,-0.0018394453447281,0.0046891422932835,0.0172721533123536,-2.6913674823941407,1.5387824725825239,3.1859721691268006,1143.1051789254004,1093.656521255292,1104.467489749372,1123.7800913038188,639.5222144443228,-841.5844792085331,535.0072055253213,-343.4569831690564,150.0550752009093
132.0275,-0.8193368469855777,3.4269489860918734,0.0352001245038501,-0.0312710748806764,-0.1219388704078806,0.0202529178601595,-1.5825020369683044e-05,-0.0015906561065146,0.7088597444365415,0.7053468504502207,0.0705767297295706,0.0017615598513609,10.078310303890284,-0.0017813203217286,0.0047514270106791,0.0179540175997249,-2.6913803793577245,1.5387785040390027,3.186010730669579,1144.5526447992406,1091.4374386264308,1105.7345055895191,1123.17573291601,572.670525700844,-991.6162698642815,525.638350448458,-175.22616659300658,150.0554077461744
132.03,-0.8212178045538395,4.0802446199565034,0.085349224916489,-0.0336597092466839,-0.1112952280233798,0.020645019299199,9.577616760624953e-05,-0.0017393143319919,0.7088832008839541,0.7053230078063719,0.0773274714610155,-0.0017038779469586,10.076568048071172,-0.0017142480245299,0.0048011047211291,0.0186455984516881,-2.6913927317320656,1.53877464594609,3.1860497580488114,1145.968531553902,1088.6984399059752,1107.095681501612,1122.9039604708544,478.30486027549193,-986.9957251090336,472.4471280251441,-45.51793868854067,150.05582443248295
132.0325,-0.8226895682365498,4.539546793330979,0.1178306597475859,-0.0356011930830978,-0.1008924562361562,0.0209640364020734,0.0001938997997663,-0.0018777985064457,0.7089093723177257,0.7052964209696391,0.0830721987209161,-0.0053679545462613,10.074071302492952,-0.0016412851166142,0.0048379695056344,0.0193454141948755,-2.6914047034190447,1.5387698696376784,3.1860905031940927,1146.944169100616,1086.50246000089,1108.0967412296427,1122.9481432225675,365.9056589189421,-826.2785908616264,371.2106648570363,52.62362414805705,150.0561874264
132.035,-0.8116155924074031,4.885441426888576,0.152442700852421,-0.0372318141304215,-0.0892337905247401,0.0211499145401136,0.0002708135699935,-0.0020033365192017,0.7089373610444535,0.705268001123817,0.0876434768353294,-0.0092482377248268,10.070801480620442,-0.0015653550852581,0.0048618662453199,0.0200509891066415,-2.69141670243228,1.538764269877812,3.1861344927729047,1147.798059848495,1084.5670469516708,1108.9517348258955,1123.1670785915946,331.17281001353257,-709.6932435758024,315.64436037703274,106.58481604905916,150.05656816410965
132.0375,-0.7789794591073367,5.121979663681614,0.1974021578493924,-0.0389308479137776,-0.0766561870550245,0.021230228984334,0.0003189913589347,-0.002111361132109,0.7089651905958148,0.7052397517001965,0.0908623219941875,-0.0133324283676563,10.06674654881228,-0.0014896194566475,0.0048726609624622,0.020758936622371,-2.6914293045759194,1.5387586590022884,3.1861823698573435,1148.600033150682,1082.9539937830143,1109.6749630315267,1123.4810673028123,309.39545339766426,-550.9531366533347,253.80809822013708,144.70039411007264,150.0569645978605
132.04,-0.703285824103589,5.216354262353843,0.2616099481416319,-0.0412672320038734,-0.0632519195323847,0.0212801072547275,0.000337447397153,-0.0022009894872748,0.7089891115859231,0.7052154458463592,0.0927062815670974,-0.0175673679600016,10.061902182535436,-0.001417204649523,0.0048703049404492,0.0214652155661933,-2.6914422841664325,1.5387548225968088,3.1862323632654608,1149.345037115482,1081.8122812684067,1110.220775316995,1123.8905805621444,299.44736822994804,-386.8495216413856,192.27974174381623,206.8655123963316,150.05738093947738
132.0425,-0.5452320200859683,5.169399137655639,0.3613373970485732,-0.0443764642911471,-0.0472514788977644,0.021565729523742,0.0003267333782338,-0.0022722651485516,0.709008833705801,0.705195380393472,0.093198082278776,-0.0218918623694877,10.05627354252695,-0.0013512132375824,0.0048548572964965,0.0221652999536969,-2.69145508808405,1.5387530804647402,3.186283887681105,1150.0972699918304,1081.0197461748091,1110.6363617402449,1124.515394864793,230.47453372982088,-199.6080047616052,105.78289734539305,259.85208872792623,150.05790454873912
132.045,-0.3566329865616451,5.014030282527584,0.4565713694790818,-0.0464311973429078,-0.0348525320743909,0.0221858773489728,0.0002896287196643,-0.0023264540617898,0.7090259130337307,0.705177996434906,0.0924187973962655,-0.0262318459193071,10.049876517481945,-0.0012944549731503,0.004826507299674,0.022854213501659,-2.6914676359765433,1.5387527275078348,3.186337451763523,1150.4974097841366,1080.8142412445939,1110.7496898037243,1125.18984100579,79.5871878080399,-2.0061869135947448,-11.916155257347272,314.8699510315027,150.05836140222152
132.0475,-0.1251812663669772,4.76861477399528,0.5492603447504053,-0.0474076014934436,-0.0237059680534096,0.0232805776357642,0.0002243083240715,-0.0023643241579357,0.7090409644247674,0.7051626905817869,0.0903852091437429,-0.0305732621309653,10.042738826772132,-0.0012495196964207,0.0047853788747541,0.0235265775584007,-2.691480206976941,1.5387527937322276,3.1863944724131863,1150.4952059308723,1081.0097152402411,1110.5767809639578,1126.089744619958,-132.91750115125333,158.48446084169927,-150.260823572444,462.2748452836388,150.05883991432685
132.05,0.1688075233206106,4.403115821004052,0.6352158624616786,-0.0473331913727932,-0.0113274612446866,0.0251650417349431,0.0001296989717966,-0.0023890455214405,0.7090523291054016,0.7051511360828064,0.0871664265916906,-0.0349279973310948,10.03489996072567,-0.0012184160207022,0.0047315861031812,0.024176773500396,-2.6914930989217805,1.5387523290026024,3.1864558481704246,1149.8328222783807,1081.6066635488016,1109.998385685863,1127.5012152322063,-374.87874089490555,265.54343212661985,-275.9352362292938,578.982070871124,150.0594392826469
132.0525,0.4001656978710275,4.055795812225831,0.6697927298041823,-0.0462828018093623,-0.0016027470995345,0.0270721982105589,1.6363752627200954e-05,-0.0024078108430908,0.7090614563495578,0.705141851488118,0.0830598856410373,-0.0392039430531062,10.026411105882593,-0.0012020467655692,0.0046656074667604,0.0247992261338826,-2.6915063401315367,1.538751745927566,3.186521279750091,1148.6208122263995,1082.337432400873,1109.1971047828126,1128.984654974311,-634.3054028992212,327.5500894381617,-384.00907220501176,656.2609628534631,150.05995959314555
132.055,0.5885752446444485,3.6752526369923166,0.6511761472752637,-0.0440942985309785,0.0074712455045676,0.0291535389362814,-0.0001052063119536,-0.002421800576721,0.7090734584371574,0.7051296896981493,0.0782808442425753,-0.0432289783045411,10.017335773134752,-0.0012009715280983,0.0045883315447578,0.0253887660494558,-2.691520105810451,1.5387506416847434,3.1865902391447865,1146.6612952638875,1083.2444139959907,1108.0783403248397,1130.7825200464706,-1027.5692718097412,427.737059906556,-557.4196231056316,850.2078817487474,150.0605011343155
132.0575,0.7464381535152141,3.187984912229685,0.5593841141504255,-0.0405067927978346,0.0173460762933232,0.031778857729967,-0.0002207558925283,-0.0024315583954052,0.7090893608100338,0.7051136194375169,0.0730924630519851,-0.0467740442304825,10.007748148242662,-0.001215264835443,0.0045010846646796,0.025940998123044,-2.691534330446676,1.5387490092481226,3.186661242889307,1143.4829658673557,1084.4761177004038,1106.410006667287,1133.2356943830507,-1282.687884757236,466.91103533641297,-657.611729699836,930.3815262602078,150.0611747501727
132.06,0.824433745858017,2.7618942503133486,0.4279740014723857,-0.0375105639313002,0.0244585845180683,0.0338796160639701,-0.0003223728123375,-0.0024388743623819,0.7091089122534864,0.7050938909141911,0.0676875367792642,-0.0497237755230553,9.99773061816428,-0.0012448547830177,0.0044053011653652,0.0264525728776105,-2.6915486316979127,1.5387469817910555,3.186733557018976,1140.2478558401071,1085.578969172671,1104.7902816763435,1135.4344276777674,-1375.2854207144767,444.78684606223834,-682.0762675080751,880.6487923486026,150.0617551225095
132.0625,0.8719104982915049,2.321920045108385,0.2567909575624311,-0.0353589305638154,0.0303506858024166,0.035404321738247,-0.0004160706807105,-0.0024415065330264,0.7091317453229514,0.7050708763896684,0.0620059628150323,-0.0521089027421972,9.987371028769337,-0.0012900932547397,0.0043024763221885,0.0269212402175919,-2.6915626354660382,1.5387442855663576,3.186807089998359,1136.6065387637896,1086.700051930713,1102.9996253297495,1137.63893834479,-1484.3321110938944,440.50122351590335,-730.9976354303045,855.3453066629166,150.06235406392187
132.065,0.9213830827949244,1.87486692034024,0.0758373553456669,-0.0339685688229873,0.0353857690914467,0.0358629103626316,-0.0005098067667324,-0.002437242720479,0.709160284024315,0.7050421467484005,0.0559615318669838,-0.0539950286423288,9.976759847913652,-0.0013512384931053,0.0041944647372898,0.0273458373809308,-2.6915758838863324,1.5387405936434564,3.1868824988840685,1132.8261952846447,1087.7814752902484,1101.1352934991953,1139.711154211078,-1491.81700521771,409.162900532928,-742.3372922305974,764.1289621742671,150.0629673453481
132.0675,1.0016948323151216,1.4238684022684787,-0.0833265811139208,-0.032934570120157,0.0394878604585208,0.034837834368762,-0.0006044931900679,-0.0024264105525195,0.7091945719904968,0.7050076636150813,0.0496042848874605,-0.0553922332928196,9.965987987532158,-0.0014281841086561,0.0040836659583513,0.0277263300904169,-2.691587954685603,1.5387355122702036,3.1869597495715847,1129.1474537377076,1088.7458664333756,1099.2879388686,1141.4595831556578,-1526.3404965780192,382.2946623378196,-778.5856245564705,660.8240429110182,150.06359641327197
132.07,1.1503525716777916,0.8863478578414788,-0.2163139081466383,-0.0310296979354928,0.0428712979736321,0.0329578822960795,-0.0006861106368903,-0.0024136461054012,0.7092346170084598,0.7049674063332362,0.0432551426843285,-0.0561701336033062,9.955145274863428,-0.0015201613590792,0.0039731836159311,0.0280639000335591,-2.6915988647030384,1.538730139808913,3.1870371207390185,1125.1944928017615,1089.6929486019355,1097.2423653764165,1143.01527442563,-1328.4022188886668,305.54800773530184,-701.66863303498,466.08455085439897,150.0643672987792
132.0725,1.314285363535615,0.4496407278462419,-0.2703475646881678,-0.0286119447741153,0.0441394083053103,0.0315747694469813,-0.0007471201131396,-0.0023991758065284,0.7092802017442043,0.7049215910268153,0.0370796895790228,-0.0562361610413269,9.944316910133,-0.0016270013108686,0.0038662094038293,0.0283609600045699,-2.6916088656762676,1.538725039774408,3.18711373401229,1122.5054426432705,1090.2736064720507,1095.7795957034284,1143.7900059099277,-910.7491681705694,187.7386036125133,-521.4235826991364,199.76180673261277,150.0650211815438
132.075,1.503388137144198,0.0319615193216973,-0.2721981462727678,-0.0255363553738962,0.0442834160759049,0.0306397365098688,-0.0007879091783147,-0.0023800569568058,0.7093278109222518,0.7048737565961661,0.0310858911120561,-0.0555732911176028,9.933580395495875,-0.0017491869311078,0.003765769742661,0.0286209894160836,-2.6916179421077704,1.538720382598142,3.1871887986913823,1120.6407469609128,1090.6316416199975,1094.6352474629232,1144.0140834592924,-606.9871235291097,113.33380602978195,-434.75217175425087,-13.761694682423467,150.0656844979818
132.0775,1.7318695573793847,-0.4461854918314087,-0.2334649549570947,-0.0212142009239123,0.0440849876573769,0.0300007584050542,-0.0008099731981525,-0.0023556259133177,0.7093728311700696,0.7048285426515599,0.0252963532707652,-0.0542205273257086,9.92300385088016,-0.0018872566891465,0.0036746641690228,0.0288482540764886,-2.691625638200212,1.5387162793244302,3.187261816492674,1119.4705070256105,1090.8402755022023,1093.6058348446468,1143.7211974365152,-251.97933007973649,49.443081273002846,-338.20389188706434,-181.93536191960888,150.06648817072255
132.08,1.8996381624649332,-0.8248485980688542,-0.1826384543421245,-0.0170457657972297,0.0434451689391066,0.0297713269806922,-0.0008191869962539,-0.0023240442633954,0.7094135625078545,0.704787658382004,0.0196529247026903,-0.0522686174272618,9.91264454821261,-0.0020419219331757,0.0035953461738889,0.0290474034122455,-2.691631771406957,1.5387121204824328,3.1873323057343432,1119.380850310508,1090.8788570263637,1092.9442280034796,1143.10440664969,125.53480424619512,1.7451657124654458,-257.1387291711809,-296.9202845528316,150.06716174004012
132.0825,2.012214319137021,-1.1724856459937467,-0.1281111617749534,-0.0121448499417577,0.0414519829647591,0.0297286836578041,-0.0008183787865402,-0.0022851422451673,0.7094524511157618,0.7047486393923341,0.0141604426696477,-0.049794690822421,9.902549117847517,-0.0022135509663622,0.0035299375997347,0.0292230261878825,-2.691636566692935,1.538707874935934,3.1874000137065885,1120.0981810468409,1090.8490013307648,1092.320141198792,1142.2365960137524,451.64503908240624,-12.38486452504038,-306.5637587140432,-410.168966979618,150.06783596326844
132.085,2.0477490756519874,-1.5286047332825756,-0.0701140033843085,-0.0056934813610361,0.0372835910432988,0.0297778419219609,-0.0008093947076802,-0.0022429871606498,0.7094895726469101,0.704711398841853,0.0088933169293167,-0.0469266945097408,9.892753438295836,-0.0024021510524916,0.0034798214579929,0.0293792038489037,-2.691640589534437,1.5387038925266663,3.187465808662977,1121.639075505918,1090.8169327037383,1091.4114092099107,1141.0535618147935,629.371600599124,-1.4658298229291775,-381.86138700141953,-441.44608304954227,150.06864157566474
132.0875,1.9736619206750523,-1.7549160026773822,-0.0322838679138244,-0.0002926024329103,0.0328600435341025,0.0298474008523255,-0.0007903650680916,-0.0022045948742226,0.7095247586126959,0.7046760963305452,0.0040145709682355,-0.0437854351449297,9.883283904597326,-0.0026071931869968,0.0034456909761287,0.0295190874878192,-2.6916448645820847,1.5387006431147703,3.187531059382576,1123.2450390498336,1090.8416721816502,1090.4108342637867,1140.0293655985067,643.8491997374457,26.196454903835,-460.2558433091965,-408.9937156784426,150.06930673737307
132.09,1.7766809439141595,-1.8913324628958412,-0.0065307838236154,0.0049314953522473,0.028033933953358,0.0299110799764352,-0.0007621189045334,-0.0021753819712568,0.7095590543369681,0.7046416702068548,-0.0003786489045683,-0.0405084273073449,9.874157678782904,-0.0028278974611021,0.0034274689915748,0.0296446260988914,-2.691650177404594,1.5386987781823025,3.187596969326591,1124.8583215046024,1090.9479149782576,1089.110129993367,1139.0085932364032,598.4765936028439,53.82134601382297,-562.9351286553746,-409.39127810689513,150.06996126687503
132.0925,1.474767981057056,-1.9468635101930027,0.0102923862641696,0.0099154545510657,0.0230597748404703,0.0299594154135174,-0.0007338068599765,-0.0021527949275514,0.7095939220859913,0.7046066416649863,-0.0044227463462935,-0.0372373504438135,9.865382876259407,-0.0030635328939523,0.0034244377060185,0.0297564566982806,-2.691656438706983,1.538696609504786,3.187664570045945,1126.2374220178451,1091.110778911719,1087.5961586205124,1137.982409207974,445.86616415271766,67.66585423944677,-634.229391602534,-420.96497445147264,150.07060362325737
132.095,1.0566375546840747,-1.90376310072372,0.0188100882335368,0.0141103632550712,0.0180489664808632,0.0299878371531989,-0.0007088222529927,-0.0021364317170263,0.7096305302421426,0.7045698263866839,-0.0081498084757338,-0.0340627189072971,9.8569618244966,-0.0033122689000052,0.0034355482854545,0.0298541003834486,-2.6916635540407134,1.5386927308883995,3.187734528833435,1127.087652325364,1091.2862442494545,1085.9389830353573,1136.903768364148,208.8474706223304,57.99495981319341,-723.9765099408249,-501.6565415129677,150.0712270132063
132.0975,0.4561268330915744,-1.7446423384483816,0.0228787968546001,0.0173525700050988,0.0120657409142945,0.0300036045112767,-0.000692497380537,-0.0021227961909504,0.7096691160859431,0.7045309911720258,-0.0116690603045871,-0.0310564595222006,9.848891094298434,-0.0035717781469305,0.0034594615107636,0.029936196182133,-2.6916717457417425,1.5386860666363067,3.1878079604860545,1127.2816593709558,1091.4007537107848,1083.9762760708115,1135.4741265004116,-77.64748792194736,8.280498309348587,-687.807214873317,-555.3688267055398,150.07194768183496
132.1,-0.0858843435494688,-1.534708856809668,0.0233267720262319,0.0181349332207243,0.0074012923853749,0.0300063673067252,-0.0006894542619781,-0.0021077072667312,0.7097071748692249,0.7044926684365118,-0.0150964853648835,-0.0282681995600964,9.841162810528397,-0.0038392815828159,0.0034946834147936,0.0300009331918509,-2.691680966168568,1.5386761548057803,3.187885312613904,1126.6994148857543,1091.3276467410012,1082.4999469609938,1134.1269242306228,-373.05406543175474,-81.24030108081682,-531.8737080518821,-573.8776179905234,150.0725217868888
132.1025,-0.612906785742493,-1.2702283053811068,0.0225525735610317,0.016789706782349,0.0037797932571629,0.0300039811777252,-0.000696912729748,-0.0020965422107421,0.709741985167733,0.7044575821602744,-0.0183197348516926,-0.0257742048513082,9.83376677960235,-0.004111138058501,0.0035395785898902,0.0300466830617512,-2.691690681785017,1.5386644352904328,3.1879653887815405,1125.4163890437987,1090.994552205381,1081.3169075305543,1132.6047384104616,-678.7088663127895,-215.23396962330955,-437.05610900423113,-700.6157915219779,150.07306466609472
132.105,-1.1625640859776243,-0.9302760886189126,0.0211597622147602,0.0129550482568628,0.000963551799629,0.0300007687151945,-0.0007112834284205,-0.0020923831420335,0.7097743876610667,0.7044248801032916,-0.0212548357758738,-0.0236015944376491,9.82668935948528,-0.0043838589312401,0.003592742781934,0.030072358061908,-2.6917003235200534,1.5386515187738368,3.188046391813853,1123.3058705541937,1090.2514768928856,1080.3146664159747,1130.623845273016,-820.4436925223877,-326.3495112914704,-296.27709102509885,-737.6541420969054,150.07367634104446
132.1075,-1.5146471226991587,-0.657838109576622,0.0195078247306943,0.0084712071513962,-0.0002771289953103,0.0300014583773176,-0.000729168738686,-0.0020940640354102,0.7098084652099622,0.7043904611997734,-0.0238861407410189,-0.021714494157922,9.819912907775496,-0.0046543890641448,0.003653076221134,0.0300776482649013,-2.691709746697285,1.5386369758590763,3.1881269136239867,1121.3141705811672,1089.362804648916,1079.835522075422,1128.9164676999594,-782.6948834071944,-395.9601603648218,-123.98380493987048,-672.9691399274242,150.07415069149732
132.11,-1.7326714797902103,-0.4239636807083893,0.0163526310200613,0.0035948876063772,-0.0007374301232667,0.0300098014686972,-0.0007536598516348,-0.0020995525426339,0.7098451757259446,0.7043533754685583,-0.0263056991491784,-0.0201495126322951,9.813414525063903,-0.004920431354056,0.0037192591942091,0.0300630845096315,-2.6917188273485526,1.5386200150662952,3.18820656398526,1119.392396137139,1088.271676091052,1079.6947473912724,1127.2589995733629,-765.7137615230256,-497.56553667739126,5.902250447303143,-692.8674156219521,150.0745861994255
132.1125,-1.8355112687208524,-0.2040087498198853,0.0088009391741871,-0.0022465616472984,-0.0007942542748153,0.0300329406452462,-0.0007869348593521,-0.0021080562245356,0.7098844519848921,0.7043137005177277,-0.0285794696847861,-0.0189418555696914,9.807166835719736,-0.0051802294293215,0.0037899328306317,0.0300299886628218,-2.6917276656188327,1.5386003847714107,3.1882860492021066,1117.4856017735556,1086.8749769655312,1079.8650333276585,1125.4521306218528,-598.8839631505915,-501.5632252929223,113.24298554360507,-617.3932161067272,150.07506212080145
