t,ang_acc_x,ang_acc_y,ang_acc_z,a_vel_x,a_vel_y,a_vel_z,quat_x,quat_y,quat_z,quat_w,acc_x,acc_y,acc_z,l_vel_x,l_vel_y,l_vel_z,pos_x,pos_y,pos_z,mot_1,mot_2,mot_3,mot_4,dmot_1,dmot_2,dmot_3,dmot_4,vbat
46.7075,-1.1582482095237479,1.1741602389617558,0.3862862076400868,-0.020379100397389,0.0371006617727922,-0.0262466396010668,0.0067421805217815,-0.0029551702599317,0.0656964206191419,0.9978123800121352,-0.0116684037811073,0.0178496087170505,9.692163572839384,-0.01148772124089,-0.0192926444851285,0.0016309673145149,7.737238225545028,4.284172266174388,2.0342102943915545,1118.3168890427903,1130.0482671842124,1126.9095328411875,1114.6486910967926,-68.53441890026393,18.666701372867006,-949.5541715248837,193.3187007979916,148.60278794374264
46.71,-0.9264990090570122,0.9392647890721152,0.5482209488365382,-0.0233209970006275,0.0410701419418364,-0.0256579078727384,0.0067720498285896,-0.0029078453302266,0.0656924212921414,0.9978125812817268,-0.0133398362114866,0.017632205096655,9.691249686989252,-0.0116153406663211,-0.0194912447616306,0.0013739632765284,7.737218037247229,4.284122006753781,2.034212662714358,1118.109061399136,1130.1205435466,1124.6514250389382,1115.0318334455715,-115.40519660603914,50.4339004272428,-911.583097359982,130.83710808121472,148.5994946026025
46.7125,-0.7154246052975543,0.6187080778386794,0.6711267018767433,-0.0249060175535521,0.0443933565552638,-0.0244570278805571,0.0067922680196732,-0.0028623958701985,0.065691302877978,0.9978126490245808,-0.0151748364724521,0.0171938566390892,9.690129858414915,-0.0117500177915837,-0.0197007749192191,0.001113544168913,7.737195791183954,4.284069746027456,2.034214270395295,1117.7398630597606,1130.3004366863483,1122.3516173543917,1115.302876637198,-210.91437213925144,101.71998544005216,-982.1842345200798,96.36969646771448,148.59616970063405
46.715,-0.5456754650940909,0.167879918553447,0.7433556062519522,-0.024742413031489,0.0462572035706398,-0.0218978915367404,0.006799098352454,-0.0028181637385379,0.0656887075072489,0.9978128998861582,-0.0171663917918692,0.0164981694309261,9.688812362788642,-0.0118912542010393,-0.0199204173826945,0.0008486267680621,7.737171920197412,4.284016940741121,2.0342152239225686,1117.0544895384392,1130.6291434738007,1119.7405038663353,1115.5136819279103,-296.33418052879574,130.6602400466331,-900.3397717104176,61.962290309807166,148.5921484471583
46.7175,-0.5033292768217364,-0.2242500110314065,0.7200265556123633,-0.0237679773076632,0.0458139043552208,-0.0189984241801387,0.0067921173192872,-0.0027724525240413,0.0656810348714424,0.997813583131576,-0.0193421558882397,0.0155733583358246,9.687310534082597,-0.0120386107311403,-0.020149275487882,0.0005781177198543,7.737147213261072,4.283963780084721,2.034215967543302,1116.258192157116,1130.9537378865818,1117.8499184958373,1115.6126880887473,-364.13885633202347,127.72273722364636,-656.6038289503527,28.09682401841937,148.58877464369968
46.72,-0.5667883361699345,-0.5858129768073062,0.5984741927228909,-0.0235340435254134,0.0439069117562882,-0.0159405730309014,0.0067753517242224,-0.0027286522176836,0.0656675918145477,0.9978147061230868,-0.0216065755058514,0.014522823446799,9.685642477865677,-0.0121919273992146,-0.0203863099338468,0.0003011803746863,7.737122798445621,4.283910050011305,2.0342166205458905,1115.2337952567807,1131.2677571599183,1116.4574847215863,1115.6541660480023,-439.75750272743664,117.3430481794494,-447.0034622956505,9.088265356553972,148.58538085383145
46.7225,-0.6964452610000734,-0.894338982649923,0.403068865036476,-0.0244438472981029,0.0411273484255206,-0.013402917115878,0.0067526010644188,-0.0026888442417393,0.0656494968550056,0.9978161623627516,-0.023890348709277,0.0134430586437753,9.683831367246329,-0.0123513025340334,-0.0206303487694014,1.696863147105946e-05,7.737098880179899,4.283856049880812,2.0342171220467926,1114.0594046434776,1131.5404531274792,1115.614901184358,1115.65812941553,-487.12617938965747,98.7545633126451,-181.9140976582709,-7.205425735670312,148.581972917122
46.725,-0.8641824235541371,-1.1202328895125828,0.1487472299260285,-0.0267117033049013,0.0375530032446699,-0.0124307151218151,0.0067258804510267,-0.0026542691916964,0.0656261973900739,0.9978179706278671,-0.0261436800824462,0.0123919075795783,9.68190519496668,-0.0125168523417199,-0.02088014259382,-0.0002753500191627,7.73707527572163,4.283802110855349,2.0342169821424325,1112.7981643598312,1131.7615299764818,1115.5479142332947,1115.6181389193239,-542.8434718289217,94.48258705282976,157.90101468424646,-29.447974610938623,148.5785505216159
46.7275,-1.0551788521467813,-1.293037062721858,-0.1708581730949687,-0.0303860353927022,0.033173818943058,-0.013334038005311,0.0066913605035387,-0.0026246281629687,0.0655983314846621,0.9978201150809072,-0.0283554399170988,0.011310498496214,9.679896599942158,-0.0126887035826283,-0.0211342200720667,-0.0005767454381047,7.737052118953496,4.283748157173922,2.0342161099156546,1111.3451872843355,1132.0128660627431,1116.4044062577784,1115.5108895424755,-499.35328115831834,100.63285150062563,458.5050973085272,-50.46381452281968,148.57442993404152
46.73,-1.174475242050354,-1.3665426541644583,-0.412964998721179,-0.0336478347147755,0.0298050445489717,-0.0151740961229577,0.0066448004651915,-0.0025996098545804,0.0655690108340452,0.9978224203804869,-0.030517189010191,0.0101259305126501,9.677841782325677,-0.012866925673065,-0.0213907654939639,-0.0008880511457109,7.7370293422365535,4.283693567562688,2.0342147246210702,1110.3013979540383,1132.2646942339852,1117.8404397198383,1115.3658198467097,-364.13237900937486,122.16795753623163,690.8913974992732,-68.47021511895171,148.57098678400112
46.7325,-1.2268889763434787,-1.38846171784838,-0.6027630713437327,-0.036802850214345,0.0267192184673243,-0.0173058687032162,0.0065884360191064,-0.0025813691684834,0.0655412089436909,0.997824669508486,-0.0325668675415994,0.0088806506976811,9.675779364223656,-0.0130513133076106,-0.0216476622387352,-0.0012095774553679,7.737006613861945,4.283637853121493,2.034212786118297,1109.5245253892876,1132.6237058504244,1119.8588632452763,1115.1685384668804,-277.441269819908,190.65193735536073,965.9182071503128,-91.08448961477832,148.56753653427597
46.735,-1.1925752524971625,-1.3801668688274715,-0.7602614263148411,-0.0407140656268635,0.0232999179663046,-0.0198170695827556,0.0065268056135353,-0.0025729226148536,0.0655171274416831,0.9978266796191348,-0.0344254520567475,0.0076536241947902,9.673750095367108,-0.0132412834812325,-0.0219025583563257,-0.0015412829557522,7.736983396363684,4.283580383051032,2.0342101107978774,1108.91419160494,1133.2179539207611,1122.6700307555857,1114.910397398636,-180.69261321115695,243.00769129582775,1048.42083618747,-87.73198710569037,148.56339116516483
46.7375,-1.0730388542342284,-1.3580652731974547,-0.8353641691184116,-0.0439935084520833,0.0206599459797721,-0.0218790660542984,0.0064653225656464,-0.0025761518474409,0.0654968967659525,0.9978284018360476,-0.0360375116655669,0.0065353060495091,9.67179618193393,-0.0134358063259807,-0.0221530232992504,-0.0018828499573686,7.736959086894214,4.283520849592108,2.0342068662340247,1108.6210623232312,1133.8387443069043,1125.1009674262164,1114.729878531352,-93.67116061980352,261.00077237915974,935.9781863564637,-49.51952394073682,148.55993486425135
46.74,-0.8549998252835723,-1.3274254771966492,-0.8602145781275633,-0.0470093991569472,0.0179382548990107,-0.0239625776509155,0.0064060784968673,-0.0025886333308967,0.0654769481339098,0.9978300627146952,-0.0374377109685315,0.0055509640650954,9.669960678764467,-0.0136333923892116,-0.0223967591099431,-0.002233927933852,7.736933304650202,4.283459091094619,2.0342026745566955,1108.4458358018408,1134.5229577826576,1127.3499216873704,1114.6627997789324,-74.70395551692918,288.53645090060905,895.4134081542138,12.587814734354277,148.55647967190276
46.7425,-0.4883619177434888,-1.277734794601394,-0.843550937057778,-0.0501007982167946,0.0141326615086284,-0.0262855878389683,0.0063500945815894,-0.002606133064413,0.0654535377593547,0.997831912394262,-0.0386998280185043,0.0047020975169322,9.668286527654793,-0.0138324050525737,-0.0226317145200018,-0.0025939691450901,7.736905663597744,4.283395318739984,2.0341973371103674,1108.247542545647,1135.281426561406,1129.5780344669836,1114.7928176050236,-83.45950324004066,243.2347870964288,712.6662346671425,89.32779859955129,148.55233840926513
46.745,-0.1137341456395959,-1.2204849697654283,-0.7990758653749225,-0.0520456618647511,0.0104501214114078,-0.027851292103037,0.0062985420420872,-0.0026276322428714,0.0654270808387246,0.9978339184116894,-0.0398381792829499,0.0039851813214304,9.66681587197776,-0.0140314948571465,-0.0228561590041594,-0.0029620687472887,7.736876709853688,4.283330064289801,2.03419088437414,1108.0285382856407,1135.7391317181387,1130.9132528607029,1115.1094387719295,-104.36282293325466,117.6564149173226,412.09011800889874,169.0960446791495,148.5488943326969
46.7475,0.2929080750293042,-1.1471530976629136,-0.7283330299228514,-0.0527174281314781,0.0068177850936851,-0.0290871781729349,0.006253256154248,-0.0026516912328021,0.0653979432533408,0.9978360493477432,-0.0408765165492203,0.0034072564235365,9.665589211863338,-0.0142295904053547,-0.0230689444243586,-0.0033370546553332,7.736847130137986,4.283264052414977,2.0341834681559967,1107.7257284309803,1135.8697086359928,1131.6384850570291,1115.6382978284198,-147.764011943097,-43.24728310555263,183.1405339355542,269.2293314755248,148.5454610860057
46.75,0.749951620701133,-1.0567765060435148,-0.6091505946453775,-0.0511162891224249,0.0034105822266931,-0.0306082870446191,0.0062163066236685,-0.0026765433121105,0.0653660322887256,0.9978383042293574,-0.0418461124423165,0.0029790921044086,9.664644802456616,-0.0144259806665131,-0.0232695861961979,-0.003717525777514,7.73681695646704,4.283197639853359,2.034174857459613,1107.289718225925,1135.5228953026108,1131.828955530381,1116.455585429308,-163.53532921685976,-217.8298372297539,-29.12596542185304,314.71383606650727,148.5413583505631
46.7525,1.0496805627803432,-0.9985782732970084,-0.4719207008619927,-0.0478098684766378,0.0015057199743688,-0.0321856787588475,0.0061850246432124,-0.0026986060710834,0.0653312592331621,0.9978407166246314,-0.0428200275583573,0.0026229332633421,9.664018377120893,-0.0146203591911192,-0.023458214069127,-0.0041021592525979,7.736786150275629,4.28313101355003,2.0341648895826467,1106.9080517848968,1134.7805594498452,1131.49285522992,1117.2118670087507,-144.44605992918582,-382.0487073678897,-213.37157321075208,296.5244663080586,148.5379575863992
46.755,1.210106670042434,-0.978134614442259,-0.2837084561097054,-0.0428415284972361,0.0002434292280631,-0.0340627440210004,0.0061553404615676,-0.0027138203855428,0.0652945531973177,0.9978432632523012,-0.0438823024788174,0.0022370721597605,9.663742530384033,-0.0148129021545676,-0.0236355180270144,-0.0044895742762236,7.7367548444967555,4.2830641347205365,2.034153321705091,1106.5674879262788,1133.6126517657704,1130.7620976643268,1117.938207760849,-120.9667185227608,-518.856207398365,-338.59632547424513,270.8178009104792,148.53458097562446
46.7575,1.2345945574975137,-0.9941543128148164,-0.0518926358685037,-0.037231200243648,-0.0009063359410309,-0.035893131892583,0.0061261810707299,-0.0027248362594615,0.0652578891959523,0.9978458139632072,-0.0449830471014712,0.0017733171271892,9.663846463609268,-0.0150043497237741,-0.0238027380750872,-0.0048780113878893,7.736723900365916,4.282996780399444,2.0341394863991704,1106.3032181922829,1132.186278412852,1129.799873602548,1118.565956013304,-78.61245293923149,-599.7393466904665,-418.53481921609136,215.57764413165887,148.53122883496323
46.76,1.1076231096388507,-1.043245703564962,0.2161002162718961,-0.032452763611431,-0.002459336487557,-0.0368392395810724,0.0060961131896692,-0.002736774086082,0.0652253261163001,0.9978480984310938,-0.0460237765289004,0.0011792982351215,9.664355897308631,-0.0151959703971074,-0.0239615988394262,-0.0052657403944068,7.736694201953898,4.28292896756083,2.034123695645642,1106.1744256615827,1130.6139550323207,1128.6694235682482,1119.0160959815064,-15.3960491563715,-679.0303614462282,-510.04437377374694,152.21517592841735,148.52791219049564
46.7625,0.8406383703061797,-1.1066635446214956,0.5338006380616414,-0.0293967718700953,-0.0053128106507843,-0.0357528238638595,0.0060628654258084,-0.0027544553944964,0.0652006355736535,0.9978498710872654,-0.0469107124582326,0.0003938667405652,9.665292919586799,-0.015389244006426,-0.0241143828424559,-0.005651315430056,7.736665956598194,4.282861797878353,2.0341067995982733,1106.2262379465008,1128.7911266056192,1127.2496517336779,1119.3270318929465,60.28645045882157,-627.8006291299306,-513.9346830900294,79.07845688906083,148.52398179215612
46.765,0.5820837766739715,-1.1312376366712231,0.7538710917501334,-0.0290162556009991,-0.0085903958562882,-0.0330391027328032,0.0060247822469457,-0.0027768913759621,0.0651823430143613,0.9978512395661108,-0.0476586174962586,-0.0006174191994771,9.666675610657053,-0.0155852946874575,-0.0242640472763775,-0.0060337393551892,7.736637780520626,4.282795931886209,2.034089660656505,1106.4758579138772,1127.4749518866695,1126.0997501527968,1119.411488265952,150.40127250026708,-460.3485226518026,-435.6609277224249,6.166348859875294,148.52075458952936
46.7675,0.347234446151744,-1.091912130204293,0.8883143719557329,-0.0296761583093428,-0.0122999345051468,-0.0295920211608861,0.0059807837049397,-0.0028014140047509,0.0651691439238892,0.9978523020381712,-0.0483112709618039,-0.0018670343625397,9.668518268860867,-0.0157849898995417,-0.0244138774520778,-0.0064123249749339,7.736608214444557,4.282731547868217,2.0340724630978566,1106.9782443090016,1126.4893839923623,1125.0713470950675,1119.3578636372458,285.6760784979445,-347.87956278160374,-410.1912884133701,-44.552840066876286,148.51758613433284
46.77,0.1314286708961388,-0.9483649613603526,0.9329946671536116,-0.0306805390596714,-0.016512910667179,-0.0256036116314212,0.0059320944463141,-0.0028263938639355,0.0651609388496225,0.9978530617941956,-0.0488869379303498,-0.0033151411564378,9.670831494359748,-0.0159890101272187,-0.0245672048687294,-0.0067864232495746,7.736576947140608,4.282668233545053,2.0340549175807916,1107.9042383063677,1125.7355540727604,1124.048793710729,1119.1887240656174,393.49906453028655,-209.20200779531325,-334.8335451400195,-73.47597612520865,148.51386236006076
46.7725,0.0126208440704813,-0.7469685415063377,0.8784042366509067,-0.0312729889462041,-0.0194981208783745,-0.022759592994115,0.0058827063026492,-0.0028493352675946,0.0651555650075866,0.9978536430534546,-0.0494145366937241,-0.0048587509654576,9.673622076746398,-0.0161977814614664,-0.0247272503477083,-0.0071553424844564,7.736544191191451,4.282605617018881,2.0340366563571313,1108.945739631654,1125.4433739533852,1123.3971793693668,1118.9904837566196,464.25936805209335,-60.274315296974486,-220.67448783920617,-87.47401010376731,148.51083182966912
46.775,-0.0539003496892238,-0.4757087113301953,0.7500069857519687,-0.0315763011599121,-0.0216202479937178,-0.0206705711827875,0.0058363593874274,-0.0028683628519591,0.0651475750556836,0.9978543847610116,-0.0499089630188349,-0.0063925898628984,9.676893153430678,-0.0164115638713539,-0.0248969018717535,-0.0075183875396324,7.736510800447168,4.282543498825325,2.0340180386901183,1110.225535146626,1125.434182496276,1122.9454212715339,1118.7513540150987,596.63329338447,43.40329344238452,-161.3389359747173,-113.19435518738494,148.5078848817784
46.7775,-0.0969272908976644,-0.1039686646860418,0.5442742219505629,-0.0317571467974071,-0.0228589680709979,-0.0189825571345179,0.0057951436985686,-0.0028811467258639,0.065130625014075,0.99785569583428,-0.0503941374277789,-0.007835519224876,9.680643998312073,-0.0166306073884753,-0.0250784476983513,-0.0078748948375756,7.736477990195776,4.282481346880106,2.033999424036893,1111.928906098578,1125.6603904205972,1122.5904846894928,1118.4245119806824,631.2535373429408,111.32735440681915,-105.55289703974324,-125.23132075005338,148.50445407586707
46.78,-0.1208396339107899,0.2119074062123712,0.3543939038345085,-0.0317069810533361,-0.022593913172482,-0.0181446495447684,0.0057585707866927,-0.0028884710830252,0.0651024279267088,0.9978577259204812,-0.0508360910992226,-0.0091538142610687,9.684869926212183,-0.0168553854587296,-0.0252732882319289,-0.0082240710271179,7.736445693695411,4.282418452065925,2.0339805673597815,1113.3818028333424,1125.9908192683104,1122.4176567863349,1118.1251974113484,561.6711891509218,152.5398729295853,-45.32019522202546,-121.42780941128096,148.50168910843823
46.7825,-0.1516890799421796,0.4940970220897118,0.1712563604343942,-0.0313904748362651,-0.0211347205470829,-0.0178744318130831,0.0057255920937643,-0.0028954644468605,0.0650633587290725,0.9978604411070447,-0.0511171547975977,-0.0103255671310465,9.689561876933286,-0.0170864231733537,-0.0254819941838226,-0.0085647348984176,7.736413447932213,4.282354433170892,2.033961141959145,1114.73726204433,1126.4230897852444,1122.3638837133828,1117.8173729336263,509.13735736436473,185.08478651933356,4.926095195830594,-119.3996248991269,148.4990285590884
46.785,-0.1969378051738104,0.7229208694414067,0.0093620717467897,-0.0310734564857906,-0.0189354958512112,-0.0181185934548005,0.0056969172018,-0.0029059256097496,0.0650148559867219,0.9978637320897408,-0.0511433348488394,-0.0112906914288762,9.694705577704404,-0.0173240142676375,-0.025704462694193,-0.0088952797517516,7.7363816138709955,4.282289768065326,2.0339415486967027,1115.9274896201655,1126.9162432009075,1122.442287262314,1117.5281992868524,422.2013427735533,204.89308497052184,81.25180078145993,-103.2230435172932,148.4964593490163
46.7875,-0.2596477943595474,0.866939247458434,-0.1141904190395786,-0.0310499642867835,-0.0160677980137211,-0.0187628290234467,0.0056729637334677,-0.002922736255886,0.0649584304981969,0.9978674897466842,-0.0508398138994746,-0.0119930326604454,9.700281235376659,-0.0175680547461892,-0.0259399699767023,-0.0092136895430839,7.7363503971931,4.2822248133971135,2.03392173761754,1116.8482687581989,1127.4475552100976,1122.7701427172904,1117.3012577160396,333.2312619735451,227.4912413727884,229.5514141525287,-75.02125414773674,148.49400563057003
46.79,-0.3427304910083314,0.9322836918366972,-0.2112509802693765,-0.0315683345868441,-0.0123316138482632,-0.0196605997314894,0.0056511430696455,-0.0029459711848678,0.0648961543185863,0.9978715936459892,-0.0501920275373734,-0.0124323945907111,9.706263185331073,-0.0178178773770741,-0.0261871088971433,-0.0095176718180265,7.73631910671873,4.28215925255525,2.0339005122896765,1117.5936459300317,1128.0536994077704,1123.5900443330756,1117.153093016114,210.9650766643257,201.3520085953921,385.15328118113155,-26.752050396030384,148.49120110363327
46.7925,-0.4034185700029354,0.903743162010572,-0.2504299418623628,-0.032478541498106,-0.0094288106420815,-0.0203848528865094,0.0056302394689192,-0.0029734831177015,0.0648322815158493,0.9978757803253488,-0.0492300576571707,-0.0125821880607569,9.712619623329783,-0.0180722356161977,-0.0264437983997385,-0.009804427829747,7.73628669490714,4.282092661280951,2.033876812941341,1117.903094141521,1128.454315253075,1124.6959091231968,1117.1674974640596,59.144475193958655,118.15669418000064,525.627333453171,41.20665634352628,148.48898494521305
46.795,-0.4351009786861617,0.810810620855995,-0.2518171671832102,-0.0337005778345605,-0.0069559876092362,-0.0209867239181431,0.005608252663961,-0.0030015526931512,0.0647727498413437,0.9978796864774084,-0.0480197432307518,-0.0124337408862598,9.719312863350765,-0.0183293023102104,-0.0267072860569001,-0.0100709317840745,7.7362524379116815,4.282024099377639,2.033849817518376,1117.8893683060016,1128.6444828786707,1126.2181810003428,1117.3591262978318,-77.65734891197795,18.735019351396417,728.5958875551192,129.95588619285624,148.48689909909012
46.7975,-0.4187141897844523,0.6619998543464171,-0.2179472628771124,-0.0352095653009756,-0.0048666464898963,-0.0215117810772947,0.005583907073715,-0.0030272611526944,0.0647221460805626,0.9978830309510904,-0.0466153271744216,-0.0119718194461678,9.726299885413411,-0.0185867119259783,-0.0269743992932143,-0.0103140985512327,7.736216164131859,4.281952548517568,2.0338191699458323,1117.5148073969615,1128.547990349832,1128.3388885609693,1117.8172768950233,-190.93235941081056,-89.09554730721528,782.2521356168272,205.3764998923129,148.48455178122788
46.8,-0.3475741927638172,0.5369819694107902,-0.1650895641909728,-0.0366900463969581,-0.0041700281061904,-0.021868054292512,0.0055567154797346,-0.0030484918213302,0.064682125571529,0.997885716451085,-0.0450596342313115,-0.0111746162633866,9.733533152053212,-0.0188417162358167,-0.0272418567153455,-0.0105311902165572,7.736177889358162,4.281877478027824,2.033785502421308,1116.934706508947,1128.1990051421344,1130.1294416784287,1118.386008797294,-272.2986698947778,-174.57906804311443,661.499262420355,258.42475947084006,148.48272879289615
46.8025,-0.2088209706197235,0.4402790164184485,-0.0905346635350104,-0.0385055309532374,-0.0043778211133725,-0.0221807068096328,0.0055303521207834,-0.0030629945129594,0.0646510653385525,0.9978878346761096,-0.0433980784884137,-0.0099476974440327,9.740961586193448,-0.0190914134575199,-0.0275066998416765,-0.0107200472073978,7.736137891291315,4.281800311193765,2.0337502000105996,1116.153314047487,1127.675095009616,1131.6463848730727,1119.109400692378,-360.3719855719741,-223.56641329185877,545.3259884746288,334.89944864566934,148.4810476123907
46.805,0.0268176787458186,0.3688611629466018,0.0205398126748392,-0.04048865890242,-0.0047508565555341,-0.0224652183963998,0.0055077008072639,-0.003071444134126,0.064627654847417,0.9978894525551044,-0.0416254419813329,-0.0082238772231929,9.748532282814084,-0.0193332471898171,-0.02776632791598,-0.0108795223714762,7.736096039894899,4.281722519095633,2.0337144308367554,1115.1328465810889,1127.081173075676,1132.8560716207996,1120.0605060405207,-360.5200450433681,-169.9355262464632,314.45664116942174,343.32420377722275,148.47919791133876
46.8075,0.2559374867974361,0.3366122395221566,0.1274689331404635,-0.0412326082219958,-0.0043885161756881,-0.0225729025017956,0.0054879210461489,-0.0030743476996938,0.0646101718564885,0.9978906853238138,-0.039749020460421,-0.0060167039787701,9.756192067258388,-0.0195651108519889,-0.028018549863587,-0.0110098483568995,7.736052415039374,4.281644411468994,2.033679278268435,1114.3507138222717,1126.8254173783844,1133.2186680789184,1120.8260217112627,-266.33805703354494,-7.5770539851835,1.261245504246554,275.3702089765694,148.47779871422912
46.81,0.4687101692146083,0.3060753955540629,0.2414758112926903,-0.0402470333009655,-0.0032898829631272,-0.022373865251236,0.0054677476338114,-0.0030726764567789,0.0645979744347464,0.9978915906241328,-0.037773994178459,-0.003395965598007,9.763889113077248,-0.0197856350662148,-0.0282615028313074,-0.0111124743605856,7.736007561145247,4.28156606167803,2.033645781982228,1113.8011562959205,1127.04328780575,1132.8623778483209,1121.4373570854043,-162.77259617814565,186.57185923866115,-252.37520749702344,201.87314968187496,148.47654972798637
46.8125,0.6234938908981292,0.2555872758778205,0.3522314830323564,-0.0377230430371003,-0.0018794549814742,-0.0219424898862373,0.0054453613156265,-0.0030701837417856,0.0645909717383053,0.997892173443219,-0.0356523093599593,-0.000415133661984,9.77157429095281,-0.0199943466899857,-0.0284936674997584,-0.0111895362576128,7.735962871317088,4.281487780577754,2.033614334184055,1113.5368508413803,1127.758276674578,1131.9567920414327,1121.8353874596723,-26.39635276157277,408.02617627174,-466.5270638569532,93.47460024709424,148.47542698954192
46.815,0.6646938385797517,0.1632530855006706,0.4440657387507641,-0.0342379756980194,-0.0003809684539094,-0.0212530149267888,0.0054195032899053,-0.0030710535537409,0.0645834790789484,0.997892795730937,-0.0333282255639542,0.0028742259117326,9.779202257514253,-0.020191253551036,-0.028714008164964,-0.0112436699983771,7.735919346803744,4.281409563838275,2.033584972064788,1113.6691745321127,1129.083418687107,1130.5297425290382,1121.9047300866391,146.73233702930472,695.7097832588794,-697.147713728289,-51.43231136541642,148.4744582274166
46.8175,0.558193174046315,-0.0016157954317749,0.5078436788697555,-0.0304424613032241,0.0008514672613262,-0.0198973869985988,0.0053892120811753,-0.0030766464383162,0.0645693376372641,0.9978938570364304,-0.0308015322928074,0.0064224284223802,9.78673218055934,-0.0203768823616386,-0.0289216849677413,-0.0112778014426351,7.735877023544672,4.281331472652993,2.03355751972077,1114.2705125265275,1131.2368255908743,1128.4710534727894,1121.5782259028451,281.35754356907614,844.6693433321113,-769.5165120866178,-181.73376586500837,148.473475592256
46.82,0.3468793243837184,-0.1752969729125417,0.5023513383517332,-0.0282522878517996,0.0011911174516173,-0.018157209498274,0.0053516246097618,-0.0030832686410148,0.0645467341557111,0.9978955003382816,-0.0281734324101671,0.0101423792892349,9.794128328851134,-0.0205522563114853,-0.0291157305593659,-0.0112950379765306,7.735835638280408,4.281253263763436,2.03353184553942,1115.0759622499588,1133.3067654037695,1126.6821599686032,1120.9960612573138,362.3961376433384,828.9846455567193,-680.1322885939318,-278.04886538654324,148.47280772487176
46.8225,0.0400834801987985,-0.3648532384511268,0.4165671149109763,-0.027628918674813,0.0008935448404346,-0.0158698846354449,0.0053050537560214,-0.0030881297279209,0.0645167274041696,0.9978976736436868,-0.0255256505218091,0.013962376310193,9.801360044295505,-0.020718723625073,-0.0292951028229795,-0.0112979760345721,7.735794806241682,4.281174696481518,2.033507124464261,1116.0824932147425,1135.381748818654,1125.0703920298229,1120.187981575914,461.84141915709023,852.9792165018719,-619.5871196060139,-376.03422905584785,148.4722975812844
46.825,-0.3885295265242547,-0.5758678647751972,0.2165692758210368,-0.0288683545274213,-0.0002206059583777,-0.0130247434115666,0.0052509274359562,-0.0030923552919303,0.0644802420929601,0.9979003046188007,-0.0228583684792822,0.0178605647633463,9.808401146790004,-0.0208776709396376,-0.0294588181001896,-0.011288258629258,7.735754722554195,4.281095675550675,2.0334820680682384,1117.3851693457455,1137.5716614862813,1123.5842243705715,1119.1158901120336,478.5371480765487,719.2835518000678,-446.72904814719794,-385.6238127576335,148.47186851569947
46.8275,-0.762952102066924,-0.7086278851985685,-0.0143335991369614,-0.0310599458370217,-0.0018804037152067,-0.0114067267917324,0.005193791231775,-0.0030966519650595,0.0644386250868575,0.997903278914447,-0.0201746547790352,0.0218712617272462,9.815229093171764,-0.0210302949016135,-0.0296059321704503,-0.0112666732379474,7.735715145041272,4.281016659379383,2.033456414592225,1118.4751789551265,1138.9781665776563,1122.8367467890855,1118.2598625121248,429.8139226112924,453.4672179454933,-186.69837909609367,-309.60539630314963,148.47166384365138
46.83,-1.1283921748917671,-0.7612441676109262,-0.2674884332771021,-0.0335926790174945,-0.004385050736931,-0.0116897714564175,0.0051383062956218,-0.0031015587626472,0.0643933521332421,0.9979064741149112,-0.0174793499577392,0.0260265688422848,9.821824432542943,-0.0211774416011519,-0.0297354607067062,-0.011233387277136,7.735675429105307,4.280937943863557,2.0334300983983247,1119.5342389588,1139.8389975760067,1122.650732475092,1117.5678631305193,464.2126654658467,249.71323282594267,39.9813257452729,-249.0828127535769,148.4716177859891
46.8325,-1.536933365605246,-0.7001177559192695,-0.5308054893428861,-0.0369804922775686,-0.0081151510513528,-0.0142116528813493,0.0050835931073324,-0.0031070722180134,0.0643446060625004,0.9979098812459716,-0.0147937695217515,0.030246505729095,9.82817070209391,-0.0213194183813975,-0.0298462456750358,-0.0111884255425869,7.735635099643376,4.2808592400929335,2.033402830215435,1120.796242282457,1140.2267327417867,1123.0366534178122,1117.0144484483562,470.65980632472497,44.313962348792366,230.06532912060771,-154.54497609472406,148.47174499748067
46.835,-1.8372074351743444,-0.5372806596724486,-0.6758723142128557,-0.0406986646108854,-0.0111544488149921,-0.0171945003102845,0.0050258029021202,-0.0031124614148893,0.0642946891292543,0.9979133726158926,-0.012156274154223,0.0343903663679403,9.834253588929856,-0.0214561964434222,-0.0299368084945459,-0.0111316645227403,7.735593472679997,4.280779393115195,2.033374565512008,1121.8875379904248,1140.0605673877508,1123.8010591206955,1116.7951382500453,456.14266786870405,-149.64350220384372,382.68889971780726,-47.580750023505594,148.472001821575
46.8375,-2.072323576332667,-0.2724362102408666,-0.718120485121565,-0.0456188146180446,-0.0130385510278137,-0.0201585559893817,0.0049597080739409,-0.0031156700059992,0.0642472145284315,0.9979167476322768,-0.009632212782613,0.0382894512111689,9.840060235043836,-0.0215874533052696,-0.0300054477602841,-0.0110629143507206,7.7355503533183185,4.280698137549738,2.0333460834556227,1123.0769556217983,1139.478515230768,1124.9500979163995,1116.7765446982387,497.11844808127387,-287.4314930189833,515.9655463584475,11.671712086257171,148.47241297661623
46.84,-2.2353245102669983,0.0505805455519644,-0.6739505554528854,-0.0514262257738102,-0.0135445082247806,-0.0228490835647537,0.004883143700918,-0.003115434699299,0.0642035213583643,0.9979199344971624,-0.007267064007965,0.041832674970969,9.845578143269659,-0.0217125846578063,-0.0300506153257447,-0.0109816667727313,7.735506031043643,4.28061523883707,2.033317749111992,1124.3731302308324,1138.6234099226551,1126.380886852489,1116.8534968104764,543.622079176652,-392.51296369359727,634.0370524950624,35.11848616242809,148.4729499263938
46.8425,-2.296493041194324,0.4033608422949649,-0.5417822193936583,-0.0579316713391237,-0.0122202306075332,-0.0249694336763054,0.0047984378588991,-0.0031109852893047,0.0641656536151177,0.997922791252468,-0.0050904638254486,0.0449968829133185,9.850794556166436,-0.0218310484433134,-0.0300710026009337,-0.0108870536564638,7.735461441097946,4.280530590124509,2.0332895181224715,1125.7950660176828,1137.5159504122992,1128.1202831788764,1116.9521371290512,643.5222444309088,-527.5990021345275,824.1946553466954,30.53328680751341,148.4736352725874
46.845,-2.2506720863342053,0.8156365998462642,-0.31837878013023,-0.0653976747088744,-0.009016977843423,-0.0265343236294253,0.0047062532829832,-0.0030994057068944,0.0641363573025991,0.9979251447896716,-0.0031757958320048,0.0477310112887683,9.855697345159305,-0.0219423967342331,-0.0300656389301474,-0.010778359269062,7.73541685030566,4.28044385292126,2.0332608943099624,1127.590741452984,1135.985414911985,1130.5018601292188,1117.006163244514,656.6307331443392,-581.2690940723977,905.0229657174813,3.9960054305972807,148.4746241570466
46.8475,-2.125236000287484,1.1308395038347134,-0.1117974595982812,-0.0709064761542501,-0.0058647976152829,-0.0268244113742209,0.0046070756678704,-0.0030808067322165,0.0641154719132128,0.997926999919101,-0.0015366823648951,0.0499806517007164,9.860274898136765,-0.0220462024891807,-0.0300343588044712,-0.0106547930078877,7.735371898945034,4.280355032645121,2.033230911692696,1129.0782196834064,1134.6096049419357,1132.645398007466,1116.972117156204,563.0129942373817,-552.8508892258642,858.4329975968259,-26.063886222014244,148.47558263564216
46.85,-1.9325636418317889,1.4114039066485269,0.0758546461631067,-0.0757970398418137,-0.0028154735336529,-0.02605473209056,0.0044993061713904,-0.0030564614029533,0.0641026504839151,0.9979283802578602,-0.000165534819956,0.0516551305400046,9.86451692626739,-0.0221422036980811,-0.0299779549268936,-0.0105158580151645,7.735326706733499,4.280264959094816,2.0331992509873875,1130.4058064241724,1133.221160465854,1134.7940251172051,1116.875843813404,502.0166736243954,-590.0012385217815,901.0523875191675,-42.63237057379468,148.4766747606755
46.8525,-1.6544992533503875,1.7110318966473623,0.2436626014987373,-0.0809894646534016,0.0009424795338824,-0.0243804925835136,0.0043830880878317,-0.0030258687232563,0.0640956353898995,0.9979294304682468,0.0009137495219971,0.0527087431385368,9.86841462390735,-0.0222301731957775,-0.0298985926876774,-0.0103614952421764,7.735281414059661,4.2801749093762735,2.0331665007270145,1131.588303051526,1131.6595987493295,1137.150659945058,1116.7589553033351,329.85854550708103,-537.6858312353737,795.6444292824494,-29.370136981773136,148.47813210405027
46.855,-1.407177807354012,1.9277735579538968,0.3225028270136898,-0.0845064287399458,0.004609532173889,-0.0228265297959326,0.0042595478381237,-0.0029854473389242,0.0640897373706735,0.9979304571089888,0.0016194392777024,0.0531297333886492,9.87196170408876,-0.0223098744109048,-0.0297999264354767,-0.0101924375541484,7.735235460186256,4.280086121515152,2.0331341252942448,1132.0550991517086,1130.532731309676,1138.7722472636194,1116.7289931284947,43.36731090418253,-396.76455484684703,550.8375585944488,19.706636071522475,148.47946265000527
46.8575,-1.170719869979621,2.0974278428201902,0.33813310343339,-0.0871065779313407,0.0092619448230844,-0.0215268379095838,0.0041314054624612,-0.0029338908000814,0.0640804247821325,0.9979317433403284,0.0019189988111802,0.0529475688594815,9.875155040497674,-0.0223813528303392,-0.0296869089311284,-0.0100100700447285,7.73518839917003,4.279999812890043,2.033103363691488,1131.805139606047,1129.6757759750942,1139.9048477380315,1116.857488483693,-294.42172853241067,-301.2330304355612,374.11999532421225,113.81998000625919,148.48090553512185
46.86,-0.9244898186875234,2.2231532676206887,0.2985424855864627,-0.0892677740387283,0.0157859352523586,-0.0204560504030463,0.0040047601085197,-0.002873185917819,0.0640681450008176,0.9979332273776924,0.0018526090831953,0.0522684193896767,9.877995246154848,-0.0224452993073562,-0.0295653439984377,-0.0098162114880773,7.7351403932881535,4.279916389531841,2.033074492074737,1130.582990509048,1129.0265661574995,1140.6428472402388,1117.2980930285255,-592.7373605832296,-170.63220984110015,172.0352703113833,223.7214500225256,148.4827564806436
46.8625,-0.7608146014130925,2.246792324967541,0.2320699954526966,-0.0905079284522239,0.02157368092736,-0.0199479694634042,0.0038843646673409,-0.0028080936124461,0.0640528717083281,0.9979348762625015,0.0015171669525382,0.05118349910045,9.880488340635084,-0.0225027655661871,-0.0294416459930001,-0.0096132487311684,7.735091823703189,4.279836312547848,2.033047704980581,1128.8414528031294,1128.8226149258883,1140.765024089589,1117.9760957338062,-807.3618787988343,-12.991134084125129,-35.593568003268935,349.39067144264607,148.48439030880795
46.865,-0.6401869638869137,2.173106828668861,0.1487231092678079,-0.0915695660692259,0.0274445041622807,-0.0197360621782289,0.0037726735955608,-0.0027445126721041,0.0640331852182384,0.9979367537655824,0.0010332931968467,0.0497524694576584,9.88264654889304,-0.0225550946441888,-0.0293224117360745,-0.0094040340736626,7.735043096037469,4.279760180006813,2.0330232193837783,1126.5461811150517,1128.9616104870788,1140.4648794002223,1119.0450463857399,-963.7782966795056,106.69938439214702,-171.08926846887795,496.26107767448616,148.48610846646437
46.8675,-0.5465274212918415,2.015468312441188,0.0624650242054914,-0.0927448171364098,0.0331270008439806,-0.0196900526676072,0.0036697641345427,-0.002685443107097,0.0640083492366586,0.997938898253426,0.0004662122300402,0.0480063542791263,9.884488660207415,-0.022603923883543,-0.0292138140422643,-0.0091917997570797,7.734994562709724,4.279688033044174,2.033001117370582,1124.0225613197363,1129.3561118478483,1139.9095777472453,1120.4574011221764,-998.8294330993529,206.7889673304824,-257.7231319448017,639.7838576008232,148.48788816758207
46.87,-0.4686268845766362,1.76227036539794,-0.0173298065080481,-0.0941796817834992,0.0381434793208955,-0.0197769583092606,0.0035741201133838,-0.0026293489937059,0.0639776000938513,0.9979413690171955,-0.0002054220318098,0.0459636523180874,9.886039719576516,-0.0226510189804601,-0.0291211043867126,-0.0089799089855354,7.734946444175335,4.279618876848288,2.03298091751418,1121.5520339495595,1129.9955553237303,1139.1762637404995,1122.243965673741,-992.2631205088163,316.28036621688995,-330.92750889815204,844.4860539362934,148.48973162258824
46.8725,-0.37234581927535,1.366916008629742,-0.0960351037609644,-0.096030966124137,0.0432873323006096,-0.0199927795743795,0.003481087558071,-0.0025724465784296,0.0639430408861362,0.9979440597002333,-0.0010460607343836,0.0435949142205882,9.88733052619958,-0.022698358198033,-0.0290479856988705,-0.0087716179920416,7.7348988869985424,4.279550730369968,2.0329620618027477,1119.0612457171896,1130.9375136789336,1138.2549402027537,1124.67983139186,-784.8809592929306,357.24581936287814,-324.324549539158,911.132948758393,148.49200432255975
46.875,-0.2799804195861341,0.9825806190635276,-0.1416534966003885,-0.0973880522167781,0.0467281755244116,-0.0202575093005729,0.0033853709149927,-0.0025135708812256,0.063909841751108,0.9979466634088108,-0.0020642330169444,0.0408632504967761,9.88839603676501,-0.0227481057530342,-0.0289963897293025,-0.0085695613858417,7.734851593637523,4.279481745306704,2.032943530778071,1117.6276291530928,1131.7817844205456,1137.554640992803,1126.7996304175351,-402.7414685956071,331.25973279600765,-250.80598648455708,824.8131673871965,148.4939395178533
46.8775,-0.1727095573580742,0.5763110352333871,-0.1598693271736744,-0.0982049304910688,0.048888810196874,-0.0206019296391417,0.0032840787919093,-0.0024551202642416,0.0638855814700547,0.9979486996938528,-0.0031905166692162,0.0377803754208094,9.88927363129244,-0.0228025006265426,-0.0289665731978128,-0.008375484981296,7.7348047102914785,4.279410451307869,2.0329244540033646,1117.0475383742134,1132.5938123429123,1137.000910270332,1128.8038972287923,-46.855039577416065,333.298410850432,-207.4297358716952,810.473771146002,148.49590709130524
46.88,-0.033099634298985,0.1138755114422671,-0.141913677666619,-0.0984922801130826,0.049867364970319,-0.0210526728591032,0.0031757360319944,-0.0023966763706095,0.0638719874655863,0.9979500635266064,-0.0044059933232464,0.034392098007143,9.890002065097347,-0.0228632198450104,-0.0289577305912949,-0.0081906513321875,7.734758144712393,4.279336654291991,2.0329052702573014,1117.3933539552056,1133.4482764747986,1136.5174923134439,1130.8519992732674,287.42156594856925,285.3458498116556,-154.6670575557191,667.5289847465815,148.49829407341198
46.8825,0.0857040501104864,-0.2113248840028404,-0.0877334920617153,-0.0982532531995402,0.0493769703287556,-0.0214083082808234,0.0030624870713004,-0.0023393407471961,0.0638651909741771,0.9979509912254888,-0.0056545597265584,0.0308133877493616,9.890619476310963,-0.0229314374861884,-0.0289683765321167,-0.0080156261398037,7.734712188363417,4.2792610510645686,2.032887150864034,1118.484646203957,1134.020541591971,1136.227574982553,1132.1415421525269,566.3712413876659,194.55703335697268,-106.6718247596388,415.81047762908,148.50029677878146
46.885,0.2009106236282392,-0.4307136512518561,0.0136592835044258,-0.0975732400192162,0.0476240021504113,-0.0218188111040562,0.0029469358107361,-0.0022831486290368,0.0638622687020303,0.997951660176622,-0.0068984229172089,0.0271666425239007,9.891162281549088,-0.023008097378864,-0.0289963293047148,-0.0078505706919421,7.734667056823508,4.2791844195381525,2.0328709170223997,1120.2252101621411,1134.4210616415824,1135.984133189646,1132.9310516614107,854.1413453023955,133.28336191746078,-110.07568449211983,236.76578801761644,148.5023044356011
46.8875,0.3333164123661435,-0.5358326496660628,0.1931321099051643,-0.0964211943690379,0.0443206319231431,-0.0224111269764942,0.0028303897696712,-0.0022268441224397,0.0638597520953667,0.997952290465648,-0.0081260462342621,0.0235449327507507,9.891663653042787,-0.0230937184626839,-0.0290389868052963,-0.0076952124248092,7.7346225450928845,4.279106919354983,2.0328565993810606,1122.7553529304712,1134.6869584015587,1135.677196560092,1133.3253710926156,950.8420978181812,59.90920676169144,-118.90675873672365,67.14473161656518,148.5047093380319
46.89,0.4421871252279157,-0.4832935316662158,0.3857550727944294,-0.0954404982712755,0.0410603817148947,-0.022810022346496,0.0027132578873815,-0.0021713575226452,0.0638558854155042,0.9979529902536532,-0.0092841839143612,0.0200135511855774,9.892151627109328,-0.0231884605399949,-0.0290933919485168,-0.0075484652459328,7.7345786710575934,4.279028091312738,2.0328433538875386,1124.9794206512347,1134.7206076753912,1135.3895993959623,1133.266775319494,857.5242568903445,-27.20195665122192,-117.7442532987859,-79.19808495151229,148.5067029161692
46.8925,0.5568588647253345,-0.3053611070967981,0.6020026501103706,-0.0946682323545396,0.0384739670504952,-0.0225834855586645,0.0025950157242961,-0.0021156852584284,0.0638509489488898,0.9979537443171111,-0.010360700662601,0.0166130404112061,9.892647580139663,-0.0232919726811294,-0.029156388834844,-0.0074084543862485,7.73453493188796,4.278947950392593,2.0328297928670938,1127.042974214919,1134.5509486183028,1135.0884752935988,1132.9293806678584,766.7911436365727,-101.67257961651812,-115.0296201206268,-162.11606020111395,148.50867773955872
46.895,0.6799250698412563,-0.0617289796103598,0.8092924931153592,-0.0940448779335099,0.0374107324824227,-0.0212557990312135,0.002478633769834,-0.0020612127002829,0.0638447139982912,0.9979545552295722,-0.0112952049265449,0.0134400671371818,9.893164335654225,-0.0234032482045278,-0.0292249754747653,-0.0072720687264145,7.73449090616112,4.278867313750063,2.032814585024109,1128.8133763694195,1134.2122447773083,1134.8144512953588,1132.456195018488,616.0956660594852,-173.13171303826732,-92.3971565407992,-202.8090530981316,148.51063146143875
46.8975,0.8078937799008623,0.1982183212142656,0.9617114727617316,-0.0931615284021169,0.0385467215660747,-0.0182641310913221,0.0023670117076915,-0.0020085946370702,0.0638365894733788,0.9979554510483072,-0.0120464694929276,0.0105803304301881,9.893705657742291,-0.0235205676135701,-0.0292963524395746,-0.0071355078720009,7.73444632454161,4.2787868350488365,2.0327973019223076,1130.123452545218,1133.6852900531112,1134.6264895108943,1131.9153354023672,463.917488650999,-264.1113196410644,-52.729596362635434,-237.540355738372,148.5125533957608
46.9,0.9433951115693556,0.4533518740885928,1.0308904839053652,-0.0911731676603839,0.0417258636738721,-0.0135834810389642,0.0022592034742716,-0.0019556581901594,0.0638271361137626,0.9979564018668636,-0.0126397316271388,0.0080364409362631,9.89426606226002,-0.0236415838082213,-0.0293678030686806,-0.0069949383998477,7.734400743245247,4.278706556709783,2.0327778040337554,1131.1329638126724,1132.8916881791042,1134.5508033135459,1131.2684932397972,283.58961898947246,-302.67143314743385,0.3429816285914121,-232.4435574120064,148.5148152366466
46.9025,1.014551419359826,0.5833819875647117,0.9738718681323308,-0.0884496383928408,0.0447730270454565,-0.0099173126593089,0.002150452994345,-0.0018994994494667,0.0638177408667027,0.9979573361522606,-0.0131261988691864,0.0057260442919847,9.894830735785263,-0.0237634151789036,-0.0294366520108078,-0.0068467874438851,7.734353560610546,4.278626236053165,2.032756500608364,1131.541400640166,1132.1719328873733,1134.6282044190375,1130.7531176153063,89.63401614755601,-273.68859420489207,60.51639154281107,-203.9246685340325,148.5166577228667
46.905,1.010340657267418,0.6167181729837676,0.7975120323204447,-0.0845152541074683,0.0472500125296961,-0.0069917334819602,0.0020351628043113,-0.0018380577866546,0.0638087692781031,0.997958248664122,-0.0135488428292179,0.0035388132005688,9.895375906601792,-0.0238827243682507,-0.0295003415820424,-0.0066878586126885,7.734303781533353,4.278545068812437,2.032733764161805,1131.5811338934104,1131.523245208079,1134.85338527126,1130.2488698971265,-46.56003907207065,-232.5683021457576,133.77530394321528,-228.04785702644767,148.5184502560167
46.9075,0.9013484068251068,0.5622586931898536,0.4697274947867984,-0.0792218311012029,0.0492556272939809,-0.004095582183477,0.0019113741590647,-0.0017724198249688,0.0638024287794401,0.9979590020846116,-0.0138912770205999,0.0014227837032903,9.895869779375657,-0.0239962008098479,-0.0295563622041504,-0.0065152651024472,7.734251348483648,4.278462318570008,2.0327099250226817,1131.308600444806,1131.0090913766455,1135.2970809387527,1129.6128783301751,-139.58585747811543,-119.279404760512,193.05496196128968,-244.06079299666337,148.520537099985
46.91,0.7374045040537212,0.4598430261740249,0.1278282637208525,-0.0757977129062302,0.0502071577364411,-0.0025480684803345,0.0017806826253244,-0.0017025099893378,0.0637991731593846,0.997959566084094,-0.0141627860511212,-0.0006109293537023,9.896274476518174,-0.0241006506918988,-0.0296025194165026,-0.006326875500629,7.734196767764595,4.278378429457022,2.0326858114973767,1130.8832046060195,1130.926848184276,1135.818660081067,1129.0285659321423,-199.60164838211105,59.63997223426891,240.42459356761788,-245.7136853201171,148.52221830617245
46.9125,0.5434873433220486,0.3236757426979957,-0.23801557143064,-0.0748561116280319,0.050639701828556,-0.0024931094509879,0.0016493223357645,-0.001631838561203,0.0637953849742019,0.9979601537237112,-0.0143024726665012,-0.0024714717316694,9.896548158224196,-0.0241932628815053,-0.0296371803374021,-0.0061212077928088,7.734140685082727,4.278293590761742,2.032662045191586,1130.310592202895,1131.307291237817,1136.4992039065917,1128.384309903574,-279.38661898186126,277.42840864664447,329.1852989102419,-286.87776783375455,148.52383496222944
46.915,0.338473635347928,0.1426123432903812,-0.6393357258644449,-0.0757111142708535,0.0508062927210454,-0.0044318677690897,0.0015222924050805,-0.0015636137718088,0.0637884176304262,0.9979609197179484,-0.0142621773035811,-0.0040977695106452,9.896647931920992,-0.0242721062778848,-0.0296590689725863,-0.0058980372744835,7.734083988637018,4.278207689857971,2.0326393886555416,1129.4862715111115,1132.313990227508,1137.4645865756167,1127.594177092975,-324.25896021824667,446.3034958405378,366.4569125312881,-279.03344334881064,148.5256960258845
46.9175,0.219601146942501,-0.013882745514402,-0.8971036143972311,-0.0764630362095493,0.050762446446316,-0.0076045670371725,0.0014043121617125,-0.0014992538585236,0.0637765944852908,0.9979619619960828,-0.0140332735915369,-0.0054361321805266,9.896532333674209,-0.0243362568450737,-0.0296673966345448,-0.0056583798823158,7.734027574771104,4.27812094919235,2.0326182938330346,1128.6892974018028,1133.5388087170209,1138.331488469249,1126.9891426868292,-342.9961753090602,535.8716168526813,337.56794063839163,-214.4519987686448,148.52717863844202
46.92,0.1621402758351376,-0.1707123560203888,-1.0375384035343536,-0.0765678533330513,0.0505566555802071,-0.011684191982526,0.0012990820784742,-0.0014368147173132,0.063760467031313,0.9979632435874632,-0.0136770733277991,-0.006451092200427,9.896163872762516,-0.0243858749982977,-0.0296619164332364,-0.005404503439951,7.733971942106093,4.2780338388147765,2.0325989254236534,1127.7712906345653,1134.9933483117727,1139.1524262788096,1126.521917099131,-387.48471822885904,587.4187972413322,301.9489098821868,-156.33093735855832,148.52858813817804
46.9225,0.1481798392063368,-0.3251075272241009,-1.0717193527457267,-0.0764049649422881,0.0501624368683047,-0.0156514474268623,0.0012072746549955,-0.001376379298898,0.0637409467435155,0.997964706121212,-0.0132193699333462,-0.007170122097934,9.895511326210942,-0.0244220673284137,-0.0296430786882705,-0.0051396601248801,7.733917363602166,4.277947307291055,2.03258137080202,1126.7518738106603,1136.4759027032248,1139.8412330186586,1126.2074880000373,-427.1497664190608,560.586236284266,223.9209886955214,-88.21935239775519,148.52993587970235
46.925,0.1717671558892691,-0.4717518968202613,-0.990974693138612,-0.0760224080405563,0.0494113206763185,-0.0188427633456317,0.0011289971467267,-0.0013178072184704,0.0637155129848402,0.9979665121151202,-0.0126904128843496,-0.0076304044591665,9.894551584405312,-0.024446468200165,-0.0296122431261236,-0.0048678594148643,7.733864380413598,4.277862651284582,2.032565950190745,1125.6355418024689,1137.7962794931957,1140.2720312222875,1126.0808203371423,-496.4461201824822,502.03845297661934,114.52059290044014,-20.978138055841736,148.5312084438849
46.9275,0.2226919310002332,-0.6286826560289303,-0.7985191588732463,-0.0751402675618377,0.0479225668995951,-0.0215800932558523,0.0010646926618108,-0.0012608429095492,0.063682699776672,0.9979687576561116,-0.0121202834294014,-0.0078594919444392,9.893271114796434,-0.0244612604069476,-0.0295713181448984,-0.0045935993904098,7.733813509899609,4.2777804415856755,2.032553319210297,1124.2696432097466,1138.9860949681092,1140.413835983161,1126.102597309758,-485.7498525501212,350.92103361030325,-11.460340877112195,26.58900664626034,148.5326485273136
46.93,0.2707725090645462,-0.7342010372026653,-0.5917806269053033,-0.0739455510641346,0.0461474938677105,-0.0229542440506015,0.0010143805156869,-0.001205775347335,0.0636427449169632,0.9979714301120132,-0.0115258885665672,-0.0078897609904798,9.891666958610477,-0.024468888886426,-0.0295224620840637,-0.004321607549231,7.733764652756659,4.277699794465793,2.0325439779650405,1123.2067925397205,1139.5508846612456,1140.2147295179022,1126.2137653703735,-383.33440856584576,128.56799970152548,-132.90202544756804,50.48430783635966,148.5337765716066
46.9325,0.3163863976800553,-0.803009117690169,-0.3749648651783863,-0.0725747221406987,0.044037203404893,-0.0234420841204515,0.0009725136071536,-0.0011514779434521,0.0635991327437883,0.9979743163411104,-0.0109555137818379,-0.0078563695477115,9.889747404768388,-0.024471788309041,-0.0294677349330693,-0.0040568989935885,7.733716633646557,4.277619520604124,2.032537330944252,1122.3529711669191,1139.6289349666163,1139.7493258559239,1126.3550188489396,-303.1195025959091,-71.52817623528769,-237.94637627985696,55.33206954398236,148.53483081834406
46.935,0.3721462009779565,-0.835321198317789,-0.1370795176133063,-0.0710697907046253,0.0416532935623873,-0.0231703335512636,0.0009305790127479,-0.0010989118394103,0.0635552677874532,0.997977208577236,-0.0104162272376928,-0.0079494572670865,9.887531578267664,-0.0244719846297895,-0.0294091796575426,-0.0038041209444746,7.733668271959048,4.277539547447564,2.0325319002919526,1121.69119502674,1139.1932437800688,1139.0249976365023,1126.4904257180935,-174.1641188325066,-234.47866413454727,-269.145190489961,35.37139760444925,148.53601207489243
46.9375,0.4301029659152299,-0.8166815720442143,0.0282678628869019,-0.07031033891024,0.0397283373830618,-0.0224812159316156,0.0008845767591214,-0.0010483735890637,0.0635129443705025,0.9979799976998072,-0.0099189496173184,-0.0082625253016992,9.885048344605808,-0.0244709224121429,-0.0293489225714805,-0.0035670156669924,7.733619257381298,4.277459643214318,2.0325268365869342,1121.482150572756,1138.4565416459427,1138.4035999034732,1126.531875836962,-16.62154866591356,-348.97202415868287,-228.0440042104401,-6.853509410991004,148.53692789346144
46.94,0.5146825731586037,-0.7460758089632628,0.1563988169081255,-0.0704105604589701,0.0376663763565757,-0.0217213938550166,0.0008367180689722,-0.0009976055909939,0.0634729165244483,0.997982636824316,-0.0095139020518841,-0.0087564629185466,9.882335009128086,-0.0244695406864575,-0.0292891239729583,-0.0033483560819157,7.733569848337677,4.2773803800062415,2.0325225019271373,1121.6080872834107,1137.4483836592772,1137.8847776154512,1126.4561581710386,115.0751284990613,-472.6866669002758,-190.6952718390064,-67.01563902416846,148.53777436677484
46.9425,0.6489732707238095,-0.597489093540851,0.2778130630197987,-0.0705714414009149,0.0354395855428163,-0.0210003507602761,0.0007917321665114,-0.0009468529341092,0.0634370928199984,0.9979850003281108,-0.0091958693615609,-0.0093390190296206,9.879435739341158,-0.0244685007888739,-0.0292317836344476,-0.0031499414893339,7.733520458985425,4.2773020463848,2.032519227914418,1122.0575262152515,1136.0931083114403,1137.4501235442779,1126.1967976418407,198.54410083120305,-493.4666780873817,-129.66254193763876,-123.86585983234028,148.5387124045838
46.945,0.7702304341368577,-0.4207666950424587,0.3640489439702468,-0.0697069711658256,0.0337920360326608,-0.0205704835308423,0.0007513221850569,-0.0008965741504818,0.0634074236405052,0.9979869626567291,-0.0089569224170408,-0.0099716880953214,9.87639994168342,-0.0244681190276968,-0.0291786700535964,-0.0029729920810129,7.733470991154202,4.277224257542606,2.0325171879070596,1122.6008077875672,1134.9810502688388,1137.2364649057627,1125.8368288718766,236.22308812976937,-407.5347386851332,-67.98231372587723,-167.33659117109468,148.53943132134555
46.9475,0.8601225008556262,-0.1949429834063136,0.4469369138414804,-0.0674793297700422,0.0323192013566523,-0.0201900054533923,0.0007142274532057,-0.0008465417548039,0.0633861521370593,0.9979883831446232,-0.008804607101606,-0.0106679139641832,9.873280126564705,-0.0244683781655416,-0.0291312242769022,-0.0028180979253725,7.73342096046588,4.277147135820222,2.032515626748741,1123.2386416558995,1134.0554346180163,1137.1102119756488,1125.3601146859862,262.9589253717332,-317.25483934157774,-50.22963122148371,-198.74270727654056,148.54008770062035
46.95,0.8891251764643349,0.0601515352543212,0.5305355231871659,-0.0645218477511315,0.0313609729880367,-0.0196934723917524,0.0006739911889187,-0.000794323708005,0.0633754585685903,0.9979891299936344,-0.0087951551800074,-0.0115359217190379,9.870129791103537,-0.0244689416446633,-0.0290904918587914,-0.0026853749937051,7.733369910170264,4.277070219742846,2.032513525037895,1123.9156024144263,1133.3947760721303,1136.985316749655,1124.8431153354932,274.5834933764359,-182.57507971370367,-65.19063246765957,-195.43853686162953,148.54069434041392
46.9525,0.8110328882542637,0.325294994306208,0.6097018047315558,-0.061212640861495,0.0314178892227332,-0.018846730375842,0.0006249772449954,-0.0007388098735284,0.0633723123822344,0.9979893996338,-0.0089570094897595,-0.0126654089827147,9.867000818033924,-0.0244689874674662,-0.0290573560056499,-0.0025739977206919,7.733317707908061,4.27699290705483,2.0325105761034306,1124.6115591227824,1133.1425592194475,1136.7842588133103,1124.3829220016776,303.7156654224452,-9.302784563860135,-115.77101872923392,-156.36004055241426,148.5412435775408
46.955,0.5717111422575907,0.6113250853466085,0.6814119210083721,-0.0571253218926127,0.0329316251311769,-0.0172216379205072,0.0005657608182113,-0.0006816894415191,0.0633723501647978,0.9979894664511272,-0.0092577352942452,-0.0140638181182237,9.863941218235887,-0.0244675950082106,-0.0290323636363396,-0.0024820732706939,7.733265108036463,4.276915416761904,2.0325068977100846,1125.4341807415371,1133.348262149311,1136.4064616560095,1124.061315132732,291.5696013900615,153.72853585255464,-156.57785474260157,-56.00274116929404,148.5418394433874
46.9575,0.2563241887176525,0.788920992886808,0.703485557434389,-0.0542337313525158,0.0354094585946265,-0.0153529459842854,0.0004972745090056,-0.0006207270854872,0.0633718691051011,0.9979895636488199,-0.0097388889402791,-0.015685763727354,9.860993573149562,-0.0244639393384055,-0.0290156435583091,-0.0024072253030652,7.733212732470188,4.276838404032385,2.032502424083656,1126.0694071297335,1133.9112018987107,1136.001369539597,1124.1029082958307,228.1760057430089,287.60044924541785,-159.32836003185946,99.50031844859409,148.54228545736385
46.96,-0.1428896562655589,0.871058051101881,0.6649499635543011,-0.0528930140391716,0.0387907222303101,-0.013058420748923,0.0004217889908149,-0.0005541890393487,0.0633675206224529,0.997989901236161,-0.0104301407680669,-0.0174598778695589,9.858193446895475,-0.0244573148048213,-0.029006897962157,-0.0023466155972027,7.733160785495588,4.276762060969169,2.032497155120532,1126.575060770253,1134.7862643955389,1135.6098198558495,1124.5588167249753,168.25908118909703,427.2956319079888,-129.57167043858095,295.1821278309537,148.54268138260937
46.9625,-0.6440652690830747,0.8449976984921923,0.5330818775447131,-0.0537328603515805,0.0430221363437677,-0.0100480025735445,0.000338707048263,-0.0004804901010554,0.0633576806508434,0.9979905814633506,-0.0113613924636675,-0.0193722786856144,9.855568355993773,-0.0244471690774143,-0.029005254712559,-0.0022973708472675,7.73310861255103,4.276685761441684,2.032491146589634,1126.910702535678,1136.0476800582487,1135.3535111874044,1125.5788189349844,59.92929994601244,475.14224755562526,-28.782702819429517,433.3910515371882,148.54310110231876
46.965,-1.0152085289318875,0.7290955537080093,0.3527383616447947,-0.056591516091432,0.0459037971707786,-0.0079812352209781,0.0002470719225715,-0.0004015992066964,0.0633422853988656,0.9979916060325588,-0.0124925070275149,-0.0214224018814291,9.853136798250718,-0.0244330985491631,-0.0290092478832796,-0.0022564251792903,7.733055800125823,4.2766088683416426,2.032484160276752,1126.8747072699832,1137.1619756333182,1135.4659063417523,1126.7257719826623,-94.06992611361336,436.09638319613134,134.25058918644433,478.5971619410528,148.54340638968623
46.9675,-1.266558613375638,0.5474256758816372,0.1175607976438495,-0.0613050484304021,0.0474877053216542,-0.0070782815363942,0.0001461993955017,-0.000317240636779,0.0633214737925335,0.9979929658838632,-0.0138263707148823,-0.0236040968730083,9.850907985728156,-0.024414812953808,-0.0290169288783601,-0.0022208891820151,7.733002199597002,4.27653047063193,2.0324770571109223,1126.4403529051099,1138.2281619742305,1136.0247641333372,1127.9718047446909,-280.8814347993856,441.8765109463419,341.98027547399033,511.422622692236,148.5436673259681
46.97,-1.377114091843167,0.301496385516112,-0.192655930380664,-0.0678685164554604,0.0478303618039604,-0.0071207674418074,3.853483421751655e-05,-0.0002273190530937,0.0632939953466275,0.9979947400872312,-0.0153572509642173,-0.0258530208082984,9.848881751315519,-0.0243921849801229,-0.0290261027277874,-0.0021878559853616,7.732947930048227,4.2764500521454725,2.032470726694725,1125.4703000959876,1139.371358188048,1137.1758077191207,1129.2828850961212,-413.1107536867309,391.7279421200234,471.7466240879136,409.824294284062,148.5439310453374
46.9725,-1.3016211543331273,0.1037088133823808,-0.4458335218326059,-0.0731827107401715,0.047075563010942,-0.0077004204931713,-6.937088658603951e-05,-0.0001364757295256,0.0632618608168705,0.9979967977582463,-0.0169795545405067,-0.0280334796422918,9.847048925173949,-0.0243656754717348,-0.0290343479836874,-0.0021541202417969,7.732894239964848,4.27636773633068,2.032464695361639,1124.3747991366752,1140.1868016848316,1138.383497253778,1130.0209262161122,-461.35838151780314,296.0875994977264,474.29244126122575,190.0522036486046,148.5441108472329
46.975,-1.078872903316024,-0.0671697818170243,-0.6578017054457788,-0.0774776483700162,0.0458581387054592,-0.0090639790490175,-0.0001705401135639,-4.786081373573335e-05,0.0632275638803566,0.9979989788604628,-0.0186145025672783,-0.0300028518360696,9.845392280022397,-0.0243361893663801,-0.0290394242990035,-0.0021166411559737,7.732841690736237,4.276284107685896,2.032458019898959,1123.1635081883971,1140.8517961855373,1139.5472699254283,1130.2331461143647,-508.46171723011,254.23576255302964,421.1573133120248,-33.69047604149608,148.5442504170934
46.9775,-0.7097453879705016,-0.2446612549971264,-0.8221345524525773,-0.0803576387452308,0.0449500327063352,-0.0122150918417327,-0.0002614051512883,3.7442240731888726e-05,0.0631913240394015,0.9980012683957452,-0.0202258049362833,-0.0316858012500073,9.843887532952445,-0.0243048375199013,-0.0290396430030184,-0.0020728524638611,7.732790081485533,4.276199934882244,2.032449879136448,1121.8324905505267,1141.4579804975956,1140.489283820336,1129.852473835905,-433.08568126495294,184.01589418581037,220.9527062399736,-227.4294822912198,148.54437259914636
46.98,-0.3792906880032303,-0.3836835100255207,-0.8593588596950364,-0.0805501565527913,0.0450722677937446,-0.0157441849501394,-0.0003438978572441,0.0001210522757023,0.0631547318157353,0.9980035639471078,-0.0218343853210333,-0.0331138420547445,9.842504550445245,-0.0242730247416142,-0.0290338441985543,-0.0020209891282692,7.732739111158944,4.276115708995326,2.0324403754634814,1120.9980797820715,1141.7718756564668,1140.6520334566287,1129.095998702908,-248.708558526696,74.36953830316102,-91.86040691542831,-352.52619574062163,148.54443739033192
46.9825,-0.091464787470182,-0.5263776000948238,-0.7834335875132052,-0.0791745110540084,0.045322038088491,-0.0190406612088913,-0.0004210151167321,0.0002018669364126,0.0631206610149883,0.9980056830938392,-0.0234061784039733,-0.034344040941119,9.841208832227153,-0.0242423630177998,-0.0290214817851177,-0.0019598027919731,7.732688520584873,4.276032202390217,2.0324296888060327,1120.5889477578928,1141.8298281891116,1140.0299817857588,1128.089842857201,-87.02839604665043,-28.819289015999694,-370.90196784822257,-406.7742088065704,148.54446442354447
46.985,0.1300302553464547,-0.6683268195228627,-0.624430308675806,-0.0772316526340284,0.0448356365199064,-0.0215482531998131,-0.0004946632415389,0.0002765485876715,0.0630925858514614,0.99800740698007,-0.0248591244002281,-0.03541511694796,9.839963364755517,-0.0242145459299867,-0.0290026318319536,-0.0018886707156028,7.732638623819944,4.275949598835914,2.03241829917881,1120.5629378018386,1141.6277792113867,1138.7975236173893,1127.0621276588768,69.20472455509396,-152.5810767816112,-598.7508891454247,-376.12576715777186,148.5444605082025
46.9875,0.2629876561131091,-0.7879190962768771,-0.3943970691253058,-0.0751641680661731,0.0429587298234754,-0.0229080301738843,-0.0005659846495815,0.0003440761563197,0.0630731697369274,0.9980085688341008,-0.0261533047177594,-0.0363473117769548,9.838730561754181,-0.0241911528211238,-0.0289779593820593,-0.0018079828151842,7.732589692699605,4.275868001782841,2.0324072370543127,1120.9349713806685,1141.0669228052031,1137.03622734003,1126.209214021411,218.6194577821216,-334.02595769658734,-819.8353112817028,-300.48331879223133,148.5444195400372
46.99,0.3426982936832964,-0.8714647819211396,-0.0823884729928082,-0.0733081278651282,0.0393117475989622,-0.0232519565969371,-0.0006373638031638,0.0004034560499813,0.063063208022352,0.9980091205662424,-0.0272489861439942,-0.0371838628472102,9.837474145719604,-0.0241734597145184,-0.0289486340275005,-0.0017192084631437,7.7325418803149475,4.275787780737296,2.0323979405393646,1121.6560350907498,1139.9576494229032,1134.6983470609787,1125.559711064915,276.305746425602,-475.19194501244345,-834.6670526536714,-166.12186108797334,148.5443276688349
46.9925,0.3758865765360208,-0.8745834544470643,0.1748251401395633,-0.0726092058611865,0.0359251908924599,-0.0226164794146058,-0.0007122230208386,0.0004546279746757,0.063060626204338,0.9980091957848576,-0.0281248942295649,-0.0379852798273989,9.8361609021221,-0.0241622127889678,-0.0289162272285169,-0.0016247942552686,7.732494658721879,4.275708774037432,2.032391432528511,1122.3165001127952,1138.690963080143,1132.8628920767655,1125.378604715972,241.45924905477972,-562.807341856308,-650.0020684451556,-1.4667662169826752,148.5442154541922
46.995,0.4196352845894744,-0.8087684696285636,0.3971913541752345,-0.0727276523233435,0.033169081858666,-0.0213768950345354,-0.0007937047173274,0.0004955247928315,0.0630619969947419,0.9980090161319968,-0.0287197747199825,-0.0388067761001748,9.834762214880978,-0.0241575884721647,-0.0288824762795104,-0.0015276618745961,7.732447294573549,4.2756307955639805,2.032386952139394,1122.8633313360226,1137.143612713624,1131.4483367187559,1125.55237723383,194.2957188460157,-717.3568689342087,-479.1993568852653,143.66891017822962,148.54406596792123
46.9975,0.5235891611804633,-0.6716602308082215,0.5981483382784448,-0.0732679542884393,0.0309558038926218,-0.0194467193843077,-0.0008800082151116,0.0005257069690507,0.0630613987146344,0.9980089633816706,-0.0289990250182906,-0.0396021620426129,9.833255253035096,-0.0241590614640488,-0.0288491925190496,-0.0014307635264079,7.732399487848913,4.275554031044227,2.032384484051783,1123.2879787070256,1135.1041787354702,1130.466895292338,1126.0969492668635,119.91876369841752,-752.9478550741956,-226.3846056089484,243.63456508214128,148.54384295650874
47.0,0.6631010480422553,-0.5304695373934732,0.6986662246379004,-0.0733409070670437,0.0299325527193058,-0.0175228200489631,-0.0009650093022135,0.0005516487275467,0.0630533796549028,0.9980093848006952,-0.0290602792161206,-0.0402297280605545,9.831623651325668,-0.0241655867581875,-0.0288179441159836,-0.0013370680887686,7.732350750491594,4.275478466764534,2.0323842718300367,1123.462925154515,1133.3788734382513,1130.3164136907103,1126.7705500592415,52.67814678896018,-664.6943376994975,72.66809129366509,302.14057824701024,148.54362021022496
47.0025,0.8440772433034968,-0.3838902404153785,0.7219598974466142,-0.0720414152544916,0.0294962838747672,-0.0154003344926612,-0.0010458898877898,0.0005762185525105,0.0630396916941598,0.9980101675095704,-0.0289374236851851,-0.0406155545125604,9.829857786067128,-0.0241760949162729,-0.028789532041254,-0.00124927155225,7.73230138097095,4.275403335325388,2.03238554255384,1123.5513694409703,1131.7807070469755,1130.830235748806,1127.6076521580972,49.19209963643181,-643.2792191187565,350.1733368369996,390.6276625882858,148.54335832466495
47.005,1.0730741883812587,-0.2167281181603081,0.6600637066033203,-0.0685158035000239,0.0293345522343691,-0.0130620484253369,-0.0011196710166232,0.0006007730842896,0.0630223462733583,0.998011184143942,-0.0286384002978021,-0.0406835717886575,9.827954691949312,-0.024189179029398,-0.0287642205024881,-0.0011694429493767,7.732251456429331,4.275327804827751,2.032387236142936,1123.7088856526973,1130.1624773426558,1132.0672803748964,1128.723688372184,82.60519408859503,-527.4987811625153,526.750421735918,413.00418778866305,148.5429976166529
47.0075,1.2485666323455833,-0.0870098446046534,0.5381401323392352,-0.064459992161027,0.0293241861414603,-0.0114192822860468,-0.0011857296815564,0.0006285823214991,0.0630037653649562,0.9980122793059066,-0.0282163400366517,-0.0404015693347627,9.825917533863066,-0.0242031879883308,-0.0287417123760555,-0.0010992227741347,7.732200723303799,4.275251817793809,2.03238809333033,1123.9643954114135,1129.1432131411618,1133.4639878574867,1129.6726730970415,131.2594713235569,-329.94166897590725,596.7962506837437,360.24572799961805,148.5426572991383
47.01,1.39465728626456,0.0379370337594091,0.3526794709647407,-0.0604079062504016,0.029319001462241,-0.00977606548031,-0.0012457599941468,0.0006628553273314,0.0629855504482866,0.9980133474885216,-0.0277313777187961,-0.0397837994086661,9.823754952742954,-0.0242162691584338,-0.02872126433813,-0.0010397835824635,7.732149195412685,4.2751753002158965,2.032388120254337,1124.3651830093145,1128.5127689977778,1135.0512616283124,1130.5249170121804,172.82773914216955,-188.78951348951324,641.517593824473,304.9126002499893,148.5422743934973
47.0125,1.5203916246992943,0.1655973245676284,0.1262672383781451,-0.0569603322318948,0.0292938275637404,-0.008229323129288,-0.0012975727490306,0.0007023234138574,0.0629685696848127,0.998014336380934,-0.0271567926954933,-0.0387758020044955,9.821480387755546,-0.0242265068031753,-0.0287017650895466,-0.0009913976902475,7.732096901226906,4.2750982980190395,2.032387564518181,1124.8285341071248,1128.1992655737135,1136.6715758266107,1131.1972360982923,173.1437124949958,-59.9571693096698,632.5571692753275,203.0042952151105,148.54185528977027
47.015,1.6330613211951983,0.3029378008354237,-0.1238553257404854,-0.0539306243661363,0.0292991403780281,-0.0077012261417293,-0.001338470738537,0.0007447541481399,0.0629534232972443,0.9980152127756792,-0.0264523437610997,-0.0373172027748742,9.819111069265693,-0.0242320573762219,-0.028681780211188,-0.0009539340906741,7.732044473364149,4.275020557102473,2.032386416062211,1125.23090157179,1128.2129831512293,1138.2140474746907,1131.5399384882564,121.78671081416884,59.53249263112369,637.9012920662152,54.35292763236644,148.54139199954693
47.0175,1.7599370116270892,0.4787620789930137,-0.4043454670236051,-0.0496911086224473,0.0295208027251281,-0.0090564561473076,-0.0013655123658775,0.0007899524226634,0.0629401806178673,0.9980159769307126,-0.0256233850980325,-0.0353439866548378,9.816667077030349,-0.0242311992621137,-0.028659659293762,-0.0009271190487951,7.731992503884083,4.274942171002508,2.032385137746094,1125.4374676611951,1128.4969280368691,1139.861082286939,1131.4690007364538,4.302332578252008,131.830295624355,556.3363998935865,-111.37067206067272,148.54078504961626
47.02,1.8549814412459296,0.6250552739844777,-0.5871073457200002,-0.0453366760591839,0.030091650257121,-0.0116000845114962,-0.0013777011804095,0.0008397366536181,0.0629283072442399,0.9980166633742076,-0.0247228080707236,-0.0328320877634092,9.814170454548691,-0.0242223242343085,-0.0286336445648757,-0.0009107404720816,7.731940842118599,4.274863568653744,2.032383722917204,1125.2524132346812,1128.8721346293514,1140.99572947416,1130.9830851279528,-162.58088464442932,163.9580576989445,388.4207883923696,-276.1701963896436,148.54023737610302
47.0225,1.9307398094526351,0.7475427316491478,-0.6914032309100258,-0.0404048450444218,0.0313682735202883,-0.014501464317519,-0.001379271748529,0.000895631191862,0.062917983780258,0.9980172536817224,-0.0238093716871558,-0.029865050349785,9.811644461498547,-0.0242039803542003,-0.0286018850987411,-0.0009047841988141,7.731888990315466,4.274784689563745,2.0323819252971926,1124.6245632379723,1129.3167183253643,1141.803186228902,1130.088149754505,-367.461673605128,203.605994229341,259.9143373175229,-467.318991407062,148.5396476350213
47.025,1.9946123745008069,0.8281805393884225,-0.724773844809021,-0.0346110644962052,0.0340272549900435,-0.0173555340659851,-0.0013753761181839,0.0009584328169999,0.0629049179931384,0.9980180106261656,-0.0229334151846592,-0.0265501695244349,9.809112957834541,-0.0241745817324528,-0.0285627547888533,-0.0009092078034521,7.73183634962384,4.274705201834552,2.0323793014122824,1123.4151048666572,1129.8901646004972,1142.2953011607465,1128.6464901709196,-493.10788803797783,215.19741653308205,88.21142929132327,-570.2019504597313,148.53889378499676
47.0275,2.0258477510369484,0.8114044553638261,-0.6895829289885582,-0.0302447017865487,0.0372249404089768,-0.0190026746878076,-0.0013719282500886,0.0010299839515493,0.0628836324920432,0.9980192707101788,-0.022170598437623,-0.0230133560243463,9.806599790917904,-0.0241326786606474,-0.0285147639083572,-0.0009240951901676,7.73178303336045,4.274625008416532,2.032376550359373,1122.1590237977814,1130.3927054080302,1142.2442433753588,1127.2371400022048,-508.6476029860149,204.86088719743276,-124.03815294886064,-584.3792009939727,148.53822947421892
47.03,2.0326618888486148,0.6863973496444999,-0.610255360528384,-0.0262066116155526,0.0409596810115626,-0.0200315486931542,-0.0013720524224873,0.0011109596692547,0.062852121084179,0.998021156781208,-0.0215730520346594,-0.0193323883782624,9.804128143943522,-0.0240773539833215,-0.0284564330817955,-0.0009493999086282,7.731729305579399,4.27454449369352,2.0323746095486537,1120.8718668517258,1130.914469036485,1141.6751103960019,1125.7245941659482,-518.9295831555854,229.98097131010576,-365.4081737577739,-669.1426206294809,148.53753113248283
47.0325,1.9980969710947256,0.4203372534386058,-0.4828005707669427,-0.0211405434594997,0.0446706839131763,-0.0209067292127582,-0.0013740833639649,0.0011976610613792,0.0628143834470986,0.9980234219323748,-0.0211028650819137,-0.0155016935076582,9.801719787133742,-0.0240084732263283,-0.0283862615708421,-0.0009846388026994,7.731676000519006,4.27446383341782,2.0323732872477813,1119.5643758820058,1131.5426102645797,1140.4172025065716,1123.8914268990604,-409.01091489224194,225.4168049394804,-545.0095403386453,-664.4177296059536,148.5366581369991
47.035,1.9132915956615324,0.1346973715154565,-0.3556257877841994,-0.0162857074365533,0.046194125775807,-0.0215906499174742,-0.0013783196107831,0.0012860757125613,0.0627756249456533,0.9980257405307936,-0.0207188548147141,-0.0115590790987914,9.799394619211984,-0.0239264235485727,-0.0283030148103096,-0.0010293752300512,7.731623578094769,4.274383066116074,2.032372370038427,1118.8268122772636,1132.0415530611829,1138.9500626943072,1122.4025055179168,-204.6556756545077,186.64717879341424,-653.8756860919258,-577.3101235434526,148.5359045872288
47.0375,1.742681895603228,-0.1566621944204123,-0.2060856215166927,-0.0108140603213873,0.0456470830547714,-0.0224143755933695,-0.0013835882178023,0.0013757511772864,0.0627374796192239,0.99802800961316,-0.0204471742157732,-0.0075130934704127,9.797170058679551,-0.023831776374361,-0.0282060148525391,-0.0010831036150024,7.731571746009168,4.274302808159589,2.03237088868932,1118.5410975037328,1132.4758461585473,1137.1478240761103,1121.0048762813417,-43.85556304477528,157.50268632551297,-760.8760303947846,-536.9218894675096,148.53512752907125
47.04,1.487756907362268,-0.4043995122391807,-0.0361087237204453,-0.0052222768924922,0.043481255129969,-0.0233358498264426,-0.0013895521010212,0.001468617475879,0.0627007053048247,0.9980301784808328,-0.020359785787136,-0.0033891290895606,9.79506060305042,-0.0237253692780662,-0.0280950163865296,-0.0011453266836312,7.731519847590516,4.274223398981612,2.0323688643300835,1118.60753446204,1132.8290664928095,1135.1456825423368,1119.7178960705817,86.6134514439648,118.17088486075912,-831.9872450781822,-480.19593368842817,148.5343334942987
47.0425,1.1368005367238103,-0.5563580697442687,0.1548935376688769,-0.0001221178732685,0.0400432313032602,-0.0240578344850752,-0.0013949015607795,0.001564718801564,0.0626641865059126,0.9980323195445762,-0.0204877661483821,0.0008013230177431,9.793077252315866,-0.0236082401781407,-0.0279701971799215,-0.0012153042696939,7.731467703788343,4.274145326789569,2.032367055393375,1118.9741647609528,1133.0667005828511,1132.9878878507172,1118.6038966128983,183.46583320644353,80.31150143943235,-965.3075161374154,-442.5661616434364,148.53352188987455
47.045,0.6481514172174678,-0.610072706270041,0.3889038123708785,0.0036362852486591,0.035995640465796,-0.023968279381812,-0.0014007317748224,0.0016611535369222,0.0626280755487261,0.9980344273245892,-0.0208035329267604,0.0049937965547396,9.791227293445468,-0.023481838601403,-0.0278318769899368,-0.0012922096658221,7.7314156765645965,4.274068657173588,2.0323656064463407,1119.5248636280724,1133.230624000007,1130.3191449616472,1117.5050652623631,184.7810315988088,47.57353802246832,-976.5359442669492,-361.435136929696,148.5325312222862
47.0475,0.2377368114276122,-0.5644384612951149,0.563418614826188,0.003726614383813,0.0336215584873126,-0.0227901972583507,-0.0014080998365936,0.0017553181783136,0.062593223369746,0.9980364529863686,-0.0212804136730911,0.0091231325261152,9.789513859441032,-0.0233480130049119,-0.0276803965586646,-0.001375069408778,7.731363831953846,4.273993140455861,2.0323643185623856,1119.898069918946,1133.3045682729635,1128.1052081293867,1116.7967209282515,100.67803583532928,30.525669233414035,-862.0798064656493,-243.26288626513193,148.53169419232708
47.05,-0.1127345244452052,-0.4694641934137766,0.6831394993653298,0.0016075723374827,0.0326506678443528,-0.0206679654412144,-0.0014151558512576,0.0018407164183633,0.0625605507682366,0.9980383530749922,-0.0218065945013007,0.0131748602039759,9.787935407226621,-0.0232089898769652,-0.0275160229398351,-0.0014623564303152,7.7313124800608435,4.273918232190998,2.032362704979329,1120.0282538072495,1133.3832523461742,1126.0087459293168,1116.288750831037,-8.840742771913053,51.905100494987714,-865.5848483957136,-183.53011229391697,148.53084806380434
47.0525,-0.4241961692305921,-0.3574443717213386,0.7317387331729532,-0.001261904037372,0.032863675611492,-0.0174026049712685,-0.0014207256270189,0.0019140690328618,0.062531011218909,0.9980400758481642,-0.022327997839233,0.0171242901140935,9.78648579464216,-0.0230673284503748,-0.0273388703689333,-0.0015524856370351,7.731262135532858,4.273843995437053,2.032361003125139,1119.8538662050864,1133.5640937754383,1123.777283887406,1115.8790703667814,-107.48264270110438,88.51588894912176,-747.1306720851289,-119.65098022853422,148.52982527177647
47.055,-0.5915365919905472,-0.2987190082940678,0.6813815827641014,-0.0034118120574774,0.0336945198554783,-0.0143368422501581,-0.0014242523055122,0.001972235459594,0.0625060363180346,0.9980415394292504,-0.0227877822686635,0.0209342686637228,9.78515427517491,-0.0229258711105926,-0.0271488474414999,-0.0016436719560173,7.73121339460772,4.273770852540514,2.032358913387948,1119.4908405937445,1133.8258317909194,1122.2730925688943,1115.6904959298947,-159.6808306336331,130.05787883160343,-500.2640601880105,-42.6138820782786,148.52896887902455
47.0575,-0.6840721357548664,-0.2919455150170714,0.542831291762572,-0.0054567042735992,0.0342600024543323,-0.0115407115637522,-0.0014289218314609,0.0020114900573916,0.0624853457689766,0.9980427650239876,-0.0231164442801693,0.0244937888101425,9.783926036693096,-0.0227874559614995,-0.0269457161559472,-0.0017340814367197,7.731167172402216,4.273698033006683,2.0323563540391447,1119.0554620519188,1134.214383169596,1121.2759635864684,1115.6660009563902,-164.46528679353605,195.5562230205851,-295.6816060447033,30.305831983589957,148.52811067623426
47.06,-0.7483492965702935,-0.3322894527741742,0.3100259904886454,-0.0073205167314631,0.0337878552103268,-0.0097538432044034,-0.0014377942510191,0.0020307263991286,0.0624695624743556,0.9980437123920568,-0.0232898155186838,0.0276979033175818,9.782782227406868,-0.0226547769482379,-0.0267290015208177,-0.0018217732167726,7.731123744328186,4.273624740069441,2.032352824875853,1118.6685141597764,1134.8036129060229,1120.7946845386703,1115.8420250898128,-91.88109628466765,231.0905032286155,-46.54560166034009,97.67925605451187,148.52708137300894
47.0625,-0.794331054236355,-0.3866461638064541,0.099116846341162,-0.0083450148411573,0.0326676420081941,-0.0100872869214894,-0.0014549344076529,0.0020359100862207,0.0624578898260669,0.998044413452388,-0.023418488216885,0.0304318200964703,9.781700669018702,-0.0225299020375601,-0.0264982264656414,-0.001905029973057,7.73108232507315,4.273550818903387,2.0323474353535396,1118.5960565704954,1135.3698356857396,1121.0432355781663,1116.154397236663,40.18579211150626,237.1770504549542,233.769927342413,150.57767965545332,148.52622588613247
47.065,-0.8617197617086418,-0.4386553961833707,-0.0866309477963319,-0.0094384646630524,0.0312787575298043,-0.0117166945625611,-0.0014829046521854,0.0020374263412345,0.0624481815467972,0.9980449771290612,-0.0236940141121549,0.0326174203247162,9.780656476235345,-0.0224139930343695,-0.0262531162585411,-0.0019822868763036,7.731041569206912,4.273476526073586,2.032339488452772,1118.8694431203337,1135.9894981582963,1121.9635341753813,1116.5949134880896,164.08371295525075,255.65425268746927,468.15559051468574,186.36648305964184,148.52537479672668
47.0675,-0.9581744815497836,-0.4749680244838884,-0.2345349573651978,-0.0108936346172921,0.0298003341123828,-0.0133982166580706,-0.0015211751027785,0.0020430786774469,0.0624371208431115,0.9980455951448693,-0.0242515098728644,0.0342367007544404,9.779623072634852,-0.0223071996339871,-0.0259937918357404,-0.0020520551633103,7.731000300010355,4.273401441406569,2.032329076359933,1119.416475135272,1136.6481069491776,1123.3840135307412,1117.0862296519615,262.84328800548076,273.4022822298777,662.497522498304,194.5052707755536,148.52452879414497
47.07,-1.091329246681154,-0.4818334171114213,-0.3381302932171992,-0.0127656131234564,0.0282197254941976,-0.0143493333930785,-0.0015679716602748,0.0020575609526404,0.0624211850229906,0.9980464806384216,-0.0251627914006801,0.0352961270386807,9.778573902437449,-0.022208750169059,-0.0257209175376462,-0.0021133533681715,7.730958076937306,4.273325122815532,2.032317221000433,1120.1836595603615,1137.3565095694466,1125.2760217878745,1117.5674398419678,343.5227092335422,321.5975439877835,895.2832163126415,196.54252945010424,148.52369056518612
47.0725,-1.2832799996741355,-0.4506721272361369,-0.4268374137176293,-0.0153165971881719,0.026264823543447,-0.0146389780815992,-0.0016203199415521,0.0020819781851103,0.0623982814851467,0.9980477666617192,-0.026428024169086,0.0358263555615074,9.77748418718019,-0.0221172070879328,-0.0254358527363255,-0.0021659632581963,7.730914146871453,4.273248705368611,2.0323051243905366,1121.1340886814382,1138.256094669115,1127.8604296123003,1118.0689422992111,317.02434361411326,331.9721780952598,961.5605664212663,169.08204765200472,148.5226956693058
47.075,-1.4535964885676316,-0.3947024451898062,-0.4794578228637402,-0.0176474774079702,0.0248199332629729,-0.014806320983106,-0.0016736746607331,0.0021147252983276,0.062370119711108,0.998049356357904,-0.0279930283783166,0.0358917145044007,9.776332751797874,-0.0220308332816846,-0.0251407140501884,-0.0022105691801239,7.730868254785509,4.273173293569102,2.032293374872456,1121.7687812784332,1139.0163704599236,1130.0838246199833,1118.4128500802283,185.29821638007505,290.86133783460934,859.2704828709126,129.32858862839316,148.52187710358214
47.0775,-1.6017087837925799,-0.3188379670939466,-0.5066830662326902,-0.0206678490040804,0.0239090104388162,-0.0159524926856741,-0.0017234182179291,0.0021548615243297,0.0623398377540102,0.9980510630630772,-0.0298180601115967,0.0355663443737179,9.775104021814242,-0.0219477503110884,-0.0248384842951218,-0.0022489560425871,7.730820300844419,4.273099918382042,2.0322830661567832,1122.060579763339,1139.710401358289,1132.156782026657,1118.7155852423537,27.902762177589377,262.9545308468668,835.2435656660739,140.6229798537339,148.52107097939535
47.08,-1.6995885698026896,-0.2229630551464684,-0.4965130404439939,-0.0257669936248777,0.0235243745864442,-0.0184246411319923,-0.0017650082373084,0.0022019276956223,0.0623089783491753,0.998052799514444,-0.0318753009871555,0.0349321291253626,9.773789655157753,-0.0218660963348178,-0.0245329829706711,-0.0022838501118966,7.730770319752774,4.273029886135046,2.0322751304757527,1121.9082950893207,1140.3311431141567,1134.2600424483098,1119.1159649794963,-138.67276396942725,169.40930526703116,686.0513955066964,166.25439311965826,148.52011966440904
47.0825,-1.6727780665758762,-0.1504591719821545,-0.4484353187850583,-0.0311631679338741,0.0236325150447741,-0.0205023485606621,-0.0017972592825939,0.0022547198671135,0.0622770428147011,0.9980546023562172,-0.0341290262773398,0.0340137423199644,9.772390244211227,-0.0217843046382092,-0.0242285343732919,-0.0023187354750472,7.730718646027306,4.2729640332937215,2.0322698416096987,1121.3672159434916,1140.5574478846245,1135.5870390041923,1119.5468572079524,-282.8690677157655,4.909830336507401,429.13306294468254,202.78313584829988,148.51934138976014
47.085,-1.4977102276464973,-0.0918239820281792,-0.3697451325810456,-0.0370582131214271,0.0237487312580676,-0.021735655339783,-0.001820697098726,0.0023099789806396,0.0622457234777722,0.9980563741601728,-0.0365070552368198,0.0328092006843586,9.770915895148756,-0.0217015575273809,-0.0239293118518558,-0.0023573230509686,7.730666257813419,4.2729020838454765,2.032266552355664,1120.4939497507414,1140.3556922658395,1136.4057077630343,1120.1298806587383,-420.17129542015954,-205.23890994850737,240.6455531930448,290.45210953890125,148.51857940783856
47.0875,-1.1116151445689095,-0.0347131349281324,-0.2646027289135761,-0.0437061495290292,0.0236010925897355,-0.0220864216403714,-0.0018393363854337,0.0023616912449457,0.0622189107846169,0.998057881437987,-0.0388888024137257,0.0312540780925618,9.769386709253224,-0.0216179107894743,-0.02363883265717,-0.0024032436345957,7.730614827419592,4.272842618421681,2.032264471735633,1119.2663594663927,1139.5312533348829,1136.7902667701564,1120.9991177556456,-444.3059967165028,-398.05220822788766,47.60540116192097,336.24430139299045,148.51768521323407
47.09,-0.6717468046334854,0.0068242508504566,-0.184602558594253,-0.0479443405635625,0.0232165026176167,-0.0217943792311214,-0.0018606121957435,0.0024014208540309,0.0622007784219742,0.9980588728736722,-0.0411114297654726,0.0292226105824401,9.767832404783448,-0.0215341526501934,-0.0233596958138217,-0.0024597761138285,7.730565468016784,4.272783138112434,2.0322634778369175,1118.2724197671575,1138.365431224699,1136.643734768844,1121.811102165704,-351.69282044316986,-542.4927809133304,-140.5807988559181,320.9065242844367,148.5169577708358
47.0925,-0.1804011971738133,0.0453077077063637,-0.1213265912019254,-0.0492478357532553,0.0227891486377405,-0.0215873604654735,-0.0018931184332648,0.0024262367317921,0.062191231522968,0.998059346988504,-0.0431217446001884,0.026580414502399,9.766290746551714,-0.0214513494513665,-0.0230937314263586,-0.0025298413654011,7.730518499503648,4.27272275637262,2.032263350854356,1117.507895364176,1136.8187894303148,1136.0873627758765,1122.6036503770683,-246.6473919403112,-648.62540223089,-275.394213306868,293.662510536518,148.5162494816974
47.095,0.2842548888708598,0.0784872599907713,-0.0695443237575558,-0.0476189970235995,0.0226434214451852,-0.0218249196559618,-0.00193753547604,0.0024395236772023,0.0621856315226535,0.998059582725368,-0.0449803104894539,0.0233609149698327,9.764804998582257,-0.0213705503380199,-0.0228422329369785,-0.0026154236083911,7.73047378243563,4.272662198452961,2.0322634481829107,1117.039182807457,1135.1223042135475,1135.2667637023108,1123.2794147183852,-106.81046129733652,-662.7898757696377,-370.8699614313367,218.94706672503784,148.51555712334093
47.0975,0.6420674687308368,0.0961001145990881,-0.0245380553621208,-0.0438614335992893,0.0230149879945086,-0.02235094557824,-0.0019888115413062,0.0024491132446152,0.0621771748351081,0.9980599924025254,-0.0468267017969192,0.0197189369406378,9.763422707530735,-0.0212926074305828,-0.022606052564453,-0.0027175097783732,7.730430339179523,4.2726023946121225,2.0322631658570303,1116.973843057689,1133.5048400514647,1134.2330129687189,1123.6983857106943,54.00065708306067,-627.3024164117916,-474.26077505568475,103.82262387451335,148.5148832223619
47.1,0.8934062134529839,0.0866779642898769,0.0261370322132978,-0.0390505807443551,0.0238998977415715,-0.0226974779574447,-0.0020447931746246,0.0024615152790752,0.0621621274637596,0.99806079465831,-0.0487764855340644,0.0157539913750336,9.762195118793299,-0.0212182061139745,-0.0223854379478192,-0.0028362505664279,7.730386888642035,4.27254272308524,2.0322624726475285,1117.3091860928728,1131.9857921314867,1132.8954598270311,1123.7985278377582,170.04294927739468,-449.97220142486185,-482.89697001258247,-35.722606465456664,148.51409385657604
47.1025,0.9480852692677298,0.048947538444876,0.0639231697188061,-0.0353489631123702,0.0247255572313116,-0.0226643729954451,-0.0021033672741963,0.0024795684085846,0.0621388988157057,0.9980620848071144,-0.0508720975224356,0.0115618502319904,9.761175022057852,-0.0211477570676459,-0.0221801460840986,-0.0029707471566282,7.73034234834317,4.272482389199619,2.0322609196493646,1117.8240578040752,1131.2549790443427,1131.818528118658,1123.5197726783672,218.33583438444944,-161.456399247899,-393.0486011031271,-178.7393653086833,148.5134499184401
47.105,0.8649369152528323,-0.0152805347380291,0.0921139452065981,-0.0322006209784164,0.0251783851291013,-0.0223165769748013,-0.0021613676250936,0.0025014172555205,0.0621099269930527,0.998063721051112,-0.0530614933003907,0.0072534356224916,9.76041482328956,-0.021081586011583,-0.0219894817275027,-0.0031190325521105,7.730296662672096,4.2724214948637895,2.032257218589192,1118.4008652647956,1131.178510135247,1130.9302168215147,1122.9048310112144,224.34886458111012,104.79559614199484,-313.8411313392439,-322.6335691289646,148.51281682331464
47.1075,0.6586122198348665,-0.1065436839171298,0.1099363849258994,-0.0294439806756867,0.0250169512112014,-0.0216835556230167,-0.0022157063543284,0.0025257814476564,0.0620777914214621,0.9980655524613996,-0.0553028402735605,0.0029381185520554,9.759964542311156,-0.0210199171092115,-0.021812595847467,-0.0032785205271179,7.730250320158027,4.272360786221503,2.032250808852869,1118.945802126981,1131.7789570250527,1130.2493224619611,1121.9066048327215,150.53708444756967,303.89407075686347,-165.38701588657693,-384.1428585208943,148.5120644057179
47.11,0.4465309245904133,-0.1794943173639901,0.1110165671352019,-0.0282840301246052,0.0244260502613666,-0.0212204715542305,-0.0022618392146191,0.0025513953747242,0.0620450398089771,0.9980674337166404,-0.0575518262636997,-0.0012479772306424,9.759870107747556,-0.0209630315098325,-0.0216485840028774,-0.0034462156962851,7.730203649155983,4.2723007897311245,2.03224193859196,1119.1535506870327,1132.69798048903,1130.1032817420823,1120.9841167186116,18.913569153609718,398.35670873274097,43.67348936332331,-357.95913118304145,148.5114389296962
47.1125,0.2529046146926795,-0.2336454239998904,0.1013472855498646,-0.0286134825708479,0.0234484943274607,-0.0209589764262815,-0.0023004124823866,0.0025742390743913,0.0620134067582021,0.998069264911823,-0.059715907429876,-0.0052755981693107,9.760172563422376,-0.0209113411801802,-0.0214964744268877,-0.0036192297030923,7.730157177525542,4.272241320637958,2.0322317839027435,1119.0403699727494,1133.7707405687177,1130.4676899087779,1120.1168091768054,-112.99524046347544,436.52445298740025,279.6646778755464,-344.7603737715836,148.51080920478975
47.115,0.0973903874096293,-0.2665976848227901,0.0836055856868088,-0.0301628180094525,0.0221064309772213,-0.0208197797909532,-0.0023342415057028,0.0025919603377797,0.0619840753466121,0.9980709719810716,-0.0617368285126824,-0.0091587762987916,9.760906327494665,-0.0208653913904457,-0.0213552040526764,-0.0037950240207914,7.730111430344813,4.272182413654169,2.032221636467676,1118.588574484715,1134.880602753968,1131.501605131461,1119.2603148497528,-193.58577681359165,335.78264617079714,468.4954781767997,-276.9584229952915,148.5100424042668
47.1175,0.0522349008272564,-0.2669303257728248,0.0676013155660543,-0.0316128394842386,0.021151462389762,-0.0207107450628289,-0.0023645846536568,0.0026052666820248,0.0619590204336178,0.9980724281143536,-0.0636132745702883,-0.0128810396934378,9.762098001574833,-0.0208258393909181,-0.021223565642187,-0.0039713328771607,7.730067231079683,4.272124374488567,2.0322121236215405,1118.0724410886824,1135.44965379957,1132.8101672996595,1118.7320170618302,-192.6346216546268,130.73417134522123,593.0282987715082,-178.0413972409206,148.50939026149723
47.12,0.0912543588327767,-0.2455897855305318,0.053449407329089,-0.0322872339715202,0.0205099145036926,-0.0205308839904745,-0.0023904676962597,0.0026173837108482,0.0619382909340006,0.9980736251194287,-0.0653900335421099,-0.0163833235716797,9.763765794901973,-0.0207931740800597,-0.0211002949637293,-0.0041460114207774,7.730024453827072,4.27206724417826,2.03220321938296,1117.6254013764428,1135.5342736106936,1134.4667466253159,1118.370107863549,-133.12096485340146,-39.48315303480539,696.9269107949531,-126.95243729670308,148.50872067526385
47.1225,0.1814398795910388,-0.2135204335389747,0.0428680179577903,-0.0320700115620126,0.020107762919016,-0.0203567908290836,-0.0024107432821843,0.0026301001904398,0.0619184444973105,0.9980747754380356,-0.0670838719897356,-0.0196091506665443,9.765919524317715,-0.020767470446977,-0.0209840708130631,-0.0043168225618004,7.7299823430134,4.272010527784361,2.032194528805622,1117.406836264415,1135.252238034396,1136.2948018536363,1118.0972548753464,0.1790934992185605,-167.9131775355068,740.4078267631426,-99.42947792810088,148.50803439289172
47.125,0.3036507915510557,-0.1763993067990126,0.0397360090856835,-0.0311199807026602,0.0199021884434061,-0.0202429615677717,-0.0024262641186987,0.0026411949387063,0.0618975313447081,0.998076004060876,-0.0686360327624048,-0.0225500104125446,9.768560639763447,-0.0207484709641164,-0.0208732675033997,-0.0044813068467903,7.729940365252464,4.27195308130278,2.032185580544504,1117.6262968439387,1134.6947077230157,1138.1687857591335,1117.8729604739083,216.47576110955603,-251.75063581514385,793.7557235540622,-94.09284446946376,148.5073260194099
47.1275,0.4523699746414704,-0.1320847412718321,0.049336095256036,-0.0294756028994735,0.0197449849298052,-0.0201886296063872,-0.002438160848188,0.0026496390265756,0.0618765197606503,0.9980772512268276,-0.0700119877376563,-0.0252052969268811,9.77168163233395,-0.0207355537202383,-0.0207659973709757,-0.0046368487941944,7.729897837471552,4.271893726380182,2.032175623872954,1118.4892150699618,1133.9934848553214,1140.2635804714027,1117.6267906529995,409.048369402053,-224.877159539004,715.9739972180862,-82.05654789599414,148.50644884983203
47.13,0.5584266918839687,-0.0962943223033658,0.071648178653305,-0.0278259896367977,0.0195991155322405,-0.0201929969915437,-0.0024495268183436,0.0026573179798408,0.061857455736701,0.9980783778131948,-0.0712377502219493,-0.0276128139156066,9.775265972003968,-0.0207276911719816,-0.0206604062929024,-0.0047808522292945,7.729854634483359,4.27183211841333,2.032164289528363,1119.6715386909502,1133.57032192532,1141.7486557452255,1117.462677734428,536.1831503404104,-110.79102660490906,517.6298989829401,-42.20150514686453,148.50569479802334
47.1325,0.630384499589097,-0.0597424995328751,0.1109107124885157,-0.026063370538372,0.0193650286117632,-0.020199927261389,-0.0024637035401701,0.0026663268475729,0.0618406447270575,0.9980793519131548,-0.0723456471632071,-0.0298182472261078,9.779288664842706,-0.020723484618753,-0.0205551345870634,-0.0049106790554493,7.729810652078984,4.271768810417448,2.0321514180037243,1121.1701308216652,1133.4395297222964,1142.8517299663188,1117.415783127265,671.741804840414,6.930970723175897,386.7304477107489,28.056318867245917,148.50491692578527
47.135,0.6677820488477098,-0.0119596099584369,0.1761327203448384,-0.0237676337616933,0.0189695008934718,-0.0201216302561809,-0.0024841811765224,0.0026798279179337,0.0618258812005907,0.9980801705316132,-0.0733911278716307,-0.0318715173805999,9.783716798722098,-0.0207213586426805,-0.0204495785585946,-0.0050238455289181,7.729765708123592,4.271705168304727,2.032137160950153,1123.0302477151492,1133.604976778936,1143.6823079837775,1117.6029593287642,641.992742915353,94.56563663097477,225.1955881736406,121.25918976310622,148.5039567098849
47.1375,0.6560604691490624,0.0312497353531925,0.2409658020627948,-0.0215031801882402,0.0186107631090801,-0.0198977602002162,-0.0025097442050874,0.0026987451812832,0.0618106042001431,0.9980809939811182,-0.0743825168621913,-0.0337353343922295,9.788510815694444,-0.0207196659227399,-0.0203441776078976,-0.0051178536112556,7.729720424407523,4.271643329596564,2.032122142212852,1124.3800945362436,1133.9123579054517,1143.9777079071876,1118.022079076081,444.0608224392692,125.85714848999415,48.62817853706714,227.48210424612992,148.50313512048044
47.14,0.6060131673541488,0.0729195319746654,0.3066901341279437,-0.0190883705078644,0.0184341663922188,-0.0193923382834302,-0.0025346064859824,0.0027230797360058,0.0617909753031468,0.9980820748502642,-0.075306623278785,-0.0352853668496375,9.793625621032714,-0.0207168105287399,-0.0202402861627306,-0.0051903738263137,7.72967452223646,4.271584768757411,2.0321067585001584,1125.2505518273467,1134.234262521386,1143.9254488764632,1118.7403698499954,232.01210928544424,114.16902717070496,-81.60197706800464,379.02818979266976,148.50229277973327
47.1425,0.5256197525099454,0.1081545353504477,0.3706471962327591,-0.0166734189419562,0.0186872023778385,-0.0183529125998484,-0.002555812956223,0.002755620900354,0.0617660525539042,0.9980834709728728,-0.0762098244106333,-0.0364496671979126,9.7990114798829,-0.0207114181826938,-0.0201395866342722,-0.005239764788793,7.729627436368334,4.271529800890143,2.0320913685172988,1125.5401550826696,1134.4832030413047,1143.569698021848,1119.9172200250423,-25.996395947809447,58.02147879523305,-162.29168599648685,473.0365093965101,148.50126019598116
47.145,0.4702950856264223,0.1135453641390031,0.3992045068449284,-0.0156656513579978,0.0191715112945054,-0.0171277745748707,-0.0025733551957653,0.0027952639070181,0.0617378906272784,0.9980850577819776,-0.0770672095216793,-0.0372190366725908,9.804616141045642,-0.0207024864271726,-0.0200435909156531,-0.0052648200046109,7.729578600216307,4.271478053929206,2.032075971532706,1125.1205698476076,1134.5243699153625,1143.1139904464803,1121.1055523969792,-282.51136123693965,-14.457963232727584,-197.32480737128665,500.4039326768348,148.50038352016927
47.1475,0.4651273140775317,0.0819360658629806,0.3904596155543378,-0.0161047900511918,0.019707606402683,-0.0157492530515995,-0.0025874814760192,0.0028358024161385,0.0617107749265426,0.9980865863473916,-0.0777549765606203,-0.0375962690629487,9.810386626380044,-0.0206895188747686,-0.0199532055542942,-0.0052645956077096,7.729528555914003,4.271428088556715,2.0320601004561096,1124.1275982764844,1134.410913225141,1142.5830739849912,1122.419239688428,-456.699062865852,-58.70560033714237,-214.17986599041268,530.3110913153707,148.4994927811709
47.15,0.5200917116539099,0.0137503957431767,0.3466662218482707,-0.0170386031746955,0.0201875650112892,-0.0145822552840244,-0.0025997447200497,0.0028713614863798,0.0616897397954662,0.9980877580697048,-0.0781572947059704,-0.0376107990369925,9.816270322545332,-0.0206725697192346,-0.0198684326918339,-0.0052387030043119,7.729478486730119,4.271377777590567,2.0320430352882135,1122.8370745332804,1134.230841913677,1142.0430911165292,1123.7571078535536,-533.972889799588,-66.52314996746334,-207.70810475736033,519.1665376975907,148.49859273373968
47.1525,0.642781507716936,-0.100667653771787,0.2609455574276583,-0.0171182595402172,0.0205173064381526,-0.0138363942885316,-0.0026098428092411,0.0028999008725359,0.061676435807683,0.9980884773930744,-0.0782307000147544,-0.0372536288156979,9.822216319200098,-0.0206521230468012,-0.019788479601313,-0.0051874377589382,7.729429278469827,4.271326439347932,2.0320246685846715,1121.457733827485,1134.0782974753035,1141.5445334612039,1125.0150723769173,-562.4293894322216,-32.03807841521846,-196.85626152489863,504.68871092959137,148.4976846844428
47.155,0.828225956449444,-0.2863226296921607,0.1128055503510632,-0.0153007866843916,0.0206034364895522,-0.0130523728895384,-0.0026142185924763,0.0029207255735397,0.0616658179470405,0.99808906588599,-0.0779533967133576,-0.0364538441645764,9.828177294433882,-0.020628950237186,-0.019712022600548,-0.0051118049076277,7.729381372920221,4.271274329971193,2.032006340921097,1120.0249275861179,1134.070651521601,1141.0588098089042,1126.2805514082029,-454.49059537304896,42.918813680574125,-150.40022464677386,401.6789111212362,148.49659042099992
47.1575,0.973474742718953,-0.4708264253666847,-0.0444791870579797,-0.0124191336917023,0.0202626529784988,-0.0122769726234193,-0.0026105245085847,0.0029316030008655,0.0616523709605433,0.9980898762235596,-0.0772736469546337,-0.035170089734364,9.834111185682335,-0.0206042454183611,-0.0196370835883941,-0.0050136983555223,7.72933533820516,4.271221266006097,2.031989237941638,1119.185280850622,1134.2928915437062,1140.7925323379707,1127.0234669325216,-244.94958284518563,145.53950129190355,-71.71278126325856,211.3930208916655,148.49567843851983
47.16,1.0645140924814587,-0.6648847510116024,-0.2250426958415459,-0.0088947889974288,0.0192364944524134,-0.0118418136326133,-0.0025981554319074,0.0029295297100023,0.0616327915087223,0.99809112301015,-0.0761252577940407,-0.0334007347741009,9.839982283266083,-0.0205794945135414,-0.0195611191451782,-0.0048958866390789,7.72929219884736,4.271166823034009,2.0319743888042328,1118.800179671891,1134.7983490280608,1140.7002459025875,1127.3375165126615,-72.77512951833073,283.0099701764455,-6.663294768983407,27.006955026567816,148.49477123873984
47.1625,1.0787190957302504,-0.8748527871172321,-0.439957080294442,-0.0043791947126196,0.0168958507595872,-0.012603238779078,-0.00257766805333,0.0029142158966436,0.0616065335687163,0.998092839750046,-0.0744955364627468,-0.0311687722992912,9.84576170293088,-0.0205561367289281,-0.0194812703539934,-0.0047618988252277,7.729251699449942,4.271110335352313,2.031962142461348,1118.82140520303,1135.7079413945892,1140.7592158641255,1127.1585017076543,67.95433406038497,371.8870672323845,33.46692411522187,-154.48728976712528,148.49369432760443
47.165,1.0037945118677367,-1.0043429322673691,-0.5901578309369002,-0.0006722309113716,0.013903439136997,-0.0144142579619832,-0.0025531961705415,0.0028888460846886,0.0615742795164311,0.9980949632606164,-0.0724439281310312,-0.0285687061802601,9.85142773155084,-0.0205351460067303,-0.019394741842169,-0.0046158326505625,7.729212283727539,4.271052265250746,2.0319523605094028,1119.1399513421927,1136.657784364221,1140.8675805231635,1126.5650800638268,157.04213536906687,399.76444246619855,23.99534341424124,-306.9460616366335,148.4928115555834
47.1675,0.8500255323632037,-1.06256566343172,-0.6813545017735636,0.0025384894208076,0.0101044415200459,-0.0168564798517479,-0.0025254136210556,0.0028567297490927,0.0615350812696686,0.9980975392233772,-0.0700287126459012,-0.0256323225665507,9.85696613081347,-0.0205167271079776,-0.019299309677385,-0.0044615974872206,7.729172716477654,4.270993911101977,2.031944673921976,1119.6066158798756,1137.7067636069212,1140.879192581197,1125.6237713994703,201.38522212499691,460.9646988732863,-58.931905384785615,-447.7846402397046,148.49195024396667
47.17,0.6107971505115001,-1.0441020995130152,-0.7046946424242189,0.0053488331679605,0.0056634075871189,-0.019846988900271,-0.0024951393914571,0.0028217940083716,0.0614896212367194,0.9981005116792496,-0.0673218955407045,-0.0223983368290991,9.862369385339552,-0.020500381335766,-0.0191933364636258,-0.0043027858672577,7.729132284504659,4.270936246991484,2.031938809232723,1120.1468774528184,1138.9626078585886,1140.5729209962396,1124.3261568626272,172.701279417354,446.09327712205055,-189.960460442162,-462.5647900634363,148.49094920652493
47.1725,0.4038124991309817,-0.968451567693795,-0.6515509764461225,0.0063268396074622,0.0027412497838389,-0.0221697543309713,-0.0024648085176368,0.0027885955739483,0.0614408285727119,0.9981036813171692,-0.0644122148759137,-0.0189407890284625,9.867635582598444,-0.0204850022695276,-0.0190757428742103,-0.0041424825567873,7.729090628642928,4.270879884734942,2.031934740870862,1120.4701222769615,1139.9372299925294,1139.929390278987,1123.3109474491555,88.087905341536,363.90947347180855,-349.477655318245,-347.19039058032166,148.4901476485551
47.175,0.2369921905341756,-0.8603258543675165,-0.5347605548022791,0.0057917759578934,0.000778166690885,-0.02410305040033,-0.0024372224160207,0.0027610070876162,0.0613905661924222,0.9981069162600564,-0.061378949885877,-0.0153455215059697,9.872766958958382,-0.0204689039810444,-0.0189460315248186,-0.0039829439110415,7.729047513753096,4.27082530820441,2.0319318657441534,1120.5873169795263,1140.7821552259484,1138.8255327196475,1122.5902049097247,11.71406885650268,312.16269607591533,-509.09874814630126,-217.79521949158837,148.48938558133207
47.1775,0.130503875479182,-0.7502096621293992,-0.3817216806621003,0.0045055372412692,-0.0005898215482092,-0.0254287378973924,-0.0024131945559146,0.0027389703871851,0.0613403036718139,0.9981101247861937,-0.0582258587845638,-0.011666953280977,9.87776812459483,-0.0204500507549918,-0.0188040736489114,-0.0038252215278703,7.72900317051037,4.270772034720204,2.03192891187388,1120.5286926212443,1141.4980434729096,1137.3838965382542,1122.2219713516968,-55.457170740651655,253.50735396946536,-625.9871329883716,-58.93084695108785,148.4886595351551
47.18,0.1067726264012967,-0.6621357840184166,-0.210430776755949,0.0030493970467601,-0.0015891267516788,-0.0258136482807714,-0.0023916900449094,0.0027236742775956,0.061291527675514,0.998113215887234,-0.0549839579864817,-0.0079237516220907,9.882643422500317,-0.0204262081711099,-0.0186498952069302,-0.0036693444609482,7.728957924012642,4.2707191716245125,2.0319252313849727,1120.3100311258231,1142.0496919957948,1135.6955970547083,1122.2955506749695,-109.34934104098768,205.12387339859296,-737.9806770004396,108.86120431192361,148.48797976479173
47.1825,0.1531207419711476,-0.6013057290244652,-0.0150938352118678,0.001802361946552,-0.0027158772119117,-0.0255017200908902,-0.0023695802338451,0.0027160010890285,0.0612477115690466,0.9981159826250786,-0.0516808732309457,-0.0040951526506715,9.887394816493945,-0.0203951811935261,-0.0184834955978208,-0.0035143591168375,7.728912163513403,4.270666387220657,2.0319208675753218,1119.9819459160399,1142.5236628399018,1133.6939931532554,1122.766277373256,-110.74054008357751,143.47194417816291,-678.5757893241391,201.8081896846856,148.48721978493876
47.185,0.2172676702383381,-0.5934903247560077,0.1222457309246547,0.0017453095711306,-0.0036664663795857,-0.0249291011223627,-0.0023459349363186,0.0027171344947638,0.0612102927270083,0.9981183366519222,-0.048358554694046,-0.0002043517533976,9.892019972099053,-0.0203547675913029,-0.0183049752673979,-0.0033586839731882,7.728866189832803,4.270613969535859,2.0319159853835407,1119.7563284254052,1142.767051716686,1132.302718108086,1123.3045916233934,-58.0337293539445,66.19523383684533,-443.5922891825617,198.1087007988104,148.486633539229
47.1875,0.2489162809246494,-0.6280745237599119,0.2213645801064344,0.0034418553139552,-0.0044675522759764,-0.0240630200615073,-0.0023197114547631,0.0027236361464585,0.0611792973992667,0.9981202877973034,-0.0449731275102668,0.0037216728351454,9.896510617882367,-0.0203028856002433,-0.0181145428291336,-0.0031999774832999,7.728819893062455,4.270562102724103,2.0319109534981266,1119.69177726927,1142.8546390090862,1131.4760317073415,1123.7568208772507,26.86132514184179,0.0002775801931423,-190.69696825585257,132.27111915405865,148.48609568022053
47.19,0.1881065052267062,-0.7042355638783064,0.2920204740700102,0.0070201858865011,-0.0055020056282816,-0.0227876584569721,-0.0022934899873875,0.0027344315362512,0.0611565037214056,0.9981217229064115,-0.0415365932647901,0.0075872740232498,9.900850923938687,-0.020237695924115,-0.0179123596363933,-0.0030356619772623,7.728772918975546,4.270511021731874,2.031906000553396,1119.8906350511143,1142.7670531045867,1131.3492332668077,1123.9659472191631,125.25764238537661,-67.48994940586456,107.46473004341128,0.950488946818464,148.48550412812605
47.1925,0.035887615970186,-0.7763652514157229,0.3139501125022929,0.0098759364880826,-0.0068921032350704,-0.0217458517638148,-0.0022711705585924,0.002749056893314,0.0611421614115764,0.9981226184333892,-0.0380792384177717,0.0112718974188422,9.905016540843441,-0.0201575868084124,-0.0176986577394307,-0.002862840492963,7.728724788974145,4.270460565931489,2.0319005789239144,1120.3180654811972,1142.5171892620567,1132.0133553575588,1123.7615733219848,224.19744278083624,-139.1719735380063,408.15793756084565,-163.07230401694895,148.48505367760336
47.195,-0.2025229802798586,-0.8244022806087865,0.3077905400330074,0.0111476126355863,-0.0091926392911422,-0.0209500222152929,-0.0022553136213608,0.0027633514585919,0.0611347437949433,0.9981230731581608,-0.0345604975413721,0.0146779497314844,9.908973989329649,-0.0200613316851531,-0.0174737249374857,-0.0026781413678784,7.728676408533047,4.270410526900435,2.0318936547151085,1121.011622265019,1142.0711932368963,1133.3900229546127,1123.150585699078,355.9457556338256,-238.5060278144815,715.8011105473777,-341.4797945468231,148.4846438844199
47.1975,-0.5234447489859465,-0.8162641285936026,0.2836764274633724,0.0104073767714131,-0.0128491407815837,-0.0203368216468271,-0.00224511766376,0.0027720444577135,0.0611299647569958,0.9981233652863096,-0.0309167480457398,0.0177745899365275,9.912680228558848,-0.0199481525643433,-0.0172379377049396,-0.0024779649668956,7.7286285798738,4.270361120132208,2.0318849906952767,1122.0977942593647,1141.3246591229852,1135.5923609102924,1122.0541743492522,428.6889024394521,-302.2424337113807,843.5366858217325,-436.3867701446493,148.48419464635987
47.2,-0.7604102104188825,-0.7374683745966948,0.260097137535809,0.008005868770636,-0.0159027382828482,-0.0200456293824432,-0.0022389619355896,0.0027730639286227,0.0611247866059773,0.9981236897904704,-0.0271480273676151,0.0205531438786236,9.916083305178612,-0.0198178561183363,-0.0169915859547449,-0.0022590565099736,7.728581120366457,4.270312334147564,2.031874858568218,1123.1550667772171,1140.5599810683389,1137.6077063837236,1120.9686518483536,438.5596070919776,-325.0002943392402,774.3772942110484,-434.80042378237647,148.48385214533084
47.2025,-0.9005766895067404,-0.5825518135817904,0.2406507360169951,0.0039751253457933,-0.0182244712682016,-0.0198521531456385,-0.0022352139571939,0.0027659985497037,0.0611159186685047,0.9981242530783376,-0.0232876872419504,0.0230098622790956,9.919123746261922,-0.0196707624481678,-0.0167349386518602,-0.0020187869569886,7.728534078074262,4.270263616592575,2.0318644761199494,1124.2905922948255,1139.6996576512884,1139.4642473813497,1119.8801722303392,455.248500394878,-352.96761554082235,675.3450978169216,-411.9643093493432,148.48353812603995
47.205,-0.9293066021770328,-0.3759754782129142,0.2256628582568742,-0.0008189861619149,-0.0197750680394097,-0.0196342128543732,-0.0022333223673617,0.0027471583443051,0.0611023842198177,0.998125126902121,-0.0193043916484513,0.0251187278433333,9.921736512028371,-0.0195077859547433,-0.0164681941122569,-0.0017552151945292,7.7284878980870335,4.270214479764252,2.0318550227707948,1125.4313092791897,1138.7951429906364,1140.984431872805,1118.9088303016088,443.0852920762397,-366.8477476635813,502.2672291143112,-338.4284058561749,148.4832440430205
47.2075,-0.8210358313125973,-0.1296880422195863,0.2116965688009953,-0.0052040113969655,-0.0204310895936362,-0.0192781894031516,-0.0022332010392333,0.0027117174268502,0.0610845057115812,0.998126305982378,-0.0151427855193645,0.0268468880936187,9.923853090465968,-0.0193303336042324,-0.0161916663032744,-0.0014672130016677,7.728443304635785,4.270164540294239,2.031845787316004,1126.506018755208,1137.8654189129695,1141.9755835269225,1118.1880302010575,437.7909873129317,-410.30567245713354,316.1449868528254,-242.44865556621664,148.48296923993317
47.21,-0.5765493121608511,0.1785990015526089,0.1858364695441686,-0.0082669571874056,-0.0202786157998878,-0.0186164412058607,-0.0022313276483603,0.0026604686663466,0.061061777618973,0.9981278276499376,-0.0108520110923139,0.0282410155556572,9.92540372675464,-0.0191400964762027,-0.0159060864866008,-0.0011546133707797,7.7284008365147425,4.270114527962007,2.0318362152664,1127.6202642157555,1136.7436146283496,1142.5651568070703,1117.696587023777,363.8082135561161,-408.79280779009497,137.02493210738524,-114.25339406515764,148.4826552396649
47.2125,-0.3316292205959364,0.4218975506755,0.1485835892255158,-0.0083897234446096,-0.0194003525292974,-0.0179033216696802,-0.0022231982716299,0.0025992305705179,0.0610343779891991,0.998129675436617,-0.0065760747829254,0.0293786706254191,9.926320800068623,-0.0189389149282074,-0.015612717433331,-0.0008183729839718,7.72836028469985,4.270065665947677,2.0318270805836685,1128.3250598229868,1135.821454874021,1142.6607081874588,1117.6167632307322,217.515572080472,-359.05872825737606,-8.529187893141355,31.84172965896513,148.4824018507711
47.215,-0.1075796381659971,0.6244344284966771,0.0885811763345628,-0.0067477135461554,-0.0177539554145986,-0.0172228510963063,-0.0022083213349324,0.0025344342885541,0.0610071897529107,0.998131533905426,-0.0024712571327247,0.0302643026596524,9.926542584980961,-0.0187286949315279,-0.0153132552962125,-0.0004606723541886,7.728320389636691,4.2700188806970525,2.0318187500291316,1128.7078420761584,1134.9483209870618,1142.5225108676043,1117.855795672072,79.08036895342366,-359.429923642663,-75.80312910527697,164.4482031450093,148.48215179327875
47.2175,0.0960427891597832,0.795503664025301,-0.0096894315605684,-0.0046416825032908,-0.0150339716811146,-0.0165978070814501,-0.0021894100212137,0.0024724022183784,0.060983639269907,0.998133170904866,0.0013085955546363,0.0308454663458449,9.926016268200414,-0.018511075718821,-0.0150099810982264,-8.489185455152524e-05,7.7282800866406465,4.269974537123574,2.0318111407253774,1128.7204616677543,1134.0243052558067,1142.2816925419322,1118.4390042464577,-72.79154586560507,-305.9269859637479,-81.03362750564978,248.08955346211232,148.4818506056978
47.22,0.2088183867057765,0.8665713632743088,-0.1076785263853684,-0.0035128049402432,-0.0124963603221879,-0.0162198331447382,-0.0021709800427637,0.002417945878424,0.0609638796821677,0.9981345553410508,0.0046415114098677,0.0310396826388584,9.924700637880214,-0.0182873916225802,-0.0147056234299813,0.000304474983378,7.728239146406167,4.2699323611290705,2.0318046245444297,1128.3438843468307,1133.4186860572445,1142.1173427300766,1119.0962434393812,-222.18721405490672,-193.91857013924064,-47.94998444269643,275.8162803832828,148.4815958379744
47.2225,0.2807302282808072,0.8591350196055513,-0.2077672299175777,-0.0030356198625647,-0.0100176631725514,-0.0162827194762071,-0.0021563387347645,0.0023738933936455,0.0609480305553851,0.9981356671536694,0.0074510736716992,0.0307935731062733,9.922568237810944,-0.018058877965913,-0.0144030002599208,0.0007019435259008,7.72819783374359,4.26989209843792,2.0318000055920327,1127.6095255974792,1133.05471240511,1142.0419426197186,1119.8180856483748,-379.5625729952339,-93.4351330265576,-13.822045098042713,301.78510919588933,148.48133467914639
47.225,0.3480077203315231,0.7648863435166302,-0.3047289134282866,-0.0028099051608887,-0.0068535824844253,-0.0171651013302589,-0.0021469564325712,0.0023405975391861,0.0609376432475013,0.9981364088653552,0.0097171793564754,0.030094555565087,9.919607379116432,-0.0178268203816647,-0.0141047533340917,0.0011011593891723,7.728156769462419,4.26985374865856,2.0317983839219265,1126.4460714818536,1132.9515103921115,1142.0482325045864,1120.6051689853616,-445.40080254664224,19.709018695648147,13.15351752215352,251.97830754850835,148.48101220597533
47.2275,0.4040429455742239,0.6270211613764674,-0.3462415884405081,-0.0027402419118571,-0.0043233499224127,-0.0182795607765421,-0.0021381757145172,0.0023181069739666,0.0609296881796334,0.9981369753298412,0.0114371365582381,0.0290587757697207,9.915823312525854,-0.0175924344475405,-0.0138133677614531,0.0014951702946836,7.728116953629796,4.269816916056802,2.0318004668264567,1125.382521584748,1133.153257498588,1142.107710207329,1121.077977186116,-404.834434864026,135.18836721871045,26.24111881790235,127.24542905664605,148.48073544929292
47.23,0.4672572830764957,0.4544823069972878,-0.3270403088797297,-0.0024936351103088,-0.0026301063891437,-0.0194499617943939,-0.0021258235906329,0.0023069218623043,0.060921376913019,0.9981375448779108,0.012603373543728,0.0277998554507885,9.91124009719123,-0.017356956132318,-0.0135308688752435,0.0018765538981051,7.728078930378169,4.269781007787591,2.031806934571591,1124.4218993075324,1133.6274522282051,1142.179438098676,1121.2413961306452,-352.4820401220056,256.94441020369186,20.40241476992244,-12.309463383729122,148.4804507301723
47.2325,0.5426785849590509,0.2516860537770317,-0.2180802835843033,-0.0016403193578909,-0.0019355707841306,-0.0208002419606547,-0.0021109291955355,0.0023089481128517,0.0609135472206373,0.998138058501395,0.0131792165548006,0.026335495148701,9.905901387014302,-0.0171215887572048,-0.0132586862628316,0.0022377271463412,7.728042394929858,4.26974547642609,2.0318178421540662,1123.620111384137,1134.4379795496072,1142.2097222811788,1121.0164298691975,-208.21892741542635,322.3180812307167,-11.799786970060994,-146.0298783399103,148.4801014569613
47.235,0.589708219718075,0.1196719882815353,-0.0499773989104614,-0.0003807200369683,-0.0024334951485919,-0.0218482513384769,-0.0020961853569558,0.0023230528636806,0.0609049393417811,0.998138588379434,0.0131899006957908,0.0246520498253091,9.899868930111031,-0.0168871693450926,-0.0129978922629879,0.0025717286613731,7.728006503789682,4.269710296231118,2.03183231672531,1123.3808046704562,1135.2390426343575,1142.1204391638255,1120.5112467389463,10.403358012257875,325.6972750543053,-78.81886402201933,-239.9927086055095,148.4798059888485
47.2375,0.597153524518117,0.0556605240402969,0.1954406675168126,0.0016525267107475,-0.0037216389609511,-0.0226816756638037,-0.0020864857831989,0.002347722713393,0.0608941757392554,0.9981392108050468,0.0126692732714972,0.0226960229078589,9.89322121978386,-0.016654162480147,-0.0127492050061634,0.0028725829132345,7.727970028983547,4.269675260282066,2.031848868709773,1123.6721281741984,1136.0664659248796,1141.8156279610687,1119.8164663261691,201.89068528896897,319.32793109842385,-171.69909059744296,-278.0225484852905,148.47950917010883
47.24,0.5572593449932248,0.0552860384928294,0.4922243993330648,0.0043878173546031,-0.0051709514188428,-0.0230650936288681,-0.00208507894605,0.0023820249134827,0.0608804795680977,0.9981399683689188,0.0116452418492877,0.020450180206525,9.88605083219471,-0.0164227645513608,-0.0125130086368322,0.003135682710679,7.727932233045992,4.269640418506929,2.031866148617904,1124.3902580969016,1136.8356822898504,1141.261943710838,1119.1211339965191,367.0323568561498,274.39405912507425,-292.3249627774042,-239.07609225524453,148.47921431845197
47.2425,0.4575848770503122,0.1174345920133773,0.8190258854320299,0.0069976879917324,-0.0058687812443643,-0.0223697718346325,-0.0020926003053513,0.002424919891167,0.0608649081633731,0.998140797826804,0.01015444360005,0.0179505248886252,9.878461478957597,-0.0161931470800548,-0.0122893513256389,0.0033579449725762,7.7278932494998225,4.269605965374985,2.0318835541972846,1125.5072899584775,1137.4384362205035,1140.3540031471828,1118.6210858648942,533.4413775048538,202.15848423786352,-480.83910775924846,-137.11970624252635,148.47892635297217
47.245,0.292005845485475,0.22278447612512,1.1850644448707532,0.0080274084253535,-0.0050258926152924,-0.0196372867806632,-0.002108683272811,0.0024720512537971,0.0608472864006379,0.9981417213730752,0.008302925962586,0.015249851474903,9.870564826329575,-0.015965614022152,-0.0120780785590032,0.0035378329757866,7.727854029084803,4.2695720002478685,2.031900541038534,1127.0574649844234,1137.8464747110388,1138.857748172044,1118.435535465307,558.9860446611833,80.84924889458716,-603.0880670525319,13.421470023779376,148.47859559281463
47.2475,0.1420462331260234,0.3018605134969055,1.4168130459974024,0.00702376220839,-0.0033279050397912,-0.0156832520488058,-0.0021303893731015,0.0025169836704572,0.0608280168505134,0.9981427366590486,0.0062435588434931,0.0124488625517836,9.862477087988477,-0.0157408371298452,-0.0118787670362119,0.0036752381941841,7.72781526697388,4.2695386376280995,2.031916393985813,1128.3022201817848,1137.8426824649769,1137.3385628119188,1118.6881932150131,437.0792914851828,-85.77377599326769,-632.9413089554637,180.53203830463505,148.47833803954293
47.25,-0.0021422763754755,0.3427175988373696,1.5174778748458315,0.0057080756879867,-0.0014100491851831,-0.0106024473745903,-0.0021544003789213,0.0025554269894236,0.0608080645454363,0.9981438032298364,0.0040900383411482,0.0096569766988486,9.854316087786826,-0.0155199517114459,-0.0116907404132216,0.003771108466667,7.727777815015423,4.269505833635932,2.0319313022880996,1129.2428614418504,1137.4176058310723,1135.693041627265,1119.3381956568307,298.76486441862534,-284.342016828927,-701.9315811367977,351.02360014934766,148.4781070174701
47.2525,-0.1783428776994414,0.3370904075836403,1.448528247752944,0.0054674929424726,0.0006229076664702,-0.0042774675215769,-0.002176300099186,0.0025851567456687,0.0607895973542346,0.998144805184834,0.0019194468913173,0.0070053809088459,9.846197793667459,-0.0153045233020539,-0.0115130553097888,0.0038272645946919,7.727741799013128,4.269473368629605,2.0319451303293095,1129.7960445038766,1136.4209723808335,1133.828904906238,1120.4433112157583,89.18395074415442,-433.6565883295007,-623.6658420564702,431.78603743450105,148.4778703787028
47.255,-0.345136611536365,0.2934739052698084,1.2280277088919935,0.0066163952217312,0.0018628757117532,0.0006600907537206,-0.0021924261330288,0.002603827279752,0.0607753911303062,0.9981455886690044,-0.0001871377097536,0.0046072652219826,9.838233162466652,-0.0150963910137112,-0.0113445704676596,0.0038462204683796,7.727707549276147,4.269441049538363,2.031957630857945,1129.6887811955714,1135.2493228894236,1132.5747124169811,1121.4971258440044,-160.84114940614157,-510.82926339396425,-395.4540344072735,414.860915257456,148.47771396888393
47.2575,-0.5386227520679356,0.2286671384599581,0.8609738511628903,0.0078472184820437,0.0024351961156468,0.0046418253522608,-0.0021975171074471,0.0026086165610454,0.0607653835272461,0.9981461768230204,-0.0021356042393825,0.0026033301306137,9.830525022740634,-0.0148974138816915,-0.0111840935574868,0.0038310492658117,7.727675454119685,4.269408980656369,2.0319691411892213,1128.9918387568455,1133.8668260638624,1131.8516347342006,1122.5176157920466,-415.9501522727314,-615.5892506811284,-163.24350846231323,407.66982140954286,148.47760683378033
