t,ang_acc_x,ang_acc_y,ang_acc_z,a_vel_x,a_vel_y,a_vel_z,quat_x,quat_y,quat_z,quat_w,acc_x,acc_y,acc_z,l_vel_x,l_vel_y,l_vel_z,pos_x,pos_y,pos_z,mot_1,mot_2,mot_3,mot_4,dmot_1,dmot_2,dmot_3,dmot_4,vbat
2.53,-0.8118228928022094,0.983591824614962,0.6370981668643613,0.0781765974901181,-0.0158651669997948,0.0138432234571595,0.0003116140848848,-0.000334029112962,0.0037923078755391,0.9999925852516444,-0.0293378708128541,0.0565093215127954,9.83098858454573,-0.0181669595182665,0.0547458924016323,-0.0045803443089028,-0.6278050552913633,1.783096550617412,1.3326561850232934,1151.8803387854048,1096.099512007548,1122.3252385066023,1143.483727395753,-4.119979067536128,157.1402835381726,493.87005631293806,-409.4069943080009,162.47740039016287
2.5325,-0.9280752768244046,1.0404936303696168,0.5616612362707414,0.0763484110285708,-0.0117706408846067,0.0174385853092091,0.0004010348989097,-0.0003709300817578,0.0038249813783232,0.9999924101252936,-0.0255601145481075,0.060133079221276,9.828624873500367,-0.018050171811395,0.0549561661907134,-0.0044758390126738,-0.6278564055465538,1.7832309825714587,1.332650941517703,1151.717056932102,1096.713340802551,1123.7870701583392,1142.3266427239564,-118.78930536259102,267.1677140678696,552.3719172854388,-424.1244724377884,162.47738948002754
2.535,-0.9992509719893742,1.0115972003217404,0.4020214506458459,0.0746384306646011,-0.0082445885550106,0.0194642609879907,0.0004910341191875,-0.0004125500871985,0.0038582689645259,0.9999922226049044,-0.0216168258945595,0.0640614485893543,9.825969144943363,-0.0179139628968891,0.0551800120750699,-0.0043896926855939,-0.6279062467641142,1.78336665378432,1.3326467246188816,1151.2863922585918,1097.4353505778872,1125.0870980930295,1141.363105033564,-239.66162846837108,293.4179319890126,507.7422931974178,-365.6311177743724,162.47744336322296
2.5375,-1.0125587418979471,0.9112345439057616,0.1775365965591127,0.0717406212237935,-0.0053393306958844,0.0200459376618312,0.0005815760589614,-0.0004575478185332,0.0038888963063002,0.9999920358507812,-0.0175964119940803,0.068233324024781,9.823072111645773,-0.017760999304607,0.0554174731204944,-0.0043245493084416,-0.6279540583380522,1.783502953714469,1.3326432645473882,1150.51874878976,1098.180430462496,1126.3257816243263,1140.4984871350844,-422.5479346933388,290.4122974224327,502.3566296115057,-335.04529541692847,162.47756546895923
2.54,-0.9247882707640096,0.7348477650416214,-0.117573354835708,0.0674860739562954,-0.0029595983381733,0.0193356222708211,0.0006720669996763,-0.0005052096433986,0.0039103362869465,0.9999918763194408,-0.0135714470488372,0.0725754422285785,9.819991493438714,-0.0175947772397922,0.055668225770181,-0.0042818765741371,-0.6279991599017296,1.7836397265218455,1.3326399269563014,1149.1736525851252,1098.8874120649991,1127.5988812410867,1139.6878785564795,-564.4681232804608,207.2682486364145,414.88484948541526,-245.4486780543045,162.47779322336555
2.5425,-0.750545913598692,0.5650453560587069,-0.354460958086369,0.0642944468835242,-0.0016793417479902,0.0180760667825272,0.0007611370825165,-0.0005515955624772,0.0039160529380811,0.9999917731487484,-0.0096725473783187,0.0769993306847372,9.816790329496675,-0.0174189277147564,0.0559317064308386,-0.0042620431757538,-0.6280414064876773,1.7837774220658356,1.3326359409870767,1147.696408173358,1099.216771705678,1128.400205871753,1139.271243744813,-654.6827945805629,72.48256874827504,252.8000198178742,-102.15407676169195,162.47805179254644
2.545,-0.474176552229833,0.3974661541784781,-0.5574593272517593,0.0616600325964515,-0.0009240890870778,0.0165985288424834,0.0008467907081037,-0.0005911745967494,0.0039062441117246,0.9999917293127918,-0.0060537967216992,0.0814043774943185,9.813534550656925,-0.0172361252752123,0.0562073547218161,-0.0042643303186786,-0.6280819317810132,1.7839160496518542,1.3326308065532275,1145.9002386122224,1099.2498249087407,1128.8628813401763,1139.177108172671,-834.0113668459885,-34.701122033857985,118.09304124558616,34.93418973475929,162.47838228783996
2.5475,-0.0528990719648836,0.2219238109320694,-0.7449703685225801,0.0593623043155337,-0.0005969312947376,0.0146419135997756,0.0009303247671357,-0.000621234004025,0.0038833711344735,0.9999917346014368,-0.0028062737323908,0.0857557078822201,9.810289148207314,-0.0170483414549986,0.0564944546551586,-0.0042873687382094,-0.6281222050207355,1.7840559812494787,1.3326236723544118,1143.526351339128,1099.043266095509,1128.9906710779812,1139.4459146934869,-873.5168274475518,-90.83016498597614,-22.441579370250416,155.36766968688286,162.4788617105218
2.55,0.3345517255302037,0.1077583071300342,-0.8452339172124002,0.0589944144007904,-0.0007113528537144,0.0126938145633229,0.0010137212434067,-0.0006420292589644,0.0038527631202072,0.9999917659037764,4.491218420506205e-05,0.0900336149612881,9.807116511453192,-0.0168566789165008,0.0567922428501699,-0.0043290985573351,-0.6281628649711751,1.7841976221621054,1.332614246621908,1141.5326544749844,1098.7956740838108,1128.750673443325,1139.9539465211055,-753.4537325811872,-79.71966915551462,-157.2233347107052,245.63933694128696,162.47932938404878
2.5525,0.6979836219284452,0.0316210249502191,-0.8774386724235235,0.0610332708831088,-0.0010248332321965,0.0100927566658951,0.0010979271164945,-0.000655661130855,0.0038186194180476,0.999991805209462,0.0025173108809961,0.0942011336164067,9.80407517364092,-0.0166618810608758,0.0570998981122232,-0.0043869289143283,-0.6282044782230956,1.7843407407646084,1.3326032239404173,1139.7590826762219,1098.6446677497313,1128.2045544044277,1140.6741113781934,-638.6475071259292,-22.283945655136012,-256.5236703409082,307.05918248054985,162.47986601350627
2.555,0.9950633442282046,-0.0157003160887204,-0.8491740706008349,0.0648423997628382,-0.0012786937433803,0.0070787083836113,0.0011812807769722,-0.000663149206067,0.0037833812850765,0.9999918445369296,0.0046130839122693,0.0981742045258571,9.801219300154017,-0.016464555428162,0.0574166474565526,-0.0044579330197209,-0.6282471845100281,1.7844840909181892,1.3325914203882916,1138.3394169393548,1098.6842543555351,1127.4680550916205,1141.4892424335083,-451.2152222886112,77.01427402044084,-322.83946566404444,328.897914129682,162.48045792980648
2.5575,1.175519313369083,-0.0370754467707511,-0.7542384079883139,0.0696423306240267,-0.0012142483927124,0.0043871779905397,0.0012666132728201,-0.0006659443783151,0.0037486726413855,0.9999918725704152,0.0063490117572801,0.1019612250166368,9.798595466829607,-0.0162653021075782,0.0577417500891698,-0.0045397809659377,-0.628290095349494,1.7846273905787968,1.3325790260614057,1137.5030065647788,1099.0297391198335,1126.5903570761075,1142.3186009488415,-213.68945812187573,224.71918714887147,-398.092002318853,345.74029539308697,162.48111353800786
2.56,1.249506198920321,-0.044945503019389,-0.5879157478256961,0.0750325618774564,-0.0009228165480789,0.0022796781529902,0.0013557776431974,-0.0006681302719436,0.0037135918385918,0.9999918864250344,0.0077983013329028,0.1055563329870267,9.796243021947207,-0.0160651015995736,0.0580743983055008,-0.0046301424314959,-0.6283323390571801,1.7847706997553607,1.3325660575893603,1137.2709696487454,1099.8078502912795,1125.4775950800263,1143.2179439104737,40.65589859569714,335.8608375971088,-406.9109208790993,300.730420920133,162.4819691820524
2.5625,1.213292029627342,-0.0421727136113899,-0.4301430195090951,0.0783200860550977,-0.000725571633146,0.0015457432430634,0.0014512460840536,-0.0006736182134416,0.0036789605746909,0.9999918763981432,0.0090363645933347,0.1089707398443554,9.79419367148368,-0.0158648554381935,0.0584137204954018,-0.0047270276259433,-0.628373677335772,1.7849144640593673,1.3325528289023372,1137.706286057757,1100.709043307819,1124.555802471712,1143.8222530534424,282.9669927644833,391.26413547747615,-360.09900154341125,199.52663206345704,162.4827355729718
2.565,1.1164135239048647,-0.0307662599749908,-0.278621633981933,0.0799395167852129,-0.0007249582533754,0.0016364054910003,0.0015540771340333,-0.0006841750950058,0.0036468275899802,0.9999918323283532,0.0101015101269505,0.1121935103304836,9.792472277107885,-0.0156653854118478,0.0587586924689393,-0.0048286443834906,-0.6284139044453502,1.7850592922777648,1.3325395856129751,1138.6858046125678,1101.7641709686668,1123.6771000723093,1144.2155770707907,515.9719837420763,467.21205293766707,-373.1495107343187,114.12705078819513,162.48355173211078
2.5675,0.968718637285991,-0.004197396142435,-0.1193786642640995,0.0806746870276869,-0.000992714271385,0.0021305948608198,0.0016609174594533,-0.0006981107498529,0.003618450602963,0.9999917554761886,0.0109680219404338,0.1151336458993015,9.791098133584638,-0.0154675801104308,0.0591080822051618,-0.0049330638769256,-0.6284532355856646,1.785205218064416,1.3325266597570309,1140.2861459764677,1103.0451035725073,1122.6900549180405,1144.3928883073831,623.5478564357569,446.1312078288397,-349.89288415009304,11.79252660799673,162.48458119710625
2.57,0.826023204174526,0.0301624108305624,-0.003907293278677,0.0815852462704011,-0.0013824089478712,0.0023210901698668,0.0017676377952834,-0.0007127748295617,0.0035956627982115,0.9999916474281152,0.0115951552486308,0.11769124198961,9.790083693457348,-0.0152721820201181,0.0594604877974451,-0.0050384954279798,-0.628491781256303,1.78535239941515,1.3325142367603648,1141.8035438947463,1103.9948270078107,1121.9276356515588,1144.274539703831,606.1346304075913,325.8550754112783,-292.51465860941454,-101.14285063117904,162.48547478374107
2.5725,0.6443223991168909,0.0739676640230111,0.1059497690193335,0.083707988340214,-0.0017424248429736,0.0020012994377978,0.0018697348637261,-0.0007251280585662,0.0035821882280704,0.9999915041288384,0.0119380881650748,0.1197653165160892,9.789434592564048,-0.015079577446382,0.059814415460582,-0.0051432224578142,-0.6285296654923072,1.7855006127574176,1.3325019188188432,1143.3168191285058,1104.6743789495636,1121.2274816249933,1143.8871740542274,627.7259683242877,210.33400220361213,-293.74335557215835,-219.7739884747841,162.48639811709094
2.575,0.3504358720865987,0.1242441475893732,0.2443971957154904,0.0867270500330709,-0.0017206046956214,0.0015163187255647,0.00196760535757,-0.0007335833260912,0.0035805447286104,0.9999913150741856,0.01198274403481,0.1213575410748075,9.78914789644112,-0.0148901439723313,0.0601681629785194,-0.0052460938325333,-0.6285669289290345,1.785649570771898,1.3324900068974472,1144.9421737363682,1105.046497018829,1120.458918873698,1143.175669761457,544.3408160072183,52.77099852028299,-268.8390616128402,-284.5432883420987,162.487532910275
2.5775,0.0318655949468273,0.14957459971603,0.3658251933934154,0.0887652243525999,-0.0011486671348041,0.0014347880481236,0.0020654872523522,-0.0007358093407515,0.0035939793310188,0.9999910604900816,0.0117025112599593,0.1225513636341004,9.78921310689863,-0.0147039694746282,0.0605198876747167,-0.0053463937902225,-0.6286033593501786,1.7857992741694004,1.3324790750669495,1146.0385232085418,1104.9382339421652,1119.8832863169291,1142.4644576125168,369.87538565559464,-127.94382197990033,-212.8773057988428,-281.3385152763718,162.48849612654507
2.58,-0.3515319658853691,0.1405112128369047,0.480524096576401,0.089675387957481,-7.626113941998206e-05,0.0019678251970054,0.0021662252970765,-0.000730087389529,0.0036244085148648,0.9999907281594744,0.0110831118102857,0.12340967167737,9.789614073645339,-0.0145210659927068,0.0608675868888144,-0.005443052533797,-0.6286384074723327,1.7859502311428046,1.332467996500757,1146.791550664646,1104.4067779089296,1119.3945323447035,1141.768977185075,238.64582566662247,-270.65044619030806,-175.6318647207573,-253.7557772827367,162.48947278424737
2.5825,-0.7617969302257322,0.0958139347584782,0.5715644526660942,0.0893377200478828,0.0013735249239151,0.0030638477750397,0.002271535203043,-0.0007151262981867,0.0036702622916307,0.9999903210067578,0.0101176699717333,0.1239800736432942,9.790329498533769,-0.0143415468507587,0.0612090574580482,-0.005534596294187,-0.6286727054024782,1.7861026028502967,1.3324561635989212,1147.2317523368747,1103.5849817112137,1119.0051269933251,1141.195678726103,99.42445986876221,-373.5132050780601,-122.58238187787616,-178.33400434811136,162.49045769802032
2.585,-1.1547393734574118,0.0139774948784442,0.6073196914196394,0.0871840193111349,0.0029113658583515,0.0048054505258098,0.0023807130069274,-0.0006917730427087,0.0037274052809972,0.9999898553333137,0.0088397654212305,0.1242688974590742,9.791333745290922,-0.0141654690662664,0.061542008861266,-0.0056189659375734,-0.6287073787114805,1.786256375527738,1.3324431194213548,1147.28867296399,1102.539211883539,1118.7816204353144,1140.8773071633343,-59.082497913369835,-470.5532738828978,-46.77168124685622,-65.84656630812019,162.4914498908635
2.5875,-1.532260415393775,-0.0943595200331362,0.5542176474098796,0.0822991077213183,0.0035874037381309,0.0077467301631666,0.0024924887850547,-0.000660352763105,0.0037902217423237,0.9999893551451262,0.0072713062401152,0.1242768302258253,9.792597504418739,-0.0139927165478389,0.0618641632612771,-0.0056939424534997,-0.6287429637863197,1.7864116157411438,1.3324281759130236,1146.936339847308,1101.2322153417992,1118.771268587091,1140.8664458945627,-191.81278003589293,-455.17541167488224,47.82322072910676,58.51473958810072,162.49264651741862
2.59,-1.7193196373476507,-0.1544466961361653,0.4162551431300089,0.076690219276194,0.0024080442751909,0.0106484648603474,0.0026034730699482,-0.0006240934282941,0.0038554957752173,0.999988838616716,0.0054902558831481,0.123966781298756,9.794088759008032,-0.0138227071151952,0.0621734849029053,-0.005757071176221,-0.628779225799948,1.7865689023784268,1.3324109495408267,1146.3296090638105,1100.2633348251647,1119.02073653896,1141.169880861275,-293.647748752008,-326.30750155642613,159.62630139241642,176.43324485383064,162.4936476549117
2.5925,-1.737118991110934,-0.1389611840955209,0.1878656268412285,0.0706655719573108,-4.979728653923117e-05,0.0129104896448487,0.0027115952817553,-0.0005852528222274,0.0039202531402039,0.9999883214006664,0.0035542644516312,0.1233308130690327,9.795773500544849,-0.0136547855308042,0.062468232001859,-0.0058064917666404,-0.6288156866074082,1.7867288304912825,1.3323915092760554,1145.468101103548,1099.600677834017,1119.5694000940532,1141.748612118832,-415.697738037915,-190.78495474485484,309.6421986516607,298.1214345430343,162.4946521936111
2.595,-1.558167485963159,-0.0130593904031122,-0.1485343668728421,0.064154436819183,-0.0027051472400979,0.0136088528673682,0.0028146376029684,-0.0005447983081028,0.0039814420608127,0.999987822845442,0.0014942258662936,0.1223603317919242,9.797617628990723,-0.0134883839102947,0.0627471958823336,-0.0058410894324659,-0.6288519429418609,1.7868911143606823,1.3323703390805852,1144.2511203736208,1099.3094100514406,1120.5689475322183,1142.6604880339903,-457.6635081464799,-14.21197657064143,416.2620718912965,352.55795633011826,162.49586094193705
2.5975,-1.2623391056660018,0.166783321398542,-0.4354028204135144,0.0597969663288223,-0.003618971568144,0.0122653483010352,0.0029076402064128,-0.0005022068157864,0.0040350335552057,0.9999873745356184,-0.0006898803777547,0.1209940944678466,9.799589279014784,-0.0133232034368257,0.0630099490049201,-0.0058604491684829,-0.6288885641983794,1.7870539612458305,1.3323490186981155,1143.1797835628156,1099.5296179511638,1121.6507104535096,1143.5114019004825,-416.6135200287588,175.4457771406161,469.06611336690816,336.6538203700728,162.49687054575463
2.6,-0.8585077924214192,0.3812258901519178,-0.6763067311448472,0.0567676154459694,-0.002671379117594,0.0094772926257155,0.0029913760439594,-0.0004556512304295,0.0040786071817884,0.9999869849853716,-0.0030235968106112,0.1192826098765402,9.801657432128307,-0.0131589705042705,0.0632569205411051,-0.0058660386132004,-0.6289257008017675,1.7872161822238306,1.3323292801126154,1142.168052773477,1100.1866389371437,1122.9142780990528,1144.3437571358406,-406.7633027880306,357.9846216308928,574.7918469086594,339.1799527705261,162.497882047721
2.6025,-0.3160016004972744,0.6201498165136295,-0.8732270069256538,0.0550374975054611,0.0002457395861935,0.0056993124390132,0.0030670213566601,-0.0004069511056731,0.0041104522652288,0.9999866575070072,-0.0054610877576422,0.1172822972184082,9.803794284889968,-0.0129957228889051,0.0634893403716047,-0.0058603081467899,-0.628963296454909,1.7873771159949112,1.332312044691544,1141.1459670488755,1101.3195410593182,1124.5246696880529,1145.207301664335,-330.2927209447787,440.09316804164,588.3633676489478,283.0993565825853,162.49909747941143
2.605,0.1315485410085556,0.7720936990965251,-0.9512736248570492,0.0554632723401038,0.0032686174895535,0.0028882757632331,0.0031363768282777,-0.0003614038576005,0.0041266109056064,0.999986401651728,-0.0078885179838428,0.1150592202808308,9.805976284497625,-0.0128343029252324,0.0637089340778822,-0.0058464318459588,-0.6290001724366309,1.7875369738270979,1.3322975547631324,1140.5165891687532,1102.3871047773519,1125.8560949372975,1145.7592539187535,-201.2596096962668,411.82394665303,510.6903895743581,181.68242113393197,162.50011129320288
2.6075,0.517167764541769,0.8591558303940389,-0.945146839222182,0.0577848986588207,0.0058278768124501,0.0006316137576598,0.0032000728810537,-0.0003225087077616,0.0041251907913102,0.9999862234361988,-0.0102258762360623,0.1126530385690522,9.808186006307166,-0.0126757776860099,0.0639177959490399,-0.0058278335612752,-0.6290351552269562,1.787696084656956,1.3322854897190044,1140.139669000394,1103.378660792583,1127.0781216359246,1146.1157137700047,-115.05050181563338,358.49509603491094,457.4642868809958,113.29973116321769,162.50112562097905
2.61,0.8219732275352502,0.893514094661275,-0.8774830473647582,0.061105478083655,0.0078183651241809,-0.0013324745983056,0.003257441256818,-0.0002907605870559,0.004110001213112,0.9999861104047508,-0.0124493267066217,0.1100738099972412,9.810412290256608,-0.0125208324793955,0.0641182401788759,-0.0058077985712806,-0.6290685110498001,1.7878538654936336,1.3322762308053988,1139.941336659675,1104.1795802575264,1128.1434163717024,1146.3257525745696,-53.64248776940805,255.30905155436,373.1122030808113,58.15356498691989,162.5021399936148
2.6125,1.018199592528692,0.86956467178215,-0.7439883888379262,0.0645210724921274,0.0095042131994565,-0.0032290839200793,0.0033077889669563,-0.0002642905833424,0.004087272083931,0.9999860415573674,-0.0145791327022968,0.1073273907964676,9.812649158952606,-0.0123700069556269,0.0643124402955652,-0.0057892080543773,-0.6291012413898341,1.7880097037002565,1.3322699123939599,1139.8714565615471,1104.6552060503552,1128.9436826513288,1146.4064815949391,-28.97659877171268,126.83841208412612,271.47100657364706,20.56675282442345,162.50315362940776
2.615,1.1417433011290912,0.7746125197120102,-0.5162263405939956,0.0679259406858566,0.011450970868527,-0.0055635977920331,0.0033531307849778,-0.0002443999616165,0.0040636133708561,0.9999859850184633,-0.0165711675127892,0.1044692201708735,9.814893314803177,-0.0122239059056839,0.0645020282861919,-0.0057743328295831,-0.629133728467337,1.7881642327569292,1.3322651069493603,1139.7964536658164,1104.813772317947,1129.5007714045707,1146.4285863386915,-43.583048190567766,-4.527692413967185,124.24141149799917,4.46913655673607,162.50436722397487
2.6175,1.171378073283814,0.6356868005313377,-0.2791622624552483,0.0701752049296991,0.0132112653171496,-0.0072760612338696,0.0033976631280989,-0.0002356635122238,0.004043307330341,0.9999859102985978,-0.0183154504836475,0.1015949432232852,9.817143027515945,-0.0120835263870016,0.0646877324986177,-0.0057644511126412,-0.6291655954380951,1.7883187771030895,1.3322604936051243,1139.6535413205943,1104.6325675882852,1129.5648897088188,1146.428827277723,-83.39904873769406,-121.49448953660144,-68.3801587343638,-0.7197352907951579,162.50537413365893
2.62,1.1462776030125608,0.4267301522518888,-0.0134534639275381,0.0721166550902645,0.0152900605687396,-0.0079148134595673,0.0034446917542254,-0.0002391995540195,0.0040300500347273,0.999985792659634,-0.019768247344434,0.0987811963586084,9.819398229071032,-0.0119499440251566,0.064869291817034,-0.0057594978818648,-0.6291965285738484,1.7884746557035556,1.332254550326296,1139.379458422128,1104.206299870264,1129.1588706108987,1146.4249876622375,-141.97109399301854,-222.14853758683168,-291.08493139297644,-11.651576033318882,162.506373083846
2.6225,1.0635112805196905,0.0951346533485563,0.3040843487956926,0.0744333847077886,0.0174707936362593,-0.0070408528260562,0.003498702226719,-0.0002561365786265,0.004021131958536,0.9999856281337218,-0.0208855133638574,0.0961273454309619,9.821657823609849,-0.0118250385108395,0.0650453283611337,-0.0057583353700703,-0.6292257140099025,1.7886332846454762,1.3322461402826833,1138.9436858506292,1103.5218249003512,1128.109465051854,1146.3705693975564,-158.27376903789963,-265.9776717515854,-473.0148259599546,-41.14308400921888,162.5075576272964
2.625,0.9474844513425424,-0.2342709077452963,0.5431126633267258,0.0765345657756234,0.0183471042086384,-0.005382546799359,0.0035624954555026,-0.0002871286680892,0.0040132177583926,0.9999854212143984,-0.0216319729103276,0.0936992674587503,9.823919040977048,-0.0117105768499581,0.0652137717982761,-0.0057586881194618,-0.6292521526855883,1.7887962330704363,1.332234336499291,1138.5880895769385,1102.876411511506,1126.7937964810992,1146.2192722421917,-108.56564464793568,-263.2302936239341,-599.0928255806139,-98.37565167231543,162.50852855245907
2.6275,0.7701787102964852,-0.5834051157757328,0.7352862167465261,0.0790226436781998,0.0177509792952149,-0.00339781789698,0.0036365258211757,-0.0003267279196378,0.0040085126670161,0.9999851611048126,-0.0220915096244869,0.0915165575776169,9.826176974796093,-0.0116070556954958,0.0653724689238682,-0.0057576351997786,-0.6292763329026223,1.7889634689206404,1.3322192023694064,1138.4008576273895,1102.2056734322316,1125.1140009239507,1145.8786911391949,-22.986137335101866,-269.6189167379146,-708.4906191613451,-174.12978518755523,162.50947660433545
2.63,0.5330213379244485,-0.9131604288258756,0.8805602297568716,0.0817146789268248,0.0157618431529292,-0.0014009570765828,0.0037172093892971,-0.0003682751525652,0.0040063330175244,0.9999848620625184,-0.0223742084267282,0.0895197963757328,9.82842371143112,-0.0115145332463801,0.0655195619358332,-0.0057517681109128,-0.629299777685347,1.7891332911721112,1.3322018980092363,1138.4731588902628,1101.5283169278166,1123.2513433852923,1145.348623316254,110.88543019882545,-273.40197011095046,-751.0779908283145,-254.3690291658604,162.51040052586526
2.6325,0.2246813439913488,-1.1751214240536556,0.9634862032033824,0.0842779144865679,0.0121884232330526,0.0006834503737221,0.0038023065778098,-0.0004058102320854,0.0040056963963216,0.9999845354162336,-0.0225790947992532,0.0876756310503281,9.83064643252222,-0.0114321351289932,0.065653934719843,-0.0057382676315517,-0.6293242589425837,1.7893038085638249,1.3321838395019832,1138.9552847783837,1100.8386635816769,1121.3586109698094,1144.6068459933656,310.209214810654,-308.3871732699455,-787.9683063420465,-356.4740303067752,162.51128867577165
2.635,-0.1984839064228199,-1.367400095891866,0.982713426092302,0.0859441561343854,0.0067616865552739,0.0035748103609144,0.0038902721644848,-0.0004357177703981,0.0040041336125561,0.9999841962449292,-0.0227632504334363,0.0859635262297597,9.832827661658131,-0.0113582812286621,0.0657753958535475,-0.0057150252578562,-0.6293507828316393,1.7894737486218764,1.3321659233105547,1140.0242049643164,1099.9863810614668,1119.311501853582,1143.56625316472,457.9109163916801,-315.4366129729865,-681.3963226227764,-384.9793052602503,162.51230494939523
2.6375,-0.5525685920944464,-1.4118756171280424,0.9254306355330044,0.084889592185114,0.0020541533688189,0.0064212484524528,0.0039801333809939,-0.0004582307960567,0.0040016735627262,0.99998384644822,-0.0229125449442887,0.0843722759562345,9.834945737672772,-0.0112904258426181,0.0658847435004656,-0.0056806617022135,-0.629379140623136,1.7896424100765131,1.3321490533941256,1141.2448393603422,1099.2614805168118,1117.951629356695,1142.6819494670642,519.1814134732905,-285.3771792311879,-448.72150369602474,-326.832878061539,162.5131052645969
2.64,-0.8473240487627451,-1.3435149834827156,0.7896705660237008,0.081217443590352,-0.0020594120075579,0.0093922734591959,0.0040722340986106,-0.0004735929478568,0.0039975912106778,0.999983486940695,-0.0230184288548805,0.0829146933624891,9.836975881528426,-0.011225752359872,0.0659835029606024,-0.0056346433591586,-0.6294085924147484,1.7898094335773131,1.332133597568218,1142.6201120316828,1098.5594951653109,1117.067894335102,1141.9320887744123,584.7820724086102,-286.40203306081884,-272.2346679499027,-264.74043965513937,162.51385167865723
2.6425,-1.0846164568337415,-1.1627579369503402,0.548788726025895,0.0757839973920447,-0.0057656169206353,0.0120753006626532,0.0041668637290822,-0.0004837331506684,0.0039898818367085,0.9999831240345696,-0.0230456173377279,0.0816001302544972,9.838891390462791,-0.0111615145633319,0.0660736670335587,-0.0055769012397932,-0.6294386227710018,1.789974412678763,1.3321194609756957,1144.1687497223852,1097.8294703515076,1116.5904560169458,1141.3582472687883,511.89727232241427,-232.8707554407224,-83.21802446221405,-137.76426392728646,162.51467963787755
2.645,-1.1799789428773264,-0.95938234731419,0.3033721585566662,0.0718288984347252,-0.0079042170277794,0.0131496975384507,0.0042623928329354,-0.0004884710706848,0.0039810922575684,0.9999827540736722,-0.0230060006492455,0.0803973281522031,9.84066558096223,-0.0110943855929619,0.0661575245433036,-0.0055074896491526,-0.6294686758012348,1.7901371892288849,1.332106210491791,1145.1795983932948,1097.3951413881073,1116.6518042127907,1141.2432674547758,313.9255653638951,-118.92402622425176,109.74252856394976,36.86172577431613,162.5153098713325
2.6475,-1.1918224038732697,-0.7334659144097614,0.0413130861390452,0.0690739205428569,-0.0093649002568926,0.0133609514835275,0.0043576081960716,-0.0004871215165883,0.0039725102770893,0.9999823775808796,-0.0229276001343559,0.0792808546625228,9.842272159365187,-0.0110213296424595,0.0662371529679956,-0.0054267128498406,-0.6294991744790835,1.790298610084032,1.332093331641282,1145.7383775492046,1097.2348502203863,1117.1391686597656,1141.54255589766,130.87056463441792,7.453939586184947,305.54462274076934,215.12703089279515,162.51587497835695
2.65,-1.1483138229795489,-0.4634686255041497,-0.2592646041432655,0.0668497162063526,-0.0102435332639125,0.0130018678454839,0.0044504590558129,-0.0004811077104853,0.0039629349237711,0.9999820080779644,-0.0228026688115042,0.0782067093397065,9.843686388174557,-0.0109398781856193,0.066314116775018,-0.0053348343956847,-0.6295310769670394,1.7904601241805504,1.3320801346261173,1145.8339512164669,1097.4324110860382,1118.1795273264947,1142.3189026092396,-49.62713990767149,140.62028612738985,456.5461057519412,333.94165800437605,162.51647517254597
2.6525,-1.0849328782921899,-0.2504437772864469,-0.4754273081542062,0.0653574265156363,-0.0104110744516571,0.0121082206517033,0.0045392163925716,-0.0004688974877971,0.0039537969096461,0.9999816488150371,-0.0226853928423019,0.0771356705972311,9.84488644007922,-0.010847572471331,0.0663894377989404,-0.0052323692207885,-0.6295646786725458,1.7906226118429835,1.3320666288019871,1145.4902418496663,1097.9379516510235,1119.4218991885252,1143.212264187682,-194.77075395615023,266.97165755565965,574.3374070927597,377.48215835192417,162.51690896437594
2.655,-1.000408269203469,-0.0513271139850716,-0.6295809713850974,0.0636378439490662,-0.0106595020694298,0.010258220545822,0.0046217226657753,-0.0004501811300693,0.0039467750123929,0.9999813044733442,-0.0226087106614991,0.0760192030040015,9.845854231766014,-0.0107425791001996,0.0664635855361929,-0.0051199655322498,-0.6295996329131615,1.7907861183099982,1.332053114622964,1144.860097446686,1098.7672693738164,1121.0512143619587,1144.2063134009995,-269.7693466145938,374.07336816629345,709.8884309898925,390.5330692858761,162.51727231684393
2.6575,-0.8909953804902625,0.1405938915606317,-0.7157447790326338,0.0613148641858637,-0.0111928323581769,0.0077072573707168,0.0046960417330157,-0.0004283765084884,0.0039415188773452,0.9999809856323656,-0.0225335861434067,0.0748131395777905,9.846576039267209,-0.0106242712284792,0.0665365362476323,-0.0049985025271012,-0.6296348697023835,1.7909506059528413,1.3320399514017376,1144.1413951165932,1099.808318491855,1122.9713413434747,1145.1649295341115,-273.10501749103094,447.17769672830445,817.6534677421107,349.504860751502,162.5175760620102
2.66,-0.7374224586012643,0.325141773229423,-0.7109287919924115,0.058399299337238,-0.011351536319564,0.0049162431962845,0.0047636748901802,-0.0004077922438275,0.0039391887563361,0.9999806808735516,-0.02240229723122,0.0735417745550921,9.847043006958542,-0.010492882779772,0.0666079470714093,-0.0048696148532243,-0.6296690679592752,1.7911162495506487,1.3320268982372432,1143.4945723592307,1101.003157857458,1125.1394817006692,1145.953837704757,-231.88499785583684,529.8785795254047,966.101124108284,282.27734676020793,162.51780642142597
2.6625,-0.4950308028462953,0.5264710652520048,-0.6082710802652218,0.0553341971795879,-0.0100558423370849,0.0021500274343793,0.0048243085082793,-0.0003887267063293,0.0039421841610478,0.9999803841197782,-0.0222336594388567,0.0721956445337859,9.847253743072818,-0.0103494871597658,0.0666773340895549,-0.0047351258749256,-0.6297014026305777,1.7912825807681871,1.3320137241555583,1142.981970127314,1102.457711389482,1127.8018469640162,1146.5763162679125,-129.78620963213237,512.6595365458907,943.5955101423334,162.5085011726731,162.5179959854993
2.665,-0.2540521886009561,0.664333626425171,-0.4606597615936734,0.0538775810021112,-0.0077905503668905,0.0005799300694938,0.0048784770504507,-0.0003708465817667,0.0039517635385728,0.9999800906383108,-0.0220549848901294,0.0707846455585604,9.847214017785927,-0.0101961846841543,0.0667441011333438,-0.0045973731334007,-0.629731511265609,1.7914491255653036,1.332000854722692,1142.8456413110703,1103.5664555401875,1129.8574592513808,1146.7663802106204,5.030918024158489,395.71443352716346,736.0808494493696,5.102455962151105,162.51808002957702
2.6675,0.0025926872709799,0.763137113077548,-0.2791321711311935,0.0537657929467916,-0.0052423624922035,-0.0002531072009716,0.0049288954110182,-0.0003519077809559,0.0039686343169429,0.9999797874231862,-0.0219257107861418,0.0693649178577508,9.84693706531851,-0.0100357616259185,0.0668075827720367,-0.0044594450285381,-0.6297594140977179,1.7916153712026768,1.3319888019399593,1143.0071247174349,1104.4362835571178,1131.482251211263,1146.6018285477232,117.40289008635295,306.04925523271703,568.4091181514426,-140.8915541724612,162.51808543704612
2.67,0.2958921885078984,0.8447533748558675,-0.0600541031472193,0.0547509120988043,-0.0027128056190012,-0.0005570404099894,0.0049799440083729,-0.0003366671326272,0.003988364433656,0.9999794670120216,-0.0217614983531458,0.0680289276038046,9.846442949220974,-0.0098721005373125,0.0668669343563469,-0.0043248975987367,-0.6297854728595847,1.7917812574693917,1.331978028669883,1143.432655761502,1105.096701816351,1132.699504842138,1146.061922439758,167.9619363849305,172.35984214253588,307.6934167961619,-235.55882264986897,162.51799871763396
2.6725,0.5085864504523384,0.8950814754205396,0.0971582859857188,0.0560465385841128,-0.0011313571862087,-0.0003218987002356,0.0050353007313114,-0.0003312040451186,0.0040089000887164,0.9999791149036206,-0.0214447834752178,0.0668588523832658,9.845759498149416,-0.0097088713314898,0.066921247721668,-0.0041974564633161,-0.6298099284828245,1.7919475692223898,1.3319690719164818,1143.8469343993595,1105.2980827678305,1133.0207182952436,1145.424034434474,141.4360648181987,15.009699041728604,-9.661487826542071,-265.60826008752,162.51784704341796
2.675,0.6720588796478436,0.9400759004932608,0.199632881043074,0.0575992417135004,0.0001944425336406,0.0003767761246377,0.0050984108729741,-0.0003366571546695,0.0040300171284356,0.9999787122998132,-0.0209481932197341,0.0659365593829313,9.844922236877302,-0.0095493380661317,0.0669695172229657,-0.0040810200167301,-0.6298323133467714,1.792114570518614,1.3319621704927056,1144.139836085593,1105.1717503115597,1132.6511974030052,1144.7338811393204,61.98188524221714,-106.4505797270086,-286.77729336880356,-285.28788701581,162.51761080707098
2.6775,0.7976343567286422,0.98876246447986,0.2321136375105025,0.0600806196571309,0.0020291728446208,0.0017388687937865,0.0051691797258805,-0.0003523663083585,0.0040485471799879,0.9999782709545688,-0.0202739623846607,0.0652787402410923,9.843973685690829,-0.0093968048330964,0.0670106202731802,-0.0039788929027725,-0.6298530464052357,1.7922815859915586,1.3319581461690215,1144.1568438255706,1104.7658298691952,1131.5868318283997,1143.9975949993948,-69.84121193481919,-164.44607445060123,-455.98050803847457,-238.61776426538708,162.5172269938201
2.68,0.8364684008247363,1.0139265593501907,0.1704847656199734,0.0628435086135091,0.0041181617221463,0.0032441858643964,0.0052443241272998,-0.0003759832406626,0.0040601363864581,0.9999778246712931,-0.0194524209068075,0.0648435183579601,9.842961725860862,-0.0092541705200952,0.0670433748216572,-0.0038934868493076,-0.6298729399906652,1.7924481051950962,1.3319574712144155,1143.7906300259187,1104.3495199393067,1130.3712948628129,1143.5407923179935,-236.3721506317284,-145.50919685703175,-506.6673372139684,-140.40110430355824,162.51682161183584
2.6825,0.807970116927507,1.001025769400087,0.0144957746378654,0.0659217464854376,0.0069424243497792,0.0048245538056225,0.005324822155313,-0.0004043006675258,0.0040605365244614,0.9999773847039248,-0.0185262488479152,0.0646765456481703,9.841935976794849,-0.0091236269440776,0.0670664679462534,-0.0038268784324566,-0.629892425740812,1.7926145108065394,1.3319593415090267,1142.974983072412,1104.0382838849102,1129.05349514233,1143.295589477877,-398.5143115346176,-79.65253854572606,-513.4000749250954,-63.16956513724242,162.51632507643515
2.685,0.7362551698572104,0.9402827602408024,-0.2068097263278371,0.068641558656644,0.0100881922233515,0.0059280566064713,0.0054135734357393,-0.0004307163276291,0.004050403075628,0.999976932738821,-0.0176017090024233,0.064863978264392,9.840946332319351,-0.009005945578861,0.0670785235224887,-0.003780147432049,-0.6299116958910727,1.7927816966700127,1.3319621067833172,1141.798058468246,1103.951257246578,1127.8042944881875,1143.2249444923073,-543.7023487840295,45.52322127929171,-458.3464020303479,4.170028897033351,162.515751134675
2.6875,0.6424742680860613,0.8113900028977925,-0.4712511190677305,0.0703304305320613,0.0128899176690394,0.0055650794413007,0.0055101814499798,-0.0004497231477536,0.0040311906158193,0.9999764647776512,-0.0167629925031927,0.0654289189921949,9.84004111988807,-0.0089010559595801,0.0670781122775361,-0.0037523649463157,-0.6299309975249017,1.7929502982166592,1.3319640434087523,1140.256471328492,1104.2658999913067,1126.7617631321782,1143.316439622362,-732.0266210676137,248.7156483685393,-398.3403870535852,55.2883515061706,162.51508159773516
2.69,0.5510962905905241,0.5794587668374849,-0.776353346581436,0.0710267576272696,0.0155500688453629,0.0029874956325649,0.0056134848505233,-0.0004582023588479,0.0040023824087827,0.9999759887437146,-0.0160488297869205,0.0663802576187201,9.83926395634381,-0.008808451147233,0.0670638473675222,-0.0037409315927094,-0.6299502925973673,1.79312098937321,1.3319634188041403,1138.137925362908,1105.1948354884207,1125.8125925529196,1143.501386249838,-792.1588145609517,429.7723541448341,-302.24670787939164,60.483563323943066,162.514164674045
2.6925,0.5209750290310645,0.3317605325954123,-0.9766082304099628,0.0711236954257199,0.0172543235704341,-0.0004233520732904,0.0057238482063005,-0.0004568902605299,0.0039648310245712,0.9999754972427138,-0.0154250621259053,0.0677557854686843,9.838650859424348,-0.008726774203267,0.0670346981720471,-0.003742135214942,-0.6299686370883087,1.7932942271666084,1.331959335239144,1136.2956772556872,1106.4147617620308,1125.2505295927813,1143.6188574389819,-712.1383374258281,558.2484402244637,-195.0129706391677,18.014736227997147,162.51330396080786
2.695,0.555348397932825,0.0488138944743135,-1.085545542864886,0.0713412793764954,0.0180547593596978,-0.0042844195821347,0.0058376940329772,-0.0004459094898784,0.0039201454746731,0.9999750027119092,-0.0148749272708328,0.0695132322966391,9.8382301867739,-0.0086538320865161,0.0669903673466868,-0.0037509652188403,-0.6299860840066289,1.793469490812169,1.3319516504181503,1134.5772336757789,1107.9860776895428,1124.8375276997235,1143.591459930978,-677.9252404811809,727.9352172178242,-175.1099602266886,-59.30427551943066,162.512341115078
2.6975,0.6668455498657133,-0.2968739305491869,-1.0983933549571865,0.0719985312961461,0.0175774783040868,-0.0084781935267137,0.0059527969944007,-0.0004244811742875,0.0038725670000739,0.9999745009332444,-0.0144056990299537,0.0716322534214556,9.838020351131213,-0.0085862589562595,0.0669316204154109,-0.0037623638495111,-0.6300037269941158,1.7936452654563693,1.331941432935278,1132.906051053281,1110.05443784812,1124.3749797916475,1143.3223360613847,-513.8624358963278,750.1153181975445,-183.43459494934572,-137.06695732443205,162.51106646111828
2.7,0.8012983302483839,-0.5629659608345104,-1.017830088551528,0.0729052535315637,0.015928305594054,-0.0112028141642285,0.0060698557113983,-0.0003934886377059,0.0038264709452491,0.9999739712933906,-0.0139996490859633,0.0741433174358231,9.83802857687078,-0.0085198572316969,0.0668604340596512,-0.0037718556171469,-0.630022432111744,1.793820540372404,1.3319300480309657,1132.007921496297,1111.7366542805307,1123.9203547249767,1142.9061251443559,-224.33802955288704,619.5074319744112,-211.84964889294403,-192.07451328261823,162.50990470201563
2.7025,0.944173032652757,-0.7803376790263213,-0.8596564165645796,0.0742490723321787,0.0132606466146892,-0.0132213139379015,0.0061874061893288,-0.0003548073085124,0.0037861838908226,0.9999734083637972,-0.0136284430980564,0.0770256709079581,9.838252193585092,-0.0084497474814194,0.0667800553341423,-0.0037751698761553,-0.6300433056938797,1.793994064363106,1.331918638173481,1131.7843609055167,1113.151975007992,1123.315731547183,1142.3619634949716,79.24170982892234,520.5398336885194,-302.7102907598029,-242.2546192545776,162.50864019492107
2.705,1.06847222340071,-0.9725974794047996,-0.5997368971830467,0.0767460671831945,0.0097513675923001,-0.0149411691879664,0.0063020309924158,-0.0003104241568411,0.0037573227778159,0.999972816496354,-0.0132705062863739,0.0802095939085592,9.83867941113962,-0.008370467991515,0.0666948731671651,-0.0037683957931976,-0.6300672267000126,1.7941648036192357,1.3319074217409663,1132.4041300454417,1114.3393534489735,1122.406803271178,1141.694852048083,377.71891702141954,332.52221926987454,-352.1530406291806,-226.93453374609393,162.50700568437858
2.7075,1.0836009207002608,-1.0799169859192184,-0.3352417418888813,0.0798867584428732,0.0070835369237873,-0.0159131821803811,0.0064085151437667,-0.0002617585389113,0.0037448397241841,0.9999722140905568,-0.0129241600525664,0.0835783906240546,9.839290593273178,-0.0082766624307879,0.0666100656123277,-0.0037480255663444,-0.6300945649194933,1.7943319306963759,1.3318959230235177,1133.6729554906235,1114.8145861043415,1121.5549663440372,1141.2272908262412,649.328103688563,77.59196399183729,-332.65287529685133,-150.972028825257,162.50554791051195
2.71,0.9503306418333474,-1.146234334662669,-0.0293474185939614,0.0840212071315398,0.0047418098859471,-0.0166545263730212,0.0065045548245857,-0.0002138114312335,0.0037426152331553,0.9999716357890353,-0.0125258801831204,0.0870612353281153,9.840058157091242,-0.0081650074634324,0.0665309432957547,-0.0037115250150051,-0.6301242981015754,1.7944956357561974,1.3318840010947337,1135.6507705638844,1114.7273132689327,1120.7435388946935,1140.9399919039568,885.7294673913392,-122.29279947487416,-291.8527977793536,-79.32707725212991,162.50399389657693
2.7125,0.6652054574426838,-1.188763445466906,0.3040904918731603,0.0884526042406973,0.0026118973183442,-0.0171688096922452,0.0065898824527018,-0.0001712619087689,0.0037458347872911,0.9999710983447267,-0.0120240480384056,0.0906147673770075,9.840949064460691,-0.0080330042397279,0.0664626719090125,-0.0036573458616084,-0.6301552218355594,1.7946567741981287,1.3318713456562905,1138.1016028275803,1114.2031221069672,1120.0957023551405,1140.8306554399803,1055.2792707929027,-298.7261435533192,-191.573179117408,-3.9762059768237057,162.502362941516
2.715,0.1939232325067066,-1.207517843692878,0.6539401389187268,0.0925290288743094,0.0005900484089921,-0.0169687892634708,0.0066651614232812,-0.0001354359291758,0.003754800699008,0.9999705945759776,-0.0114358717445803,0.0942017254137477,9.841927519350072,-0.0078787817270149,0.0664099094172753,-0.0035849244477989,-0.6301864992016728,1.7948160483101692,1.3318583750797457,1140.9271669178488,1113.233682551166,1119.7856729991067,1140.9201108740726,1272.53982397338,-501.4843112349925,-37.67751171694472,71.93076353577877,162.50064318182635
2.7175,-0.535950919658459,-1.1940533192551694,1.0535340471327574,0.095352671763934,-0.0022010049978112,-0.0150737711348429,0.0067333360563706,-0.0001065872640998,0.0037683629439234,0.9999701085673048,-0.0108005814680593,0.0978194364510159,9.84295647133507,-0.0077021682806382,0.0663763663007211,-0.0034949085966044,-0.6302174452305777,1.7949741375916224,1.3318457878172607,1144.4643019474477,1111.695700550792,1119.9073147965555,1141.1903092576595,1280.8394250781066,-604.5324644756012,127.42408467405816,114.3926368745647,162.498482421971
2.72,-1.2027660527210002,-1.1368288929595372,1.3309194407535492,0.094239173034853,-0.0052226667514037,-0.0117682945271727,0.0067968042271732,-8.492717135559084e-05,0.0037874617172886,0.9999696209754624,-0.010156039144526,0.1014455131542283,9.8440004118657,-0.0075042913032942,0.0663646660838072,-0.0033887846092859,-0.630247303531036,1.7951318222735648,1.3318342966205596,1147.3313640432395,1110.211020228788,1120.422793422477,1141.4920740584455,1090.9983108023655,-613.4366973716755,277.92468666116883,125.83224834347943,162.4966053541658
2.7225,-1.8067299727584227,-1.0100775920369975,1.5046415808477507,0.0886280651248807,-0.0088452685257639,-0.0069285314581963,0.0068600649299118,-7.041277557519421e-05,0.0038128335886851,0.999969099868032,-0.0095402126574905,0.1050925574445485,9.845026703255655,-0.0072878298033528,0.0663761866690924,-0.0032691591284486,-0.6302746856991251,1.7952903007834569,1.3318241651436,1149.9192935014592,1108.6285170639335,1121.2969382298616,1141.8194704993768,1045.9575181166879,-702.3159463561719,440.0727156588894,145.4298300861441,162.4946546553645
2.725,-2.326851577334403,-0.7659299680909472,1.5601686027860036,0.0788400146617277,-0.0126687375927564,-0.0005957550195019,0.0069242410205439,-6.099348978615941e-05,0.0038433168955466,0.999968544070827,-0.0090238693040908,0.1087032346147735,9.846009200077907,-0.007057024988483,0.0664111053800138,-0.0031389159102896,-0.6302986398816672,1.7954500274138443,1.331815732022092,1152.561151633823,1106.6994404970071,1122.6231570007715,1142.2192232088762,881.3707733992221,-707.4701600139784,510.4887794410496,149.75063835600258,162.4922358407024
2.7275,-2.5299993771587928,-0.4922216566667316,1.4762364787834104,0.0701084528409196,-0.0148508918140385,0.0041497353378315,0.0069868615665266,-5.571085041096835e-05,0.0038773498516072,0.9999679780071756,-0.0086472962044647,0.1121482039737397,9.846929500222931,-0.0068171323221513,0.0664685695545517,-0.0030009555078924,-0.6303186102654327,1.7956116368456394,1.331808883839202,1154.3261473684552,1105.091166263864,1123.8493821270667,1142.5682236911568,610.3771637662378,-643.0223033264293,490.97962744732416,148.9676315292431,162.4901607542624
2.73,-2.4747088604767726,-0.1676434131619406,1.276538199157805,0.061828806448152,-0.0160820888747608,0.0077027418680101,0.0070508703777752,-5.438501328381338e-05,0.0039150402605298,0.9999673803062332,-0.0084239788815465,0.1154059089028861,9.847775281019937,-0.0065736673108298,0.0665468933369675,-0.0028592025266804,-0.6303348013203443,1.7957751499491548,1.3318036201304735,1155.6130374526542,1103.484328980375,1125.078055138008,1142.9640613665224,450.95521470044383,-705.4547177426833,515.9529548777865,189.8834101934012,162.48803108396547
2.7325,-2.1426427229353258,0.2431442639897235,0.9401719765408388,0.0532681410940755,-0.016270422056042,0.0107269732498883,0.0071178490961283,-5.355104951988924e-05,0.0039566517713377,0.999966738450252,-0.0084206570182761,0.1184321511419501,9.848543352020663,-0.0063320911477407,0.0666438273463089,-0.0027175644739255,-0.6303482461681122,1.7959393525488636,1.3318005992542552,1156.5809234419576,1101.5638926751503,1126.4291469014556,1143.5176407421238,252.81053385611443,-696.9439513499914,458.84964947950795,213.01220329683477,162.48542106523547
2.735,-1.6960474858431283,0.5706854364752078,0.6072849072694949,0.0479360218341162,-0.0150233022725055,0.0125557019995106,0.0071871985123115,-4.9328431187261514e-05,0.0040028866109672,0.9999660544287504,-0.0087008705814272,0.1211459877634989,9.849239580656256,-0.0060973765176426,0.0667567347535616,-0.0025795383944774,-0.6303595325897333,1.796104083272168,1.3317999040289452,1156.8770901219348,1099.9996092236252,1127.3723033854055,1144.0291223830063,2.8460190944768224,-602.6606567676074,324.7716019914841,200.94940066572696,162.4832071929081
2.7375,-1.1532891249272628,0.844733867515378,0.2513755716685795,0.0452654057441812,-0.0123689413504223,0.0137354333783375,0.0072600907354347,-4.0535163166872494e-05,0.0040549418901358,0.999965316023908,-0.0092640494050388,0.1235093441835969,9.849876687566212,-0.0058737082176608,0.0668826477691627,-0.0024484221096963,-0.6303687687858056,1.796269626995836,1.331800594736278,1156.59515353743,1098.5505893913123,1128.0530049114132,1144.5223877454523,-214.3150240960805,-542.8240439912404,223.46994725574717,178.93350336920477,162.48096077844033
2.74,-0.5916365008617278,1.0533224197399416,-0.099429595894023,0.0449064230830442,-0.0089354423729101,0.0140868917284609,0.0073383769800486,-3.0005889738803916e-05,0.0041088651747625,0.9999645251143132,-0.0100220867798651,0.1255078460185974,9.850473383002479,-0.0056649976474923,0.067018283052309,-0.0023269379921685,-0.630376410017164,1.7964366141083414,1.3318020885821151,1155.8055150014543,1097.2854890036688,1128.4896531216843,1144.9237898998526,-437.0693581309845,-435.6116508387096,118.83556016369108,122.4015990532306,162.47869322978784
2.7425,-0.0619845759165292,1.1734535574574227,-0.4126168478163951,0.0462729663292759,-0.0052465835340136,0.0131577914516778,0.0074212233381495,-2.066419479133286e-05,0.0041630257585736,0.9999636924646668,-0.0108775286279564,0.1270852578812873,9.851054612300628,-0.0054736710626301,0.0671602727157926,-0.0022167171072681,-0.6303829410049747,1.796605037226735,1.3318038576261355,1154.409806746775,1096.3725311371188,1128.6471827122316,1145.1343957407187,-736.0809425257842,-285.4911704380872,21.543842356550616,41.78532873547827,162.47640732576383
2.745,0.5042162834318328,1.224281722371426,-0.7062814923552521,0.0484895640272828,-0.0012378666943041,0.0107750379297829,0.0075062455937619,-1.5022168412152928e-05,0.0042163272308478,0.9999628386968744,-0.0117359538980563,0.1281671826466101,9.851649533428873,-0.0053007785506323,0.0673052800131967,-0.0021184116074191,-0.6303893157367482,1.7967736888189596,1.3318061615589067,1152.1251102888255,1095.8580331514784,1128.597372333467,1145.13271654353,-912.5878611084513,-68.8572966408643,-38.13822342326684,-34.397293385519156,162.47365230772596
2.7475,0.9186171276743634,1.2057657126272288,-0.8608332285449679,0.0501589744485134,0.001663909619799,0.0080170642382237,0.0075932838699608,-1.208182522205615e-05,0.0042659011347457,0.999961975911426,-0.0125696433171953,0.1287367454535797,9.852288641136576,-0.0051462770392253,0.0674500276148102,-0.0020322121246603,-0.6303966998957241,1.7969421910878596,1.331808987127224,1149.8468674412327,1096.0282446539145,1128.4564915951153,1144.962409273791,-943.171466829992,212.53304636411937,-48.43039647794388,-78.61378933080398,162.47135335358357
2.75,1.2849157627496957,1.1480228699639468,-0.908911855781556,0.0515495055248834,0.0042059204190999,0.0046175253403865,0.0076825549837815,-8.158897828134464e-06,0.0043075578074491,0.9999611202259202,-0.013403894722322,0.1287985292428525,9.853002174877687,-0.0050091082117279,0.0675912843314759,-0.0019575585284405,-0.630406005290459,1.7971108042442248,1.3318117524808226,1147.4092529546756,1096.9206983832987,1128.3552203510772,1144.739647596876,-1046.7817067998787,566.852802323104,-4.195495680551264,-73.26154744851166,162.4690594194378
2.7525,1.668975187241184,1.0582987482169484,-0.8515415304094229,0.054124329309758,0.0067363837853497,0.0006647491089906,0.007773329065027,1.4116956336434063e-06,0.0043368281071018,0.9999602969127764,-0.0142856307040778,0.1283523899134943,9.853818292397555,-0.0048873422739802,0.0677258280024378,-0.0018929491496426,-0.6304176642656116,1.797279396608648,1.331813971624544,1144.6129589072336,1098.86250866553,1128.4355141167125,1144.5961015365483,-959.5651847026352,846.5130808187677,78.22008548719334,-8.232294666368212,162.466322153269
2.755,1.9239109844793416,0.9791258777008612,-0.7310617250946357,0.0580139516837363,0.0083497807756254,-0.0017033608902972,0.0078643500767553,1.8392247066403407e-05,0.0043538499297406,0.9999595147673954,-0.0152079112860997,0.1274006962251203,9.85476053857222,-0.0047778895325037,0.0678504363825339,-0.0018360372441629,-0.6304310456756719,1.7974476120541532,1.331815174410444,1142.6114270311623,1101.1532637873927,1128.746320778513,1144.698486123544,-691.0074694406524,1020.2192501968271,176.48919408643826,102.21601252142352,162.4640609493804
2.7575,2.073843914768876,0.8991275556176827,-0.5765232631842764,0.0638548623450262,0.009897042266411,-0.0027324582803275,0.00795549634417,4.1293197820509416e-05,0.0043577211778662,0.9999587784394764,-0.0161055926919098,0.1259813067767492,9.855845577432126,-0.0046776061381652,0.0679617486571938,-0.0017840060536878,-0.6304451385258268,1.7976158984441046,1.3318149918351923,1141.1579215600304,1103.963604916514,1129.3179600871447,1145.1071815991556,-473.47930896240973,1166.7958547907924,257.5319500466147,211.83836083826847,162.4618284028039
2.76,2.111891309143691,0.81163856204014,-0.424972868315105,0.0705273891343655,0.0117585620789864,-0.0028719585139037,0.0080456950536224,6.512185698378754e-05,0.0043456208038509,0.9999581089739986,-0.016851827408943,0.1241258107448668,9.857082554819216,-0.0045836433155571,0.0680562146615553,-0.0017334996277877,-0.6304591669743159,1.7977854983908053,1.3318131003162648,1140.2440304863503,1106.987243061347,1130.0339805287465,1145.7576779277356,-234.49420204909313,1193.8486758905688,285.90839565061174,299.4476100514728,162.45962541315131
2.7625,2.0053764974696526,0.7003542274517099,-0.3027394201207983,0.0770810198465616,0.0139515945309633,-0.0023831162940599,0.0081315888410874,8.383156860990476e-05,0.0043169960028591,0.999957536071372,-0.0173063904161949,0.12183186890944,9.858472876231255,-0.0044929771783641,0.0681302078075499,-0.0016807247830876,-0.6304735545034739,1.7979574051689768,1.3318099814294064,1139.985450549785,1109.9328482959672,1130.7475020653978,1146.604419649413,16.582584239313643,1187.3447385752822,253.87270777610493,381.8927399519534,162.45746481296743
2.765,1.7302852207325004,0.5229971349493343,-0.1990569492583447,0.0837106485164587,0.0163317304439138,-0.0014447582598535,0.0082103502084359,9.349821343896848e-05,0.0042722307601088,0.9999570814643952,-0.0173786342841663,0.1191176526450686,9.860009068084919,-0.0044026538306391,0.0681802294307941,-0.0016221087442288,-0.6304887733292805,1.7981317346445451,1.3318064120649975,1140.3269434075469,1112.923966754223,1131.3033440676268,1147.6671416274953,207.13353870674368,949.0197816597832,109.9311022845564,371.854556381694,162.4549294966397
2.7675,1.4118050706836218,0.3332253147418702,-0.1358650523170039,0.0876243800914239,0.0179258654385993,-0.0008906082637858,0.0082821398725632,9.327920853318016e-05,0.0042150065725742,0.999956727947358,-0.017045815294849,0.1160682419760294,9.861674009629139,-0.0043095830661254,0.0682032416328321,-0.0015548066363296,-0.630504601979918,1.7983080616531815,1.331802840926815,1141.0211182433184,1114.677947204266,1131.2971575768206,1148.4636924313215,325.33492793396147,505.6949619062033,-139.3254163777358,280.69853501615995,162.4528704744615
2.77,1.050414208356388,0.1023765762774759,-0.0623418411680405,0.089821294532415,0.0191331565739088,-0.0016851700592367,0.0083515383344145,8.451639609158878e-05,0.0041501836739719,0.9999564167483742,-0.0163353645860946,0.11286175702363,9.863440815159585,-0.0042109636049372,0.0681969605447237,-0.0014769649614697,-0.6305204342202936,1.7984857994374146,1.331799394988861,1141.9536180472167,1115.4524415637543,1130.6067169857383,1149.070634302576,424.33463709713567,107.90538873111701,-477.62814419594287,219.31899126698687,162.45087403539523
2.7725,0.6186472925702209,-0.2058367255855235,0.0813822716692161,0.0909561110396661,0.0198025536230465,-0.0043344703717266,0.0084228130139015,7.026816211626982e-05,0.0040839298286285,0.9999560866929565,-0.0153154534844862,0.1096733184812313,9.865275111071002,-0.0041043539615784,0.068160121563321,-0.0013871014349835,-0.6305359265351654,1.7986638640795423,1.3317960095361827,1143.1427914288042,1115.2174741479216,1128.9090168558407,1149.5602873876564,423.7039516707318,-257.5847926478728,-753.4411556113059,145.55172030982558,162.44855819400567
2.775,0.2856169356873027,-0.4669784508714813,0.2591774298678436,0.0910318119691123,0.0194223516790288,-0.0064300390187064,0.0084992842535922,5.3563833983524576e-05,0.0040216021091281,0.9999556887655348,-0.014060045441695,0.1066597274839131,9.86713608130018,-0.0039879911707987,0.0680926015451493,-0.0012840168073893,-0.630551000063932,1.798841754358647,1.3317932012371447,1144.0721378055703,1114.1645176005147,1126.8395112076819,1149.7983929041252,339.7577888502,-549.6042821925247,-917.765804463644,68.10304531759502,162.4466999892508
2.7775,-0.0071688136813243,-0.6977942866029408,0.471541602668841,0.0905504570864712,0.0177739237040197,-0.0066938120013069,0.0085809318457316,3.909495788348996e-05,0.0039687157908337,0.9999552010848936,-0.0126812549767983,0.1039092228531447,9.868978661690896,-0.0038606475407851,0.0679954664699071,-0.0011664724023151,-0.6305653365348495,1.7990190789753804,1.331790847975715,1144.8415803730552,1112.469452736959,1124.3201878335228,1149.9008026142444,290.9203737778884,-823.5792787481284,-1132.2796366040764,17.274880057128684,162.444921616211
2.78,-0.3167971348826777,-0.8978798123101439,0.6985023914201061,0.0895727158326311,0.0142694238073058,-0.0045655694407953,0.0086681011842693,2.8259668595236705e-05,0.0039267610940267,0.9999546138217466,-0.0112305912722408,0.1015117662862702,9.870753303859662,-0.0037221646748767,0.0678708884417358,-0.0010336252025502,-0.6305785139944237,1.7991947287271195,1.3317887645139177,1145.5267396744598,1110.046621206774,1121.1781130246611,1149.8847673044108,210.00391219548365,-900.8660416278263,-1106.6679586869375,-30.13431492058568,162.44288537662547
2.7825,-0.5520671110036883,-0.978804960721096,0.8093427156081802,0.0885503012922577,0.010557560947435,-0.0009041580648387,0.0087600536929754,1.93494982366864e-05,0.0038968614829196,0.9999539286653392,-0.0097010580284315,0.099527271623088,9.872408078417738,-0.0035728570634559,0.0677220420515234,-0.0008848277423559,-0.6305902004404054,1.7993683476003,1.3317868775472732,1145.8915999340327,1107.9651225288196,1118.7868480400875,1149.7501310396415,106.60728651110048,-788.8704310291982,-839.3088740084473,-81.25729596690864,162.44127351489604
2.785,-0.7815544233187228,-0.9655658798397,0.7921386370149927,0.0874901906869617,0.0070780542508211,0.0037647585996086,0.0088559704242998,1.1225692770511716e-05,0.0038799068079292,0.9999531500583944,-0.0080985941845305,0.0980032502023123,9.873890653156883,-0.0034133447591607,0.067552879796677,-0.0007198129913603,-0.6306003672813278,1.7995403723338912,1.3317850506296671,1146.0597761070153,1106.102269051628,1116.9815686546187,1149.4784808245763,39.27692704232952,-674.2695553097435,-588.2439387338889,-131.90858194934944,162.4397534549962
2.7875,-1.0165683316595275,-0.8871678903529774,0.6622304906121296,0.0863414944096742,0.0042981358930132,0.0077652215054486,0.0089508014317256,4.570625453897836e-06,0.0038746045960145,0.9999523284779748,-0.0064664416184423,0.0968911883353197,9.875151568853742,-0.0032446559216445,0.0673678961845691,-0.0005381805236309,-0.6306096868544779,1.7997104143831426,1.3317833704865576,1146.0879845692443,1104.5937747522707,1115.8456283464184,1149.0905881298947,-17.10234931547384,-489.2022424000165,-275.6006692609903,-181.97305116137088,162.43831176486597
2.79,-1.2592528237329987,-0.758786799937241,0.4259145316265954,0.0843874513635826,0.0024138472078777,0.0096618443801682,0.0090373950983684,1.58461157583367e-06,0.00387802099105,0.9999515399172072,-0.0048782179294049,0.0960870044403614,9.876145615434153,-0.0030680362081935,0.0671719062344123,-0.0003397355615261,-0.6306184007928528,1.799878647607582,1.3317816702770775,1145.974264360438,1103.656257839628,1115.603565308314,1148.5686155687695,-77.57865002090675,-263.58051973839446,86.95763741934755,-257.8534106584412,162.4369667658878
2.7925,-1.5437083937740563,-0.5876502371609872,0.0832105756417332,0.0806364752773726,0.0012541002582388,0.0095488233447245,0.0091141054873741,1.947677066223437e-06,0.0038862567670925,0.9999508140954346,-0.0033569512993063,0.0955800193165505,9.87683122037276,-0.002884795817969,0.0669698316061558,-0.0001255556728419,-0.6306262510500265,1.8000456262557398,1.3317792887442317,1145.7000913191398,1103.275872153579,1116.280416533515,1147.8013210766023,-119.35987737261055,-18.482591653310404,378.87264662141104,-302.5374705966506,162.43546669007304
2.795,-1.7567096848162735,-0.4554489002300112,-0.2058506371515531,0.0766152410094725,0.0011346049377409,0.0083416512826201,0.0091818799546602,3.20753202755534e-06,0.0038953132677397,0.999950158407122,-0.0018824732891562,0.0953950447838023,9.877173273035838,-0.0026961397781365,0.0667665476916286,0.0001022705897433,-0.630633321042715,1.8002111869767055,1.3317761153873289,1145.377464973575,1103.5638448813615,1117.497928541421,1147.0559282157863,-139.67361495579397,220.4745907425196,572.2130262745972,-316.27832067025105,162.43431263306033
2.7975,-1.9220084793724617,-0.348490440642875,-0.4593944726731785,0.0720089458729358,0.0012534280506338,0.006672116884715,0.0092416869473462,2.7391816709708287e-06,0.0039047618185296,0.9999495666127032,-0.0004297292666777,0.0955414024924126,9.877145914592544,-0.0025026293839863,0.0665667613998186,0.0003407993646456,-0.630639959511306,1.8003749482369984,1.3317730975159487,1145.0017232443608,1104.3782451072916,1119.141481664888,1146.219929473251,-159.35669520298524,442.2194708125673,759.9821724339049,-379.8311344248048,162.43325893001955
2.8,-2.042175348085875,-0.2430003750616513,-0.6977819572996277,0.0656402617995358,0.0007357230633645,0.0042628849347475,0.0092936899054906,1.8461587027485608e-06,0.0039145656796758,0.999949038453904,0.0009500045855951,0.0959981178713291,9.876734938024866,-0.002304606418891,0.0663748127891422,0.0005862062863477,-0.630646698099411,1.8005365403385292,1.3317718894597184,1144.58068149756,1105.7749422354243,1121.2978394035908,1145.156772543662,-132.09378328114343,551.434158410356,781.6662642664068,-389.2993524952736,162.43211060027159
2.8025,-2.065817072199524,-0.1602220004887622,-0.8339224074474347,0.0598015580678769,-0.000207164356615,0.0021957926357905,0.0093402446090818,1.4142287571967465e-06,0.0039271261897531,0.999948544515586,0.0022155730795298,0.0967737449430214,9.875937531900925,-0.0021019705131762,0.0661944655610896,0.0008334844920614,-0.6306538042490178,1.8006962523297438,1.331773762567461,1144.341254327955,1107.1354158993436,1123.0498129862203,1144.2734327107748,-52.48817901733785,551.7173386660605,654.4174372481988,-337.11970594282127,162.4312500175973
2.805,-2.0091819932987818,-0.0678461566589759,-0.9033805000794896,0.0541245804744276,-0.001326618203445,0.000208842371387,0.0093874447708336,-5.458428371903468e-07,0.0039471333583483,0.9999480123630868,0.00338475908319,0.0979383903559447,9.874762108845042,-0.0018942922545596,0.0660286959991921,0.0010765281524729,-0.6306604966978232,1.8008552555678043,1.331779137979554,1144.3182406024732,1108.5335289287548,1124.5699265898315,1143.471174013948,54.6355497009711,592.4276815427346,584.6211200602863,-315.9430869086076,162.4304884169482
2.8075,-1.865855230969608,0.0575968122487379,-0.909202016030992,0.0480318680087996,-0.0023987492196479,-0.0022739403276544,0.0094404405907956,-6.4732606323114174e-06,0.0039778452032703,0.9999473844401944,0.0044858404535706,0.0995340306879966,9.873229962004617,-0.001681372605849,0.0658795549737244,0.0013091473316796,-0.6306660939783851,1.8010142799283293,1.3317884028141682,1144.61443207646,1110.0975543070572,1125.9729185865217,1142.6937172762318,163.88458863712353,535.5188599333019,428.1792047634645,-243.41541291687983,162.42968703092964
2.81,-1.705225063147369,0.1645120366343143,-0.8476317459544185,0.0435931459187535,-0.0025927028835018,-0.0045715696585432,0.0094964894727685,-1.6954302960766904e-05,0.0040148604439284,0.9999467039348792,0.0055111168379258,0.1014408108919418,9.87137696662951,-0.0014640453537823,0.0657481306678303,0.0015264419279374,-0.6306709699414831,1.8011731181122312,1.331801225093368,1145.1376635456588,1111.2111232284212,1126.710822613649,1142.2540969493637,256.18072934230986,386.6548722149301,192.83390884225312,-125.8371224640568,162.42911114573255
2.8125,-1.5326030450071193,0.2510874677945728,-0.7155776856838936,0.0399706914707256,-0.0016723953850673,-0.0070087162918522,0.0095496199382105,-2.910895963827913e-05,0.0040523339146967,0.9999460501972324,0.006386151574255,0.1034708905640484,9.869251335533747,-0.0012433242808052,0.0656346289892018,0.0017246512552718,-0.6306760310508904,1.801332077875114,1.3318168109474504,1145.8953357231715,1112.0308286681316,1126.9370881307327,1142.0645316639116,326.2991795217273,267.6868837681525,1.731715724827191,-35.390005414411306,162.42862795041657
2.815,-1.3729574782296898,0.3029095356631313,-0.5284349502385731,0.0371176608166045,-5.0006010267526814e-05,-0.0092972063749634,0.0095971111712264,-3.696021446830572e-05,0.0040858940457302,0.9999454665633029,0.0069781327752035,0.1054983648012283,9.866909806581798,-0.0010200715245894,0.065538461520301,0.001900711979657,-0.6306819956862288,1.8014911609891888,1.331834370854836,1146.7691594432674,1112.549557647262,1126.7194811922732,1142.0771469222916,351.8025619917428,127.13692743623412,-188.89578824874155,44.90119089059686,162.42821917363008
2.8175,-1.2501777142128354,0.3015746231167398,-0.2892345657024107,0.0349830362467662,0.0018702770930993,-0.0111402557407418,0.0096408582775378,-3.640083813285499e-05,0.004113908179748,0.9999449411657364,0.0071944903559791,0.107487861277612,9.864413899249252,-0.0007949612750135,0.0654583399082242,0.002052380251422,-0.6306882336174624,1.8016514660398004,1.3318522390175616,1147.65434853313,1112.6665133053127,1125.9926091894893,1142.2890376183643,355.1175388708164,-41.67615806072806,-413.7620674665501,120.99320273792075,162.42789669273844
2.82,-1.156755006179044,0.2453574711510748,0.0231799839622963,0.032834702975754,0.0037502361279762,-0.0120705840803155,0.0096803159840645,-2.381735312397899e-05,0.0041381668945563,0.9999444713934876,0.0069555517294071,0.1093573839262681,9.86182935559314,-0.0005685546215632,0.0653923943987439,0.0021792493686164,-0.630694091058266,1.8018129806834713,1.3318690002082156,1148.5447471376215,1112.3411768569583,1124.6506708549405,1142.6821129359812,272.92262450753674,-190.965832753396,-539.4284357495144,152.51323173241752,162.42760441751545
2.8225,-1.1176383805537768,0.1728768149331291,0.2697204928794479,0.030903755243659,0.0043189158034228,-0.0112547633079852,0.0097165246152912,5.401219962220995e-07,0.0041589208154683,0.9999440452878118,0.0062610506912251,0.1110601935802421,9.859221440817901,-0.000342001629795,0.0653383757203355,0.0022821121656643,-0.6306987126208198,1.8019750384563824,1.3318840751590588,1149.018961655668,1111.711684141546,1123.2954670107415,1143.0516037770267,113.72422014982618,-315.45979780687645,-540.7181099538865,142.25118518514995,162.42743563665726
2.825,-1.0958428175970805,0.1056502663177415,0.4605739824757341,0.0283699864195344,0.0037681325689198,-0.0090892894303959,0.009751335196225,3.0641535101551685e-05,0.0041747206762231,0.9999436499661782,0.0052278881602674,0.112570951833409,9.856652000421198,-0.0001169980658021,0.0652938168654265,0.0023627929998496,-0.6307009340512543,1.8021378129894972,1.3318968221148493,1149.1133682383706,1110.7638778679238,1121.9470803051709,1143.3933688619068,-52.33743716753563,-478.1848948143863,-524.3859439615446,136.6413772321295,162.42733902076588
2.8275,-1.0538777329040492,0.0594516858782947,0.5957311439361163,0.0250393102048492,0.0027472303768415,-0.0060701834926475,0.0097851691881663,6.161359661784464e-05,0.0041824867887959,0.9999432939491814,0.0039531297351032,0.1138433792178324,9.85417869683534,0.0001043754974088,0.0652561456197859,0.0024240769778353,-0.630700425028414,1.802301240539444,1.3319074444927992,1148.7572744698302,1109.320759667474,1120.6735372909338,1143.734810663187,-201.71779533362013,-572.3461574996812,-363.79091304184703,115.78522118698194,162.42729952295704
2.83,-0.9804072428785928,0.056883753522662,0.626303976732235,0.0223133474031128,0.0021228822562703,-0.0037251796784681,0.009816599357818,9.23098922377656e-05,0.0041791961047312,0.999943004010721,0.0024634661791942,0.1148029208244386,9.851853312598141,0.0003201426780059,0.0652227913743175,0.0024694045008569,-0.6306980778469583,1.8024649307297276,1.331916908926513,1148.1047792617023,1107.9021470804255,1120.1281257399617,1143.972294967842,-317.89738157654705,-603.1173902912216,-74.09271328870248,94.41842971482605,162.4273247755427
2.8325,-0.8411253547436794,0.0850098421155188,0.5849118974794736,0.0195406467274393,0.0019796711612513,-0.0019067531015223,0.0098424265677407,0.0001219611490935,0.0041652213501262,0.9999428100324912,0.0007814806676758,0.1153481396419424,9.849719363584889,0.0005291395788845,0.0651912594866396,0.0025025932670602,-0.6306948301062496,1.8026288301139888,1.3319261573675802,1147.1677875619475,1106.305172716018,1120.3030737244903,1144.2069028117614,-456.49874196961775,-728.9113919289475,249.10443541203296,116.32305293042256,162.42740335540344
2.835,-0.5776608694613508,0.1351693108822479,0.4806243590445375,0.0163135301339966,0.0022702165592904,-0.0004927467697892,0.0098629076320518,0.0001476180004795,0.0041415964236586,0.9999427050180054,-0.001024221960032,0.1154543071622089,9.847808680233172,0.00073080458223,0.0651592092503829,0.0025270181554178,-0.6306915159289446,1.8027932630013457,1.331935452507862,1145.8222855518543,1104.2575901207808,1121.3736479170216,1144.553910232494,-517.5055572562197,-756.192815722641,510.61434777285456,146.9196800608674,162.4275513370278
2.8375,-0.2743617792276902,0.1744039328819132,0.3709121618412775,0.014114283403298,0.0027035633662289,0.0001298441980515,0.009879080097439,0.0001658551411998,0.0041093032693659,0.9999426749816748,-0.0028733697940818,0.1151210079494205,9.846141596820642,0.000925074364206,0.0651245063620309,0.0025459202572421,-0.6306886453398352,1.8029578544281724,1.3319449874535016,1144.5802597756665,1102.5242086374049,1122.8561454633543,1144.9415012120655,-510.8944080900637,-672.6646068999032,655.0252222423436,182.38684168209537,162.42771440238576
2.84,0.1021561843603444,0.1921589292777758,0.2602224482780979,0.0129629735487202,0.0033384370617014,0.0003616339282023,0.0098942310420929,0.0001757495017088,0.0040706433874592,0.9999426780659028,-0.0047328383605548,0.1144009813380122,9.844726451992418,0.001112447261085,0.0650852951625068,0.0025622139620707,-0.6306860827828411,1.8031229740166503,1.3319537230142493,1143.2678135114043,1100.8942670862812,1124.6487740282334,1145.4658444409044,-529.6378539557379,-612.504477679026,710.314508980807,234.25327276712108,162.42791393447067
2.8425,0.5157263832610546,0.1795982158868299,0.1599512724961195,0.0130207379936342,0.0041312234696053,0.0004056579922267,0.0099102942561909,0.0001792582769838,0.0040275469489567,0.9999426871804584,-0.0066249443910959,0.1133291573560998,9.843560700099856,0.0012936309445168,0.0650400471188913,0.0025789042594626,-0.6306838320356011,1.8032880829721984,1.3319614733007887,1141.9320705058876,1099.4616862490095,1126.4077180082588,1146.1127675759014,-530.0810565933358,-499.73693425050715,626.1639289484751,285.9218361464434,162.42814100133808
2.845,0.9332842419761735,0.1194259075638463,0.0783734776388868,0.0148810652402491,0.0048185395348891,0.0003469420597772,0.0099270925277072,0.0001775882090123,0.0039815162034324,0.9999426985996096,-0.0085562788737807,0.1119070510569183,9.842630986493274,0.0014694353190237,0.0649875923108501,0.0025990558483479,-0.6306817389681876,1.803452066727249,1.3319688736437367,1140.6174082284372,1098.3955824150287,1127.779593672976,1146.8954536216368,-557.4251463696447,-358.0423828842944,445.54327408192006,367.78283998083555,162.4283990540694
2.8475,1.3821042247373532,-0.0154009184750556,0.0023499971695968,0.019011579626023,0.0055267059216925,0.0002562736639536,0.0099456115885111,0.0001710959265592,0.0039340752515592,0.9999426976159752,-0.0105155828465129,0.110166674184167,9.841912890662448,0.0016407212820634,0.0649270684664865,0.0026252614073287,-0.6306798459129533,1.803614789663784,1.3319762401178938,1139.1449447740395,1097.671474334588,1128.6354343786684,1147.9516817758056,-508.53667816269257,-160.9040361797759,155.9658795208667,399.60301199285766,162.4287430174162
2.85,1.6765627251730344,-0.1800134703311607,-0.0461303726315911,0.0234628310780333,0.0062456665725805,0.0001970610784989,0.0099654239307144,0.0001617768212991,0.0038860888792121,0.9999426854031032,-0.0125230120660775,0.1081195978969042,9.841373167191993,0.0018081858486417,0.064857755432446,0.002659939168677,-0.6306787448954371,1.8037760028082177,1.3319835904088646,1138.074724837624,1097.5910622341298,1128.5594230705804,1148.893468681601,-379.2587845151583,81.67907646298036,-192.32914851273063,381.3126422901032,162.42905809142823
2.8525,1.8581839743603004,-0.387400017102814,-0.0846377916410729,0.0283022736467847,0.006770309166491,0.0001586860599882,0.0099882257939669,0.0001472145819827,0.0038379407547186,0.999942643034001,-0.0145105730884048,0.1058255716056629,9.840969347037358,0.0019722782207471,0.0647789117425886,0.0027048313626541,-0.6306783946779193,1.80393634878197,1.3319902455008992,1137.2486508514637,1098.0798697169027,1127.6737886361047,1149.858244987256,-293.59412797708217,341.749776203922,-536.2779300842363,418.5049768609677,162.42940354510893
2.855,1.92560557739438,-0.6499346931777054,-0.124440079523668,0.0342240499286752,0.0060797816629082,0.0001067058241293,0.0100149763189518,0.0001281141989227,0.0037915031910894,0.9999425521405356,-0.0164701699620799,0.1033360653906633,9.840653286580748,0.0021332336344366,0.0646896072343192,0.0027613209715429,-0.6306780197235347,1.8040966198699848,1.3319954867267672,1136.6067541977386,1099.2998111151492,1125.8780334201592,1150.9859935659058,-174.0188877673555,541.882525399308,-732.5455500701693,395.3357649489219,162.42985433688577
2.8575,1.848651304459068,-0.8407306363622343,-0.1536519908624321,0.0391563565167094,0.0039918467175674,1.890400377495456e-05,0.0100447051961956,0.0001069141073171,0.0037476164254818,0.9999424174180536,-0.0184262915094163,0.1006705025926351,9.840373190240093,0.0022906347492241,0.0645886728925667,0.0028304244501934,-0.6306772638676734,1.804256907558062,1.3320002840242304,1136.3785564126267,1100.7892823438995,1124.011060885754,1151.8349238120006,-33.09494795303251,671.3749412800696,-756.0788149039287,296.05252435199594,162.43026009160428
2.86,1.6310250665270527,-0.9527865042081656,-0.1766063395066374,0.0438793281402269,0.000709064503741,-0.0001760458098233,0.0100798799580636,8.415099862050566e-05,0.0037103496661349,0.9999421969464798,-0.0203633711792976,0.0979205647042589,9.840073696695068,0.0024439506039614,0.0644747345953178,0.0029119347807986,-0.630675504758225,1.8044176758793264,1.3320053423105365,1136.4412794579735,1102.6566858215497,1122.0976393456397,1152.4662561876655,79.80407057856979,870.0259275688816,-776.7146214010539,191.22338149576157,162.43069556534272
2.8625,1.2148594881990575,-0.953932883498757,-0.1897207444128024,0.0488977010951981,-0.0039146039650889,-0.0006036344950353,0.0101251357729076,6.121116423186328e-05,0.0036855449996136,0.9999418209963288,-0.0222800468955069,0.0952249444806347,9.839698767741554,0.0025923793466895,0.0643462953675604,0.0030045440342683,-0.6306717186932355,1.8045795689647317,1.3320107526040394,1136.7775767655198,1105.139411981744,1120.1274877787484,1152.7910407194795,154.31696930439878,914.1715601289272,-624.0304914635121,23.83401834290292,162.4312489740639
2.865,0.7538591432353665,-0.8318477897561464,-0.1813342493300835,0.0524056716595458,-0.007813345729598,-0.0011473070971738,0.0101820211145056,3.9426749312681054e-05,0.0036771621934934,0.999941258840848,-0.0241720361754503,0.0926654497797402,9.83919512924438,0.0027345520756883,0.064201882494558,0.0031065361210506,-0.6306656268586587,1.804742279998676,1.3320176309271832,1137.2128643044955,1107.2275436221946,1118.977486888322,1152.5854262793803,195.1437997075614,790.0380138467593,-327.87899838209125,-191.40637168825788,162.43173211832882
2.8675,0.207832541879389,-0.5955414845515946,-0.1443327052210454,0.0551089170061705,-0.0109646033888792,-0.0018348561594553,0.0102496690332503,1.818815932167889e-05,0.0036878377229799,0.9999405106026724,-0.0259950664673381,0.0902789893879626,9.838513756693565,0.002868891444967,0.064040238603161,0.0032157955351242,-0.6306568590254727,1.8049054453443047,1.3320266156087577,1137.7532957640576,1109.0896020509779,1118.488092786838,1151.8340088610382,230.3239466118661,671.4834965626467,-83.51545389114285,-380.067477710244,162.43223223579082
2.87,-0.3670485113134995,-0.2949528484030104,-0.0795396832507826,0.0563624019042051,-0.0129976179384842,-0.0024936151618608,0.0103255894901334,-2.316065061810936e-06,0.0037185910251689,0.9999396000661492,-0.0277192451781262,0.0880722060299393,9.837611589047738,0.0029938880434889,0.0638604865245938,0.0033299335455643,-0.6306452180067299,1.8050687292332197,1.3320376003833336,1138.3644840375548,1110.5849611050076,1118.559909618866,1150.685088890829,263.1364002247721,476.054836815648,145.2508864356818,-522.2476397536068,162.43274103875046
2.8725,-0.9043244254693984,0.0283509110597392,0.0185301489038006,0.0543410577046651,-0.0130873066726298,-0.0029456736742709,0.0104050861234345,-1.922656907788292e-05,0.0037631722468186,0.9999385988999526,-0.0293670117742234,0.0860093271294992,9.836453173874752,0.0031077240962376,0.0636622658598849,0.0034466306591224,-0.6306322367089848,1.805231294113328,1.332050181763072,1139.0689777651814,1111.469876235056,1119.2143472190164,1149.2227706622702,335.9025960144735,225.93004808027695,379.4112161324473,-663.4457901465935,162.43325256044372
2.875,-1.4054738388335215,0.3662377511003395,0.1668023995922003,0.0479350254240341,-0.0108569159022073,-0.0033040533380642,0.0104859400662935,-3.128333739321632e-05,0.0038128705010876,0.9999375624567798,-0.0309294109303623,0.0841020810384039,9.83501007190556,0.0032091903552561,0.0634457639056322,0.0035632431257554,-0.6306194885368828,1.8053925972678315,1.3320639367348013,1140.0439970176271,1111.7146113454091,1120.4569656995284,1147.367859940096,379.48425350606055,-45.2956840869329,494.90590149604174,-663.3884009762055,162.43385853226005
2.8775,-1.6519138676797258,0.5616217871562659,0.3037164628688245,0.0410789945409229,-0.0077571098209787,-0.00332199957609,0.0105644944332514,-3.391328728195498e-05,0.0038620523593863,0.9999365503747992,-0.0324639480152696,0.0823311129462833,9.833263017103171,0.0032984023415273,0.0632115892947801,0.0036775054449306,-0.6306080696958255,1.8055524682348876,1.3320788918754258,1140.9663990327117,1111.2433978146214,1121.6888767264963,1145.9058286573893,384.12436131517006,-308.7431332867775,492.81706689513294,-542.6411796622804,162.434349117563
2.88,-1.7079708571835335,0.6430737300893012,0.4310639098283736,0.0350805057157731,-0.0046740202144223,-0.0025585661227147,0.0106380863032644,-2.2910340822294146e-05,0.0039100576087525,0.9999355930051996,-0.0340232241268296,0.0806920597527512,9.831201311442426,0.003376923290262,0.0629606625292025,0.0037873403348584,-0.630598012378986,1.8057113321611464,1.332094746292793,1141.9646188242027,1110.1708956789753,1122.921051034004,1144.6546540417849,436.1266550838629,-571.092250295363,506.2849993352864,-493.12673558803135,162.43481611003904
2.8825,-1.594847004367573,0.618942926747237,0.5385865152021021,0.0297703119359133,-0.0018602751737499,-0.0005055635986005,0.0107069895932654,-5.280979812579023e-07,0.0039532383905873,0.9999346999784228,-0.0355364792927361,0.0792325834559682,9.82882197712548,0.0034465837362333,0.0626942039272814,0.0038906784383548,-0.6305892212841325,1.8058702655157803,1.3321102388665231,1143.1470323081307,1108.3879365631446,1124.2203017231727,1143.4401949794492,410.2728478529294,-701.4497981138884,428.6883026352991,-400.11056782897896,162.43534010323614
2.885,-1.3962442503278343,0.5216905740708933,0.5685165925449853,0.0267035209752297,-0.0003766826936629,0.0017973205151293,0.0107705070197778,2.8708720118465076e-05,0.003987344400701,0.9999338948755064,-0.0368931450720011,0.0779742911317208,9.826131007109556,0.0035095172221808,0.0624137133214546,0.0039859728262644,-0.6305820593355947,1.80602928598082,1.332124961646402,1144.0159830634675,1106.6636466884056,1125.0644925471806,1142.6541012026398,296.59633857725385,-697.0596171444397,274.98761967270144,-274.46213401492935,162.43574038372907
2.8875,-1.1432719907977766,0.3811218136863999,0.5232492625151548,0.0246588024378099,0.0003531507018646,0.0040888021070772,0.0108293367335591,5.861249312700624e-05,0.0040083595942574,0.9999331871422416,-0.0379553252661959,0.0769580543610781,9.82314254632733,0.0035680181640221,0.0621210870465809,0.0040717840203303,-0.6305759267124891,1.8061885257357109,1.3321384496152162,1144.6300140010171,1104.9026384774222,1125.5952398215363,1142.0678843093744,185.3845974515519,-683.0712991299297,154.77499275866978,-206.636304524004,162.43609640162634
2.89,-0.8763630209587233,0.2309511213251065,0.4180608038556046,0.023258181292926,0.0006236282201277,0.0058495844194679,0.0108830757136461,8.552970306764357e-05,0.0040134592352867,0.9999325940089008,-0.0386408581886077,0.0761941736706927,9.819879366198174,0.0036244063223856,0.0618187195649913,0.004146929902138,-0.6305698860072368,1.8063476639497007,1.3321507731002524,1144.9429060507255,1103.248290192756,1125.838367510974,1141.6209196800198,38.49655520825845,-612.198708811697,25.137749709893423,-151.8097777122453,162.436411393158
2.8925,-0.6149736267152343,0.0948353323766819,0.2556517338540073,0.0224613904331564,0.0005058800172819,0.0067094925366633,0.0109331624362204,0.0001096605812078,0.0040067198376076,0.9999320832433374,-0.0389489113274425,0.0757190626808606,9.816371698936383,0.0036815931367196,0.0615095964649249,0.0042099192286918,-0.6305638495859562,1.8065061029643767,1.332162345191944,1144.8224967770586,1101.8416449333636,1125.720928570086,1141.3088354208132,-156.06009430976303,-544.7713442753072,-132.7568512859699,-117.10136662746004,162.4366723310343
2.895,-0.3171238533585346,-0.0287266027417304,0.0200845977188458,0.0217574643167256,4.1766499853216096e-05,0.0070754515070164,0.0109803821876999,0.0001304021989099,0.0039941608885929,0.9999316224594156,-0.0388685933838649,0.0755456500950867,9.81265686112332,0.0037424509740294,0.0611973446004582,0.0042590661362654,-0.6305580339364891,1.8066623175611785,1.3321743077478605,1144.1626055791767,1100.5244334713796,1125.174583254544,1141.0354128468823,-317.39068219263334,-417.8254203469895,-260.3083384130569,-93.65653728846354,162.43691786846085
2.8975,-0.0784764281356074,-0.0881100056652954,-0.1912682842281372,0.0211277895840557,-0.0005731113686541,0.0069493370301909,0.0110225471140012,0.0001489549357712,0.0039815559229894,0.9999312127379036,-0.0384298777175458,0.0756180227510965,9.808779236461186,0.0038094615216171,0.0608861051683729,0.0042927492073026,-0.63055311647912,1.8068145992201448,1.3321878834348415,1143.2355433660955,1099.752517831629,1124.4193868780208,1140.8405527343707,-423.586688668056,-244.4575322865655,-345.90679521303,-83.81757896581982,162.43706303140016
2.9,0.157831231723686,-0.0976974657057922,-0.3956711164138858,0.0206106895293226,-0.001381541689687,0.006183912857195,0.0110579079951457,0.000163635102018,0.0039709030887417,0.9999308656932896,-0.0376107447288296,0.0758785864267419,9.80478820619392,0.0038842230173559,0.0605802506878701,0.0043090982270779,-0.6305490435003998,1.806962708055114,1.3322040120548275,1142.0446721358364,1099.3021458099468,1123.445049278479,1140.6163249520534,-546.970123908989,-131.95146270059294,-445.46812508216175,-114.9013179741384,162.437143451642
2.9025,0.4393894386623408,-0.0576432222388158,-0.6068843932487635,0.0205328805130029,-0.0024202324185276,0.0042504498889671,0.0110865093567913,0.0001708569414846,0.0039629538821583,0.9999305791456502,-0.036355631137144,0.0762953046550203,9.800736715567663,0.0039676081010427,0.0602839031949419,0.0043061398657098,-0.6305450472885983,1.807107033269804,1.3322222545668907,1140.5006927465506,1099.092760518126,1122.19204625261,1140.2660461445003,-559.3824102989479,-27.85327617575416,-442.64256516232047,-141.41977659968643,162.4371624695195
2.905,0.6628249935611727,0.0054570281348424,-0.7388018435814937,0.0211779367745982,-0.0030655343235915,0.0020972297084099,0.011111444988807,0.0001666575545825,0.0039546481235315,0.9999303325600346,-0.034604559842339,0.076887897346109,9.796679613083263,0.0040593493847564,0.0600004947881793,0.0042820115681216,-0.6305401559765847,1.8072489828910367,1.3322419751809609,1139.2477600843415,1099.162879429068,1121.2318364526673,1139.9092260690547,-473.05215249354194,71.94851867020103,-329.60288668553,-145.81528138541142,162.4371124043601
2.9075,0.8513270171224591,0.0732697485493606,-0.8143570858042639,0.0228762255055371,-0.0029631027712815,3.765801705500952e-05,0.0111350970331993,0.0001478698077781,0.0039432860506105,0.9999301124247678,-0.032315619078804,0.0776556456218898,9.792672926680531,0.004158566810814,0.0597323601221158,0.0042357115197374,-0.63053320418633,1.807390193221774,1.33226214051776,1138.1354319840827,1099.4525031114767,1120.5440318191822,1139.5369697375731,-448.371495078673,169.7034020288847,-208.49958168960697,-148.874505708412,162.43699301337503
2.91,1.001973564203372,0.1239048084418804,-0.8353852680817246,0.0262032136105989,-0.0019726586504176,-0.0021743918486077,0.0111584812213656,0.0001166206018788,0.0039304174909903,0.9999299022248164,-0.0295523729035825,0.0785667418021858,9.788772592678658,0.0042643663611561,0.0594805598752013,0.0041673739320114,-0.6305239680942228,1.8075315453504084,1.3322819909570622,1137.005902608948,1100.0113964392124,1120.1893385442193,1139.1648535405127,-382.03436116706047,232.4420957830675,-44.74883748757843,-112.6822309065143,162.43676941465486
2.9125,1.0418950816868195,0.1183293671739829,-0.7919045116593727,0.0296615731999043,-0.0008491058170315,-0.0041226027568677,0.0111798420081478,7.992516373314199e-05,0.0039193610026705,0.9999297079286408,-0.0264754745953117,0.0795332752521598,9.785033037691548,0.0043758255853663,0.059244928071657,0.0040784716716293,-0.6305126062446906,1.8076735330499387,1.3323011792893622,1136.2252601782475,1100.6147135903923,1120.3202876317443,1138.9735585830404,-284.5351595135132,259.0626538483376,125.12869811598917,-47.42046586470779,162.4365165860413
2.915,0.979194259751512,0.048727391877296,-0.6803291993526607,0.0333340827227471,0.0002221231455534,-0.0063833638945635,0.0112007725223763,4.341245342326697e-05,0.0039148263139044,0.9999294928916916,-0.023219149966386,0.0805328874622475,9.781503447839256,0.0044923114234568,0.0590242739422423,0.003970988091485,-0.6304991138692267,1.8078166782279284,1.3323189443048715,1135.5832268113807,1101.306709708454,1120.8149820347992,1138.9277512111892,-235.77643609274267,283.4476909140054,230.10507442209513,1.0620474020470507,162.4361959526547
2.9175,0.8352253538051274,-0.0740866992935201,-0.5115128390358208,0.0368037118880033,0.0010751532412699,-0.0086846191903002,0.0112264191611294,8.979880096344886e-06,0.0039183575084005,0.9999291932072746,-0.0198456573424966,0.0816151265674984,9.778225807635364,0.0046132543526041,0.0588166460185122,0.0038472426098672,-0.6304836958509995,1.8079614898771488,1.3323346723421712,1135.0463779977836,1102.0319520449623,1121.4708130038548,1138.9788688200508,-186.44388424245727,289.4670995265704,256.7809887072199,31.63728281811085,162.43582051310332
2.92,0.6170942347214547,-0.2479496054131531,-0.2829932933687212,0.0392917822621903,0.0014314198705916,-0.0104360401679112,0.0112601488770392,-2.7133438026835976e-05,0.0039277589764869,0.999928778811908,-0.0163085783317501,0.082799043946409,9.77523455595779,0.0047383594466525,0.058619582253798,0.0037102783274185,-0.630467522632188,1.8081075188117328,1.3323484802663663,1134.6510073901684,1102.7540452060869,1122.0988869783353,1139.08593762528,-132.68825979921814,306.2712150327636,216.72113377681407,43.88243435942152,162.43538132768077
2.9225,0.3196243972518396,-0.4830968168443222,0.0320054225980859,0.0403349744532931,0.0008501993553986,-0.0111014171179661,0.0113037679101237,-6.542995041870748e-05,0.0039391565363166,0.9999282439053528,-0.0126277131855176,0.0840797219439564,9.772556552722094,0.004867922404068,0.0584303877479702,0.0035636467017391,-0.6304517733379372,1.8082545406497907,1.332360209608171,1134.3829366987875,1103.563308120126,1122.5544186727388,1139.198280991848,-56.779973048420096,278.88812679646367,91.94671710842447,31.190778319021486,162.4347844328702
2.925,0.0820658154887823,-0.6693842265485466,0.3003744262964326,0.0395269740474127,-0.0006787738984705,-0.0102376143503975,0.01135674189601,-9.996066602813249e-05,0.0039486540427302,0.9999276087729186,-0.0089518834833466,0.0854144296095788,9.77021137794707,0.0050029839536326,0.0582463609174127,0.003411262444828,-0.6304374748848453,1.8084021322466952,1.332369759297112,1134.3671075249263,1104.1484858400693,1122.5586205638774,1139.241891516875,43.66216413568213,205.50383048738215,-83.85164679038442,7.160653872551364,162.43423215830532
2.9275,-0.110128232107427,-0.8060576269424288,0.5434678219165098,0.0378679972552659,-0.0030890250310649,-0.0082630427413786,0.0114164917503874,-0.0001281287461724,0.0039545572978725,0.999926907443123,-0.0053675027687942,0.0867282492742819,9.768210176694028,0.0051454935524596,0.0580649565771706,0.003257008435056,-0.6304246612839772,1.8085493725820163,1.3323778002312072,1134.601247519466,1104.590827272563,1122.135160438787,1139.2340842612107,165.40391936505682,151.3523718474549,-267.72061779802806,-4.019049819726291,162.43362763576977
2.93,-0.278657149354278,-0.875294096891873,0.7845677800884316,0.0362357792709062,-0.0064624708065593,-0.0057011673598785,0.0114797745422688,-0.0001480350768898,0.003956443969,0.9999261774417244,-0.0019505169126859,0.0879418315993872,9.76655602660418,0.0052979049659245,0.0578838906724605,0.0031043751534422,-0.6304132806883888,1.808695868723264,1.332385135811618,1135.1941271217515,1104.9052476993063,1121.2200174748873,1139.2217962677764,270.2521774333548,73.35584191860262,-379.40366786939086,8.207201547793549,162.4328481205128
2.9325,-0.3778129117427491,-0.8367917690370157,0.938151368589868,0.035493514030943,-0.0092907694749665,-0.0038070757604757,0.0115440708018865,-0.0001577355422551,0.0039542616906582,0.99992544783285,0.0012194091932032,0.0889988001293103,9.765244471973213,0.0054627775991398,0.057701153355893,0.0029561881497187,-0.6304034789978025,1.8088416308820123,1.3323920800828166,1135.952508406633,1104.957606482156,1120.23814209944,1139.2751202689496,355.6553588232494,-27.66017699691533,-405.12399985915135,50.79244035214396,162.4321586317315
2.935,-0.4537083577673626,-0.6910953634521068,1.039811833480617,0.0351610428640781,-0.0119649369935017,-0.001900813431547,0.011606511123862,-0.0001576839237164,0.0039491236000174,0.9999247476886673,0.0041071934659949,0.0898443300069672,9.764264509923391,0.0056425950323249,0.0575149539251166,0.0028146755685202,-0.6303946685571651,1.8089867941340316,1.3323990340549183,1136.9724039158675,1104.766946814322,1119.1943974755916,1139.4757584695371,499.0663803246768,-143.73020177054363,-438.5178265748984,133.66576816829647,162.43143447987563
2.9375,-0.5333022822420265,-0.4011437325146208,1.0922264844660663,0.0347128658575502,-0.014602295476742,0.0008906612982004,0.0116614983812425,-0.0001496766362782,0.0039414932016333,0.9999241406276084,0.0067025023545904,0.0903787155804088,9.7636006254567,0.0058392822046845,0.0573236970017559,0.0026817705356769,-0.6303866551289388,1.8091314904641091,1.3324059403084725,1138.4478403082562,1104.2389554733031,1118.0455529665655,1139.9434491097911,568.9617563865462,-244.023579035598,-385.0116121361306,207.96353695318876,162.43053343088053
2.94,-0.5907936051254591,-0.0821965905365638,1.0660527424048167,0.0336574040329326,-0.0161281580210782,0.0037528711325543,0.0117040190662921,-0.0001360856771045,0.003929760860935,0.9999236921040084,0.0090063798670317,0.0905218259992017,9.763233440033495,0.0060538195402978,0.057126004758434,0.0025587783503477,-0.6303793717960823,1.8092753651990148,1.332412735154188,1139.8172126978004,1103.546828919144,1117.2693394149107,1140.515576154303,552.6847354715418,-325.0940183099443,-260.4488498690499,252.2209399710445,162.42976156762916
2.9425,-0.630708121699393,0.2800113147414932,0.9536559593789709,0.0317469175835404,-0.0164805804804096,0.0071040567839503,0.0117313833333485,-0.0001190222287119,0.0039148523660774,0.999923430735003,0.0110169183550894,0.0902457079190044,9.763140847753839,0.0062865750295653,0.0569206443235643,0.0024462270941233,-0.6303721231853754,1.8094184909613424,1.3324193947599283,1141.2112639856139,1102.6134853817537,1116.7433087172203,1141.2045538096463,540.4356316314648,-404.3409826793864,-166.46082416146228,276.78423590301145,162.42897460821112
2.945,-0.6503039090713221,0.6406610841677267,0.7666721149713374,0.0296727212219318,-0.0154423129789794,0.0104495883314081,0.0117432761379483,-0.0001023547899011,0.0038976339094001,0.9999233575913616,0.0127704456499386,0.0895749738611031,9.763299095592137,0.0065368771487193,0.0567065123892505,0.0023438672307766,-0.630364511685304,1.8095609435860864,1.3324256980045968,1142.5193908559577,1101.525124005747,1116.4370352941037,1141.899497333818,477.14448402668,-452.46290605879614,-70.9793816792578,254.5535198633216,162.42818001625335
2.9475,-0.6457263330878552,0.949542878906405,0.5025765737525355,0.0278888816118715,-0.012616548978794,0.0128115376724209,0.0117387146808019,-8.792929266986147e-05,0.0038788754288523,0.9999234827341636,0.0142693861744538,0.0885267379717992,9.763685600846,0.0068029190939113,0.0564825870290647,0.0022510763247771,-0.6303559619177425,1.8097027336308265,1.332432021267864,1143.5969864057474,1100.3511708514595,1116.388411808824,1142.477321408963,393.6734491173145,-501.33042383419047,36.74518260749871,201.0850903559322,162.4273820012599
2.95,-0.6199267094759097,1.2057676552719683,0.1333522781144784,0.0263710220052652,-0.0075511550384832,0.013765266778862,0.0117198836376282,-7.726135813457857e-05,0.0038604741903003,0.9999237748632996,0.0155174289630491,0.0871840826289706,9.764278888466434,0.0070819186786458,0.0562479094238618,0.0021664261345424,-0.6303454836589782,1.8098442583271024,1.3324384350304763,1144.4877581015444,1099.018471886576,1116.6207612071412,1142.9049227855978,246.22157514968947,-450.4553102966934,135.5015783057326,104.00029918992225,162.4264277326251
2.9525,-0.587009689149691,1.3019616561458107,-0.1848275187494787,0.025593553440805,-0.0025874910009898,0.0131782008712219,0.0116951723899714,-7.480458553163671e-05,0.0038424580199081,0.9999241355136036,0.0165850147346724,0.0857544677616302,9.765058241204722,0.0073699181451582,0.0560016494701357,0.0020873478808818,-0.630332434143352,1.8099856638606275,1.3324451811074547,1144.8280942814959,1098.098894299976,1117.0659197003527,1142.9973229049126,46.45055014616545,-307.03377779705727,234.99161690697792,-10.807564227070772,162.42564051428553
2.955,-0.5411394326970673,1.2804086898082527,-0.4790414798201454,0.024854524462704,0.001793965285583,0.0117015727855605,0.0116737233738448,-8.238089716114592e-05,0.00382599622588,0.9999244527665502,0.0175013582183223,0.0844618659736973,9.766006878471655,0.0076623314420277,0.0557431040532872,0.0020108973354487,-0.630316002070961,1.8101276887305555,1.3324522025937329,1144.7200108522752,1097.4833029975907,1117.795719291676,1142.8508849644625,-144.6457049521117,-193.91903409532873,389.2307141410666,-91.99988628129373,162.42486750872754
2.9575,-0.4566462767011083,1.1571599010581273,-0.7766696604319729,0.0234208592965316,0.0050743291987524,0.0093638273892508,0.0116595360151778,-9.663241056273328e-05,0.0038116268012457,0.9999246763139396,0.0182047325306599,0.0834306392868398,9.767114283050777,0.0079540839945567,0.0554718306617542,0.0019345438821222,-0.6302956745433042,1.8102703089534489,1.3324600887922087,1144.1048657567353,1097.1292991294995,1119.012073271058,1142.537323473506,-292.28399381164024,-71.74147772061741,497.43177851829535,-110.92132732615264,162.42396198201965
2.96,-0.3468693228304567,1.009261127262078,-0.9660443940367204,0.0216893469563218,0.0062816072159978,0.0070829306511388,0.0116550932501449,-0.0001143354509753,0.0037992640286294,0.99992477633816,0.0186464696384081,0.0827543443417584,9.768374209517843,0.0082400830842877,0.0551878350170018,0.0018558300860739,-0.6302719324782082,1.8104123379058743,1.3324705812972952,1143.258590883217,1097.1245956089876,1120.2828781842675,1142.2962783278315,-381.3697053286059,43.40820860688929,543.8420307400636,-61.16033345993076,162.42322876403486
2.9625,-0.1848910795503897,0.843917024985112,-1.0853102637281082,0.0199420933140276,0.0071534352074005,0.0042522733601329,0.0116626676642524,-0.0001321927057137,0.0037910848493304,0.9999247177139868,0.0187863540167524,0.0825190474701683,9.769783904089314,0.0085159779706707,0.0548916308482195,0.0017725282512193,-0.6302453253320448,1.810553220594528,1.3324841108650327,1142.1980172300923,1097.346340172534,1121.7312834247582,1142.2315218062065,-478.3614105201752,130.54877559134462,644.953850120569,37.25505738266372,162.4225199344586
2.965,0.0632746966872978,0.6311562300593038,-1.1429508788649851,0.0187290706304711,0.0088150258679668,0.0005053635663354,0.0116843983823694,-0.0001463367032461,0.003789616006263,0.99992446605068,0.0185815606654425,0.0828035223521338,9.771343295923,0.0087783195212782,0.0545842675957244,0.0016830707804052,-0.6302163724499505,1.810693233665664,1.3324990825917624,1140.8667838306162,1097.7773394869444,1123.5076474348703,1142.482553614745,-470.11548425981806,174.4441546550998,629.0775278150734,153.83426321576607,162.4216983398357
2.9675,0.2961196244969656,0.4341659665704495,-1.1223413726174183,0.0188759988529611,0.0107563512140875,-0.0024229332430507,0.0117174700079326,-0.0001513504156483,0.0037939089488479,0.9999240568244088,0.0179652374245619,0.0835841463025981,9.773055180199066,0.0090244310187018,0.0542673575743493,0.0015874394234253,-0.6301862049002963,1.8108326649149304,1.3325131291244992,1139.847439808793,1098.2185609458095,1124.8766710638336,1143.0006931222852,-362.4060243539344,186.6394068293504,491.3125243094906,265.05134964866585,162.42103728861608
2.97,0.5242961533278654,0.2098239162914847,-1.0392234561896228,0.0202320402672804,0.0127330665680832,-0.0050002605094028,0.0117596280141298,-0.0001410850667808,0.0038029216111189,0.9999235197333408,0.0168607246450672,0.0848404159639369,9.77492231825732,0.0092529603838411,0.0539430502686077,0.0014866154862113,-0.6301556554220173,1.8109718855830856,1.3325244432385943,1139.0547537088464,1098.7105365210912,1125.9642100564179,1143.8078103629884,-268.9010281420054,203.95941137690423,367.8291775363128,356.2926033938842,162.42039872784954
2.9725,0.7250891797395099,-0.0310253967791549,-0.91230048852342,0.0223240135844075,0.0139387447597909,-0.0073617158590914,0.0118100771660887,-0.0001105769168406,0.0038158734504188,0.9999228670403074,0.0152166653322966,0.0865709502227578,9.7769454267663,0.0094639594912192,0.0536140687340193,0.0013822282394645,-0.6301255896605159,1.8111101246455243,1.3325328176651203,1138.502934668083,1099.238358002694,1126.7158169515153,1144.7821561392548,-164.67297956769823,218.37157438927088,203.5896775877561,404.43680125477795,162.4197763048313
2.975,0.871788501339189,-0.267969679329871,-0.7424865481498021,0.0249736659330894,0.0135818788510388,-0.0094678595909308,0.0118679761771381,-6.1064230714759e-05,0.0038317703574649,0.9999221111427382,0.01310259578149,0.0887626766049073,9.77912134864844,0.0096587580124132,0.0532837159449262,0.0012762583255932,-0.6300964532573732,1.8112462293958729,1.3325395918384355,1138.231388811008,1099.8023943930375,1126.9821584443566,1145.8299943692623,-74.2697241992589,248.02832229902907,-1.221834162288386,440.29212024675894,162.41916927283137
2.9775,0.9714433105713256,-0.5085516987008453,-0.5036470568200709,0.0285151459702311,0.0114682401749619,-0.0115544086229253,0.0119333215418931,2.118147238504313e-06,0.0038481551253038,0.999921260359484,0.0106656584771314,0.0914077344035401,9.781442190223888,0.0098396215649435,0.0529557792946214,0.0011706874287653,-0.6300692129146032,1.8113793551521675,1.3325465565250127,1138.1315860470868,1100.478499614189,1126.7097077807039,1146.9836167404883,-19.755545411181146,234.77826410690383,-191.86074074146245,378.3735651351516,162.41845284372843
2.98,0.9911063619960824,-0.6496486636765562,-0.2887925175279078,0.0315133049209963,0.0088718109789887,-0.0126276785302774,0.0120044593012281,7.069470874446366e-05,0.0038616573705896,0.9999203468232706,0.0081059797571379,0.0944544375070822,9.783895437617312,0.0100095035255946,0.0526342623002211,0.0010677000583834,-0.6300445145684649,1.8115097539299423,1.3325536758318912,1138.132611083952,1100.976285713572,1126.022854740649,1147.721862194938,-4.843498726768406,164.78955190673685,-351.33413929321085,220.757106561273,162.41786152413624
2.9825,0.9568840817758236,-0.7190345131019233,-0.0763899857354041,0.0339178781304973,0.0062783868095768,-0.0127253474427637,0.0120790952847061,0.0001378879604926,0.0038722381488641,0.9999193979051464,0.0055886571855047,0.0978267891465552,9.786463957870808,0.0101720731163624,0.0523230094464756,0.0009696996977198,-0.6300218515804465,1.8116381798282049,1.3325600310147474,1138.1073685534527,1101.3024473737228,1124.9530370842378,1148.0874022732949,-30.898133771916694,82.61051122717794,-531.1524873368057,53.20087845093553,162.41727093008305
2.985,0.874832072331094,-0.7305568570246075,0.1560689945270593,0.0357385894125849,0.0036870885053275,-0.0120071073368609,0.0121526381862165,0.000202593851896,0.003879928523169,0.9999184678257,0.0031608782495709,0.1013935771835895,9.789126814503021,0.0103309409967726,0.0520255239731774,0.0008795611185946,-0.6300008689855018,1.811764682391064,1.332565185426854,1137.9781204150925,1101.3893382697079,1123.3670923039651,1147.9878665871927,-63.057693146443235,-25.387725150401927,-612.2235929975927,-129.86544566196278,162.41655695389716
2.9875,0.7834708611659267,-0.698100359293147,0.32265234180315,0.0369607511983251,0.0019703083611156,-0.0112979411095817,0.0122217746158836,0.0002629027997948,0.0038846925829324,0.9999175969804728,0.0008785905779832,0.1050389630759611,9.791857201833752,0.0104893153610865,0.0517447790433369,0.000800034465019,-0.6299808604770635,1.8118889707629968,1.332569330873418,1137.7920800877207,1101.1755087479708,1121.8919191192497,1147.4380750449848,-79.93877173339028,-136.10937764505243,-602.1622748061011,-303.01127227278585,162.41595308866297
2.99,0.6693225207268472,-0.6465860036489692,0.4565263990071982,0.0385386163819377,0.000737513087402,-0.0107599050711482,0.0122864415623092,0.0003135389599622,0.0038886411940388,0.9999167791052344,-0.0011428596821918,0.1087021486503561,9.7946218019605,0.0106499727939591,0.0514829672574711,0.000733358167461,-0.6299608686276039,1.8120115454601529,1.3325718685211008,1137.5784265564255,1100.7087913814823,1120.3562809299347,1146.4728102258287,-84.31384500290912,-232.51070588326496,-669.7450363972309,-482.86465052948313,162.4153345801874
2.9925,0.497675906034197,-0.587398171273702,0.5713915474410683,0.0406296307456329,-0.0003383565342838,-0.0098623146750381,0.0123465911691198,0.0003509604627189,0.0038950102160246,0.9999160038946112,-0.0028282486792423,0.1123165224966695,9.797383136221592,0.0108149901402288,0.0512413226286453,0.0006815284692641,-0.629940353354499,1.812132953868256,1.3325725821410679,1137.370510862706,1100.0129552185545,1118.5431939372636,1145.0237517923376,-59.56054535454441,-246.59317966048164,-644.6673353763937,-542.6560795970206,162.4145690915219
2.995,0.3211140568888271,-0.5515737529954898,0.6167304534062626,0.0422266920926502,-0.0010935789041219,-0.0083011975100749,0.0124032467586018,0.0003719706953149,0.0039053750699536,0.999915255075277,-0.0041145109604813,0.1158327755379125,9.800099989134381,0.0109854354493185,0.0510200566011255,0.0006459384967984,-0.6299187231417251,1.8122541200479512,1.3325719468252128,1137.2806238296528,1099.47582548318,1117.1329442530528,1143.7595298278436,-14.905896208256626,-170.6124594048142,-522.2668323675973,-471.44349319311107,162.41390720170318
2.9975,0.1122211681717101,-0.5332864099357698,0.5921885894643916,0.0435047215461406,-0.0018979106684568,-0.0058730885429863,0.0124570424079643,0.0003776200272621,0.0039222076123616,0.999914516047132,-0.0050261720829069,0.1191924076875391,9.80272965876548,0.0111616830233353,0.0508182806002303,0.0006274089499086,-0.6298957618709001,1.812375642136362,1.3325713057988169,1137.295981381665,1099.1598929215304,1115.9318597754257,1142.666534326372,22.61245910049232,-72.83821161791066,-428.6964680406618,-380.44364708271945,162.41321557535738
3.0,-0.1130756323364412,-0.5252060964931367,0.5030235509703012,0.0441277243340484,-0.0027901140797934,-0.003389507587675,0.0125101966295872,0.0003698885244379,0.0039433443335947,0.9999137674368016,-0.0056095942537512,0.1223691465750627,9.805228313508753,0.0113429815642514,0.0506342191435073,0.0006258350628077,-0.6298713025690525,1.8124981670162443,1.3325719123158632,1137.3936861251552,1099.1116344250906,1114.9894619128495,1141.85731159243,56.856195285719274,47.4970614537152,-295.24690835028827,-236.29159405568817,162.4124965158159
3.0025,-0.335259108815421,-0.5176752008189329,0.3438914175026181,0.0435862738517554,-0.0038794885669715,-0.0014880586761272,0.0125694393485055,0.0003490110177134,0.0039678647891158,0.9999129282880804,-0.0058788527541503,0.1254273225537654,9.807551233973651,0.011528216930474,0.0504652763577866,0.0006399220825274,-0.6298450454089972,1.8126226988137009,1.3325740133232309,1137.5802623580935,1099.3973782287987,1114.4556252336743,1141.4850763560935,102.95384941814736,182.89353458658687,-121.98373816622994,-61.68263442950906,162.41174213267908
3.005,-0.563467299623438,-0.4893922771605745,0.1021390638079389,0.0416760631068231,-0.0057306507456902,-0.000215191837853,0.0126362745547143,0.0003174621063323,0.0039950018929422,0.99991198082302,-0.0058937973070791,0.1283331239321158,9.809658205392129,0.011715984331163,0.0503083586344217,0.0006684363807501,-0.6298163109853435,1.812749867278104,1.3325764119442276,1137.908455372246,1100.0261020980236,1114.3795432220184,1141.5488984202825,141.22033145776143,251.68864248888104,71.87081160008772,95.3407798267953,162.410794558914
3.0075,-0.6997191841453732,-0.4366360589698464,-0.1096416360341609,0.0393272724420764,-0.0076379570173241,-6.718407900324213e-05,0.0127098257908578,0.0002808041136979,0.004023894827194,0.9999109374197068,-0.0057758322402138,0.1310118107069544,9.811514395589024,0.0119048173680472,0.0501602953916742,0.0007100491417043,-0.6297853541874504,1.8128792908276308,1.3325786033522455,1138.2863640153823,1100.6558214412435,1114.8149792916747,1141.9617802552275,180.19554805140308,237.9481627349217,272.7408471406577,215.92143888823009,162.4099695987188
3.01,-0.76533672850717,-0.347375382944016,-0.2885648046642342,0.0368323612433404,-0.0092131069816825,-0.0008987390343811,0.0127863376715188,0.0002446891588408,0.0040547485329343,0.9999098438637796,-0.0056485441067302,0.1333385085087111,9.813091653672208,0.012093587003595,0.0500182163710034,0.0007633276092116,-0.6297530483362102,1.8130090420239768,1.3325812957442382,1138.809433112503,1101.2158429116982,1115.7432474577215,1142.6285056147235,273.44325839458764,196.38754515745367,500.9155432556888,323.27901260246796,162.40910913590528
3.0125,-0.7620835891049702,-0.2058913394392966,-0.4170258310172877,0.0341128020589954,-0.0101553395298892,-0.0030186834391942,0.0128606515363606,0.0002152849718148,0.0040845397450702,0.999908777139512,-0.0056460435245898,0.1351684921261472,9.814369368866712,0.0122812707396234,0.0498798970493847,0.000826604253976,-0.6297201197807544,1.8131374938396256,1.332584922824145,1139.6535803073552,1101.6377591670307,1117.319557007953,1143.57817531824,351.1396514290102,99.71234270238014,629.9844713986338,354.184712710465,162.40803841496043
3.015,-0.6989526152775393,-0.070344943248857,-0.4257865719268709,0.0320666040884402,-0.0103447443155348,-0.0055846213225064,0.0129308746043648,0.0001987466421036,0.0041123491381593,0.999907764078454,-0.0059015110638675,0.136428513801124,9.815333760474173,0.0124675713854486,0.0497436359043846,0.0008975749287787,-0.6296872406604755,1.8132640613621365,1.3325891085217247,1140.565131369648,1101.71440462521,1118.8931698147148,1144.399429178276,409.4695086288172,-26.02771757583524,646.1393003907825,313.88724882072654,162.4071173758107
3.0175,-0.588540413095715,0.0708564203560746,-0.3217583156127025,0.0302982568337207,-0.0099998196973669,-0.0084199070454063,0.0129964224662553,0.0001970811218618,0.004133753681162,0.9999068300095184,-0.0064665664872031,0.1370791923212059,9.815978673334422,0.0126523405314565,0.0496082147741485,0.0009734837396546,-0.6296552096191453,1.813388524856265,1.3325940225670212,1141.7009278504993,1101.5076205791515,1120.5502535099067,1145.1476115623436,486.76452337373246,-117.81348173072072,647.6355506420215,272.11144126432043,162.40617063013903
3.02,-0.4538222919856467,0.2102090312445835,-0.1378622327073212,0.0289288207505249,-0.0091059290843655,-0.0106597039792557,0.0130553623631624,0.0002102138866836,0.0041441895060884,0.9999060197023428,-0.0073515416962455,0.1370628014726484,9.816307251529327,0.0128357702511911,0.0494725685698603,0.0010515147051955,-0.629624531094866,1.813510984362216,1.3325995685791476,1142.9989539865167,1101.1253372165563,1122.1313475679249,1145.7599863845976,543.4932695777321,-169.72628432695635,584.3730201094002,195.31594956170423,162.40520570847676
3.0225,-0.3103901232275386,0.3463006752508013,0.0987553026781109,0.0281484865186681,-0.0079988992373548,-0.011143166723063,0.0131069454206328,0.000236743184387,0.0041459624413425,0.9999053332576474,-0.0085391557060266,0.1363523436008098,9.816331269244465,0.0130188530589782,0.0493353486264448,0.0011286447218828,-0.6295949132286103,1.8136315624425552,1.332606272749342,1144.418394198388,1100.6589891575168,1123.472118610454,1146.124191310152,623.3101463594854,-184.821880094118,510.7954069644729,86.41898444002621,162.4042226337363
3.025,-0.1543804349215356,0.5140665614871922,0.3683733792008797,0.0278354540134914,-0.0071240924413468,-0.0092336292260719,0.0131533813045252,0.0002776618538352,0.0041411169913284,0.9999047322338436,-0.0100579248206775,0.1349880055571922,9.816070758123226,0.0132024134036158,0.0491948741977303,0.0012016772662753,-0.6295656161391567,1.8137514502383083,1.3326140393799253,1146.115504718314,1100.201227816086,1124.6853246027472,1146.1920813067975,595.9037863709127,-123.52429342072618,375.7026628874962,-41.93357008780457,162.40302678078808
3.0275,-0.0540474426734013,0.6644474891238475,0.5303848465114499,0.0280936861183395,-0.0065719148914596,-0.0061792488214175,0.0131936991004479,0.0003318303517256,0.004129082584232,0.999904231679939,-0.0118936242859738,0.1329568143498133,9.815555033028344,0.0133867166596646,0.0490490516862529,0.0012678665287854,-0.6295360279637005,1.8138717137306593,1.3326223226910583,1147.3979131302424,1100.0413676904132,1125.350631924891,1145.914523459713,456.07568861120495,4.145586229514895,207.0117476723996,-176.70693901198945,162.40202026054064
3.03,0.0028378536856311,0.8245193413200097,0.592443360381886,0.0286623954970608,-0.0054338275546815,-0.0028931828604048,0.0132272348416855,0.0003936870262596,0.0041083266749355,0.9999038487296574,-0.0139433981938917,0.1302608598715358,9.814820289509033,0.0135715653865129,0.0488953726707804,0.0013246021577628,-0.629505875805644,1.8139933583696632,1.332631123193221,1148.39588316137,1100.2219557472336,1125.7203833411093,1145.3085466117377,345.883609931638,162.56037004294552,121.89623241064596,-326.42337037825723,162.40100752700215
3.0325,0.0181655887256511,1.0107233886680467,0.5522362263239254,0.0293076399195683,-0.0032490350767879,0.0003131098778816,0.0132563124238901,0.0004544956909442,0.0040781650577328,0.999903559292296,-0.0160393947611855,0.1269698202955567,9.81390772682529,0.0137564631649769,0.0487310566624962,0.0013692334997562,-0.629475102363643,1.8141163805525888,1.3326405747506906,1149.1273311799007,1100.854169540628,1125.9601130869446,1144.2824066078217,177.85708152351083,288.0856053981522,73.53172479547695,-408.1571702150173,162.39978984002485
3.035,-0.0072512113761285,1.141356356294139,0.4465589507655725,0.0296475364935171,-0.000875894165311,0.0019468573251743,0.0132816566772387,0.0005083259492468,0.0040388717898571,0.9999033560044744,-0.0180661012370033,0.1231312282145984,9.812864428320692,0.0139406210515699,0.0485532962846953,0.0013997467966419,-0.6294434082047093,1.8142403561432343,1.332651043182589,1149.2851685689875,1101.6623837742243,1126.0880419650866,1143.2677607606627,-35.16520879620732,349.88966522592654,48.31823510107928,-412.3083395422415,162.3987765341871
3.0375,-0.0583684362484247,1.218605820164257,0.3080645895877998,0.0296855536412302,0.0022578065063556,0.0021595407033539,0.0133036859087235,0.000553164541132,0.0039939004062174,0.9999032214131238,-0.0199815276558059,0.1187952741316684,9.81174123222252,0.0141232161334213,0.0483594396684011,0.0014147810443687,-0.6294104033469344,1.8143648523866545,1.3326625728373964,1148.9515051359197,1102.6036178667575,1126.20170426245,1142.2208649101103,-252.79103963549088,397.13469588701565,39.33561715321132,-433.136562903028,162.39776857746256
3.04,-0.1286393315746941,1.218771867430107,0.1499996829019698,0.0293419915663927,0.0069453527965335,0.0012610527895333,0.0133187736741542,0.0005869619514952,0.0039455865619947,0.9999031964833432,-0.021739965441796,0.1139410387631087,9.810591467245171,0.0143030776933679,0.0481472708966511,0.0014140243687858,-0.6293764831090078,1.8144884793586713,1.3326751523980027,1148.0212133708103,1103.648057253659,1126.2847200508527,1141.1020779461476,-417.1662143049705,335.00926733609765,3.661905688886769,-361.671412196491,162.39656918498545
3.0425,-0.1791161786019898,1.1285310657627707,0.0445927472942064,0.028744436222447,0.0109432340408455,0.0003635972731624,0.0133261252601384,0.0006082699134661,0.0038941997321168,0.9999032925936808,-0.0233038381791329,0.1086107628814437,9.809466699609015,0.0144786915952251,0.0479151120561283,0.0013977142074653,-0.629341526778366,1.81461084974536,1.3326882077456843,1146.8656740643949,1104.278664203438,1126.2200137908944,1140.412507849128,-521.6723233793457,172.83151320880648,-80.60474263061396,-199.40422199611447,162.3955806966384
3.045,-0.2052618759319442,0.9468703921461524,-0.0307829604006668,0.0279118217353949,0.0140287738916852,-8.748070294832484e-05,0.0133288599491192,0.0006186100536155,0.0038440458730864,0.999903450586744,-0.0246899060945894,0.1029295253043525,9.808414739327322,0.0146488655704559,0.0476615866386418,0.001366716517765,-0.6293051207554315,1.8147317646590235,1.332700265941429,1145.4128517539136,1104.512214819703,1125.8816963376996,1140.105056836167,-613.8004637705893,18.36250148749098,-196.71543458194233,-47.74817093853118,162.39460624832202
3.0475,-0.20304569838848,0.7028499566762609,-0.0897914222290245,0.0269336190657638,0.0161988913327994,-0.0002003082490333,0.0133312342045064,0.0006173451208552,0.0037979446012368,0.9999036033151052,-0.0258694870187013,0.0970498858001158,9.807478152659503,0.0148123346697699,0.0473856517885545,0.0013226233700835,-0.6292673861614599,1.814851544135737,1.3327107266745817,1143.796671745542,1104.3704767108754,1125.2364366179847,1140.1737669944355,-664.0629858965901,-139.5076372400032,-338.32919249018676,118.99212921452197,162.39364508883975
3.05,-0.1633301272625708,0.4060508271391503,-0.1427906694849045,0.0258593508601195,0.0175325701909702,-9.481305429627715e-05,0.0133354427667642,0.0006015014896912,0.0037603462791751,0.9999037065264126,-0.0267656807100873,0.091087604897754,9.806693484901382,0.0149681921941431,0.0470863946364555,0.0012678896481547,-0.6292288467013004,1.8149704039747676,1.3327198615996108,1142.0925368244305,1103.8146766335033,1124.1900503752483,1140.7000174822397,-739.7719224804814,-308.47718063930836,-541.6967825342997,320.56953972953687,162.3927015754041
3.0525,-0.0791886379799789,0.0196337850372796,-0.2125871173461814,0.0249220054403262,0.0183363267637402,6.406252499399698e-05,0.0133434909971028,0.000574924728757,0.0037352065933972,0.9999037149867827,-0.0274336355984088,0.0851580826258656,9.80609013310905,0.0151157589704022,0.0467630486242319,0.0012057217380919,-0.6291889430796543,1.8150890145098528,1.3327275496214743,1140.097812133139,1102.8280908076788,1122.527952705313,1141.7766146930833,-699.0918029707393,-381.450279657346,-656.8203527143536,446.8517935388359,162.39159138873805
3.055,0.0083427849694278,-0.3037792034292621,-0.2788087353702231,0.0247787438201989,0.0181943608396298,7.234061736203988e-05,0.0133576663009589,0.0005446729503051,0.0037240529233144,0.9999035872914344,-0.0279905760386635,0.079384213118434,9.80568883213746,0.0152545351778958,0.0464150745930131,0.0011397351814943,-0.629147665567919,1.8152077385899736,1.3327335664757762,1138.5970778095768,1101.9074252352164,1120.9059486116769,1142.9342764499338,-536.8342882526237,-346.4969462622395,-663.5009532299732,485.24756536481743,162.3906854662754
3.0575,0.0939677506898426,-0.5976386416778499,-0.3472089729955191,0.0252589194835289,0.0168950054425633,-0.000232868049763,0.0133790354286435,0.0005141698638123,0.003727749318863,0.9999033034881076,-0.0284825775572978,0.0738648403812607,9.805500840134256,0.0153845367111433,0.0460421986258022,0.0010736752477426,-0.6291055993321859,1.8153261696364913,1.3327380334055217,1137.4136406918763,1101.0956060763676,1119.2104479391633,1144.2028525199073,-415.1241728852799,-293.4144153679489,-714.5973287678469,547.4129049729189,162.38980045117967
3.06,0.174521743561792,-0.880696049572621,-0.4136994736535422,0.0262870554516369,0.0139356444032476,-0.0011758448941178,0.0134081274810549,0.0004859621487672,0.0037454819525954,0.9999028585562064,-0.0289396375247174,0.0686870351897394,9.805527935074899,0.0155063053010671,0.0456445566679754,0.0010112137969787,-0.6290629282149196,1.815444205787938,1.3327415724392555,1136.5214569451505,1100.4403531583769,1117.3329619678375,1145.6713409747983,-222.6684994752352,-172.42035980025688,-624.7925167091713,506.9322676956398,162.38876410836718
3.0625,0.2148043255381009,-1.0390296854948808,-0.4388279971346712,0.0272841599174305,0.0105931440619346,-0.0025595512626797,0.0134458513182297,0.0004606101438301,0.0037721704469213,0.9999022598449572,-0.0293547089130656,0.0639427646457135,9.805762520911012,0.0156207367474207,0.04522287217113,0.0009556481149357,-0.6290206372173262,1.815561993714634,1.3327434404087908,1136.3002981945,1100.2335042773664,1116.0864853556175,1146.7375138583855,23.62001293818189,-13.939623781562046,-392.3980518586715,373.92293517737806,162.38792336734463
3.065,0.226259088504686,-1.1083081843824174,-0.414017644678534,0.0281272098786682,0.0069843152862513,-0.004541457185631,0.013492110724396,0.0004393024079708,0.0038017288174596,0.99990153259429,-0.029736033814578,0.0597000725599457,9.80618905677963,0.0157293385226837,0.044778453844561,0.000909923112821,-0.6289800400799661,1.8156792879911168,1.3327438696936111,1136.6395570098412,1100.370655039469,1115.3709717085444,1147.5409556506852,257.2003369939066,116.57332588811435,-163.1586562869905,279.55326524648314,162.38710860390967
3.0675,0.2144848861908581,-1.1005406476110886,-0.319207554205642,0.0287853348775154,0.0031813839344017,-0.0071255967209891,0.013542272972109,0.0004212895524465,0.0038269478390267,0.9999007677167968,-0.0300577962041998,0.0559321470334133,9.806785759185384,0.0158340313218669,0.0443132763709741,0.000876666706147,-0.6289418412120015,1.8157948237344512,1.332744239576898,1137.5862998794696,1100.8163709068067,1115.2706920741823,1148.1352801846178,405.56728058752,184.01930097846736,92.1357096887215,152.8324282797154,162.38616409739643
3.07,0.1914244998650349,-1.038039742446488,-0.1965040714292601,0.0291037768949005,0.0006873251745304,-0.0086240688597259,0.013594635190649,0.0004013568997625,0.0038428894690551,0.999900008396565,-0.030210678573507,0.0526618477850792,9.807524435418973,0.0159371246481208,0.0438298791242849,0.000857336421772,-0.6289053814235995,1.8159081691837264,1.3327448895441232,1138.6673934127791,1101.2907515443615,1115.831650256988,1148.3051177920838,445.25844191454496,176.75293383307405,336.6484617092965,2.7130206730815174,162.3854073937565
3.0725,0.16289830460292,-0.9446410085230136,-0.0588255940987199,0.0294090295712471,-0.0012795493277467,-0.0084698617775161,0.0136503944747935,0.0003792965688333,0.0038488399515586,0.9998992385532184,-0.0301880123791391,0.0499604773177521,9.808373295345593,0.0160411024348641,0.0433311977086176,0.0008525454794651,-0.628869936812114,1.8160195206923777,1.332745528512268,1139.8125920890425,1101.7001355759724,1116.9539343827291,1148.1488452879832,433.5707260274013,130.799199903825,510.4013354021498,-110.51058874591271,162.384685932036
3.075,0.134194863852438,-0.843345550792392,0.0650289439872044,0.0297429934128421,-0.0030355965114653,-0.0070577348383319,0.0137089421650293,0.0003578240264534,0.0038459932740736,0.9998984586787532,-0.0300449725851604,0.047854583771185,9.80929963263035,0.016148149163998,0.0428204874297429,0.0008624491795203,-0.6288351840855196,1.8161283052412007,1.3327461877807063,1140.835247042916,1101.9447475438803,1118.3836569339987,1147.7525648483543,348.2060501706275,41.86476145719188,596.5958220546909,-203.62542770013056,162.38399679419527
3.0775,0.1093870797588386,-0.7481063203372035,0.1544490627830378,0.029859067017038,-0.0046570940548391,-0.0052266511920803,0.0137694121482875,0.000340027765616,0.003836484937596,0.9998976701809336,-0.0298478303184481,0.0463555251118253,9.810271252753024,0.0162598860219422,0.042301187876852,0.0008865444730335,-0.628800553010085,1.8162342561618048,1.3327472859961116,1141.5536223398956,1101.9094593832583,1119.9369134930023,1147.1307181494826,228.72882302281633,-83.43268463863927,644.6329907878545,-301.66016055100687,162.38335052400353
3.08,0.0873940563108192,-0.6545622692064281,0.2282745791720454,0.0298764885024161,-0.0061558689060493,-0.0037331915103522,0.0138329065769226,0.0003246785594858,0.0038222305936606,0.999896850237349,-0.0295808338352329,0.0455025086045998,9.811257553030288,0.0163771733282582,0.0417767540939116,0.0009233681881133,-0.6287656654788473,1.8163378665610963,1.3327486309133727,1141.97889115803,1101.5275841206872,1121.606821887938,1146.2442640455993,89.66923038410833,-186.25335734177892,535.1244613128641,-325.6553390410387,162.382629272342
3.0825,0.0751410306900501,-0.599116946907848,0.2830284527425659,0.0299465819732544,-0.0067524892833149,-0.0033958888051523,0.0138983972646364,0.0003087231016737,0.0038046078190952,0.9998960090338596,-0.0291944374675614,0.0452823324874709,9.812232179494544,0.0165000422935256,0.0412504686850673,0.0009709719069553,-0.6287298858044358,1.8164394910478117,1.3327503867756099,1142.001968491816,1100.9781925965494,1122.6125357995668,1145.5024414542775,-32.568538735996086,-244.50856004833048,283.09801048854445,-266.44693907433634,162.38207659179747
