t,ang_acc_x,ang_acc_y,ang_acc_z,a_vel_x,a_vel_y,a_vel_z,quat_x,quat_y,quat_z,quat_w,acc_x,acc_y,acc_z,l_vel_x,l_vel_y,l_vel_z,pos_x,pos_y,pos_z,mot_1,mot_2,mot_3,mot_4,dmot_1,dmot_2,dmot_3,dmot_4,vbat
8.540000000000001,2.579056216055003,-0.725430460600975,-0.1372686116961155,0.0241264714016169,0.0214771128574821,0.0021251371480865,0.0047702322062887,-0.0016752000225234,-0.0146901332920388,-0.9998789734511732,-0.0346062185804085,0.0165155265464208,9.801548870970842,-0.0146640046523999,-0.0120672853076271,-0.0015806473447648,3.488985800320623,3.5028523353743464,3.051093405294122,1120.7665696014146,1137.3146162613891,1105.2720571038694,1143.095563745982,371.6972469119684,237.95955805531693,-259.8523333372262,-135.27942586322456,154.81785956854984
8.5425,2.195427401020229,-0.8780427399001905,0.020277256271388,0.0295619729587655,0.0204515979662284,0.0007910898060973,0.0046943218901135,-0.0017191138923904,-0.0146945852645052,-0.9998792254471532,-0.0379344939689484,0.0209454145595222,9.800621344577076,-0.0146632559423724,-0.0119676547737511,-0.0016031178267277,3.4889480558001864,3.5028211778777676,3.051086370562372,1121.5975076993495,1137.6150111890256,1104.5666737907895,1142.7119044648196,311.68602830545586,25.812683981308194,-330.31421282014185,-189.5363554354312,154.8191602204012
8.545,1.71157963416482,-1.0892002660421307,0.2401328342077111,0.0346063814944767,0.0189909196599138,0.0002290284853345,0.0046177033113135,-0.001750875683557,-0.0146975216526676,-0.9998795223557732,-0.04086091308785,0.0257397640288973,9.799686789138583,-0.0146673452073273,-0.0118584144983201,-0.0016172724950715,3.488910296878231,3.5027859838369593,3.0510797192398487,1122.3249997429416,1137.4436796812956,1103.620486039769,1142.1478819688052,266.39803051903823,-132.56055427002957,-416.38999103364864,-262.8957260922175,154.8203998883758
8.547499999999998,1.1429790009627776,-1.3287131975494848,0.4829278344014436,0.0394434810448804,0.0168340247182462,0.0005029998029865,0.0045546480549806,-0.001770851904812,-0.0146993122301496,-0.9998797899956589,-0.043363381438498,0.0305791786473274,9.798731509843869,-0.0146764820059449,-0.0117339436192296,-0.0016240619409531,3.4888727807037605,3.5027482976459514,3.0510729308622366,1122.9294978519447,1136.9522084176756,1102.484723835622,1141.3974258343587,206.35172726421345,-241.62153745865768,-488.6563840591552,-355.8104821887253,154.82158551992143
8.55,0.4840100725637484,-1.5660126239954908,0.7076773396271424,0.0435899855012224,0.0135597362577802,0.0019760346909011,0.0045110096970746,-0.0017808275491439,-0.0146992725189248,-0.9998800075326322,-0.0454463160119185,0.0352979309784756,9.797744348466248,-0.0146911507122337,-0.0115895118954476,-0.0016247604640958,3.48883572233944,3.5027100374520286,3.0510662101826047,1123.3567583792628,1136.235571994002,1101.177204119473,1140.368829557861,141.91900587636664,-316.25455405209834,-587.7061412952562,-529.2586906571241,154.82270173471505
8.5525,-0.3595179912066363,-1.793234493356343,0.8932035347220298,0.0459773051928353,0.0081809947254702,0.0052498227583231,0.0044877844103305,-0.0017844533763374,-0.0146960613803006,-0.9998801836935864,-0.0471504321831219,0.0398155808358523,9.796717646398708,-0.0147120617102753,-0.0114215473498025,-0.0016210640070382,3.4887999118051716,3.5026728271950893,3.0510597461462035,1123.6390928813266,1135.3709356474149,1099.5461931291452,1138.7511323810727,62.76358061305812,-281.6674000985237,-580.6063437023358,-659.4402016036786,154.82395535384305
8.554999999999998,-1.0395703676219774,-1.8964225752548316,0.9373646297671492,0.0444706421152605,0.0024977934711072,0.0090583315426122,0.0044821744889228,-0.0017781518194675,-0.0146908649756849,-0.99988031790332,-0.0483747889568937,0.04411549988293,9.795649013697437,-0.0147401114044681,-0.0112275761278035,-0.0016148380587164,3.4887657556798737,3.502637615353829,3.0510529687235235,1123.670576282328,1134.8272349935098,1098.2741724009616,1137.0716285498436,-30.271028847750852,-149.8139349570231,-453.0356280739144,-726.8506586470496,154.82492436104272
8.557500000000001,-1.5998797906714044,-1.8794150560096687,0.8392126295065023,0.0394675330728286,-0.0038175592936029,0.0131492772851449,0.00448678243951,-0.0017591439271765,-0.0146852852005096,-0.9998804222463697,-0.0490343864864872,0.0482651204598814,9.794541476213542,-0.014776085315726,-0.0110061419818806,-0.0016083406128327,3.488732462782066,3.502604262655181,3.051046133004428,1123.4877377370879,1134.6218659726296,1097.2810149887753,1135.1168790878369,-125.90100437694524,-0.9178660915948442,-332.117790806199,-882.8694671502928,154.82580979081155
8.56,-2.040213863712137,-1.7169816245190155,0.5625961934186576,0.031273670914868,-0.0107605413132731,0.0170174578757901,0.0044953608501867,-0.001727943189105,-0.0146800016959636,-0.9998805125523405,-0.0491114367664679,0.0523064292309722,9.793403788893954,-0.0148204154243611,-0.0107566231284285,-0.0016044476393206,3.488699548341854,3.5025724191579926,3.0510397434224945,1123.0410712604432,1134.8226456630518,1096.6135834469303,1132.6572812140914,-194.03562699948677,138.7897957342651,-136.66240413852384,-879.3079628075178,154.8267697373167
8.5625,-2.175292310191948,-1.4841902503280064,0.2284869445843178,0.0236535384903943,-0.0153120382773442,0.0187901095037086,0.0045020657640971,-0.0016888256681927,-0.0146730759491063,-0.9998806358279612,-0.0486654162343737,0.0562732894921312,9.79225060283961,-0.0148730139385745,-0.0104791314850752,-0.0016066017848888,3.4886672767844975,3.502540470882002,3.0510356522208486,1122.5175596020906,1135.3158149513008,1096.5977029680828,1130.7203392738,-225.0078080940959,237.97681577757615,113.01459024687092,-700.2732160220177,154.82747986025404
8.564999999999998,-2.066174789438796,-1.1934276735112783,-0.1595993534011449,0.015996264401182,-0.0182773860927949,0.0188110308843478,0.0045000177121452,-0.0016475151322835,-0.0146624404971529,-0.9998808444639902,-0.0477880724164855,0.0602218069583712,9.791102381463956,-0.0149332338425177,-0.0101744506842342,-0.0016184921152787,3.488635653532108,3.5025070445215385,3.0510352958190654,1121.9160322199727,1136.0125297419395,1097.1786563981648,1129.155915133982,-256.5935744654379,313.53928076682325,374.5757322849255,-557.1236459788489,154.82809212532317
8.5675,-1.7036533663470415,-0.8328267508541513,-0.6177142391863994,0.0081036463251805,-0.0202337935240626,0.0167984211917687,0.0044840429806358,-0.0016060717610986,-0.0146490642320947,-0.9998811453267924,-0.0465047946140321,0.0641780594080551,9.789985170593837,-0.014999839914975,-0.0098441400748321,-0.0016435187126854,3.4886042586494015,3.502473072130485,3.0510385876861617,1121.2345917297632,1136.8835113551352,1098.4705816295077,1127.9347210439055,-221.4056964421724,297.79182405550165,541.4340686497844,-322.2395603020637,154.8287100999566
8.57,-1.2783513305649343,-0.5559429274710286,-0.9476222443227292,0.0039430172339263,-0.0208960977064536,0.013585036395917,0.0044535081049691,-0.0015651896838166,-0.0146348762864673,-0.9998815135025781,-0.0448217361784504,0.0680857725488785,9.78892928312597,-0.0150708759988852,-0.0094908298741798,-0.0016843683580399,3.48857225378247,3.502440330076145,3.051044071564655,1120.809003737762,1137.5014888622172,1099.885826741414,1127.5447173324715,-117.0589192083986,202.13878253457025,585.8832028920716,-29.39324770869137,154.82912648131534
8.572499999999998,-0.8299096371299578,-0.328046465374358,-1.1874229406792989,0.0031456682939362,-0.0209876895247652,0.0093979801801349,0.0044053935207383,-0.0015240345363225,-0.0146229640358427,-0.999881921189878,-0.0427216098308085,0.0719442573117977,9.78796720320027,-0.0151436709682667,-0.0091183188064886,-0.001742411713886,3.4885390733677366,3.502409542558319,3.0510505351684807,1120.6492971337211,1137.8942052678078,1101.3999976439675,1127.787754805362,-8.168283268331466,113.95342812455092,583.7781840587464,183.5171609871108,154.82944052539386
8.575000000000001,-0.434928097575627,-0.1466742550450438,-1.3440777551828607,0.0042950543503326,-0.0208525041955464,0.0052216043685312,0.0043397666006129,-0.0014837483179518,-0.0146151387822947,-0.9998823444002076,-0.0402350282511774,0.0757041270925494,9.787131455446012,-0.0152148846375418,-0.0087315283644414,-0.0018176491253402,3.488503824626919,3.502381580665624,3.0510564500438537,1120.7681623214203,1138.07125600284,1102.8047176617083,1128.4623031374072,117.79788911178888,26.011838805693998,501.6990746171939,337.7356172151776,154.82967087922168
8.5775,-0.1593877567290339,-0.0159871681056658,-1.4111409384430282,0.0062228347427785,-0.0206241154362032,0.0017310536244095,0.0042595411681487,-0.0014474623734449,-0.0146123211561731,-0.999882758184789,-0.0374411501054804,0.0792735113606391,9.786452452434608,-0.0152807294464192,-0.0083362541515552,-0.0019086346987334,3.48846602096253,3.5023572702715504,3.0510606488030088,1121.2382865792804,1138.0242644618363,1103.9084930170538,1129.4764328914382,278.7325044293184,-51.2161263055179,399.1460521941802,470.63270380508845,154.829803152668
8.58,0.0138637623800282,0.0997186360801161,-1.4137272992091043,0.0081435852353197,-0.0203451949740373,-0.0015332603311739,0.0041803405282283,-0.0014180509464238,-0.0146139831531649,-0.999883099132469,-0.0344267594753056,0.0823251934580667,9.785957423715969,-0.0153372772520816,-0.0079387766934675,-0.0020126931146594,3.488425633538298,3.5023372616638446,3.051062110918937,1122.1618248435664,1137.8151753713123,1104.8004479226788,1130.815466656432,385.45339320865816,-84.5149917482272,261.8985242939355,472.1372441224532,154.82985396389893
8.582499999999998,0.0436795766033892,0.1783352211074776,-1.3663397406199345,0.0090148503552275,-0.0201145232635287,-0.0037695337080991,0.004117446278967,-0.001402381864901,-0.014619477907867,-0.9998833023688236,-0.0313651896258156,0.0845533676509045,9.785667382198383,-0.0153808187895757,-0.0075453851637391,-0.0021260954016319,3.4883826487662226,3.50232183275105,3.051060081227532,1123.1655535453233,1137.6016895030953,1105.2179856385233,1131.83711911205,432.8352750044593,-77.33464420433548,122.55731114690109,348.39382517961,154.82981160789504
8.585,-0.0044349078694281,0.2582881249139465,-1.271079135483558,0.008986036177794,-0.019843923187568,-0.0062344505118685,0.00407910221877,-0.0014049288414415,-0.0146271652115899,-0.9998833523717056,-0.0283887846112415,0.0858020280236357,9.785595257408577,-0.0154082315626127,-0.007161889518386,-0.0022441867361927,3.4883374836754224,3.5023107299783094,3.0510551734099085,1124.3260012185892,1137.4285021502908,1105.4132344784134,1132.5574357823305,530.536040931437,-59.35612514102994,65.44395958725431,215.0143669071104,154.82968842577048
8.5875,-0.0972548275351394,0.3749707657902627,-1.0871080138585811,0.0079137472764814,-0.0194066419511548,-0.0099144446034853,0.0040617509475217,-0.0014193230213384,-0.0146352175186744,-0.9998832959190638,-0.0254209049000384,0.0861542618452754,9.78574458406008,-0.0154173548955501,-0.0067930832645776,-0.0023615221923733,3.4882915252821745,3.502303224530383,3.051047740771428,1125.818233749981,1137.30490887739,1105.5452054364596,1132.9121909465855,555.6745914773014,-34.41722310436265,47.846056349826966,36.60598067277352,154.82945545703225
8.59,-0.1699211549791489,0.4989180534059383,-0.8622568733502493,0.0066470897200145,-0.0189217760631214,-0.0132766447760309,0.0040575302366485,-0.0014355238182607,-0.0146437090741347,-0.9998831757831969,-0.0223165137705531,0.085785514100862,9.786109376211128,-0.0154071762103454,-0.0064421950494778,-0.0024726194092638,3.488246909362752,3.502297741456701,3.051037086966691,1127.1043741759752,1137.256416034769,1105.6524647601625,1132.7404656856943,516.5854901466109,-20.52767260575319,49.01921042279421,-155.00487406432867,154.82919628632519
8.592499999999998,-0.2121069925808779,0.6539809119118817,-0.5576004493464917,0.0054881282606529,-0.0182975010172838,-0.0162062853273854,0.0040602433297662,-0.0014508309418278,-0.0146522089192881,-0.999883025806358,-0.0190781182643679,0.0848473583640041,9.786674884643208,-0.0153776895754539,-0.0061106569599961,-0.0025727976215377,3.488204440178269,3.502292230706796,3.0510229000217945,1128.4011612007134,1137.202270514361,1105.7903014885735,1132.1371665762642,564.7341712780898,-45.58582415028665,58.748409818044735,-330.4991948814797,154.8288765428956
8.595,-0.2153883035794509,0.8661389942245183,-0.1171216342400192,0.0041778813729226,-0.0169847849705817,-0.0184325310078464,0.0040656706608359,-0.0014632828711274,-0.0146592528695196,-0.9998828884404742,-0.0157250905225252,0.083456855023424,9.787419278126,-0.015329669599112,-0.0057981009892837,-0.0026584279971538,3.4881641917992194,3.5022851674833237,3.051006645939304,1129.928045032366,1137.0284869140175,1105.9462068092528,1131.0879697112866,545.9556525203935,-96.15358527251688,41.31694362053431,-405.4092130264783,154.82843067523652
8.5975,-0.1788942834666927,1.0469621358935246,0.2834309058205704,0.0031695022906108,-0.0149680192882497,-0.0188498967469329,0.0040754157859069,-0.0014778182401529,-0.014664996716476,-0.9998827487143906,-0.0124133546498254,0.0816204344559434,9.788315669624101,-0.0152643556450585,-0.0055024955899019,-0.0027275319678055,3.48812580520578,3.5022757970662735,3.050989835688016,1131.1309394633158,1136.7215025879987,1105.9968862066762,1130.1101205111315,451.92429500516374,-166.55038294942318,-15.946939958306292,-371.9226060302675,154.8280129145703
8.599999999999998,-0.1112239089547546,1.2028468493679352,0.6708184563757242,0.0024108341632245,-0.0118197425988372,-0.0175880330972789,0.0040946141273092,-0.0015011429443698,-0.0146654665101606,-0.9998826363276512,-0.0093338809803507,0.0792750423005196,9.789334219686461,-0.0151831333655453,-0.0052207501251427,-0.0027797531277042,3.4880881947842526,3.502263394172616,3.05097388679347,1132.1876665073914,1136.1957349992704,1105.8664721094613,1129.2283566811357,385.93577962004355,-245.45392858336328,-94.03043547993896,-310.96484758527055,154.8275537457993
8.602500000000001,-0.0308839360903507,1.31709473006672,1.0079290804012553,0.0018363073128863,-0.0080348093043871,-0.0149405285141655,0.0041274994912391,-0.0015316712403433,-0.0146591602907462,-0.9998825605048964,-0.0065121963286163,0.0763702203762716,9.790444023737827,-0.0150875040371326,-0.0049490602649361,-0.0028159612377543,3.4880507042281708,3.5022483070208654,3.050959302289179,1133.0606183614163,1135.4942329450816,1105.5267340292764,1128.5552962732047,290.8556069127372,-309.78961196119303,-191.13688797294083,-197.70028279332655,154.82706502675182
8.605,0.0425387575510684,1.365054043183069,1.2426626268774985,0.0015121629948105,-0.0041076477293731,-0.0109542816761595,0.0041684151062982,-0.0015617374090541,-0.0146465749010655,-0.9998825484392356,-0.003848159027402,0.0730436183690422,9.79161441516488,-0.014979021469968,-0.004683511054525,-0.0028380580243383,3.4880136388176526,3.50223174727659,3.0509468035589324,1133.6419445419551,1134.6467869394644,1104.9107876695964,1128.2398552671689,174.33549362207316,-379.0818821484962,-324.8010393355535,-43.220112127400576,154.8265463417726
8.6075,0.0868757664217008,1.3398943208648306,1.3717561202788087,0.0017605619108394,0.0003100848158535,-0.0056659846328857,0.0042073138728342,-0.0015883870657281,-0.0146299456984023,-0.999882612217922,-0.0013281098112948,0.0695160828678579,9.79281747948091,-0.0148592233886858,-0.0044204794145837,-0.002849098711577,3.4879766520485305,3.502214965499413,3.050936994113178,1133.9322958295263,1133.5988235343395,1103.9027288325988,1128.339195712568,32.1997300644462,-367.3946737601276,-396.1130907511112,116.1308385902661,154.82589644334243
8.609999999999998,0.0590981031769272,1.25373288249295,1.345104343916674,0.0026605878003246,0.0037615351367068,-0.0015542881261134,0.0042400021263963,-0.0016100217415391,-0.0146120097321852,-0.9998827299193696,0.0010382215525953,0.0658904491364543,9.794030392241153,-0.014729652781851,-0.0041568664031722,-0.0028529115664754,3.487939154019689,3.502198196071985,3.0509304649555165,1133.8029431922776,1132.809813570664,1102.9302222158412,1128.82050946012,-130.86092296732886,-276.21406600524324,-386.00139015355455,266.76817560878965,154.82533708282432
8.6125,-0.0630827531864244,1.1109331422997435,1.1885141999731357,0.0042249818642735,0.006987099250568,0.0020070818269955,0.0042604098805435,-0.001623856682372,-0.0145967652582135,-0.999882871127908,0.0032702413672371,0.0623030433100188,9.795235783314896,-0.0145919447636361,-0.0038902737321232,-0.0028534880049607,3.487902025996909,3.50218020366296,3.050926735655644,1133.2779912146896,1132.217753204313,1101.9727218818307,1129.673036590612,-316.09060733039377,-199.09766447982815,-379.13579490135345,442.2513282171385,154.82476524718493
8.615,-0.3259962016707115,0.894875033727239,0.8762154243882955,0.0063269054632741,0.010056099220153,0.0056446699074642,0.0042696994319672,-0.001629851318141,-0.0145882113616794,-0.999882968798498,0.0053370050131322,0.0587478599591513,9.796422535028695,-0.0144478390954916,-0.0036192048026753,-0.0028547118255664,3.487866053201903,3.5021603073510095,3.0509253230404725,1132.222490155625,1131.8143252482648,1101.034543241334,1131.031766101206,-447.00125200060734,-91.27273238079394,-283.656764053887,534.9879982186549,154.8240713985053
8.617499999999998,-0.6205471029431995,0.6968578142173553,0.5388403750333483,0.0073752793680845,0.0114047823865453,0.0079043938775609,0.0042720703480995,-0.0016276353475364,-0.0145879525727294,-0.9998829798080195,0.0072185002148939,0.0551597334028044,9.79758506368458,-0.0142991323946614,-0.0033434870822427,-0.0028598133018587,3.487831488019416,3.5021393007097794,3.0509263140782323,1131.0429849546872,1131.7613895424092,1100.5544380615615,1132.3479765817049,-515.2256672953731,38.61865072084889,-108.92240927763056,535.9430988412968,154.8234916605122
8.620000000000001,-0.931628492317031,0.4997437479161112,0.1618272324285996,0.0061077404179397,0.0117137028432674,0.0086191105830056,0.0042730961656879,-0.0016142253698601,-0.0145939618827775,-0.9998829131178018,0.0089508357527829,0.051448347264159,9.79872225537172,-0.0141475667349061,-0.0030646274172988,-0.0028709326911353,3.4877981058995644,3.5021192605821234,3.050928063260398,1129.646361819148,1132.007418501869,1100.489931194946,1133.711481595413,-639.9861484656321,172.92758174609867,72.61002097715165,573.3818071162673,154.82291598951144
8.6225,-1.2239382003028139,0.2694659959200433,-0.2852510172118982,0.0011145910976365,0.0119772344122563,0.0074436832975055,0.0042734299060443,-0.0015885352362964,-0.0146050233611633,-0.9998827838075977,0.0105401477440644,0.0476245593429961,9.799836147559507,-0.013994707656109,-0.0027858210470642,-0.0028889757463083,3.487765296246127,3.5021027242382083,3.0509292585783254,1127.8430542123583,1132.6260274511399,1100.9174881664476,1135.2148856172867,-664.8684708346041,273.78979389501166,229.36116757218784,502.643612576694,154.822236274131
8.625,-1.3340018355417804,0.0739479576193056,-0.6227226698574012,-0.0049279287858033,0.0124849299251433,0.0054915501416249,0.0042726444793055,-0.0015513242384841,-0.0146173055791374,-0.9998826481944376,0.0119619227892482,0.0437269951093849,9.800930713058301,-0.0138418483935591,-0.0025117892673831,-0.0029136041002752,3.487731952640577,3.5020917782655,3.0509294892624204,1126.3220194649757,1133.3763674713439,1101.6367370328066,1136.224699658296,-592.7567544164773,335.41102953629286,332.4809808622583,327.865447119231,154.8216834444146
8.627499999999998,-1.2653032788748708,-0.140989095767484,-0.9019243456147428,-0.010871077635661,0.0132846408816754,0.0033740553536256,0.0042717330573023,-0.0015050430198922,-0.0146250049248405,-0.9998825833303276,0.0131631429892393,0.039774042078141,9.802010421676506,-0.013690054957749,-0.0022481684733994,-0.002943342045162,3.4876975717910663,3.50208684290782,3.0509279447644935,1124.8792704402767,1134.3030825988208,1102.5798930707583,1136.8542128528825,-550.7892659828989,385.5060796469695,382.86912953475087,177.11401200860524,154.821149136414
8.63,-1.0550254678702708,-0.3782573012074168,-1.1242600951978272,-0.015645820468981,0.0140732413249753,0.0012653491612605,0.0042697903734846,-0.0014526561168736,-0.0146302792530918,-0.9998825558856884,0.0140868150956337,0.0358281965913622,9.803078812170742,-0.0135403457489366,-0.0020004915615625,-0.0029757334010723,3.487663114492074,3.502087065215853,3.050923152445986,1123.5680731350608,1135.303897869579,1103.5510826804807,1137.1102697183392,-478.39544502327755,396.4567788303901,354.48211480869674,10.716995136179465,154.82063277366672
8.6325,-0.7185133071479338,-0.6328290636261271,-1.2675647765978912,-0.0183939138344413,0.0138891455634955,-0.0010724435042382,0.0042678159001872,-0.001398676175201,-0.0146394651764348,-0.9998824620366212,0.0146496636313516,0.0319215353515944,9.80413751075707,-0.0133937467049222,-0.0017735364795913,-0.0030077518052447,3.487629908914808,3.502090407322298,3.050915070690523,1122.48729321516,1136.2853664929733,1104.3523036448023,1136.9077978285632,-407.509917060078,398.3427210726742,269.20886581470666,-178.9805158017217,154.82014031929828
8.634999999999998,-0.2500489856480339,-0.9226619760855213,-1.3262444691116873,-0.0191980895593492,0.0116281922031763,-0.0046167001764198,0.0042651176484132,-0.0013498856871425,-0.0146555109443042,-0.99988225385208,0.0147280025399799,0.0281256656313971,9.8051856453001,-0.0132512097212315,-0.0015710116391558,-0.0030362679124806,3.487598252366719,3.502095287311646,3.0509041889845654,1121.5305235497608,1137.295611474942,1104.897127009554,1136.2153671393307,-287.9939296755315,324.34365426224235,111.46807554317168,-304.30666198558146,154.8195788531388
8.637500000000001,0.1338082685576157,-1.1179674208402703,-1.2597450561488837,-0.0178973861027696,0.0080809353112723,-0.0083795524486219,0.0042585133506086,-0.0013140273105101,-0.0146784544744373,-0.9998819388626176,0.0141834318887933,0.0245650490845368,9.806219730547955,-0.0131134854263682,-0.0013952523358455,-0.0030584623599184,3.487567291948253,3.502101004066525,3.050891232284472,1121.047323566782,1137.9070847642847,1104.9096440225183,1135.3862645186352,-128.42315089708603,181.24599508821012,-88.30075163521981,-343.3863588330869,154.81913608801293
8.64,0.4557398582738886,-1.2354801532695858,-1.052558791406603,-0.0150074177403605,0.0037171308063858,-0.0126192508362015,0.0042478027394118,-0.0012962156016242,-0.0147035100839342,-0.9998815891806418,0.0129313079756499,0.0213062938752229,9.80723372894163,-0.0129810332038427,-0.0012471143140149,-0.003072111591062,3.4875363524975564,3.5021070321835217,3.050877244599726,1120.8884077952753,1138.2018414503832,1104.4556232513778,1134.498435345165,-4.775657907885984,45.43237226872401,-283.4042578097633,-351.72019813246783,154.8187191392119
8.6425,0.7449757212773188,-1.2799790863577816,-0.6396313925260876,-0.010951400241108,-0.0012894611984555,-0.0170474762383228,0.0042395875154019,-0.0012979505600181,-0.0147247593326154,-0.9998812713680708,0.0109590172095159,0.0182798104541751,9.808219506051048,-0.0128540402814028,-0.0011258257340655,-0.0030758115445021,3.4875043825091554,3.502112745494791,3.0508623649899334,1121.0234452772427,1138.1342466256283,1103.4926227334695,1133.6276635279733,92.6954312251112,-99.34958364853786,-391.69941541993984,-252.93788440767943,154.8182472422748
8.644999999999998,0.9154840694580834,-1.2508370182828883,-0.1794781943746445,-0.0083130616474892,-0.0047011258426296,-0.0194529777882763,0.0042348523244454,-0.0013200478579321,-0.0147363356816856,-0.9998810773263423,0.0082719374188209,0.0155211977951193,9.809168419860104,-0.0127325391961401,-0.0010290885320445,-0.0030691730698717,3.487470559857752,3.502117467794213,3.050847036677097,1121.3518849514007,1137.7050935321406,1102.4971261742785,1133.233745923127,162.1887758342583,-249.22164950545007,-393.99991400503706,-64.02484127583102,154.8178764268134
8.6475,1.047031124578992,-1.182693010959844,0.3509952611193649,-0.0071635984014833,-0.0068003387830116,-0.0200564606791016,0.0042260394706252,-0.0013538380732049,-0.0147394537322033,-0.9998810347651516,0.0050670184250456,0.0132230356171858,9.810072723537823,-0.0126167125144309,-0.0009530644666941,-0.0030526968161093,3.487436726949156,3.502120466714816,3.050832096594797,1121.834389156414,1136.8881383781008,1101.5226231634442,1133.307539321594,234.23730995828896,-441.63946745982145,-377.38476099324095,138.78470308839147,154.8175281865782
8.65,1.1938201134957827,-1.0858369751666135,0.9872817460776458,-0.0063598141738629,-0.0083123342127873,-0.0183163360522258,0.0042177675044067,-0.0013887629407683,-0.0147366745395451,-0.9998810931867048,0.001577468303981,0.0113287311373906,9.81092631506603,-0.0125069965869468,-0.0008926428937646,-0.0030280199397946,3.4874042336091398,3.502121362435052,3.0508190572158247,1122.5230715011924,1135.4968961948412,1100.610202369312,1133.9276694385687,263.1464097128697,-567.8556698670257,-269.4716506506747,292.1425814861449,154.81713706094428
8.6525,1.3088722856438244,-0.998374177876196,1.4506657814908557,-0.0047846430279964,-0.009819984601686,-0.0146112287536313,0.0042144177949501,-0.0014235102647711,-0.0147282904473644,-0.9998812232236376,-0.0021421831565085,0.0097775861942303,9.811726481288515,-0.0124039865722901,-0.0008419372334303,-0.0029979754595891,3.487372745801115,3.5021197179302344,3.0508098738712808,1123.150121204978,1134.0488600287663,1100.1752649101911,1134.7682522290245,255.19141340051263,-620.1638382873494,-99.5474860038228,353.3444281718651,154.8168349083867
8.654999999999998,1.3899718542969972,-0.890240128549085,1.7712076465179019,-0.0014001247789305,-0.0122487702548272,-0.0088376688644509,0.0042136572984193,-0.0014591484521119,-0.0147141913088497,-0.9998814289376636,-0.0060793970407832,0.0086286733186993,9.812474735094435,-0.0123083880500875,-0.0007946692067678,-0.0029659737485197,3.4873411539592825,3.502115221668188,3.0508053283095165,1123.7990285681947,1132.396077003405,1100.1124649392927,1135.694391579428,260.31261430303425,-676.4030247973403,27.324794900000875,339.50458284506715,154.81656039874562
8.6575,1.4142035862885955,-0.7488359270147498,1.9348378642492008,0.0030707629071606,-0.0150684457343167,-0.0021337541325308,0.0042123697490457,-0.0014867304670611,-0.0146957529623395,-0.9998817091032044,-0.0100219768153731,0.0079404963619602,9.813176813639416,-0.0122210771456837,-0.0007445337860961,-0.0029350974397343,3.487309149674521,3.5021074870574345,3.050804752042533,1124.4516842764936,1130.666844904779,1100.3118888846911,1136.46577514325,261.90204999402795,-682.7560923324496,119.91078523581508,222.9855260495348,154.81631190580083
8.66,1.3445284928119363,-0.5553795316947095,1.8943062895764449,0.0078143508189425,-0.0175504252774636,0.0045124370934838,0.0042128585547424,-0.0014979628998537,-0.014673249150244,-0.9998820565110405,-0.0137692007103243,0.007652868487843,9.8138422632747,-0.0121431019674995,-0.0006857132184415,-0.0029077743937906,3.487277360259784,3.5020972048324857,3.050805036401488,1125.108538818165,1128.9822965417422,1100.712018865472,1136.8093192096756,294.3009821295749,-692.4561139314404,188.09657405871909,17.24641196802056,154.8160996047104
8.662499999999998,1.1453097864669892,-0.265317724456161,1.6325365155929967,0.0128725221986436,-0.0196106415444496,0.0113268234562315,0.0042204184578876,-0.0014895997348309,-0.0146499610283601,-0.9998824019438692,-0.0172173063304016,0.0076369246615365,9.814483752200875,-0.012075719297378,-0.0006132490353163,-0.0028855328008406,3.487246161375664,3.502085357111073,3.0508039397133393,1125.9231891871411,1127.2045643351223,1101.2523717549843,1136.55200720309,308.2838115920795,-585.1187874445708,186.26548483372787,-204.3272645971364,154.815894212808
8.665000000000001,0.8967179752904738,0.0112060380806329,1.278191114831425,0.016096097166866,-0.0204513178106217,0.0154843746847315,0.004238208986293,-0.0014583832457361,-0.0146301986814672,-0.9998826726632374,-0.0202589362423759,0.0077962044521195,9.815116366686087,-0.0120203968938522,-0.0005234696556639,-0.0028688943281303,3.487216297552907,3.5020724580989135,3.0508001837170258,1126.6499578761257,1126.0567026045187,1101.6433462896407,1135.78768288669,306.4092485514696,-367.61996693120346,126.73146499753622,-385.7144037101386,154.81577013738752
8.6675,0.5954701526100808,0.2974679747193255,0.8491261613903617,0.0179830371153891,-0.0203327481858131,0.0178381586191985,0.0042653192718189,-0.0014080507935176,-0.0146196808268828,-0.9998827824794152,-0.0229204322461855,0.0081090040187347,9.815756316946016,-0.0119786543487528,-0.0004142241594317,-0.0028578341985382,3.4871880355312954,3.5020596357370586,3.050793807609247,1127.4552354298987,1125.3664645004662,1101.8860290799723,1134.6234351845392,374.5360162034848,-189.76083386332127,64.91431290984492,-535.7891353605894,154.81570146978427
8.67,0.2208857881740983,0.6133366991808737,0.3303682558845293,0.0189420710073902,-0.0189820184081634,0.0189644267953163,0.0042944675739133,-0.0013464596920235,-0.0146226413859759,-0.9998826892110824,-0.0253053751542974,0.0086753140907443,9.816419782812458,-0.0119518770396333,-0.0002850674543538,-0.0028520903498824,3.487161398444197,3.502048212582902,3.0507865710993256,1128.5226379571427,1125.1078984352023,1101.96791785419,1133.1087372098875,404.8730306338153,-7.929474713729847,-2.865018318516947,-517.7446967432509,154.81568955200447
8.672499999999998,-0.0676137157864061,0.8233855037450382,-0.049328967906451,0.0189762421071458,-0.0167612576102759,0.0186643732818773,0.0043133261143587,-0.0012823320078225,-0.0146379558720342,-0.9998824512575524,-0.0275319591496497,0.0096924425147779,9.817121686544937,-0.0119411056493034,-0.0001372776374311,-0.0028513464371986,3.487135669793367,3.5020391798225847,3.050780444730992,1129.4796005830672,1125.3268171268976,1101.8717039883795,1132.0347117008234,386.5982011720312,152.03259449860877,-62.364055766274106,-332.0587108371392,154.81574226649468
8.675,-0.2934633176865308,0.947101323662274,-0.3175912214322798,0.0182354441167768,-0.0134445935426356,0.0169889940365097,0.0043104439683283,-0.0012221168230322,-0.0146628081119361,-0.9998821533782934,-0.0296740327476989,0.0113402829309867,9.817874312733213,-0.0119468773204378,2.650416705245856e-05,-0.0028551665566288,3.48710986567108,3.50203373954528,3.0507760219206226,1130.4556289630032,1125.8680614076957,1101.6560975753587,1131.4484436557016,381.9304315069388,242.27623306952256,-93.29321303647154,-129.35374411152023,154.81586374753869
8.6775,-0.4416899562382079,0.986238743825075,-0.4624165040855539,0.0166989282860804,-0.009575632174815,0.014200462662469,0.0042837851072363,-0.001169466040584,-0.0146932240670847,-0.9998818599108568,-0.0317544455482837,0.0136155989748921,9.818685854489422,-0.0119691537470006,0.0002027335434278,-0.0028627988170012,3.487083551325172,3.502032399915296,3.05077248630372,1131.3892527406024,1126.5381982922452,1101.405237923197,1131.3879429802655,345.9726886477944,264.2310018259721,-89.73560000710641,98.38055893967203,154.81604435858532
8.679999999999998,-0.472723683263307,0.9284021172329628,-0.4444193168202183,0.014227170824035,-0.0059982718340763,0.0104960854355481,0.0042346804083028,-0.0011271345355926,-0.0147242853740046,-0.9998816371637044,-0.0337819416500215,0.0164528230037844,9.819559880056383,-0.0120073335117885,0.0003874491322402,-0.0028730170346763,3.487056319279234,3.5020348230108773,3.0507690826232854,1132.1854924062416,1127.1892164168253,1101.2074195753232,1131.9403464503998,295.2311475011349,248.16035584472715,-50.42862633844501,337.8975222401022,154.81629798138187
8.682500000000001,-0.3647702738890656,0.7808081114821293,-0.2610369011917705,0.0107811151974779,-0.0029972433623876,0.0064986987717323,0.004164740399131,-0.0010898048832194,-0.0147556441286996,-0.9998814902984824,-0.035610486226345,0.0197837288036194,9.820495256890668,-0.0120603631518415,0.0005769222506359,-0.0028838599376727,3.4870287077386366,3.5020405485847217,3.050764578737148,1132.8654084781083,1127.7790000714692,1101.153094791505,1133.0774305914665,187.74811469071912,174.46685689084916,24.63037370607323,441.50138930774494,154.81668788004308
8.685,-0.1694792320036566,0.629625483898431,-0.0286496601249431,0.0085133154512328,-0.0016909757234288,0.0052832937535652,0.0040722966851942,-0.0010566933908304,-0.0147909862902914,-0.999881372206679,-0.0371869538057651,0.0236113713152025,9.821485110429512,-0.012126711737318,0.0007680936305662,-0.0028930020318931,3.487001594531521,3.502048038764862,3.050758177743916,1133.1242329796955,1128.0615507012797,1101.3305714438536,1134.147853396939,25.828535648911974,78.66301304058396,126.22802387729972,383.1227712698672,154.8170842053355
8.6875,0.0875867421864868,0.4936268240819354,0.1927567494660066,0.0080693285502768,-0.0013186278339026,0.0071433756763295,0.0039634147084921,-0.0010307237117732,-0.0148282309210187,-0.9998812837284364,-0.0385397453225188,0.027792954398517,9.822516189603485,-0.0122043560756467,0.0009587171813236,-0.0028979405242893,3.4869745337985605,3.502056198396824,3.0507494840794056,1132.9945511563528,1128.172315136672,1101.7842349108914,1134.9930444478155,-151.95252672845822,41.32970976207529,262.4736323635784,253.79528405792877,154.81755415415947
8.689999999999998,0.3919296373859786,0.3853753936529611,0.3457729785686217,0.0098589341615187,-0.0012921105324883,0.0110144678778548,0.0038518292417762,-0.0010143813473549,-0.0148623522792462,-0.999881240463272,-0.0396984389406929,0.0320391813856712,9.823569565456895,-0.0122907553180908,0.0011475509599794,-0.002896184510693,3.486946761502836,3.5020640849305766,3.050739168167533,1132.3644703460532,1128.26819925009,1102.6429396056712,1135.4168298172283,-303.2485400470685,60.28768361919869,359.26808629413995,30.31657016035277,154.81820199029403
8.6925,0.5909928148334272,0.3543040979267724,0.3362422976246737,0.0126088206158893,-0.001204830498502,0.0140752460760277,0.003750491753209,-0.0010150830397597,-0.0148886789326308,-0.999881253692797,-0.0407975263620248,0.0360810051476985,9.824621173867994,-0.0123828398574404,0.0013343463031832,-0.0028856745416384,3.4869176579635055,3.50207058597188,3.050728599769256,1131.4783084561172,1128.473753554768,1103.5805753423624,1135.1446272986173,-407.0157466581168,145.071383375057,404.4583294848785,-239.43631932425785,154.8188104658152
8.695,0.6938384951049607,0.3852765068503947,0.1735747114657298,0.0157149507751063,-0.0009455262963797,0.0163310035652632,0.0036653806718998,-0.0010394296020199,-0.0149072945809472,-0.9998812930006524,-0.0419619013348451,0.0397887764294556,9.82564298773754,-0.012477160782372,0.0015197335679583,-0.0028648070231949,3.4868865182063407,3.5020756314312917,3.050718749557168,1130.3293916127625,1128.9935561669652,1104.665231253096,1134.2196482206068,-526.0090852548866,331.8807932869937,485.28910309583455,-523.0590462615186,154.81948811197717
8.697499999999998,0.6933914426429258,0.4799028878327438,-0.1699481944914038,0.0192546236732709,-0.000347757192805,0.0178565463258488,0.0035973755299166,-0.0010833575353933,-0.0149196989774888,-0.9998813362380674,-0.0431141458689598,0.0431314323653569,9.826604642790484,-0.0125701758799563,0.001704888540225,-0.0028321784513719,3.4868532632487095,3.50207993261804,3.0507097838980166,1128.848263029843,1130.1331575212027,1106.007020857841,1132.52933206731,-527.21721147187,512.022725894496,477.75790825095817,-675.3884168840012,154.8203782547969
8.700000000000001,0.6006488532646904,0.5881596312448252,-0.5383845280132658,0.021618291588375,0.0005512685442664,0.0180105078263699,0.0035469208982274,-0.0011384619838257,-0.0149255948368906,-0.9998813965688534,-0.0441000812840745,0.0460856703755963,9.82747434013956,-0.0126584966318941,0.0018912449441152,-0.0027866406643836,3.486818484922832,3.50208356122708,3.050700576897869,1127.6933055554027,1131.5536697964383,1107.0540207943511,1130.8427061361863,-410.4567144104562,654.6247810288492,381.0376828863668,-677.5522473042961,154.8211815743718
8.7025,0.4423014449575078,0.6975887190828626,-0.9245634208673555,0.022917853005361,0.0021034293696691,0.0165503497956946,0.0035156238162671,-0.001200009085003,-0.0149253637973875,-0.9998814698675228,-0.0448459258518066,0.048606358920169,9.828219847907414,-0.0127390785717492,0.0020803767427223,-0.0027274749500436,3.4867826632946914,3.502086249621358,3.0506901231537498,1126.7959794577907,1133.4062814263475,1107.9122092722732,1129.141570830788,-297.9645255633069,787.9617409425667,299.6470440505305,-645.8424526922875,154.82204516192377
8.705,0.2581486074659931,0.7836324846895965,-1.2665494320070587,0.0232128973046041,0.0043145852105032,0.0129847788694562,0.0035002234834755,-0.0012595991779053,-0.0149204532350556,-0.9998815550955223,-0.0452113755498758,0.0507425069808012,9.828810665856045,-0.0128094272712968,0.0022737906578556,-0.0026543486977268,3.4867464142055966,3.502088620195421,3.050678576985719,1126.2034829275865,1135.4934785011503,1108.5522560146035,1127.6134938727255,-154.86951061505704,845.7216310459307,197.46202937021116,-537.2764819040799,154.822955716568
8.707499999999998,0.0736713997728171,0.8156762010802399,-1.4896708612647436,0.02272004807162,0.0071895013766297,0.0069567780398486,0.0034990424093271,-0.0013161728693874,-0.0149092066259226,-0.9998816805571475,-0.045206997536315,0.0525133155652177,9.829219032092324,-0.0128676453756876,0.0024726990373737,-0.0025677685765957,3.486709846297195,3.5020911976746487,3.0506662260455295,1126.0216319047156,1137.6348895815763,1108.899519419124,1126.4551884212683,7.657160860616098,886.9633988110285,89.06116321885264,-403.205452765206,154.82391907639055
8.71,-0.1227910578201855,0.7727833813625377,-1.5735389419526171,0.0218617282442676,0.0106073835271063,-0.0009914392218527,0.0035100594176575,-0.0013724498098044,-0.0148900862779881,-0.9998818710061834,-0.0449220186167942,0.0539452423066906,9.829422031815593,-0.0129124821076728,0.0026780059581983,-0.002469168933695,3.486673024185224,3.502094295218308,3.0506539050634145,1126.2417687318896,1139.928295495206,1108.9975618306978,1125.5974666088991,136.97616897536724,749.1879542310664,-8.205893496823217,-225.03248930043927,154.82513110050942
8.7125,-0.2580618077507658,0.6689566547582371,-1.4963414257850975,0.0211403170123595,0.0127301000304973,-0.0064648487638483,0.0035287490280685,-0.0014290234183128,-0.0148645954663979,-0.999882119362084,-0.0444057674311572,0.0551131478012515,9.829403807546,-0.0129433651002191,0.0028903420578987,-0.0023608527009773,3.486636321283331,3.502097453748703,3.0506430082769334,1126.7065127495923,1141.3808293527322,1108.85848995164,1125.330025974766,215.9598353168324,448.5668875805442,-88.6835695066742,-26.84855440584749,154.82618401911233
8.715,-0.3624930429536343,0.5053502182306593,-1.313550518245986,0.0204117523194323,0.0140442572534893,-0.0097266079442387,0.0035461227704352,-0.0014836846603496,-0.0148362579779668,-0.9998824085119618,-0.0436522963923332,0.0561789288845272,9.829157116891027,-0.0129603902088998,0.0031099958875269,-0.0022459210477683,3.4866000157334107,3.50210078158962,3.0506339248189107,1127.3215679084735,1142.1711299331084,1108.5541439831643,1125.46322383687,269.7250415331464,184.81473960140687,-160.8167185126469,124.88925323671292,154.827276885624
8.717499999999998,-0.4534253177259304,0.2560188970907195,-1.0447396987787811,0.019372686385611,0.0151639671924737,-0.0114071399628199,0.0035550742036997,-0.001534869560144,-0.0148092729188344,-0.9998827047301156,-0.0426686181567845,0.0572682105808832,9.828684505455907,-0.0129642532137671,0.0033368542722914,-0.0021281418359387,3.4865645496499718,3.502104631402202,3.0506266466893552,1128.055137957258,1142.304903050739,1108.054406359077,1125.9544722409491,244.12676270486196,-69.04244084515825,-201.8587671870276,212.0003594592286,154.82862907486503
8.72,-0.50048294511388,0.015407294393284,-0.8217553045086134,0.0184039247147295,0.0157991976743851,-0.0120322313955566,0.0035509838155263,-0.001579806425056,-0.0147854045618784,-0.9998830041454708,-0.0414374214451945,0.0584583243738091,9.827999305919295,-0.012956175579923,0.003570293450549,-0.002011661994411,3.4865300350731308,3.5021098131544286,3.050621194058993,1128.542201721998,1141.8259177288824,1107.5448501472292,1126.5232256341662,144.76253392156207,-268.59157416697946,-223.021869773958,232.59624913631345,154.82978580804715
8.7225,-0.5151824698739212,-0.2433540288077298,-0.6243945598582185,0.0175773400652783,0.0158184885018494,-0.0129360267542123,0.0035354219191056,-0.0016186348894748,-0.0147671171081736,-0.9998832656829832,-0.0399976088337587,0.0597074521533393,9.827125793623786,-0.0129377280192927,0.0038093298575407,-0.0019008534494794,3.486496574853964,3.5021174376045208,3.0506168435526826,1128.778950626866,1140.961945179904,1106.9392970102067,1127.1174534866311,25.08603351066585,-399.8748028613022,-289.36328671408165,241.52339542934243,154.83096865992545
8.724999999999998,-0.4865560548014859,-0.5502520042553866,-0.4200820673741528,0.0163644456173305,0.014792686483715,-0.0142874747863611,0.0035127336251483,-0.0016545162407716,-0.014756050093804,-0.999883446587824,-0.0384446941469051,0.0609222504097061,9.826098853910825,-0.012910682313346,0.0040527407601932,-0.0018001431704763,3.4864643676734315,3.502127043261676,3.050613524621862,1128.667631889551,1139.8265437145765,1106.098033713659,1127.7308426113127,-116.30134886211636,-382.7852425284474,-325.1702488777429,197.41200751333605,154.8324127644325
8.727500000000001,-0.4134200908132264,-0.7821355029504452,-0.2725812630586718,0.0145837045653525,0.0128551275267398,-0.0153863843583255,0.0034862788338767,-0.0016866397058867,-0.0147505809074145,-0.9998835628583416,-0.036791938199118,0.0620300782651707,9.824963448010607,-0.0128768878947949,0.004299200428779,-0.0017137119551821,3.4864329008084822,3.5021373909233167,3.050611817319264,1128.1974438825553,1139.0480189672614,1105.313445765818,1128.104513524198,-267.79174261378466,-230.08074586406153,-323.32275167418123,118.62765887979512,154.83363340786767
8.73,-0.2805146459491288,-0.9667172058752956,-0.1448368040954776,0.0121508399938646,0.0100518120694531,-0.0162542753902071,0.0034575652349872,-0.001709463162554,-0.0147473267216991,-0.9998836704368254,-0.0349547615040002,0.0629961866429244,9.823773037033732,-0.012838123590239,0.0045474258133419,-0.0016453123079406,3.486401713983431,3.502147681991928,3.050611947092963,1127.328673176482,1138.676139985256,1104.481419955288,1128.3239809057116,-404.41594292409576,-62.890120099121994,-332.61440618609663,67.38677305571831,154.8348690588782
8.7325,-0.1054733985335562,-1.1017201368693395,-0.0345751721145982,0.0099447118725266,0.0069552202310277,-0.0167604701541393,0.003428620405089,-0.0017213979971678,-0.0147445386348456,-0.999883791558592,-0.0329216592644451,0.0637798761504771,9.822587003063184,-0.0127959612437146,0.0047962495767291,-0.0015982399342773,3.486371129785942,3.502158413082861,3.0506144622965503,1126.1753641679352,1138.733568366766,1103.6503737348878,1128.4414473894765,-504.44133134584297,124.50801313477972,-323.33733658458254,34.179214343255325,154.83611586059413
8.734999999999998,0.086323384174941,-1.17445345028637,0.0482741786565167,0.008911095891995,0.0038459666930832,-0.0165531404059337,0.0033969743475109,-0.0017196665257511,-0.0147399912351127,-0.9998839721371792,-0.0306521457697356,0.0644315235235906,9.821468097646365,-0.0127517408017347,0.0050444960974477,-0.0015749313156619,3.486341350314969,3.5021701002114445,3.0506205827979933,1124.8064665197535,1139.2986800509295,1102.8647332723651,1128.494876977428,-603.7372408099111,334.55585052883407,-328.40135607852386,26.378207273451572,154.8373755670918
8.7375,0.2660092227358332,-1.1961732344731495,0.1073795851083302,0.0098944095924202,0.0003190672789497,-0.0154914399657599,0.0033628221808168,-0.0017030696454669,-0.0147341674651499,-0.9998842064060606,-0.028133238900795,0.0649526418625657,9.820479542796035,-0.0127064434963442,0.0052910914456275,-0.0015765374449498,3.4863120473173344,3.5021831919869,3.0506296548719427,1123.1566779638852,1140.4063476194103,1102.0083669544947,1128.5733384258435,-565.2566438497187,440.00875638655486,-299.23168390532607,42.949554096360416,154.83890273023312
8.74,0.3182173156486692,-1.16772038568456,0.1229169098625698,0.0124107871604496,-0.0025240897960032,-0.0143161605473052,0.0033316996723846,-0.0016709283641217,-0.0147306028892997,-0.999884423491094,-0.0253599674241637,0.0652428258773985,9.819681885655571,-0.012660606596188,0.0055351536738698,-0.0016024107468208,3.4862828729036766,3.5021976582614145,3.050638701470936,1121.9801833005045,1141.4987238328629,1101.3685748528385,1128.7096247479099,-384.12619454892047,420.8849630624554,-246.21390814204807,79.93315867576483,154.84018965810472
8.742499999999998,0.2215876280359701,-1.1015617849105708,0.1166803583853021,0.0154718012589287,-0.005422537112733,-0.0135060437725174,0.0033072575209096,-0.0016267330407104,-0.0147287225866706,-0.999884610889271,-0.0224064675464091,0.0652423652756345,9.819129036894827,-0.0126143506527285,0.005775892257032,-0.0016500467052537,3.486253590662132,3.502212714049247,3.0506461976029358,1121.2360469911407,1142.510772434722,1100.7772974137847,1128.9730042192225,-191.08438017730543,374.3874618526985,-261.9217216638435,152.83166500937452,154.84149413977113
8.745000000000001,-0.0771809765235503,-0.9931933537557668,0.1140179456689665,0.0182846581181177,-0.0087328092951661,-0.0137448311872167,0.0032933726997303,-0.0015774156771714,-0.0147277579497687,-0.9998847530991763,-0.0194125600757538,0.064890284463719,9.818865212649248,-0.0125673559716558,0.0060127705710472,-0.0017151367095436,3.486223594625197,3.502227925849164,3.050650622492211,1121.0247613996175,1143.3706611421267,1100.058966244519,1129.4737830729568,46.35005249792087,230.8888410678813,-275.433830486784,216.86898369472397,154.84308413891708
8.7475,-0.4542524032513586,-0.8926669674179819,0.1380557033338701,0.0192441712070924,-0.0108863672288121,-0.0149948609058595,0.0032911271834693,-0.0015297886403009,-0.0147271064485853,-0.9998848427552304,-0.0165136279302942,0.0641822297379347,9.818922104502157,-0.0125189468137148,0.0062454833571643,-0.0017918533883126,3.486192510347317,3.502243242334839,3.050650611960004,1121.4677972536304,1143.6652166400615,1099.4001282613508,1130.0573491376963,296.0360755325971,20.73921470182953,-283.23083619771927,267.62996050889205,154.8444329593651
8.75,-0.9045904952421367,-0.7993887618998256,0.1988785327693887,0.0182491013720357,-0.0121359092029392,-0.0163107119408734,0.0032987174650405,-0.0014860124114273,-0.0147263957725805,-0.9998848866117164,-0.013752243840905,0.0631705177252779,9.819316792752259,-0.012468253804707,0.0064738903926217,-0.0018732941741152,3.486160314619448,3.502258199243648,3.0506455504221153,1122.5049417772805,1143.4743572156356,1098.6428120635308,1130.811932875501,558.4270761980607,-181.0308080898172,-349.4377066246911,367.16255879576266,154.8458099304184
8.752499999999998,-1.437350318867868,-0.7073547511576436,0.2913809981766333,0.0143984587168381,-0.0131210120024283,-0.0163333785723098,0.0033122640818327,-0.0014421641005999,-0.0147260048525908,-0.9998848963625429,-0.0110507286747837,0.0619474417458687,9.820050405916216,-0.0124143934384331,0.0066979268666356,-0.001952129082801,3.486127459706164,3.5022727085032845,3.0506360857796824,1124.2599326346203,1142.7600625996129,1097.6529397282277,1131.8931619316747,692.9827925270555,-318.6382212714718,-360.1865190201698,419.423655960034,154.84749803081797
8.755,-1.8058584454554183,-0.6433254974000492,0.3515005624241369,0.0089399033026585,-0.0143552551024513,-0.0143279522646051,0.0033298938306621,-0.0013940134853678,-0.0147257891349696,-0.9998848862920494,-0.0083261948196748,0.0605664603307038,9.821107807794505,-0.0123566200263593,0.0069174511705941,-0.0020213785859627,3.486094132468746,3.5022870341699184,3.0506236151423427,1125.9698557399163,1141.881166109278,1096.8418794684296,1132.9090511553015,690.377983758964,-375.30318055613446,-292.69687542050605,418.5694451173986,154.8489363639295
8.7575,-2.0310019358456928,-0.576264745239572,0.3597956401751752,0.0018417574064457,-0.0162309477365182,-0.0109543424644484,0.0033493208582544,-0.001338695027388,-0.0147250894848349,-0.9998848790978706,-0.005522828708989,0.0590898737264811,9.822458107352844,-0.0122944284229689,0.0071321195465385,-0.0020750277946858,3.486060780419052,3.5023021170905375,3.050609178913405,1127.7118225534157,1140.883546696832,1096.1894553511247,1133.986009157262,672.3225437377979,-394.6889110541509,-211.63632558277305,430.0316416049955,154.85040900323787
8.759999999999998,-2.1139815528336294,-0.4943419093975735,0.3222935293759944,-0.0054694187954367,-0.0181433070161097,-0.0080267618890735,0.0033708674061762,-0.0012798882986352,-0.0147248883601688,-0.9998848557784286,-0.0027143620104633,0.0575306014741087,9.824056343723903,-0.0122275533189628,0.0073414159254249,-0.0021084740815879,3.4860279895391,3.5023183147287966,3.0505940051525013,1129.3314684586046,1139.9077215540078,1095.783697840516,1135.059209363326,591.8643869594217,-365.17162148801367,-80.4504279291779,415.7693023147008,154.85191075619832
8.762500000000001,-2.0340615558724604,-0.3873488170000626,0.2605897203506625,-0.0120027904181902,-0.0196524398947401,-0.0071501203429311,0.0033977124800981,-0.0012264862129781,-0.0147264752544646,-0.9998847778361593,-7.821307483412038e-05,0.0558465059068433,9.825845839840653,-0.0121559692716995,0.0075446759668555,-0.0021186651501682,3.485996089151573,3.5023360129982537,3.0505794963720247,1130.6711444882133,1139.0576885893915,1095.7872032114788,1136.064855668836,505.1501591252992,-333.69941995355714,112.48980900530177,416.81139132058735,154.85344784078399
8.765,-1.7983853488677086,-0.2312468329541574,0.2185399971671785,-0.0183866793338266,-0.0207437285414803,-0.0085725332220114,0.003435927872004,-0.0011884356843335,-0.0147285569306145,-0.9998846340895698,0.0021859110281838,0.0539380761398986,9.827760949325107,-0.0120798679818331,0.0077411307375527,-0.0021039859855624,3.485965255077828,3.502355157678791,3.0505662694408886,1131.8572192542315,1138.2392244542395,1096.3461468855423,1137.1432663199291,360.8938775286596,-267.628436917456,299.00432074629447,374.0883069363297,154.85533278386043
8.7675,-1.5373225091262173,-0.0834940472411106,0.2427668695727105,-0.0219998865036732,-0.0211017498868593,-0.0107192331493404,0.0034887905410516,-0.0011671884433422,-0.0147308166231135,-0.9998844162491826,0.0040457916348218,0.0517567440499949,9.829729685846896,-0.0119995214317073,0.0079301003016053,-0.0020639626497348,3.485935864758052,3.5023751174626474,3.050554768448343,1132.475613875856,1137.7195464048043,1097.28222481521,1137.9352972035172,176.8760474805628,-182.53173689407953,462.2061820617101,303.40200224870057,154.85693662453568
8.769999999999998,-1.2734589730860324,0.0750358745330949,0.3301145349758959,-0.0235326255350942,-0.0210835447402867,-0.0117535626570709,0.0035581617497351,-0.0011637354687605,-0.0147361464202964,-0.9998840739669645,0.0054787757333157,0.0492793616335672,9.831676935746534,-0.0119150561492001,0.0081111542357755,-0.0019992218801989,3.4859068590977382,3.5023966134406064,3.0505450249953534,1132.741599491634,1137.3265657697696,1098.6571777958507,1138.6602763311723,51.88691514225964,-156.68122272943316,682.6816219482977,317.99161816292815,154.85857374984394
8.7725,-1.0046988921013964,0.2693684932432912,0.4638171387230108,-0.0236720552705908,-0.0207183291030324,-0.0102587860280797,0.003638670774133,-0.001172796298157,-0.0147439091675596,-0.9998836388869604,0.0065871883084224,0.046620457215978,9.833527379159218,-0.0118264804598779,0.0082840316764155,-0.0019112013745138,3.4858775129500703,3.502419005088664,3.0505367610241607,1132.7350484515675,1136.9361402911572,1100.695632924952,1139.525255294332,-42.74430684003406,-139.6888961752447,789.0019524110488,324.04081049275584,154.8605752911267
8.775,-0.8267894687942062,0.4279603109688581,0.5573220608944461,-0.0236102469521249,-0.0200776496036166,-0.0073671690234752,0.0037262156777462,-0.001183243300274,-0.0147543834569581,-0.9998831320135853,0.0075881862673178,0.0438642996077777,9.83520872133695,-0.0117336130438767,0.0084488860301211,-0.0018018205424234,3.4858482212391992,3.5024416326708714,3.050528969372376,1132.527877957434,1136.6281212888932,1102.6021875579063,1140.2804803836364,-108.88590648134942,-133.20376457893792,773.9675903449272,310.5646871730805,154.86227277703827
8.7775,-0.6632923663376039,0.5726878048546113,0.5990761269805549,-0.0250070910935847,-0.0189342199452592,-0.0042710650733542,0.0038144584604519,-0.0011891200467361,-0.0147686209369549,-0.99988256767381,0.0085982299199972,0.0411361587467385,9.836654673978144,-0.0116360848795199,0.0086063028977463,-0.0016736869481745,3.4858186828813142,3.5024647385212053,3.050521010292959,1132.190618919161,1136.2701214682627,1104.565470876676,1141.0780787301971,-145.54261955816568,-163.60513529915423,769.8460762089492,320.4985044615752,154.86399912932893
8.779999999999998,-0.4689281967790008,0.6965882611231116,0.5943682318799555,-0.027874045431885,-0.0172544980180084,-0.0016573250070469,0.0038919063258148,-0.0011910265576026,-0.0147854506306342,-0.999882007189986,0.0096065472419239,0.0386594985825097,9.837807563376359,-0.011533456977015,0.0087572408935726,-0.0015301810453078,3.485787857206958,3.502489328869802,3.050512952685573,1131.8001648596432,1135.8100956123976,1106.4514179389505,1141.882972905944,-156.04266503935213,-224.1295342929893,707.3661601556328,309.94479868145095,154.86574789068024
8.7825,-0.1942338914271655,0.785056879916671,0.5513633547572265,-0.0316174026199954,-0.0149263861659149,0.0001214277478429,0.0039500285530622,-0.0011931514976241,-0.0148044505234493,-0.9998814879090714,0.0105316406233255,0.0365945883028939,9.838620448596288,-0.0114253462631461,0.008903226286298,-0.0013752884189542,3.4857550175052046,3.50251536021331,3.050506185975736,1131.410405593964,1135.1494737967976,1108.1023016774548,1142.6278027236046,-154.10296337069985,-352.11947884498795,642.0177876720023,289.6960736607527,154.86752158510475
8.785,0.238383685584247,0.8444759490764119,0.4930204246089083,-0.0350349165688131,-0.0118308255030097,0.001227298359342,0.0039907415465172,-0.0011989591028683,-0.014823464309652,-0.9998810310002036,0.0113041549183707,0.0348895048223804,9.839058487105277,-0.0113117601789212,0.0090464634329339,-0.001213316004528,3.4857204940896,3.5025420049304845,3.0505010919693767,1131.0296500427896,1134.0494982181724,1109.661506877311,1143.331453274248,-112.60309279825798,-456.57136140885075,486.7389003190569,207.6259293604793,154.86967582900635
8.787499999999998,0.650558154130261,0.8592207266031813,0.4668644686026843,-0.0353707670960703,-0.0095383079556987,0.0013463879797974,0.0040133942939535,-0.0012111676622349,-0.0148386285387502,-0.9998806941842808,0.0118715868096574,0.0335359129992838,9.83910001272517,-0.0111933900077489,0.0091898809569115,-0.0010489545160635,3.4856862901372687,3.5025675625276564,3.0504979147363134,1130.8473901299728,1132.8666169897535,1110.5359961790496,1143.6659323704068,-32.20327046973986,-514.7252476540975,254.3736133897312,63.92059646331201,154.87149010934078
8.790000000000001,1.0400226543971125,0.8504982084467394,0.4861208868132803,-0.0323977134102425,-0.0075230255980808,0.0010961271572521,0.0040229410049844,-0.0012291076435423,-0.0148473550063091,-0.9998804993400076,0.0122485461870167,0.0324075001488102,9.838737001312351,-0.0110716935120348,0.0093371086531119,-0.0008868612943777,3.4856543106487665,3.502590001226753,3.050496716442448,1130.868633690441,1131.4758719799015,1110.9333749442599,1143.6510562565647,64.32144198110012,-622.3061830025863,68.7460943659409,-97.06242206178403,154.87332100620893
8.7925,1.3880130259161558,0.8301564425061396,0.5618920205985982,-0.0262449214168321,-0.0051505867019342,0.0010919365245644,0.0040239841867865,-0.0012516003398264,-0.0148487656113443,-0.9998804487474576,0.012462174752252,0.0313787061693353,9.837975248481609,-0.0109487398235431,0.0094920756892008,-0.0007315916469049,3.485626021849256,3.5026077386831047,3.0504978881132025,1131.1689973398784,1129.7550860747403,1110.879726650879,1143.1806202600978,154.93652099551937,-601.0022224738636,-98.1660984252098,-247.7091450005484,154.87553322914684
8.795,1.5327336368631872,0.8173487680338724,0.6504546246773639,-0.0202506613040498,-0.0034123242141671,0.0017496777090542,0.0040229703124551,-0.0012794122492151,-0.0148473262921283,-0.9998804541527672,0.0125035049035212,0.0302833484995012,9.836833933749823,-0.0108267713971273,0.0096584463962267,-0.000587345189175,3.485600632556671,3.502621844754527,3.050501039653741,1131.6433162954183,1128.4708608675328,1110.442544452134,1142.4125105315622,225.3530833423604,-431.8489398556216,-238.67348489293565,-377.5677409705009,154.87738615502596
8.797499999999998,1.511993272678257,0.8215363218214482,0.7264643432489448,-0.0144440578720444,-0.001868929186087,0.0034273971454911,0.0040182978838379,-0.0013036067828113,-0.0148448795919287,-0.9998805017872984,0.012558719680481,0.0291082267943471,9.835344325198923,-0.0107079487499806,0.0098387415079292,-0.0004576381521031,3.4855772518539223,3.502633712095878,3.050505482418062,1132.29576275659,1127.5958413754627,1109.6863592264149,1141.2927815552457,304.0161280221107,-239.27874643623807,-380.55583480616815,-556.7074244128929,154.87924470293953
8.8,1.3282280920344445,0.8542055690883703,0.7502485690590395,-0.0088223164817874,-4.788457279368785e-05,0.0066686176111642,0.004012367548486,-0.0013167089015834,-0.014842717423414,-0.9998805670956412,0.0127855146972209,0.0277615957655794,9.833548493776432,-0.0105939708525412,0.010033878584631,-0.0003451468328797,3.485555119993069,3.502645238240324,3.0505098175644836,1133.1633969355291,1127.2744671353514,1108.5397652781028,1139.6289734094971,309.79098339625733,27.10840411541116,-438.3587900637164,-645.7900069937649,154.88147625873452
8.8025,1.0906944894742219,0.9041361013665956,0.682051218921307,-0.005948000739986,0.0013737406002225,0.0100367698439351,0.004008779765153,-0.001318250413232,-0.0148426301057834,-0.9998806064278656,0.0132041164330253,0.0261325941642493,9.831497623342145,-0.0104858545235011,0.0102429217133554,-0.000251825752032,3.485533278035476,3.5026587769657045,3.0505137196394334,1133.8447176735715,1127.7313833960395,1107.494565276096,1138.0638315202764,237.18806954284616,337.80510146518634,-408.0744701186534,-636.7185427233283,154.88333290666256
8.804999999999998,0.833003783861745,0.967746369665516,0.5062635229847618,-0.0049092257473758,0.0029365285358732,0.0132956554524179,0.0040087601717541,-0.0013062205570588,-0.0148430782350995,-0.9998806387619588,0.0138652912634823,0.0241620682216705,9.829249601972732,-0.0103839525126159,0.0104630504919407,-0.0001788498826271,3.485510435667752,3.5026761849078705,3.0505177159238097,1134.3493372832431,1128.963492642677,1106.49939292751,1136.445380695881,156.35908718861458,605.5378410881493,-368.70859679400974,-633.1485689846804,154.8851812648126
8.807500000000001,0.601821992681761,1.0268800637964404,0.250946567747118,-0.0047553988234242,0.0050447239293956,0.01578253150809,0.0040137107638372,-0.001285892465077,-0.0148393991173703,-0.999880718135034,0.0146750912817932,0.0217975392755865,9.826866984618112,-0.0102880351611813,0.0106899258859921,-0.0001268044275174,3.4854858411687246,3.502697864339122,3.050521971503492,1134.6265131095147,1130.7590726014807,1105.6510222921256,1134.8980886753525,43.74214090434405,814.0452151461977,-283.7256982708834,-571.4612943852915,154.8870184990029
8.81,0.433681367391275,1.0546138784246168,-0.0628721290557682,-0.00491833057248,0.0080278291634454,0.0166290271227537,0.0040258895297608,-0.0012624214082199,-0.0148306872858905,-0.9998808411195508,0.0155395326699409,0.0189793902763177,9.824414321007438,-0.0101973612405311,0.0109183538090818,-9.551970075963507e-05,3.485460386626075,3.5027229944146567,3.050525942486789,1134.5680479877649,1133.0337187184086,1105.0807644361553,1133.5880742239544,-109.1877735407469,1042.5945187404322,-173.73210583963373,-483.2494319889117,154.8888365287906
8.8125,0.3162408312024461,1.0212657644585974,-0.4385864528312709,-0.0049748909020115,0.0121662987840396,0.0153829454692547,0.0040446449288075,-0.0012410576279992,-0.0148191197300531,-0.9998809734116194,0.0163604117650582,0.0157164575701914,9.821955953798696,-0.0101108862782427,0.0111427795152495,-8.417776933617593e-05,3.48543480414962,3.502751334875108,3.0505296221338387,1134.080574241811,1135.972045195182,1104.7823617629276,1132.4818415154084,-246.1365514284388,1057.6897432953783,-47.55096397844718,-304.84765600373674,154.89098758825475
8.814999999999998,0.2806665731497566,0.9261999461844032,-0.699528140089633,-0.0043599934780413,0.0154859196670536,0.0126088617240721,0.0040633907714346,-0.001226761916581,-0.0148098309427256,-0.9998810632025104,0.0170427550271177,0.012146052173613,9.819554016345668,-0.0100273496999391,0.0113577257372495,-9.142239116364948e-05,3.4854102245015195,3.5027828018310663,3.0505332859304515,1133.3373652306227,1138.3221674348845,1104.843009616263,1132.063835943936,-358.82875022447325,859.7613954956634,72.89545292154568,-47.45564968538187,154.89274789813751
8.8175,0.2916766108410165,0.7636664798659794,-0.860924838290195,-0.0029501589209581,0.0181150218704831,0.0088242038745811,0.0040740119330646,-0.0012267993272698,-0.0148106629658792,-0.999881021796142,0.0174417539062323,0.0084481621504699,9.817266481190883,-0.0099452344790718,0.0115581921105136,-0.00011535136001,3.4853865002961135,3.5028172727497124,3.0505366711766104,1132.2864304906884,1140.270852172661,1105.1468390275354,1132.2445632669815,-518.4853937477427,711.1467910263652,162.75011906925286,212.93091241956367,154.8944659010014
8.82,0.3444955671092895,0.5103328314583505,-0.9219930089372084,-0.0011888895371217,0.0202129346583014,0.0045224992802979,0.0040739070003659,-0.001240665526036,-0.0148230957888742,-0.9998808374231122,0.0175577319567134,0.0047043003317564,9.815144534508567,-0.0098628753387041,0.0117398475813471,-0.0001531822249588,3.4853630322442304,3.502853389098634,3.0505388783439984,1130.7449382618838,1141.8779013900169,1105.6567602116095,1133.128490506034,-598.4272269737456,443.4369493008917,191.21758719133308,415.3464445781455,154.89646734138353
8.822499999999998,0.4214150846408026,0.2709719453991,-0.8731260042609728,-0.0001651021042153,0.0210911312511242,0.0017414388616106,0.0040695395731292,-0.0012675094535947,-0.0148426523967549,-0.9998805470520066,0.0173892142388478,0.0008288666462094,9.813231012262637,-0.0097784071598362,0.0118993093128312,-0.00020141313587,3.4853388875037936,3.5028894514399265,3.0505395005961087,1129.2942943558203,1142.488036919165,1106.1029269634919,1134.3212954898715,-596.9103524206705,86.09364711313465,164.33648477352267,531.8643063843944,154.89807620006178
8.825000000000001,0.5395857712015765,0.0275776028669106,-0.7508075179173836,0.0003986478590003,0.0210926471738174,-0.000114794782413,0.0040656238714714,-0.0013075813011841,-0.0148652559291554,-0.9998801884640992,0.0169078647774835,-0.0032202589931729,9.811560006126799,-0.0096896860637448,0.0120343468158879,-0.0002562845162947,3.4853131233446764,3.502925623407517,3.050538346855836,1127.76038649978,1142.3083696255824,1106.4784426354772,1135.7878120379564,-673.2726723187027,-239.55099696496185,136.3663272068848,649.7140446501256,154.89961252721133
8.8275,0.7325502418355107,-0.2442415108175051,-0.5599199332773062,0.0011845755521741,0.020181088631569,-0.0015004553801423,0.0040605707477933,-0.0013572492002938,-0.0148875863947585,-0.999879819165553,0.016157932516234,-0.007355997496547,9.81015656821077,-0.0095944827523234,0.0121438643339341,-0.0003140332211139,3.4852855796702316,3.502962461512985,3.0505354199286616,1125.9279309942262,1141.29028193434,1106.7847585995264,1137.569865713123,-656.2535224877988,-473.1923593156839,83.85213193975537,612.4338965947427,154.9013592972455
8.83,0.9284079449139072,-0.4415966078440765,-0.3903682819835181,0.0024061991217618,0.0188458898920439,-0.0021074779728167,0.0040526984532866,-0.0014125721478712,-0.0149066051324197,-0.9998794952646838,0.015185013555143,-0.0114852007123225,9.809036467095636,-0.0094907683231719,0.0122278978322265,-0.0003710728497023,3.485256934238633,3.5029991659521715,3.0505310292169487,1124.4791188873417,1139.9424078290047,1106.897703295176,1138.8499815209295,-548.2007966459331,-588.4657937731197,12.814787969412285,421.936883429946,154.90272569944926
8.832499999999998,1.1383384132689685,-0.602767679774416,-0.2330251017709495,0.0046169210824872,0.0171643045459032,-0.0021712091326304,0.00404204149171,-0.0014676798456886,-0.0149211521131407,-0.999879242439802,0.0140683432831202,-0.0155470087434652,9.80820634372056,-0.0093769246109087,0.0122876358131112,-0.0004241564572184,3.485227889167807,3.5030348857619606,3.050524686594911,1123.1869270109971,1138.347952965475,1106.8488325393735,1139.6795501302722,-481.0719788560321,-634.6713937022204,-48.74590267099086,231.1067838997226,154.90399055600048
8.835,1.3366335695131817,-0.735602331008602,-0.0954816112188343,0.0077313499850763,0.0154903886140235,-0.0018519568243666,0.0040269326534746,-0.0015170393582044,-0.0149300520814551,-0.9998790946343096,0.0128787554956303,-0.0194471740685662,9.807664958614774,-0.0092519514980572,0.0123252617775632,-0.0004707485398625,3.485198734616185,3.5030684576930615,3.0505169032776327,1122.0737589930611,1136.769050860493,1106.6539737818207,1140.0055154404283,-390.99509603532425,-580.7925812275699,-118.06930856107984,-3.8465216520756607,154.90516550462186
8.8375,1.492156699741398,-0.8399174492583991,0.0170599974775111,0.0118907513270109,0.0141661774252848,-0.0013995061804166,0.0040094268215102,-0.0015560224664205,-0.0149342707124928,-0.9998790376967306,0.0116675782064025,-0.0231663355100959,9.80740373748438,-0.0091155083629272,0.0123437401068171,-0.0005091313120234,3.485169680858845,3.503099487206536,3.050508762607835,1121.23195153082,1135.4439900593368,1106.258485996568,1139.6603175220118,-293.070424850761,-482.68635631312054,-229.7177938364714,-291.6700005887504,154.90622629929229
8.84,1.6023929122851084,-0.934016303661749,0.1337811133503521,0.0177579135097194,0.0123957325002776,-0.0009780657400926,0.0039902587727271,-0.0015878318841242,-0.0149364411023421,-0.9998790246955804,0.0103340894322058,-0.0266605950863135,9.807408840432196,-0.0089679771446712,0.012346435938041,-0.0005387673158922,3.4851408550766343,3.503127941144924,3.050501770731252,1120.6084068688076,1134.355619078928,1105.5053848126388,1138.5471654374849,-153.94357573953465,-302.7234174469106,-330.0886169837415,-488.83349082526087,154.90736133944182
8.842499999999998,1.6248595836755353,-0.979215706731966,0.2284335813751836,0.022669776159054,0.0101070777018396,-0.0007721806337404,0.0039697090215664,-0.0016186225155565,-0.0149372079938443,-0.9998790363140087,0.008723050381745,-0.0298808170209168,9.80766223676312,-0.0088105979561198,0.012336659107888,-0.000560114502183,3.4851122720031253,3.5031549280764955,3.050496452771956,1120.4622336521227,1133.9303729721023,1104.6080429116496,1137.216150067886,27.94033911636252,-75.72601195832883,-420.4832411868917,-551.0304336603033,154.90818899835554
8.845,1.5874185951610442,-0.9757610133792836,0.3350166837657285,0.0268084073966591,0.0070543995357684,-0.0006319845708428,0.0039443160219932,-0.0016489258679446,-0.0149362202832229,-0.9998790915547724,0.0067957535024711,-0.032711425904,9.80814320461491,-0.0086454721521408,0.0123173682455933,-0.0005743312571617,3.485085135199385,3.503181089920279,3.0504934662370817,1120.7481085643894,1133.9769890191362,1103.402968606704,1135.7920132691827,227.51626563909747,101.23092899610364,-596.2590039410748,-563.2009746057096,154.9088912519335
8.8475,1.501667478873571,-0.9064211601493176,0.4856499897482093,0.0308277301024358,0.0034872111819055,-0.0003066920824686,0.0039120310121979,-0.0016759192773938,-0.0149324500150312,-0.9998792193755108,0.0045857752677005,-0.0350711763700563,9.80882890490754,-0.008475473755588,0.0122909978909323,-0.0005828936158933,3.4850606085167577,3.503207283217275,3.0504921667474285,1121.5998149803183,1134.4365276170831,1101.6267478919435,1134.400145194857,391.2602213303994,204.96784487699628,-691.3135384691952,-404.27626017339065,154.90958694173835
8.849999999999998,1.4166972202285688,-0.7978686597214532,0.6278222585007229,0.0336910987771642,0.0010669978592955,0.0003331534097308,0.0038650635106222,-0.0016930436295046,-0.0149292140055119,-0.9998794105874328,0.0022097312399478,-0.0367731801737284,9.809696295148418,-0.0083038913688778,0.0122594717337434,-0.000587474894929,3.485038784825247,3.503234348554816,3.0504911572589206,1122.704409671041,1135.001828243521,1099.9464009143587,1133.7706319683164,509.1679097022848,222.43488301074808,-682.0505975138828,-103.40122367550268,154.91004308660416
8.852500000000001,1.3339489046928767,-0.6500298422941135,0.7729949110019954,0.0363390931299493,-0.0006982362689536,0.0016757811315439,0.0037979479267769,-0.0016963204440729,-0.0149293794310447,-0.9998796502221527,-0.0002575231847458,-0.0376807359000495,9.810721632510367,-0.0081342164325916,0.012224179399509,-0.0005896863819696,3.485018734177172,3.5032619995134184,3.0504909367593025,1124.14565452883,1135.548702032137,1098.2164949043738,1133.8831390764794,689.2296474336322,193.32710829527676,-723.4294328075754,224.1014293908497,154.91037003305814
8.855,1.2428347515462055,-0.4473063633876579,0.9235395266249752,0.0393295537005226,-0.0021717401415037,0.0043864596517477,0.0037130979787009,-0.0016851448540005,-0.0149330934176483,-0.9998799286079804,-0.0027990960930543,-0.0378156883836034,9.811879658811657,-0.0079699278873384,0.0121860532343847,-0.0005908364332786,3.4849993506099843,3.503290344411373,3.050492235499443,1126.1505579082095,1135.9684637849975,1096.3292537503203,1134.8911391152708,764.0950382031106,93.09764459032553,-622.3832949772587,489.4016879066449,154.91061243294735
8.8575,1.1692987771961352,-0.2717081787880353,1.0087138502030015,0.0418885772192025,-0.0028683159412374,0.0075509516180424,0.0036214087861509,-0.0016634799350749,-0.0149416758983826,-0.9998801770097983,-0.0054796181771621,-0.0373698475518742,9.813143295350411,-0.0078142682918549,0.012145748611203,-0.0005917532253822,3.484979704639713,3.503319673766609,3.050495208122555,1127.9661297198447,1136.0141902550884,1095.104578429488,1136.330147516012,738.701438213922,-54.95410149788952,-378.2215859241958,642.1208284343179,154.91068938928012
8.859999999999998,1.0853788710347547,-0.1041333537080051,1.036806456054096,0.0446685356045827,-0.0029940984906105,0.011087712505117,0.0035321235685402,-0.001638749787959,-0.0149531195675069,-0.9998803765664696,-0.0084202713480173,-0.036506098687585,9.81448483736848,-0.0076703737171163,0.0121037005029683,-0.0005927648111013,3.4849594779011706,3.503349780493016,3.0504999346782005,1129.8440650992786,1135.693693277508,1094.4381458206997,1138.1017432574415,750.5201592820149,-185.47628277512388,-154.61198721379645,708.1562608317456,154.9106368146982
8.8625,0.9815486928908528,0.0486240462831801,1.01831164651783,0.0473998664536963,-0.0027890496718817,0.01418369162325,0.0034521404961797,-0.001614944831773,-0.0149675270440468,-0.9998804928415532,-0.0116641289381731,-0.0353468214763432,9.81587562149586,-0.0075412438343738,0.0120603523109941,-0.000593351946148,3.4849400041656615,3.5033801785633605,3.05050534011299,1131.7187305162556,1135.0868088412128,1094.331518493419,1139.8709288201715,736.2525841380134,-296.9675313987854,99.22749394284703,638.0706816978458,154.9104773007593
8.865,0.8426785944208989,0.1781430456722121,0.9574212992921642,0.0498901370843851,-0.0021805320114862,0.016324685804575,0.0033837008921313,-0.0015933351872076,-0.014985959214206,-0.9998804997838397,-0.0151900877980603,-0.0339280941016766,9.817285972354895,-0.0074297958475997,0.0120162314728204,-0.0005920474402004,3.484922039798332,3.5034106314845834,3.0505100762731043,1133.5253280199693,1134.208855620514,1094.934283290414,1141.2920966659315,760.1444726951433,-420.6347013881368,415.6324671094271,469.5754704883736,154.91018973860906
8.867499999999998,0.6271870244821091,0.3059102514033416,0.8562385608756623,0.0527018027796119,-0.0006792543328464,0.0181209081070374,0.0033208110549148,-0.0015716441973515,-0.0150113846451937,-0.9998803756800642,-0.0188966936093759,-0.0321295973249428,9.818685414050147,-0.0073387262527824,0.0119720061021558,-0.000586513545673,3.484906077780632,3.5034412676098454,3.050512763827259,1135.5194528797304,1132.9836353342723,1096.4096808289655,1142.2188061726129,686.3986609044623,-454.372502815633,641.3228872121997,172.4986044204073,154.90969797493617
8.870000000000001,0.4072690775301197,0.3957945850664425,0.757455105374782,0.0547900550600984,0.0010422343126711,0.019529254824163,0.0032598357524154,-0.0015507521847404,-0.0150464504258702,-0.9998800909193998,-0.02273808265379,-0.0298806043591789,9.820040898100732,-0.0072703308461628,0.0119284922116446,-0.0005736083752098,3.484892352823972,3.5034716960087784,3.0505117020817916,1136.957321324492,1131.9369931064355,1098.1408977264755,1142.1545896880336,509.940769879688,-398.35236466495326,752.4735882071313,-218.33398162099223,154.9091667028468
8.8725,0.1577757078112589,0.489155866937606,0.6441831333965187,0.056164961112879,0.0022382111576699,0.0212114458529292,0.0032042427727456,-0.0015322264507487,-0.0150895294444725,-0.9998796550178632,-0.0266783892684048,-0.027254174211801,9.821316539129665,-0.0072263123416414,0.0118866124580191,-0.0005496982235012,3.48488074382118,3.5035020491612103,3.0505049889392297,1138.0691567291294,1130.9918735109475,1100.172048770002,1141.1271362645075,396.8255436899988,-371.72077882422064,900.9240294246384,-662.4483798900153,154.90850984237392
8.875,-0.1451391214617548,0.6396230104531652,0.4867543291083883,0.0567751285645439,0.0026103001021847,0.0232396741445746,0.0031576846862825,-0.0015185423437681,-0.0151368336556573,-0.9998791098259218,-0.0306963153038316,-0.024331664591181,9.822475533950977,-0.0072074263636593,0.0118474154803729,-0.0005115423390256,3.484870460658051,3.50353239054812,3.050492716340276,1138.9414490429417,1130.0783892123147,1102.6455178735976,1138.8423477885842,236.3189698089188,-291.0149628382566,866.7787404973656,-983.0552412148928,154.90757641304336
8.877499999999998,-0.3694256686359835,0.8156411075395034,0.3367787428278364,0.0559596838690735,0.0027328574430718,0.0244272526834986,0.0031210826483404,-0.0015148259278607,-0.0151837016463319,-0.999878516845441,-0.0348208371409543,-0.0211452461127127,9.823481847265546,-0.0072132147090315,0.0118120943118432,-0.0004572039081846,3.4848598890476867,3.503562706971936,3.0504782748002497,1139.2507515781735,1129.5367986967565,1104.505942472488,1136.2118600584342,37.600711636190255,-171.2331281270695,655.02729352728,-1147.351836577857,154.90667717072608
8.88,-0.5252012692899949,1.0442987946705595,0.170807935004536,0.0535133405248773,0.0036171755599152,0.0250006502343277,0.0030883959661017,-0.0015273993882444,-0.0152268332715532,-0.9998779370232456,-0.0391037283691367,-0.0175954030258781,9.824302479985821,-0.0072418961001795,0.0117820229350042,-0.0003867018117344,3.4848470890636003,3.5035927659214634,3.0504652144605684,1139.1294526011227,1129.2222235716793,1105.9206543412347,1133.105588605694,-144.0406493369894,-93.73896612463241,484.18074979705744,-1394.3281857994955,154.90565102050243
8.8825,-0.6041259720127278,1.3487580412607687,-0.0408986088174925,0.0498088408803387,0.0061973491538349,0.0251984602838654,0.0030549344067282,-0.0015611057750566,-0.0152619771924941,-0.9998774443273376,-0.0435713662935119,-0.0136152852325457,9.8249085759572,-0.0072906191162673,0.0117587273706306,-0.0003018805769175,3.484830542045164,3.5036224547190327,3.0504554710313587,1138.5305483314887,1129.0681038661332,1106.9268462214736,1129.2402191294357,-287.00014197830825,-27.076635050803745,246.2244510275958,-1373.427542490845,154.90427129686384
8.884999999999998,-0.5806683635756597,1.5905961054860895,-0.2234193302465612,0.0470845257434579,0.0096590500169643,0.0248663527054426,0.0030197420135801,-0.0016116810870714,-0.015287501139436,-0.9998770718113132,-0.0480774737122006,-0.009219894503068,9.825277975201713,-0.0073558122691141,0.0117439145427617,-0.0002059382426808,3.4848104083220366,3.503651822920949,3.0504499276438746,1137.6944518912314,1129.0868403964253,1107.1517765963724,1126.2384508932412,-397.2822744901184,29.524420160027994,-22.382550429889445,-1075.3327944801779,154.90299636347163
8.887500000000001,-0.4909474442479458,1.7701887198090396,-0.4073120277348513,0.0454204264731083,0.0142748552305498,0.0239939895588977,0.0029760115051283,-0.0016714501933125,-0.0153042824679945,-0.9998768364486924,-0.0524133653046323,-0.0043160384829515,9.825397863480852,-0.0074337011519912,0.0117394342085687,-0.0001032020577278,3.48478758980252,3.5036806949953103,3.050448677276529,1136.5441369590378,1129.2157259669334,1106.814933469324,1123.863555157034,-509.98529540662486,65.50786207639133,-200.86037071647797,-793.0388333294229,154.90158954969007
8.89,-0.3772662528526136,1.8639574258591087,-0.5895034683077317,0.0448804324207383,0.0196701233980842,0.0227733453296928,0.0029159166146616,-0.0017310019819126,-0.0153156576257307,-0.9998767250221832,-0.0563430959479628,0.0012033765502088,9.825265358294985,-0.0075207570042718,0.0117472408488104,1.5636746895289517e-06,3.4847634256695947,3.5037092551711777,3.0504508463977356,1135.144525414198,1129.4143797068073,1106.1474747427899,1122.2732567265934,-618.6174308002913,94.20214503640692,-302.3249578099386,-400.4895956974793,154.9000722918225
8.8925,-0.2711750291598904,1.8255008246714644,-0.7673295770696545,0.0454089825919145,0.0255209772669318,0.0212194129863833,0.0028375834064822,-0.0017849318922613,-0.0153248971935395,-0.9998767016739036,-0.059718736821488,0.0073241847885031,9.824887033244492,-0.00761403868999,0.0117693006138895,0.0001037794041413,3.4847390763502673,3.503737215833324,3.050455552250617,1133.4510498050367,1129.6867366921151,1105.3033086802748,1121.8611071785467,-807.1505285230402,137.82941025690903,-353.88023913854107,115.85950475885087,154.89842129863132
8.894999999999998,-0.1811283892507513,1.6144314980498167,-0.972222247235551,0.046252762127732,0.0323396867032443,0.0189876417980066,0.002743949120299,-0.0018312613094961,-0.0153338237462369,-0.9998767343725304,-0.0624687581305491,0.013933480821745,9.824279228975197,-0.0077113241576776,0.0118074909729689,0.0001994363845184,3.4847154358545263,3.5037647701643224,3.050460726093416,1131.1087727715835,1130.1035267580917,1104.3780735470975,1122.8525542503876,-899.8640157074035,170.60459839824097,-290.77335993001725,596.455289121011,154.89628576496787
8.8975,-0.1400632446158881,1.3135115736705936,-1.1312483318624575,0.0466218584452899,0.0372400147424821,0.0167533428500735,0.0026416188980454,-0.0018748677079451,-0.0153439710131339,-0.999876772707678,-0.0646650128452224,0.0208437872778015,9.823467383429303,-0.0078110242331397,0.0118635307351388,0.0002852003118837,3.484692935358408,3.5037921577698894,3.050464995215021,1128.9517297264993,1130.5397596841067,1103.8494418806245,1124.8433836241525,-883.798542591374,198.11809107810944,-140.0544937223239,978.2340269839385,154.89437844554536
8.9,-0.1209531130556597,0.9220203965193708,-1.2685760609563839,0.0465532230142886,0.0405544618229231,0.0141555988367927,0.0025414979578534,-0.0019207498291346,-0.0153518882393857,-0.9998768292228852,-0.0663905062588427,0.0277790469505335,9.822485997829634,-0.0079121300346672,0.0119388358578672,0.000358488306307,3.4846713472124087,3.503819358406372,3.0504685656381625,1126.689780058626,1131.0941172134824,1103.6778010784856,1127.743724385308,-985.478817172148,278.67313901721076,4.052606201140304,1373.6084340428083,154.89234050865605
8.9025,-0.0972397346789618,0.4144965975243108,-1.391535845635416,0.046360675423912,0.0423452604031931,0.0106100492315867,0.0024478773128024,-0.0019765811022867,-0.0153537516327432,-0.9998769329349256,-0.0677861226982743,0.0345911645835296,9.821377403006679,-0.0080139169194406,0.0120345474764104,0.0004170481471773,3.4846504144219055,3.503846922151752,3.0504726762202474,1124.0243356406395,1131.9331253791925,1103.86970491163,1131.7114257943651,-941.7571389354688,341.72227861620263,119.34708891879028,1439.8675498623695,154.88974731816435
8.904999999999998,-0.0553307296099099,0.0129923573475316,-1.4432576042605287,0.0462015750376315,0.0419112998385364,0.0070561769514288,0.0023574462191731,-0.0020438722293041,-0.0153478300250465,-0.9998771106155232,-0.0688764399954033,0.0412780945853224,9.820190711531923,-0.0081157106764727,0.0121515570425144,0.0004590379778428,3.4846303313218785,3.503874674997559,3.050477828836511,1121.9809943639495,1132.802728606563,1104.2745365230796,1134.9430621346185,-750.0334514640336,386.07839839399605,181.13216385197015,1169.4256100957307,154.88746643206238
8.9075,0.0361599005716049,-0.3125303789496329,-1.42283591482903,0.0456202636358334,0.0396786888977561,0.0031232156579399,0.0022656246832838,-0.0021209776862967,-0.0153328258693288,-0.9998773939772652,-0.0696306193891147,0.0478615374784738,9.818979136780285,-0.0082167687875951,0.0122904613635601,0.0004832181046708,3.4846108228063595,3.503901686629741,3.050484496737847,1120.2741683833187,1133.8635173711627,1104.77536573089,1137.5585538448447,-609.7764586428596,453.5873344784905,189.47671421816943,884.817099599011,154.88506563731522
8.91,0.1856687088507221,-0.5520791463479873,-1.3320972619458775,0.0445567986283589,0.0367538304979136,-0.000797926512278,0.0021731688570811,-0.0022033228304249,-0.0153080580859625,-0.999877800240799,-0.0699688417261946,0.0542588149967556,9.817797925722914,-0.0083161378374317,0.0124514634176123,0.0004892792316679,3.4845912829372767,3.503927559207973,3.050492150075732,1118.9321120707348,1135.0706652789559,1105.2219200941706,1139.3671476326142,-438.14496290660446,508.69969103101647,134.78923083364816,498.57884512608416,154.88256921794297
8.912499999999998,0.4111760213566327,-0.6884026556790963,-1.152484235683941,0.0432803983184263,0.0340483667071359,-0.0045807646795404,0.0020814986410303,-0.0022819996708125,-0.0152769223706035,-0.9998782924978618,-0.0697330839275644,0.060376136561428,9.816702391264991,-0.0084124809450814,0.0126342485748709,0.0004779150051189,3.484572012366,3.5039526123920215,3.0504989120859,1118.083443568786,1136.407015826317,1105.4493118850583,1140.0514480704746,-258.7558817223048,600.4756202634296,16.850332532610178,60.56936635244673,154.87996252877383
8.915000000000001,0.744156691589968,-0.7627276076725472,-0.8433802971433059,0.0424498579296941,0.0315992237296147,-0.0086351830946077,0.0019918823090137,-0.0023522561950635,-0.0152421702234641,-0.99987883628375,-0.0688538516908649,0.0661283907883572,9.815744446976872,-0.0085041453442215,0.0128377076942939,0.0004506591196825,3.4845526597176675,3.503977474024957,3.0505039786050334,1117.638332662123,1138.0730433802735,1105.3061717568337,1139.6699944643765,-75.09467689859511,608.9241202119823,-138.02884148069668,-291.17882956338684,154.87671408955032
8.9175,1.0262612973767542,-0.782762923753841,-0.5273958174431209,0.0433091203993304,0.0301671261105367,-0.0109564347196556,0.0019049438223519,-0.0024187157315847,-0.0152056711511005,-0.9998793904377168,-0.0674525327424661,0.0714519466850453,9.814969677035197,-0.0085891411317849,0.0130598022983952,0.000409601396185,3.4845321390694344,3.5040038176646053,3.0505072625700955,1117.7079701842931,1139.4516364273777,1104.7591676776547,1138.5955539226575,104.7416393942266,539.4070519326016,-316.1429734461937,-506.6358417391355,154.87391228122215
8.92,1.2293592757833696,-0.7969236832326319,-0.1877840300752653,0.0470450137907408,0.0290572931941687,-0.0115102818854595,0.0018174435266943,-0.0024878937816536,-0.0151711954080229,-0.9998798899200912,-0.0656932012153556,0.076367257320152,9.814416132747352,-0.0086651152411592,0.0132976465744521,0.0003571762418095,3.484510231844965,3.504032800184575,3.0505088270244154,1118.162040859094,1140.770078639936,1103.725456889603,1137.1368152556813,269.66813826375886,560.4329549803175,-563.0106108870433,-638.9528324068032,154.87101923887667
8.922499999999998,1.2828971095183843,-0.8382053235237965,0.2002648791735024,0.0542963091080338,0.0276985272214403,-0.0105314719302073,0.0017241578154713,-0.0025606212267759,-0.0151414512989661,-0.9998803054203514,-0.0636346031021215,0.0809406855451261,9.814113617712064,-0.0087295613926784,0.0135476762887709,0.0002960949744696,3.484486991250365,3.504064674813728,3.050509728803145,1119.0563108756116,1142.2538012022787,1101.94411462322,1135.400789760624,373.9599562124438,523.4827510808464,-731.5169354800438,-583.1666908673467,154.86745104085583
8.925,1.1256376760656994,-0.9042772112400695,0.4808439908283984,0.0606980177350681,0.0263195859998186,-0.008998837540719,0.0016211076436887,-0.0026289804431356,-0.0151207619552053,-0.99988060177251,-0.0611703626593653,0.0852213487061038,9.814082856969597,-0.0087799055482349,0.01380601461359,0.000229335268897,3.4844632934796276,3.504098905252992,3.050511035985012,1120.0318406401564,1143.3874923953404,1100.0678722122022,1134.220981801344,428.20522389909127,421.9959262916996,-809.5960407348329,-383.6828603396808,154.86440403285323
8.9275,0.7619687652767922,-1.0042593835417,0.6984409024140252,0.0653274230645763,0.0244470511917007,-0.0070847500135719,0.001514288297429,-0.0026870351598159,-0.0151119377852312,-0.9998807426608662,-0.0582418925414995,0.089073279429896,9.814334086573282,-0.0088137029951911,0.0140687229410117,0.0001601813835979,3.484439124344104,3.5041351148765534,3.0505123780366192,1121.1973369951074,1144.3637808337376,1097.8961344195452,1133.4823754589252,551.6117021803171,373.41868110946206,-990.5092778978238,-220.63075228843283,154.86128943401638
8.929999999999998,0.1524873688126858,-1.1530483998506755,0.878280113556489,0.0676474246870497,0.0215336410878741,-0.0043166566527503,0.0014161598385271,-0.0027318685302682,-0.0151119101662303,-0.9998807625735808,-0.0548574695729108,0.0922444965525781,9.814866347355192,-0.0088288290290724,0.0143319808444158,9.216284230415401e-05,3.484413842661776,3.504173581696128,3.0505128924981855,1122.7898991510576,1145.2545858008875,1095.115325822714,1133.117828039902,613.7647255554789,263.3633105420856,-1020.7714134367274,-63.87503155873585,154.85748415320273
8.932500000000001,-0.4291947003265352,-1.2896317488755047,0.960599480626649,0.0665980085753338,0.0185853568526094,-0.0017579132229321,0.0013386307216377,-0.0027587570034979,-0.0151161224911353,-0.9998807273405538,-0.0509938210628558,0.0945032830692096,9.81566709800029,-0.0088234722701196,0.0145923937339363,2.8921216568923537e-05,3.484386820967005,3.5042134674962275,3.050512525678464,1124.2661606228853,1145.680597386448,1092.7922773523608,1133.1630003011317,613.1451436285212,89.32089565540502,-893.8737479485065,58.016153200551365,154.85426430707048
8.935,-1.0035556721874723,-1.4249929368274337,0.9795861359886844,0.0628839812322211,0.0153239168047125,0.0008759035725191,0.0012887983045981,-0.0027648394488216,-0.0151185971538904,-0.9998807287174968,-0.0466654617671417,0.0957222567107601,9.816711282413394,-0.0087963356546022,0.0148471738289786,-2.608383976124748e-05,3.4843580614888894,3.5042542084065835,3.0505113165324462,1125.8556248692007,1145.7011902791646,1090.6459570829709,1133.4079088059048,639.8280754868574,-63.141760719021306,-800.9538413354906,106.55626606742165,154.85100315374632
8.9375,-1.5256430711449311,-1.5491574470743579,0.955410869181876,0.0579242531697426,0.0119167501017245,0.0031845406307446,0.0012671399630545,-0.0027510266379043,-0.0151172429478028,-0.9998807992903463,-0.0419592742043248,0.0959137210202495,9.817961357525757,-0.0087467285167156,0.0150943183020331,-6.979297167397319e-05,3.4843281023493127,3.5042952778017566,3.050509065501647,1127.4653010003187,1145.3648885828532,1088.787508145684,1133.6957816314687,618.9459209543977,-214.30918452306,-642.1240581128955,105.0991715015907,154.84771483066018
8.939999999999998,-1.958627521523863,-1.646777050504564,0.8924913390420796,0.0523952291747377,0.0080215288252592,0.0046253414708999,0.00127238868482,-0.0027187451711449,-0.0151101575723325,-0.9998809723610532,-0.0369708008857708,0.0951317372400962,9.819369093763276,-0.0086748926364095,0.0153325392530154,-9.948608233267002e-05,3.4842978465610406,3.504336029070159,3.0505058093953448,1128.950354473972,1144.6296443565495,1087.435336792407,1133.9334046634128,577.7197186278052,-395.8085125899124,-445.4812399301076,82.41765709498014,154.8444024759695
8.9425,-2.373255928506208,-1.716111111657382,0.7809778708142048,0.0455401097791486,0.0028715475421585,0.005924385322044,0.0012968946650525,-0.0026678741351606,-0.0151007099176205,-0.9998812129064276,-0.0317599039850215,0.0935614743709039,9.820876582763598,-0.0085819619789387,0.0155612558560573,-0.00011303481219,3.4842690521787008,3.5043758796812488,3.050501451977837,1130.3538995934584,1143.3858460199033,1086.5601019460332,1134.1078699169436,420.4860076620005,-496.8878293488748,-182.20116166473295,46.270006793740365,154.84041137016297
8.945,-2.6431196421816545,-1.724112369027604,0.65240495807106,0.0398767772836169,-0.0015813024930809,0.0075121013174244,0.0013288827239425,-0.0026071206671546,-0.0150932517702863,-0.9998814467763896,-0.0265542069285012,0.0914767045484249,9.822417782940896,-0.0084700175970407,0.0157803308425401,-0.0001091820312082,3.484242979176837,3.50441457983788,3.050495880912921,1131.0527845122824,1142.1452052098048,1086.5243309840832,1134.1647546973816,161.68397204545306,-513.9818384355407,132.77259406402575,7.657541782192925,154.83708044416383
8.947499999999998,-2.8504888868409806,-1.6739423517588539,0.4711911685988292,0.0341704122184251,-0.0061844131908725,0.0100110267104021,0.0013618206745836,-0.0025394940254989,-0.0150902383115131,-0.999881633001774,-0.0214656202056938,0.0890504752274442,9.823922567823766,-0.008341915517235,0.0159897760879529,-8.715179611462117e-05,3.484219967734844,3.5044523769560274,3.0504899778170818,1131.1623194536855,1140.815936827726,1087.2239649163532,1134.1461576258544,-78.77737726747587,-578.757797511435,463.0035883021905,-27.74007736256429,154.83375465792923
8.950000000000001,-3.0333868103674666,-1.5486013602488746,0.1857686002808655,0.0269215720711422,-0.0116067473104082,0.0132167721129324,0.0013902616195098,-0.002469274199792,-0.015094691985474,-0.9998817190032456,-0.01662448480133,0.0864378809477761,9.825317958833581,-0.0082008261349797,0.0161895477832211,-4.698804399158372e-05,3.4841998446195026,3.5044897920432234,3.0504854254379894,1130.6588976259447,1139.2514162222471,1088.8393489255943,1134.0260543105687,-260.9135163814291,-552.6660919872073,699.1549099877648,-68.00176852729084,154.82978129865182
8.9525,-3.1222426416382647,-1.4001291475438051,-0.0922328318938487,0.0201165975859236,-0.0154708005002273,0.0146642382579858,0.0014149068167091,-0.0024031087896029,-0.0151034586757962,-0.9998817304411703,-0.0122026848764939,0.083676258081743,9.82653084676916,-0.0080500658173612,0.0163792509319159,1.0662627431720973e-05,3.4841813992794104,3.5045277143975455,3.05048242957432,1129.857751871778,1138.0526063677896,1090.7197394662924,1133.806148783218,-345.020759087834,-445.274172733932,825.4342322280359,-125.3946560958206,154.8264928409743
8.955,-3.1221261151295217,-1.226605879019087,-0.3655139895321599,0.0122245446448779,-0.0182776727096027,0.013617532085742,0.0014377260237283,-0.002343919501978,-0.0151132035055565,-0.9998817056428172,-0.0082912357469177,0.0807784172054913,9.827489783620857,-0.0078926231305267,0.0165581534099417,8.469655080027586e-05,3.4841636015206467,3.504565939245941,3.0504807846061763,1128.933793830506,1137.025045358578,1092.966520086734,1133.3990810300895,-363.85583819608615,-406.9018610016328,1022.5581372576232,-232.49991864272565,154.82323691240148
8.957499999999998,-2.9916868625080952,-1.01352298377081,-0.6256225815610976,0.0018331155007584,-0.0206945917339419,0.0102045066732384,0.0014591159409748,-0.002293618121243,-0.0151207679898595,-0.9998816893860952,-0.0049526467726118,0.0777884846599719,9.828126714977625,-0.0077310167359965,0.0167251794069871,0.0001736025677456,3.484145668199453,3.504605673817109,3.050479488417925,1128.038472680798,1136.0180970627819,1095.8325301525797,1132.6436491900047,-248.53491037034223,-332.0369338563459,1042.7051793953713,-321.4068619287398,154.81937712731215
8.96,-2.7670984388778894,-0.8426670989771016,-0.7555061483952321,-0.0067175533786228,-0.0223052126132832,0.0070153106023418,0.0014793771180688,-0.0022570752382195,-0.01512338758268,-0.9998817169950835,-0.0022995196153553,0.0747531889897722,9.828379174491893,-0.0075673011824717,0.0168790002820949,0.0002755456980067,3.4841269399013886,3.504648036509563,3.0504780164715775,1127.6911192786542,1135.364860689296,1098.1800459837116,1131.7920467204456,-25.72749917103063,-226.73629800529943,892.9548210150156,-375.2504179460952,154.8162067159067
8.9625,-2.43875684439822,-0.6808640197049879,-0.7861720046305362,-0.0138879013521132,-0.023889513680291,0.0043516505940976,0.0015008274303118,-0.0022329837310893,-0.0151195202561008,-0.9998818169913644,-0.0003159065478204,0.0716765606423187,9.828192341114848,-0.0074031479967464,0.017018283345247,0.0003885862227135,3.48410763773415,3.50469265156147,3.050477161036824,1127.9098351849427,1134.8844155727552,1100.2973042576555,1130.767397100274,181.97433769786568,-167.89470112001865,787.1418543143337,-421.3714643789373,154.81309151816805
8.965,-2.053788115607329,-0.5225881744307733,-0.7431614545771502,-0.0194752916765782,-0.0255250896606938,0.0022039337679757,0.0015218219235614,-0.0022101308440513,-0.0151136749099131,-0.9998819485995116,0.0012176215065247,0.0686349190719494,9.827520235248072,-0.0072398026150864,0.0171420695474818,0.0005105098466264,3.484088936293498,3.5047393164630942,3.0504755874457845,1128.6009909671432,1134.525387183696,1102.1157552552825,1129.6851893985515,364.0933913365458,-120.25582786329896,637.520110411278,-419.01199177354255,154.81002723887735
8.967499999999998,-1.6450623509133175,-0.3635076349706959,-0.630349971993935,-0.0233082594263425,-0.026983756164095,0.0007436885148145,0.0015394906002235,-0.0021847135818931,-0.015110229756558,-0.9998820539268934,0.0023815027933755,0.0657272021575385,9.82632778359078,-0.007078348621099,0.0172499575181163,0.0006385808778739,3.4840711884646045,3.504787522515421,3.0504729942764888,1129.730302141625,1134.2831364334388,1103.4849048097112,1128.6723371414066,539.1042071381047,-87.65786217385079,484.7347228802543,-394.3537555517034,154.80703006366576
8.97,-1.180238104621764,-0.1713805570625817,-0.4395005760328103,-0.0262810667181763,-0.0281460964290231,-0.0003210873506378,0.0015554273307873,-0.0021542778565917,-0.015109737310787,-0.9998821228928217,0.0032336713022166,0.0629602006428422,9.824592619170897,-0.0069197889135086,0.0173422674353639,0.0007696767833388,3.484054195401358,3.504836501098698,3.0504697226400963,1131.2965120028343,1134.0870978728267,1104.539428869684,1127.7134206207927,558.6667460979279,-62.61618963702789,284.0150182949412,-290.33431019288406,154.80351752021846
8.9725,-0.8430089070826003,-0.0153659412313368,-0.2485174190926751,-0.0277282765285204,-0.0284193782771833,-0.0007977373738521,0.0015705471537476,-0.0021186518307067,-0.0151094674753222,-0.9998821929610194,0.0037922452516613,0.060348475653056,9.822305952668833,-0.0067649697182707,0.0174201869052826,0.0008999415528109,3.484037411577208,3.504885238760423,3.050466906179305,1132.5236358721152,1133.9700554852536,1104.904979901186,1127.220665590442,420.38953693826613,-46.4655518817473,40.666460559813366,-124.93803837676508,154.80066445571364
8.974999999999998,-0.5762573868508998,0.1272156997054999,-0.0348770122105927,-0.0285222998703528,-0.0279385511003021,-0.0010118740394933,0.001582246799096,-0.0020793965384601,-0.0151073547192101,-0.9998822949576528,0.004046924432136,0.0579683436346869,9.81947331961711,-0.0066144434599854,0.0174858427400098,0.0010246480854926,3.4840197646809847,3.5049332996421168,3.0504662665602518,1133.3984596875252,1133.854770113418,1104.7427611724831,1127.088730428909,265.4053904123924,-63.11212330750928,-181.4874242997292,19.18759651407227,154.79789215699162
8.977500000000001,-0.3394015007073972,0.2752505347213912,0.2405066244932988,-0.0290537315403343,-0.0267482658790876,-0.0010277960459776,0.001590516962263,-0.002037343124621,-0.0151039260273404,-0.9998824194867688,0.0040051128404737,0.0558357633948827,9.816115204652522,-0.0064685090022542,0.017542224436103,0.0011386056284273,3.4840009489690305,3.5049805338942126,3.0504693599314847,1133.8506628241776,1133.654494868716,1103.9975427796871,1127.3166035730123,61.25233135989171,-93.43857016081888,-346.7714365161468,136.55113384945847,154.79466220792656
8.98,-0.2021710161185739,0.3798455676808987,0.4795593387901573,-0.0293002571610842,-0.0256125965181075,-0.000773332561915,0.0015973925658106,-0.001994683646963,-0.015101293688503,-0.9998825287207824,0.0036504452534718,0.0539170548966113,9.812266823244691,-0.0063274527717786,0.0175930201528278,0.0012365137019493,3.483981451459611,3.5050261175952766,3.050476951909737,1133.7047213443248,1133.3875772626138,1103.008903989902,1127.7714860981564,-146.76833836754855,-136.83036985610664,-437.62116216089066,220.95381340873092,154.79205305709192
8.9825,-0.1077583191374785,0.4728884372767946,0.7140487987228517,-0.0295599321256134,-0.0245681973798236,-2.7450800092272837e-05,0.0016042144374343,-0.0019506443523263,-0.015103498252311,-0.999882563723974,0.003028124682653,0.0521810344230633,9.807977156926544,-0.0061917173758319,0.0176424047523965,0.0013134804430059,3.483962372690157,3.5050694858634155,3.0504873560137926,1133.11682113234,1132.9703430194356,1101.8094369688831,1128.4213726400556,-314.9132326511507,-222.8338416626218,-524.9810979887706,314.47178893456004,154.78953083039096
8.984999999999998,-0.0160113059949932,0.584419416475975,0.959871716765311,-0.029943887951959,-0.0232623021428944,0.0017968043063991,0.0016098470005908,-0.0019075156386804,-0.0151147727478238,-0.9998824601699132,0.0021266473080614,0.0506360048887808,9.803307658217395,-0.006062061911911,0.0176947060851257,0.0013653825500488,3.483944208952963,3.505110307561232,3.050499123039379,1132.1301551810693,1132.2734080543007,1100.3839984999588,1129.343845042829,-369.8985030748976,-286.3377638407663,-480.51464476895256,352.11327181563274,154.7866051629364
8.9875,0.0622307758025576,0.6858721923925115,1.104567395575642,-0.0302495215020555,-0.0221587648984162,0.0043357284589881,0.0016197980268044,-0.0018686542705297,-0.0151362299954164,-0.9998821857225886,0.0009138712675003,0.0491512650890345,9.798330538353582,-0.0059396394210988,0.0177539501485045,0.0013895140074041,3.4839278248233243,3.5051483344521888,3.050510848175896,1131.2673286169652,1131.5386542002316,1099.4068637450382,1130.1819389991342,-313.700307472569,-318.4062753802166,-305.5798562155792,338.52986411128927,154.78425115741052
8.99,0.161339743401247,0.8016247628041183,1.1471413759044775,-0.0304473671495871,-0.0210350112001819,0.0079762822892029,0.0016372233538055,-0.0018343791154591,-0.015163889465329,-0.9998817937572956,-0.000580344034421,0.0476337468248138,9.793126163472744,-0.0058259061184379,0.0178234358860335,0.0013844044723204,3.483913765759234,3.505184263113451,3.050521025716389,1130.5616536437062,1130.6813766773996,1098.8560992188807,1131.0364943633856,-238.9107835113484,-355.7506050659211,-128.85444427954843,334.9228696243456,154.78198432792382
8.992499999999998,0.2868232589485453,0.9268293129656208,1.0811856401493458,-0.0304653742172712,-0.0196958590035959,0.0121604497952565,0.0016621473377435,-0.0018067989037654,-0.0151934056512795,-0.999881346796132,-0.0023587928303831,0.0460461040162469,9.787780634681942,-0.0057222242450073,0.0179054049712477,0.0013496104853996,3.4839013498042486,3.5052193287925406,3.050529341003279,1130.0727746994087,1129.7599011749023,1098.7625915236404,1131.8565533472556,-143.0342190088826,-375.6631508721379,79.61735891288873,305.9376795072216,154.7797900767156
8.995000000000001,0.4473711803179565,1.0502243797179132,0.8741026689539604,-0.0301060335604766,-0.017734418222857,0.0162804741364861,0.0016900329048694,-0.0017898125853613,-0.0152219824803159,-0.9998808900107682,-0.0044569619327279,0.0444366153649618,9.782383202082904,-0.0056295512777253,0.0180008124261618,0.0012854239205297,3.483889671022456,3.505255188561863,3.05053612750692,1129.8464825486617,1128.8030609230386,1099.2541860134452,1132.566182760922,-61.72056700960583,-420.1645668022846,333.81326203497576,270.15995812589927,154.77768414445927
8.9975,0.6744044518795355,1.1687340136248725,0.4819229623755258,-0.0289722134088169,-0.0142809947026276,0.0204453843714867,0.0017094284620059,-0.0017876895092117,-0.0152493339689871,-0.9998804411719496,-0.0069151895328267,0.0429869235482604,9.777023747627858,-0.0055482545283099,0.0181093060759616,0.0011925548637874,3.4838778044611676,3.5052940061661553,3.0505415119606094,1129.7641718643606,1127.6590783408903,1100.4316578338155,1133.207353137885,-23.979520868993173,-411.63986754962946,499.2057834881136,193.10587650128784,154.7752607492934
9.0,0.8812883214357635,1.2215532005490728,0.0752367910132424,-0.0272507486777767,-0.0105013185387368,0.0225870119157161,0.0017126945396289,-0.0018004578977892,-0.0152750517992799,-0.9998800205935476,-0.0096926613005151,0.0418032669202529,9.771790576622728,-0.0054781727831615,0.0182293985375375,0.0010723551247908,3.48386523324424,3.505336114442205,3.050545400238624,1129.7265849443168,1126.744861585291,1101.7502149308852,1133.531712143428,-35.919522925230794,-345.1215768548768,547.6391671383406,88.22670590190617,154.77332930026742
9.002499999999998,1.089388328597978,1.2110240259769012,-0.3397776364786945,-0.0246380253022363,-0.0064477372125478,0.0220776644798323,0.0017014490475665,-0.0018262225052051,-0.01529456884613,-0.9998796967168264,-0.0127154787056079,0.0408134523510318,9.766768262207298,-0.0054188513189167,0.0183588197652141,0.0009268164782563,3.4838517493784047,3.50538049326506,3.0505491066687678,1129.5845742497345,1125.9334704566163,1103.169853669507,1133.6484866673948,-102.09851749990088,-311.68572020332834,588.2776091841141,20.092549303577968,154.77149168254485
9.005,1.322107707201445,1.1288029655750311,-0.7481022355143835,-0.0207015138559045,-0.0022505898047489,0.0179088750851049,0.0016776830686037,-0.0018627052690289,-0.015307751668366,-0.9998794703864224,-0.0159045583087543,0.039943060508281,9.762035607955028,-0.0053693714849102,0.0184950125822469,0.0007581706399077,3.4838371131599946,3.505426209342854,3.0505537495775186,1129.2160923568172,1125.186432984274,1104.6916029768063,1133.632174889946,-166.13503540558798,-216.17189357158423,494.23656136979395,-12.19535042664384,154.7693985081264
9.0075,1.4930611368339075,1.01795330645363,-0.9577769122533076,-0.0169512396110309,0.0004386897067505,0.012834062284279,0.0016471530783325,-0.0019087247124858,-0.0153186113759451,-0.9998792717812046,-0.0192061766092922,0.0390515928936605,9.75766392407605,-0.0053285235286648,0.0186353575700238,0.0005690936334427,3.483822040405091,3.505471970705376,3.0505589001661497,1128.7538990727064,1124.8526109887584,1105.6410364763562,1133.5875099152615,-203.1076499692012,-48.43868107301258,296.6860184229198,2.7920344989985195,154.76775037216052
9.01,1.63651450955595,0.8886037856806956,-1.0092683894932934,-0.0130144934614457,0.002337197188194,0.0083013083640372,0.0016166024680948,-0.0019584954075129,-0.0153294294906408,-0.9998790658213372,-0.0224805748985196,0.0379866467499874,9.753715700629865,-0.0052951439287991,0.018777175703907,0.000362830411676,3.483807274884154,3.505516599484244,3.0505641550384457,1128.2005541069711,1124.9442395789088,1106.1750330689204,1133.646135062441,-243.2240165682362,159.8795815723611,152.72398727886295,74.64124552951687,154.7662054477178
9.0125,1.7789633656719435,0.7389361758075386,-0.9166798049340024,-0.0082958791049184,0.0039463765705139,0.0046854123451646,0.0015880320137086,-0.0020038960548387,-0.0153388092885816,-0.9998788860794328,-0.0255449745996482,0.036697277567763,9.750243480070477,-0.0052682433193366,0.0189176024810838,0.0001430734681061,3.483792557791189,3.5055607860596454,3.050568939941169,1127.537778989865,1125.6520088966204,1106.4046564127507,1133.9607161429092,-229.86784428804685,361.00827812132405,43.60418845948744,163.28538699474115,154.76447443994465
9.015,1.874721560140292,0.6316711041469893,-0.7517714063561081,-0.0041621503487746,0.0051146663071229,0.0031383092898132,0.0015602499544973,-0.0020428738287606,-0.015342685992716,-0.999878798965496,-0.0283379828170534,0.0352066624865996,9.747288706621822,-0.0052469917563559,0.0190534491630186,-8.603356394583421e-05,3.483776690896472,3.505606123412119,3.0505723316288345,1127.0512148855307,1126.749280969516,1106.393054011218,1134.4625619974147,-172.7045959308614,522.8989082551055,-4.5080792056532895,243.18492616316976,154.76313672010787
9.0175,1.9457839600006743,0.5487267798026824,-0.5462729154134227,0.0003652705489588,0.0063039417873054,0.0023945967636636,0.0015287847768306,-0.0020712359791442,-0.0153394327867891,-0.9998788429527036,-0.0307592951166341,0.0336115086773772,9.74488156444496,-0.005230601999176,0.0191812636212683,-0.0003198689413532,3.483760252711654,3.505654149626809,3.050573946846121,1126.674256010211,1128.2665034378952,1106.3821160167224,1135.1766407737248,-131.89223129245767,643.2832249637073,24.0769559468438,305.71647725597984,154.76191031132427
9.02,1.9940578458471687,0.4861130206641896,-0.3371534294637828,0.0053860984231599,0.0073113516728007,0.0017961086986723,0.0014929004953701,-0.0020854003470169,-0.0153296702109674,-0.999879016330562,-0.0327254342804579,0.0319460316546828,9.743040871045839,-0.0052184365730698,0.0192975563184805,-0.0005532581027938,3.4837444802243187,3.505704740137064,3.050572694466195,1126.3917537290688,1129.9656970943336,1106.5134387909523,1135.9911443836943,-93.60715334922487,671.4003241161523,106.81196073690592,326.6153140974383,154.7607779042631
9.0225,2.0143876271083645,0.4448430859499405,-0.1503706646457961,0.0108169897986938,0.0082548396302055,0.0014824072513146,0.0014569512307081,-0.0020831381073923,-0.0153144315364851,-0.9998793022096208,-0.0341845722823689,0.0301552570068514,9.741774515087053,-0.0052100578414126,0.0193991212066288,-0.0007807059519085,3.483729972977709,3.5057569616673168,3.0505673986121637,1126.2062202434647,1131.6235050584767,1106.916175820407,1136.8097173442122,-65.54908291481182,654.8340264571266,241.62496220943328,333.4252389846758,154.7597606582814
9.025,2.015818487440655,0.4123645527432838,0.0203626779672813,0.0170836433664789,0.0098978104446699,0.0017622850196313,0.0014287280860591,-0.0020674182417748,-0.0152943789568274,-0.9998796739969124,-0.035190812538615,0.0281272945644342,9.741080317046855,-0.0052051057502896,0.0194833012606931,-0.0009969309980425,3.483716556546004,3.5058095885258447,3.0505581800117807,1126.0640083144947,1133.23986722662,1107.7215636019996,1137.658270578618,-43.25238193920037,495.3490953373224,333.91217098507974,275.27918805704775,154.75867512426873
9.0275,2.0122289992032005,0.3954365369448651,0.1024773506447708,0.0218302534075142,0.0114433993609863,0.0026188106962634,0.0014120044922812,-0.0020445656272003,-0.015268779844305,-0.9998801259599582,-0.0358659860345916,0.0258364037754266,9.74094797308659,-0.005203162928692,0.0195480870462515,-0.0011976373990111,3.4837032122784475,3.505862073888259,3.0505462129065624,1125.9899583337688,1134.1002505351628,1108.585736675332,1138.1861132844972,-24.412638700873995,224.92576585304883,354.803079572073,168.70947269707077,154.75788434447512
9.03,2.023867239126881,0.3920068088011797,0.1126601363645807,0.0261181589811913,0.0123291660112814,0.0039669087265439,0.0014058333737935,-0.0020231062909714,-0.0152415690164683,-0.99988058212464,-0.0363769450412208,0.0233545376712918,9.741361495107117,-0.005203416444908,0.0195921665423972,-0.0013799530521122,3.483690304923404,3.5059141875906175,3.0505330355211213,1125.9419451209903,1134.3644960558847,1109.4955789998596,1138.5018179421031,-17.466920637204563,-9.262197154474425,369.9636610398888,96.5698729293612,154.75721260342908
9.0325,2.0727949956362424,0.4122632479458309,0.0497174418951908,0.0308817545680297,0.0124622004442191,0.0055104425959858,0.0014071894022351,-0.0020029931231113,-0.0152181917365613,-0.9998809618305564,-0.0367265734887124,0.0207945233444708,9.742302531505107,-0.0052047623973971,0.0196148391975094,-0.0015424442749178,3.483677698891229,3.505966484651609,3.050519695503677,1125.9026237305827,1134.0539395493904,1110.4355549805318,1138.668962649144,-12.261787375653414,-190.9525617757637,293.4942539194704,36.221851570184086,154.756544328244
9.035,2.145305434918112,0.4494622515386441,-0.0442131306832691,0.0348144322784676,0.0125051648944157,0.005962971736641,0.0014094877561359,-0.0019830150847479,-0.015202403675187,-0.9998812190273596,-0.0368975744304284,0.018338825750254,9.743752807935422,-0.0052058759422284,0.019615950870937,-0.0016853039281114,3.483665005446297,3.506019442148863,3.050506768386396,1125.880636184112,1133.409733247006,1110.9630502694572,1138.6829271999543,-8.686083466456603,-293.1381657898456,138.05926750672387,-6.977886134565348,154.7561018610978
9.0375,2.2372635907251697,0.4925042552802312,-0.1432699034517862,0.0393642630439048,0.0135532050953044,0.0051476691919405,0.0014007503217887,-0.001966621011805,-0.0151955658573889,-0.9998813436152733,-0.0369651408398016,0.0162747072257389,9.745696587088975,-0.0052052090309073,0.019595924641859,-0.0018104146721208,3.4836516178422525,3.506072976262693,3.0504943175533827,1125.8591933132504,1132.5882487204415,1111.125851318065,1138.6340732184713,-12.354666825010897,-324.45477935993426,-0.2459294301842944,-22.389431710777128,154.75577701332583
9.040000000000001,2.3239135644778575,0.5217721862988081,-0.2185060167316082,0.0448287056092825,0.0154247905435389,0.0037077437048877,0.0013711763601707,-0.0019578528989017,-0.0151985239264525,-0.9998813305025795,-0.0370196450928209,0.0148432770629409,9.748122963601794,-0.0052009819802976,0.0195558937495101,-0.001920887203107,3.4836375242319444,3.5061268390286884,3.050482262183304,1125.8188628499868,1131.787459350206,1110.9618206223063,1138.5709800414004,-28.68022562897301,-283.7319577873143,-139.97466251969485,-26.054463219994,154.75554835117222
9.0425,2.3734906982529504,0.516143650817518,-0.2430085330918144,0.0511458107547776,0.0174021858578526,0.0021947392024695,0.0013221912672117,-0.0019616194898894,-0.0152112502304694,-0.9998811660798206,-0.0371741364129228,0.0140608389646863,9.75102708822504,-0.0051913011835155,0.0194978212645947,-0.0020205845670782,3.48362239579904,3.506181028251791,3.050471199202817,1125.7157921851056,1131.1695889315047,1110.4259780054667,1138.5038009023713,-72.01566715695276,-206.60881343109864,-308.6990059708728,-37.25835833502801,154.755433448304
9.045000000000002,2.358805618477193,0.4592446282925471,-0.2045890887628392,0.059074617412974,0.0191757169440293,0.0007458708784922,0.0012520473634714,-0.0019857386910565,-0.0152345247318298,-0.9998808226634124,-0.037599266549547,0.0139979768533896,9.754411748876192,-0.0051742270009525,0.0194245329045774,-0.0021145314356609,3.483605708581148,3.506234926307808,3.050462888168368,1125.4587845142023,1130.7544152830508,1109.4183255924522,1138.3846882497253,-123.91197930480948,-94.4464588395664,-419.9111677803938,-60.92801281435034,154.7554234488609
9.0475,2.2737061473609845,0.3701822541534223,-0.1207912352227502,0.0654092943216788,0.0201248065118143,-7.061724672279525e-05,0.001158681550984,-0.0020367076539503,-0.0152642150541568,-0.9998803520395616,-0.0384406300690025,0.0147206207242017,9.758287738915966,-0.0051482223600066,0.0193396806974437,-0.0022084064058823,3.4835868364882363,3.5062873896804225,3.0504594057276684,1125.0962322885816,1130.6973566373067,1108.3264221665652,1138.1991608382996,-180.11333837559417,29.07799480708036,-480.185146289857,-106.93391270804716,154.7555185428147
9.05,2.1146314301764164,0.2401334749058199,0.0020848197931611,0.0709730598845988,0.0206747522165664,-0.0004977917403094,0.0010395162376788,-0.0021091040259896,-0.015290664183046,-0.9998799119364324,-0.0396106075253844,0.0162892767562517,9.762673804676695,-0.0051125156150679,0.0192476318173201,-0.0023078129304467,3.4835659581154808,3.506337501522808,3.050462174829056,1124.558217822324,1130.8998052570862,1107.0173998610023,1137.8500186861847,-275.4759065574059,132.2704835726902,-622.4880987247552,-203.3290708239884,154.75571701695657
9.0525,1.8522478266346567,0.0370242943323474,0.1701127848337501,0.0767294234768995,0.0210404777259412,-0.00058157862053,0.0008983571473558,-0.0021918500682429,-0.0153073749542455,-0.9998796159860645,-0.040911217409334,0.018625401246005,9.767594257110407,-0.0050670751384508,0.0191533485642279,-0.0024172201895693,3.483543539150455,3.506385164231144,3.0504709208381793,1123.7188527557944,1131.3587090551705,1105.2139816729407,1137.1825154841795,-335.1863436349716,191.790651634612,-700.8544653451764,-288.54146075333404,154.75607025911987
9.055,1.5871017346393377,-0.1726690588048787,0.3053285193791153,0.0806423733505787,0.021146379226193,-0.0002573562148023,0.0007434088765223,-0.0022759741220641,-0.0153161463978152,-0.999879442667296,-0.0421836019442923,0.0215519624736274,9.773076018438074,-0.0050126658648522,0.0190621157660376,-0.0025392020818246,3.483521494569236,3.506430445269991,3.050482550889759,1122.8822861041497,1131.858758515259,1103.5131275342771,1136.4073113824184,-354.8303561514231,212.57273812317493,-722.9399872698428,-351.7779499760214,154.75645744598307
9.057500000000001,1.2878339511053642,-0.4241067257836058,0.4052147572942799,0.0834461030036409,0.0209663389034338,0.0005908311967267,0.0005844467545306,-0.0023489193967537,-0.0153196486462739,-0.9998793661504344,-0.0431943064719263,0.024846852466586,9.779145824760244,-0.0049512748273514,0.0189791237985338,-0.0026738027283505,3.48350170859076,3.5064737506368697,3.0504935763685683,1121.9447009750368,1132.4215727457863,1101.5992817365911,1135.423625734299,-423.95555833884566,254.08544031884625,-888.0355763760666,-472.2051077876757,154.75693750270972
9.06,0.897103639325276,-0.7654556306143931,0.4466277037523559,0.0861584519124348,0.0201421657610139,0.0023720417264916,0.0004321354029202,-0.0024042348128856,-0.0153176150284491,-0.9998793933917376,-0.0438231539551826,0.0282597740939667,9.785825655560927,-0.0048860539722272,0.0189091238597409,-0.0028184318424484,3.4834848036628423,3.5065152441813257,3.050501889740447,1120.762508312455,1133.1291857168535,1099.0729496523963,1134.0462858434798,-431.5437755638817,263.20314825048405,-955.667188027618,-530.8253666837264,154.75761715413003
9.0625,0.5441086157292588,-1.0676136072836016,0.3914201637892533,0.0882759588548832,0.0186484804666277,0.0045204870628637,0.0002943512036839,-0.0024420583337877,-0.0153077193942387,-0.9998795521370604,-0.0440712197922855,0.0315858493826099,9.793128638877363,-0.004820928492328,0.0188561450600331,-0.0029681836655889,3.483471039778736,3.506555102478279,3.050506017252092,1119.786982097218,1133.7375884870387,1096.820945796454,1132.7694989008808,-369.13713233205334,249.84996144358288,-910.6336558275866,-528.5692728220653,154.75826725061833
9.065,0.16138050421608,-1.3583352890966192,0.2274622189928245,0.089753999036379,0.0159491584708425,0.007073469216611,0.0001741079992467,-0.0024643189738849,-0.0152891928827552,-0.9998798474924844,-0.0439664771644579,0.034707205023341,9.80105548333325,-0.0047600509580532,0.0188232590949582,-0.0031163223006417,3.4834603295300512,3.506593365997072,3.050505045448894,1118.9168226507952,1134.3784355240712,1094.519781373259,1131.40343947937,-312.3236643874373,266.0584927318307,-905.741758734934,-551.8553912355902,154.75900133402257
9.0675,-0.2407814189150875,-1.6114670734083802,-0.0202850417628888,0.0902548116048129,0.0121201297011833,0.0093070640247377,6.847338143822872e-05,-0.0024727323345067,-0.0152628970761292,-0.9998802641176971,-0.0435247140078988,0.0376165768703762,9.80959126016253,-0.004707359335529,0.0188123284164459,-0.0032549395002633,3.4834525712930526,3.5066308969195257,3.0504991854606534,1118.2253637752804,1135.067880950698,1092.2922370027786,1130.0102219447026,-209.95006974573144,293.80201551230084,-838.9784437351007,-545.9466325707637,154.759803028692
9.07,-0.6509096349442469,-1.7860267613198115,-0.3330015107257917,0.089323703019823,0.0071884180655718,0.0098816500270947,-3.188480377805265e-05,-0.0024714516869875,-0.0152333680073745,-0.9998807257959744,-0.0428025176412122,0.0404305115445505,9.81870270291106,-0.004666038204002,0.0188238434085951,-0.0033757003575697,3.483447587007048,3.50666892142743,3.05048877997136,1117.8670723020664,1135.847445601633,1090.3248891545832,1128.6737063165156,-55.519747337632126,369.9515684106527,-759.0562867077696,-544.9494962148212,154.7606839563587
9.0725,-1.125791771667099,-1.8738758491757168,-0.7091013746980251,0.0863465751100768,0.0006386181085662,0.0077670136700294,-0.0001322636527647,-0.0024659740451513,-0.0152061441956374,-0.9998811383212152,-0.0418808022761331,0.0431875994727787,9.828336962338842,-0.0046382004511122,0.0188569286640162,-0.0034701248714703,3.4834446220988937,3.5067079299611947,3.0504739874215008,1117.9477650385925,1136.9176387927507,1088.4969555692403,1127.285474463629,124.42704592142817,414.7525654372918,-551.2875290566674,-451.3049873368095,154.76182990776027
9.075,-1.4891413125038067,-1.8369010269570345,-0.9656341700710914,0.0824857841009084,-0.0049853113829227,0.0041839614676544,-0.0002319751218102,-0.0024621278267348,-0.0151837500509163,-0.9998814533764822,-0.0408478455523758,0.0458124438288532,9.83842171655922,-0.0046246956623767,0.0189094178779113,-0.0035301530167284,3.483442183599206,3.506748481037702,3.050455442465596,1118.4892075316736,1137.9212084288197,1087.5684515092992,1126.4171813798312,312.3755005587521,415.6193039835476,-222.89578108044375,-269.192572867272,154.7628570287253
9.0775,-1.8069847786138835,-1.6940601648793252,-1.1125790846401469,0.0779621884423642,-0.0103880934132663,-0.0001695982000281,-0.0003288398857925,-0.0024655101798671,-0.015167642524076,-0.9998816413547092,-0.0397894496765893,0.0482063308089423,9.84886626412446,-0.0046248496704474,0.0189780204297839,-0.0035488926390858,3.483439274367992,3.506790794561116,3.0504344190496377,1119.5096425413865,1138.995735312669,1087.382476663838,1125.9395115992925,537.781245519334,467.2235635810941,99.35253263044771,-114.1736581211944,154.7639569879617
9.08,-2.135865552694776,-1.4352755192010023,-1.1400881496724988,0.0725007848377079,-0.0157064403120473,-0.005378577737323,-0.00041737030502,-0.0024751260365929,-0.0151577507188809,-0.9998817130617405,-0.038666665140265,0.050211808871521,9.859563962451341,-0.0046365212235038,0.0190585568612254,-0.0035209342829636,3.4834345644940834,3.5068347292393693,3.0504129351244287,1121.1781137592695,1140.2573262467247,1088.0652141724515,1125.8463130892255,659.0588314923425,437.45250135438766,393.8586094653476,39.16849847874671,154.7653589596669
9.0825,-2.3689465911469583,-1.1857153599995145,-1.047467501620392,0.0678077819387437,-0.0186175655665933,-0.0090375925153523,-0.0004941398320231,-0.002484930271878,-0.0151536809154115,-0.9998816966768014,-0.037346339377235,0.0517207584050184,9.870394686629368,-0.0046562136463174,0.0191461797110551,-0.0034427894918172,3.4834272043946775,3.506881321951948,3.050392444778463,1122.8049366988475,1141.1829978194403,1089.3517697111645,1126.135354091686,659.8420127710475,320.8389557545569,639.052629053631,172.80274479832795,154.76659415634705
9.085,-2.555975519629701,-0.9509572589949422,-0.8672800244160197,0.062458741383726,-0.0198727014184442,-0.0113355202892521,-0.0005585076476087,-0.002490854864877,-0.0151535993309619,-0.9998816366265952,-0.0357412558625465,0.0526923663269936,9.881227511319729,-0.0046793874299643,0.0192356696944162,-0.0033129750976786,3.4834166894968055,3.506930788573333,3.0503738672474765,1124.4773238231255,1141.8615210254975,1091.26047731772,1126.7103268132173,698.6233782198996,222.25282564428363,940.8160873193431,287.19450529170047,154.76789718414102
9.0875,-2.710616092353981,-0.7282884250738308,-0.5984174676039922,0.0549833460315006,-0.0201232598516909,-0.0126898791976287,-0.0006120724123992,-0.0024835361956336,-0.015156121465118,-0.9998815792412604,-0.0336680934079504,0.0531411804345035,9.891924703923754,-0.0047008465154727,0.0193218411125542,-0.0031317319111096,3.4834037058056024,3.5069821123673903,3.050358506052184,1126.2980535899476,1142.294261947662,1094.055850147762,1127.571326618145,608.111721683038,87.88165724906251,1073.2813124624815,318.03820367005716,154.76953744671084
