t,ang_acc_x,ang_acc_y,ang_acc_z,a_vel_x,a_vel_y,a_vel_z,quat_x,quat_y,quat_z,quat_w,acc_x,acc_y,acc_z,l_vel_x,l_vel_y,l_vel_z,pos_x,pos_y,pos_z,mot_1,mot_2,mot_3,mot_4,dmot_1,dmot_2,dmot_3,dmot_4,vbat
7.844999999999998,0.528843453659496,-0.0342690995053086,-0.56172483905971,-0.1030679513763477,0.0978348991512059,0.023198380261544,-0.0294164285493531,0.0072845196158859,-0.004910946642655,0.9995284965797916,0.0699127663152833,0.0381603775871893,9.872623167589172,-0.1049884027718236,-0.1318178495200046,-0.0060784310932114,-5.020245117611712,4.503184631189408,2.045051161934393,1133.239814020804,1122.6889643834104,1131.995283992755,1155.31912740121,387.86254300167366,-97.995593815542,249.78292731753376,-124.98471585986672,163.11733650697352
7.8475,0.4646558827804697,-0.001890152615962,-0.4493402903272648,-0.1026993228754393,0.0979171654101738,0.0226603893657895,-0.0295480416162539,0.0074150922624432,-0.0048972239631876,0.9995237141617488,0.0707184440691364,0.0373951301459246,9.86691866395851,-0.1045108628416205,-0.1298852826492385,-0.0059378034467767,-5.0204982737255355,4.502862456755188,2.0450480655690906,1134.0829757654708,1122.258773147476,1132.3844011603028,1154.9373211415748,286.84344233406654,-233.14510066230463,43.12969506767566,-197.5690026819084,163.11781051710187
7.85,0.4284260859973586,0.0341438355275107,-0.3381162580955773,-0.1015359053770918,0.0980290780631246,0.0220072627236422,-0.029669806691858,0.0075604076000187,-0.0048884469101715,0.999519056996986,0.0713080760999041,0.0368254453684055,9.861113475183393,-0.1040355295481216,-0.1279543870002465,-0.0057965290154972,-5.020753642809183,4.502545432313752,2.0450453968939866,1134.6740312324744,1121.5232388800987,1132.2109324680935,1154.3312823878002,140.1243841330627,-276.6123674364794,-166.6480660129345,-238.6596327639432,163.11830541140907
7.8525,0.419481889610698,0.0584753112438,-0.2622056185396741,-0.1000557503881501,0.0982817926882412,0.0213450648858709,-0.0297825544300059,0.0077128181391285,-0.0048878210801512,0.9995145399105316,0.0718092744767525,0.0364365253896107,9.855213540919047,-0.103554625272559,-0.1260245953633655,-0.0056549531601522,-5.021011769318731,4.502233334445435,2.0450439237671434,1134.783597686136,1120.8757113102938,1131.551160830238,1153.744022977755,-29.666528925645885,-239.5310488192132,-344.9134527768438,-238.20198872431828,163.11865945319795
7.855,0.4207836275498957,0.0745241249210862,-0.1964524282834933,-0.0983583602536997,0.0985937971064017,0.020728006301916,-0.0298897545388019,0.0078671027783318,-0.0048927643865159,0.9995101087409208,0.0722905994177483,0.0361560992421093,9.84923061023003,-0.1030608067449235,-0.1240935394541438,-0.0055161215553861,-5.02127251395743,4.501925635114592,2.045044861682539,1134.5256985878464,1120.3255836360026,1130.4863652042093,1153.1402724441787,-177.3614053476687,-204.9809543593754,-511.1726029239544,-252.9801742719482,163.11895709183344
7.8575,0.4328441304084502,0.0845432307181586,-0.1210011898726853,-0.0964449832063415,0.0988772051900747,0.0201602900336102,-0.0299974063783329,0.0080183856313414,-0.0049015669531272,0.999505627710792,0.0727959282244316,0.0358586383668354,9.843183599404416,-0.1025460429203701,-0.122158512414473,-0.0053850429346433,-5.0215357304826735,4.501621686605935,2.045049483766528,1133.8967906593975,1119.8508065384967,1128.9952978156184,1152.4791221063952,-263.06744375306715,-143.97927165455565,-539.0548545513526,-220.8195421626944,163.11925432129604
7.86,0.4597908401475135,0.0867992163278968,-0.0561886228322077,-0.095247209186307,0.0990685490287112,0.0198388954284604,-0.0301121337836729,0.0081648532473136,-0.0049121635061311,0.9995009214619344,0.0732932073831555,0.0354021801439478,9.837099536636009,-0.1020025287906899,-0.1202163721315782,-0.0052683070084788,-5.021801541258527,4.501320521339334,2.0450588811070745,1133.210361369081,1119.6056872777299,1127.7910909314523,1152.0361747333652,-282.9423093987376,-78.91291820519822,-426.35034218484174,-141.77717505513402,163.1194561852586
7.8625,0.5201532306139665,0.0849087438755645,0.0146743606303106,-0.0944217047586014,0.0992997292207285,0.0196558817677729,-0.0302363821963317,0.0083076872174637,-0.0049200482312026,0.999495928871834,0.0736800098060267,0.0347223576008086,9.83101213742101,-0.1014237998339401,-0.1182634428011193,-0.0051723003391334,-5.022070107077972,4.501022064049272,2.0450736866426262,1132.482079112404,1119.4562419474707,1126.8635461046943,1151.7702362311195,-306.4878488099632,-66.41911939164089,-307.7818730521423,-58.38418705716446,163.11961571539945
7.865,0.6475637351551266,0.0805122964934752,0.1087515940326259,-0.0934722580062115,0.0995310378444547,0.0195966683551041,-0.0303675979941038,0.0084472493419575,-0.0049245894038992,0.9994907279690304,0.0738559907657194,0.0338515026695146,9.824960448377665,-0.1008038788724674,-0.1162971905638326,-0.0051016118477491,-5.022341783959308,4.500726785509525,2.045093202232283,1131.6779221250313,1119.2735916807717,1126.252181566192,1151.7442537980792,-272.727093823508,-85.04471730055718,-132.73693178287175,54.98638772977806,163.11976446344983
7.8675,0.8049490558143906,0.0771702999280247,0.1937908165578773,-0.0923935959836441,0.0996034921990731,0.019718957412758,-0.0305000465595773,0.0085818275200687,-0.0049256140753486,0.9994855096818744,0.073755757240551,0.0328827090257637,9.81898815492924,-0.1001388234095594,-0.1143158552146132,-0.0050585616257373,-5.022615820423727,4.500435036880586,2.0451161288409048,1131.1184436432864,1119.031018360968,1126.1998614457796,1152.0451681697687,-197.9159323105292,-131.04563603119735,58.72576093261284,206.7869521289184,163.1198571638029
7.87,1.011683427607565,0.0756201701818373,0.2811043470476565,-0.090706806018742,0.0995188318785762,0.0201156206278305,-0.0306251557856142,0.0087117435180874,-0.0049165449766157,0.9994805655311768,0.0732806912026631,0.0319614797672103,9.8131426018276,-0.0994289107068954,-0.1123173368770162,-0.0050435622996733,-5.022889480752104,4.500147742847473,2.045140473155988,1130.6883424634786,1118.6183635006155,1126.5458103708547,1152.778188558724,-155.51727894976798,-197.05594408829225,177.59336268577877,376.01320984564046,163.11992206302708
7.8725,1.2493884703855245,0.0743372104472578,0.3642559315517437,-0.088376526133767,0.0993230620981795,0.0208366099573082,-0.0307366650375973,0.0088415173689132,-0.0048928909377861,0.9994760717153196,0.0722549740835457,0.0311889498257872,9.807474791760365,-0.0986770159269802,-0.1103010359108394,-0.0050564127055721,-5.023159700290181,4.499865845928496,2.045163387327032,1130.3408572485375,1118.0457386405267,1127.0878282592087,1153.9252342189968,-131.791955722295,-262.4665116773541,221.8903741797523,562.3394912831037,163.11996698508966
7.875,1.5061871886212987,0.066985397938671,0.4334962449023722,-0.0850815182313486,0.0990779512416903,0.0220445764671779,-0.0308333893249449,0.0089772278012497,-0.0048556161625915,0.9994720120730796,0.0704807605262045,0.030571138239443,9.802037227579879,-0.0978879335555466,-0.1082685118632593,-0.0050963012668082,-5.023425376239067,4.4995900208042885,2.045182173432308,1130.0293826848672,1117.3060309422287,1127.6552622417537,1155.5898860151394,-149.15921796755674,-348.9774206659678,202.22768069093468,839.5119534536839,163.1199910673718
7.8775,1.809941810000263,0.0351293346338269,0.4914820578017377,-0.0800648952648225,0.0989452277000966,0.0240226657070979,-0.0309144355312464,0.0091220945151373,-0.0048073055780056,0.99946838256223,0.0678340550371863,0.0301138423703139,9.796878587808889,-0.0970690410864183,-0.1062226324968231,-0.0051601670990164,-5.023686505012204,4.499320647096679,2.045195371140448,1129.5950611586995,1116.3008515371969,1128.098966662663,1158.1227939862652,-183.23751246412417,-374.56402268386114,92.15711998226848,995.2597305301636,163.119999470704
7.88,2.041710408330089,-0.0269535423464715,0.5179222574880125,-0.0752804705003827,0.0991679113403527,0.0258506670805384,-0.0309804341499283,0.0092719482182191,-0.0047457783860389,0.9994652221550688,0.0643647772709838,0.0297982064378101,9.79204116518107,-0.0962312714623956,-0.1041661075508305,-0.0052427183423992,-5.023941126315869,4.499058379641378,2.0452035394034462,1129.1131951225464,1115.4332108288097,1128.116047841665,1160.56618466779,-228.4518339030959,-338.33458782388146,-89.21460997444417,1005.1856031144084,163.11999158522852
7.8825,2.234147739945405,-0.1457610198521524,0.5303143355297517,-0.0699218380687452,0.0996426114753367,0.0273817896744966,-0.0310356071998079,0.0094193678588057,-0.0046745503836565,0.9994624584204206,0.0602093769006439,0.0295445457356371,9.78756086485972,-0.0953863103687311,-0.1021031664124911,-0.0053384269545176,-5.024188202409098,4.498802709007763,2.045208155341064,1128.4528019891843,1114.6091785980775,1127.652893612791,1163.148722001837,-333.4399916428609,-341.1512334641957,-322.6108850357446,1109.3424153259327,163.11997034681158
7.884999999999998,2.4046974518944966,-0.3675453358197817,0.5484393033279668,-0.0628124269995098,0.1000094392799181,0.028665091347531,-0.0310829184939566,0.0095661204693844,-0.0045946794166309,0.9994599794228688,0.0553577379127085,0.0293038862746897,9.783466338138275,-0.0945475632359198,-0.1000376234295329,-0.0054434230357899,-5.024427672779972,4.49855299578482,2.045209359752713,1127.4459951643323,1113.7274546614888,1126.5029934164863,1166.1128967444197,-397.34582088154576,-302.54701055883476,-515.8908943703519,1020.196080585514,163.1199312118584
7.8875,2.4901037999616054,-0.6171408196667852,0.5809189354070545,-0.0565226111043689,0.0997830141073403,0.0294055749218668,-0.0311241090804866,0.0097044214540115,-0.0045060048365232,0.999457804735867,0.0500193167351057,0.0290596895650271,9.77977555796053,-0.0937290908289942,-0.0979730058118998,-0.0055523689451611,-5.024658389705613,4.498309428428011,2.0452081797198938,1126.4660728847766,1113.0964435452831,1125.0734391409392,1168.2497024047643,-400.9293510011785,-232.7673993344524,-655.148064456796,740.3066491337293,163.11988810117515
7.89,2.516110023312904,-0.9172865475234876,0.6420463127060407,-0.0502980598996188,0.098583513737261,0.0301559155553668,-0.0311636300243422,0.0098233075965046,-0.0044136198061593,0.9994558754451331,0.044491175138441,0.0287518469296191,9.77649875898574,-0.0929433683452228,-0.0959135025166082,-0.0056608471108698,-5.024880076971509,4.498071685530607,2.0452065353311575,1125.441348409326,1112.5636176648163,1123.2272530942018,1169.814429990089,-394.2212127012765,-200.11313908881192,-791.6777141433781,508.4229627960321,163.1198346300505
7.8925,2.4970721120003505,-1.2368664875127469,0.7267124422355341,-0.0442228181265643,0.0962991748379928,0.0311903833108286,-0.0312022479954437,0.0099206065028172,-0.0043191493080986,0.9994541767188464,0.0389293922292351,0.0283968414122348,9.773638146674752,-0.0922019546798976,-0.0938621521226565,-0.0057664112976917,-5.025094111873438,4.49783937597072,2.0452056814056294,1124.4949668212703,1112.095877849839,1121.1150505702224,1170.7918172187447,-325.7651745272211,-174.16448105441677,-884.0121548410212,240.64382786833048,163.11977258800005
7.895,2.431465689016473,-1.5459924929936495,0.8296491428080459,-0.0384018902367931,0.0925671042957531,0.0326154069206533,-0.03123785497196,0.0099944572036384,-0.0042225359841535,0.9994527917751092,0.0335085470857495,0.0280720628564533,9.7711876194325,-0.0915141613014272,-0.0918211515553059,-0.0058670606626327,-5.025301610283413,4.49761240498967,2.0452062718468444,1123.81252253669,1111.6927952595443,1118.8071923199968,1171.0176491294303,-197.16321615288015,-161.65246457667652,-1021.5622052381368,-60.86932292887598,163.1196997745442
7.8975,2.3090522214001514,-1.8633159701843145,0.9513308389752632,-0.0320267408268388,0.0867315018663885,0.0345554169963899,-0.03126849072876,0.0100453450246623,-0.0041264469431345,0.9994517679430152,0.0283717652657079,0.0278562078241247,9.769134955467766,-0.0908854199858772,-0.0897925806985709,-0.0059619445218727,-5.025505268535243,4.497390955904644,2.045208908690394,1123.509150740506,1111.287615526956,1116.007239544032,1170.4874706041003,-3.826930920468012,-131.5138321104342,-1000.34035624319,-303.38713273591304,163.11959879694615
7.9,2.1752110329889542,-2.0611082022544087,1.0277367143147742,-0.0271255951820831,0.081248122633157,0.0365000593389026,-0.031289042481781,0.0100801486856963,-0.0040376550266186,0.999451170586858,0.0235429935835544,0.0278918310879296,9.767461649131535,-0.0903165788609031,-0.0877786002056224,-0.0060511462896476,-5.025708716689216,4.497175176469433,2.045212752987793,1123.7933878820877,1111.035226098992,1113.8054905387808,1169.500713465751,230.67157246901425,-75.56680000070787,-817.1805284392294,-468.3951182145038,163.11950205551508
7.9025,2.0070379473052835,-2.177076134622305,1.0426328053133975,-0.0222434843686694,0.0758819487367763,0.0393448447741952,-0.0312940259125822,0.0101048902890618,-0.0039582367325975,0.9994511051302868,0.0190696704136027,0.028327044957624,9.766143917799678,-0.0898054665714593,-0.085779795646362,-0.0061345248525943,-5.025913704234532,4.496965290597828,2.04521631705611,1124.6625086028507,1110.9097815269524,1111.921336901836,1168.1454950130278,493.8512621316127,-15.521483019029223,-721.0575774968373,-634.4598160480608,163.11939024182107
7.905,1.7584656816753892,-2.2186329501836934,0.9480315425828773,-0.0162592814253821,0.0698711335283034,0.0436827722284997,-0.0312856806945902,0.0101265559838681,-0.0038857459425132,0.9994514414931016,0.0149797184163373,0.0291553030312411,9.765156694297529,-0.089347040204467,-0.0837950390393978,-0.006213246482407,-5.0261204926099134,4.4967606156779585,2.0452192766077095,1126.2626441927457,1110.9576186838967,1110.2002026512969,1166.3284143855108,644.9468035748533,57.1170185992299,-523.1396116823017,-670.6410661751449,163.1192357419938
7.907499999999998,1.5101004985298676,-2.169957579723601,0.7565945992441339,-0.0113642533871438,0.0648817022825817,0.047407407929812,-0.0312709796905049,0.0101538615992154,-0.003824022230043,0.9994518548125418,0.0112483483140387,0.0302746062212686,9.764473301089865,-0.0889319932979512,-0.0818233822709857,-0.0062892884150812,-5.026330658862976,4.496559978314744,2.045222267255509,1127.8872426207251,1111.1953666199483,1109.3056388434245,1164.792289682152,657.556046280129,139.6190894412514,-233.29804476789417,-600.4072480631877,163.1190877172371
7.91,1.228524702355644,-2.0282073016950806,0.450060253605627,-0.0072215717675875,0.0594850891119827,0.0503674027715789,-0.03125544917773,0.0101938646132428,-0.0037725530875267,0.9994520971875086,0.0078679058903334,0.0316035957882373,9.76406373087293,-0.0885492280169852,-0.0798622781229561,-0.006363695963404,-5.0265457870399,4.496362855016548,2.0452250675956702,1129.5504244241463,1111.6557141311032,1109.0337124274574,1163.326378145195,679.4527045195384,248.5935287605637,27.29966321998773,-625.351538446414,163.1189167993817
7.9125,0.8829764650091797,-1.7445321129736135,-0.0150130692744522,-0.0039412277310971,0.0528232303237501,0.0522807551929752,-0.0312441815269412,0.0102545371373769,-0.0037323495689623,0.9994519203317273,0.0047869408559097,0.0330612566597851,9.763896081509236,-0.0881856573411961,-0.0779087797409643,-0.0064372322534123,-5.0267676253577,4.496168839979593,2.0452271759442495,1131.2845061433231,1112.4383342637516,1109.4421371595245,1161.6655319899196,556.0130005172714,314.0069614818525,265.3260642278439,-598.0959947761803,163.11868179239053
7.915,0.6189764317199586,-1.4193230320889108,-0.4390536475170351,-0.0026548070063955,0.0477976412731444,0.0521626154100385,-0.0312411548728698,0.0103387619702149,-0.003704404606921,0.9994511639871818,0.0020254641416124,0.0345787595449681,9.76393698113684,-0.0878275727225004,-0.0759595499865027,-0.006509249679124,-5.026996596266457,4.495977537677527,2.045227928266268,1132.3304894267324,1113.2257489385124,1110.3603427485966,1160.335898171314,309.0474139682167,322.18250621577454,465.863986679652,-528.6592123615832,163.11845846395943
7.9175,0.4134074601478588,-1.0277862531995872,-0.8359329429010736,-0.0023620695249114,0.0440161455232999,0.0501480269111778,-0.0312426458133395,0.010444305212447,-0.0036867381670478,0.9994499723681034,-0.0003235107944606,0.036226339910538,9.764150221694985,-0.0874622850403128,-0.0740107031013095,-0.0065768742700695,-5.02723121251001,4.495789856594681,2.045226081113652,1132.8297432131644,1114.0492467948304,1111.7714570929227,1159.0222359281115,103.21125542591508,316.8990995979197,619.766647588644,-524.7006328307746,163.1182034694402
7.92,0.2726655167705564,-0.6140335405028831,-1.1615801420372536,-0.002456495407597,0.041590670329414,0.0465243544892341,-0.0312429676128701,0.0105624691699949,-0.003674208633081,0.999448632464926,-0.0020668502733006,0.0381006620395569,9.764500195096478,-0.0870792066963928,-0.0720579583628943,-0.0066360276173146,-5.027469157420128,4.495607002956825,2.0452212728570824,1132.846545703862,1114.810244436502,1113.4591759865395,1157.7123950071602,-101.23141915628582,268.7884386296958,698.780624448333,-516.3754760097728,163.11791982457552
7.9225,0.2160732761839236,-0.2230046357127351,-1.3556900381404775,-0.0027093105777707,0.0411801023364903,0.0414527358344099,-0.0312402584923236,0.0106831847731341,-0.0036584523870283,0.999447342879998,-0.0030083359915748,0.0402111228383626,9.764955759271128,-0.0866705713601434,-0.0700966362742386,-0.0066835495270743,-5.027707259935083,4.495429084547033,2.045213994764244,1132.323586117383,1115.3931889879789,1115.2653602151643,1156.4403585480627,-328.7870301352611,198.51862859273265,759.0988717351754,-531.9019934164885,163.117598677988
7.925,0.2363804608861291,0.1584641731242885,-1.4109325576703229,-0.002783270960334,0.0427792904240317,0.0349896456019761,-0.031233892280897,0.010801402337846,-0.0036332053248855,0.9994462094959848,-0.0030757528131516,0.0425313635824423,9.765490842486727,-0.0862310061738254,-0.0681225807195662,-0.0067182635273944,-5.027943063308417,4.495255817340981,2.0452049575326656,1131.2026105531859,1115.8028375794656,1117.2546703452156,1155.0528850400779,-466.53674451750794,99.64289719123585,655.7730362397846,-467.8623155173327,163.11716605609803
7.9275,0.3103438550671348,0.3721337476241928,-1.319142428859573,-0.002521626838995,0.0449915610928297,0.0302590155398291,-0.0312260695091019,0.0109095111552613,-0.0035934156441187,0.9994452824463091,-0.0021681262069728,0.0449691605566915,9.766086315076496,-0.085757761989075,-0.066132022365594,-0.0067400962023337,-5.028174896378114,4.495087195713837,2.045195709143104,1129.9909023947955,1115.891403473935,1118.5442253963631,1154.1010469704763,-505.8355903922921,-7.714616989004456,400.58213401546806,-320.0518474792216,163.11676327460725
7.93,0.4159829165540523,0.4657024563476792,-1.125869577049286,-0.0016850711242823,0.0471002631366475,0.027154962531857,-0.0312207067243967,0.0109981234886974,-0.0035428006818066,0.9994445548078992,-0.0001745200224448,0.0473909677684178,9.766730957643395,-0.0852494640050481,-0.0641229022206302,-0.0067501413175076,-5.028401886083996,4.494923216160274,2.045187992456159,1128.673432601224,1115.7642644945206,1119.2575810152932,1153.4526258026815,-561.7595955745975,-83.60738297024177,164.7159062057234,-206.97660087694643,163.11631311339423
7.9325,0.5432786868762666,0.4534697547148052,-0.8420677663545884,0.0002158941679328,0.0489691503526736,0.0254544162362929,-0.0312184066872462,0.0110632243847111,-0.003488030156527,0.9994440660782298,0.0028963093975935,0.0497199263310494,9.767420769970716,-0.0847064559892777,-0.0620939098717262,-0.0067510589651125,-5.028622464432177,4.494764133326729,2.04518234599421,1127.1821044169224,1115.4733665590838,1119.3678049273915,1153.0661639660916,-504.0221701772333,-110.06335081219964,-72.08622263983824,-82.53034840340835,163.11571399536223
7.935,0.6264475279791082,0.3606841178935344,-0.604732237585423,0.0024402150120015,0.04990443269162,0.0251177597308188,-0.0312179182480841,0.0111130890862598,-0.003433763130979,0.999443779658682,0.0067901323789335,0.0519076517248614,9.768160748053775,-0.0841307197905117,-0.0600436297380109,-0.0067481135953319,-5.0288358321184905,4.4946094620972685,2.0451790605905527,1126.153321750338,1115.2139477404596,1118.897149902094,1153.0399740606645,-339.93870232835246,-85.28781395171062,-264.5141346340608,30.90377847147531,163.1151625514466
7.9375,0.6688777187830737,0.2104814499300471,-0.3971133775992354,0.0050642559847076,0.0502728832031222,0.025066540645836,-0.0312251190297652,0.0111601239942235,-0.0033840153446366,0.9994433257094288,0.011169073248963,0.0537619686049841,9.768968969419788,-0.0835249529514449,-0.057970814641958,-0.0067484034056641,-5.029044216628417,4.494458017823321,2.0451789459362737,1125.4824109052809,1115.0469274893253,1118.0452342542214,1153.2206828584488,-191.3341083693508,-34.214676852344205,-393.5769403399802,96.41329570831864,163.1145532235306
7.94,0.6732309974630976,-0.0071482174928646,-0.1910703678769286,0.0079619766525005,0.0501882084267168,0.0248812340411403,-0.0312379771169486,0.0112119556010041,-0.003342438539609,0.9994426213913834,0.0157873163866788,0.0552442426539598,9.769869516621341,-0.0828919577766136,-0.0558748717674388,-0.0067570562294815,-5.029249574668695,4.494309723575034,2.0451811225386183,1125.1966512084912,1115.042874356198,1116.929265200394,1153.522040539206,-11.913439620457464,36.9772412736446,-371.50036701542257,104.32485949245569,163.11375072475875
7.9425,0.6518364632445057,-0.2029947539510722,-0.0499105839538394,0.0094511208579273,0.04974785399438,0.0244230027909394,-0.0312530839030022,0.0112712809249755,-0.0033098397576575,0.9994417040192468,0.0204993131914872,0.0563439347306302,9.770893931459902,-0.0822345089360334,-0.053755682435744,-0.0067776427386225,-5.029452980185436,4.494165448947117,2.0451841811638025,1125.4228437071783,1115.2318136956935,1116.1877324191444,1153.7423071559112,181.28243943433904,113.22530233742567,-207.25349199206437,67.42153260115772,163.1130193137536
7.945,0.6269518363088052,-0.3985651862936128,0.0691168590984345,0.009929924346444,0.0489858408683314,0.0237566464626673,-0.0312664684679788,0.0113409460021057,-0.0032839077748701,0.99944064923336,0.0251627175670477,0.0570652084546429,9.772080075978963,-0.0815551176135553,-0.0516137926203151,-0.0068128603310804,-5.029654533707801,4.4940264070183025,2.0451870127768648,1126.1030634056629,1115.609000867885,1115.8929977404339,1153.8591482022118,333.360665949256,175.25171154634708,-25.58902173600527,27.91499835184427,163.1122190043435
7.947499999999998,0.6094878757083703,-0.5841609183935527,0.1718914159547441,0.0102908790015243,0.0479980981788589,0.0234544366348937,-0.0312769487465996,0.0114258408586035,-0.0032595394411773,0.9994394420528114,0.0296023996130979,0.0573644149677987,9.773471536334378,-0.0808558690095441,-0.0494505560714168,-0.0068650550077182,-5.029854840005849,4.493892726990092,2.045189891347248,1127.0896470369248,1116.1080722534252,1116.0597873104643,1153.8818821476705,442.2411808509972,219.53760530955617,170.69583094908376,-7.822927131974377,163.11135900585055
7.95,0.5974488410377414,-0.744972453840593,0.2481235048686889,0.0113482200056794,0.046509056639521,0.024123818876005,-0.0312845199642272,0.0115280191606662,-0.0032307741579266,0.9994380759352662,0.033704379630428,0.0571855556959785,9.775113833881388,-0.0801382671309324,-0.047268528027687,-0.0069351534539669,-5.030054610882316,4.493764777027081,2.0451928001216295,1128.3142693099176,1116.7066888944328,1116.7464768951793,1153.820033566552,553.2518392395149,279.579466944735,379.19001997327973,-37.09003371936308,163.11042491892266
7.9525,0.5709377353596198,-0.8902882175242661,0.2966007276238969,0.013345495811244,0.0436460042452969,0.0256435006320589,-0.0312874719916186,0.0116433849248202,-0.0031895060339134,0.9994366830014036,0.0374822938025745,0.0565193016142161,9.777049732163299,-0.0794035116226766,-0.0450712892077952,-0.0070218005392249,-5.030254152539614,4.493643251355663,2.0451950177670635,1129.8559062331228,1117.5059695881491,1117.955737410331,1153.6964319790736,545.8897567402462,306.9569703884619,460.5613728027136,-49.13952656797951,163.1092170579823
7.955,0.5247146038332807,-0.9600712749479122,0.2976025356698565,0.0150590334141163,0.0403670127317799,0.0269547267924017,-0.0312855145456976,0.0117641475476535,-0.0031339250430765,0.9994353813487674,0.0410212870450584,0.0553469776053504,9.77931761458484,-0.0786519183761346,-0.0428646328465858,-0.0071221085173797,-5.030453374709815,4.493529074142496,2.045195783043712,1131.0437180936187,1118.241473746375,1119.0492837591928,1153.574335933712,418.8732578452434,311.71511856192166,396.13980729437515,-52.54184269342771,163.10813812141984
7.9575,0.4424589774966227,-0.9753572787735854,0.2636835849266835,0.0166548069100213,0.0368938180302748,0.0280089619076048,-0.0312790659198526,0.0118824331322607,-0.0030710572714639,0.9994342498571442,0.0444053382557828,0.0536572258741629,9.781948549718471,-0.0778830650618481,-0.040656662353066,-0.0072322420691195,-5.030652366657444,4.4934238842628975,2.045194426902569,1131.9502725223488,1119.0645451809587,1119.9364364468029,1153.4337227656065,299.3966705381872,380.87524656494577,289.76069856140094,-70.16687433397387,163.1069853675956
7.96,0.2984723317077691,-0.9526387389245452,0.1999129677523426,0.0185299683858437,0.0335614698803915,0.028830256526409,-0.0312662770807772,0.0119888684427473,-0.0030099604210272,0.9994334629987776,0.047752546754439,0.0515033048532052,9.784962100612255,-0.0770967928041909,-0.0384562982262671,-0.0073470794083563,-5.030851090620807,4.493327538826827,2.0451917183293244,1132.5407014463099,1120.1458499791995,1120.4980872519996,1153.2235015620422,119.04918788536888,403.37736839343,103.88288361155212,-87.43889097031757,163.10551980346966
7.9625,0.1461222691578069,-0.92697169909469,0.1438148029973491,0.0196806866644829,0.0317212486631052,0.0291068185663241,-0.0312454336605309,0.0120740827017379,-0.0029596245973595,0.9994332066104156,0.0511887804974545,0.0489554670599098,9.78836514797036,-0.0762936309638454,-0.0362723825655872,-0.0074608042240255,-5.031047936518494,4.49323939610942,2.0451881355861268,1132.5455184617758,1121.0814320229258,1120.4558508648606,1152.996528310755,-96.64137897757632,361.2957312560943,-115.5427746381999,-104.49304064018402,163.1042332297378
7.965,-0.0226753659583107,-0.927602847243107,0.1039162519621776,0.0199643496014068,0.0306206802122201,0.0290722346612336,-0.0312178937429103,0.0121360204726443,-0.0029247981849414,0.9994334875310936,0.0547096317342471,0.0460405376606391,9.792152252314963,-0.0754750999918882,-0.0341124846249465,-0.007568260683046,-5.031240829086093,4.493159254532534,2.045182857914217,1132.057494551422,1121.95232863548,1119.9203733788088,1152.7010363588413,-296.52026606041267,335.96561049162835,-309.007270180525,-147.2470518143868,163.10288396935442
7.9675,-0.2164458396810183,-0.9814231969409768,0.0922411229698909,0.0194549417593837,0.0295646300960509,0.0289169151282093,-0.0311883420262291,0.0121787267704039,-0.0029075828985188,0.9994340692302262,0.0582026039251177,0.0427356748751339,9.796304377388017,-0.0746434058504151,-0.0319827474045181,-0.007664758366299,-5.031430380250124,4.4930860390977125,2.0451749679925006,1131.0629171314736,1122.761260075384,1118.910814513958,1152.2602930516828,-393.6394302103138,231.5474185149064,-388.8562299837386,-174.8777398924668,163.1011989095013
7.969999999999998,-0.3501879443832392,-1.0693873382000876,0.1206325317525945,0.0185620873930378,0.0284075995628268,0.0287813081103623,-0.0311600785560959,0.0122085304375075,-0.0029048607201799,0.9994347393777692,0.0615241009737633,0.0390573077539425,9.800785821562371,-0.0738013653635305,-0.0298872756236177,-0.0077453021042837,-5.031617279124426,4.493018615215235,2.045164163324644,1130.0892974003705,1123.1100657280547,1117.97609222889,1151.8266476593788,-365.75251085629,45.35070291922335,-341.0782904056832,-181.55644799067363,163.0997442663074
7.9725,-0.433885493353471,-1.1784345497464193,0.191865960876666,0.0174494351268492,0.026428241300924,0.0286754544642863,-0.0311335204696449,0.0122355421778389,-0.0029103138003301,0.9994353518222936,0.0644676207597967,0.0350879763063763,9.80554409831927,-0.0729520137240743,-0.02782830062024,-0.0078050624585501,-5.031802289781422,4.492956012217119,2.0451499697273654,1129.2341545771924,1122.98801358998,1117.2054230619297,1151.3525108117296,-287.20188312408993,-138.39354001327249,-249.8992267825152,-187.88218766718973,163.0982422435794
7.975,-0.4626926060045284,-1.274381499430946,0.295711034797028,0.0161150260083241,0.0235316464008064,0.0287206837727716,-0.0311085492595715,0.0122667252063957,-0.0029148706790258,0.9994358375196976,0.0668985750346237,0.0309273809838916,9.810510786474833,-0.0720985655806207,-0.0258062235028324,-0.0078389243778849,-5.031985103903874,4.492897914686001,2.0451321389463883,1128.6532879847496,1122.4180980279882,1116.7265960949771,1150.8872367210429,-140.76634912107994,-334.4761565501429,-100.93968847654864,-168.85450246937032,163.09670430917046
7.9775,-0.4125018887864592,-1.3121430230606383,0.4277907745641419,0.0144182008387462,0.0195346555976362,0.0292117143469916,-0.0310857447732579,0.0123041006335465,-0.0029097749104372,0.9994361756174504,0.0687859802551352,0.0266656886554372,9.815603381529218,-0.0712442289076124,-0.0238201034885416,-0.0078418031531389,-5.032164638684007,4.492843835802158,2.045110782840059,1128.530322831587,1121.3156328072291,1116.7007246195467,1150.5082382993828,56.81881629370885,-586.6240295525256,94.01907043498086,-123.65265482381155,163.09512676634367
7.98,-0.2537293943398246,-1.2454422770390576,0.5960099558515806,0.0124213001235556,0.0138552380315296,0.0305274104981032,-0.031064559235934,0.012347682219838,-0.002889574621256,0.9994364025446328,0.0701413586562746,0.0224165386257412,9.820727620332656,-0.0703919389468223,-0.021868177957949,-0.0078095053557014,-5.03233997527437,4.492793398650761,2.0450863124256284,1128.9373820662183,1119.4849778802256,1117.1966914471523,1150.2689734469238,226.89087183398925,-729.9636714538947,253.84767805194852,-34.9413403590923,163.09319221086048
7.9825,-0.0446670620344101,-1.0821074018361856,0.7240418594889179,0.0114746529975727,0.009221978857828,0.0323009173377867,-0.03104540272807,0.0123949344883414,-0.0028446671690658,0.9994365710531032,0.0710359265895997,0.0182692363561375,9.825781442624681,-0.0695444861567665,-0.0199469030951036,-0.0077391950770447,-5.03251073832054,4.492746918739704,2.045060242100907,1129.6647771907567,1117.66581444996,1117.9699630098066,1150.3335315975871,338.7774203048211,-753.5567570850777,352.2346857281793,95.93246811682752,163.09154827597618
7.985,0.2258443891628801,-0.8191696568055628,0.8161613156326912,0.0117629274739959,0.0058488493681136,0.034777198228008,-0.0310301144534608,0.0124389661839547,-0.0027754758544373,0.9994367125346312,0.0716212299829799,0.0142818743491405,9.830658593215295,-0.0687036048612419,-0.0180530811861966,-0.0076295173156687,-5.032677241970383,4.492704219296674,2.0450354170048795,1130.6312691677424,1115.7171940948003,1118.9578648757931,1150.748635787508,435.2057853188036,-850.3162931482801,442.17666317200417,267.45264921774486,163.08987428353953
7.9875,0.5950293129477604,-0.4338089036035668,0.8671261808294719,0.013149444760652,0.0036681832438759,0.0381721482688214,-0.0310135277878595,0.0124746032664611,-0.0026848485665008,0.999437049386758,0.0720158721147462,0.0106404233679681,9.835250842674384,-0.0678699798822036,-0.0161829699028992,-0.0074811413973103,-5.03283986636742,4.492665605268219,2.045012879110801,1131.840806117351,1113.4142329842186,1120.1808463256666,1151.670794843676,421.718319507372,-817.10799069503,427.2964523152132,397.4796923581465,163.0878341310182
7.99,0.9222644272771204,-0.097643371141111,0.8570240132582416,0.0148033035854612,0.0033045569551842,0.0408798653260088,-0.0309905804989742,0.012503663417109,-0.0025769432821114,0.9994377110156099,0.072201672179477,0.0075154849627221,9.839455630869885,-0.0670429557696373,-0.0143321208079381,-0.0072975332868428,-5.032999781148784,4.492631120356688,2.044992559945959,1132.7398607652792,1111.6316541413253,1121.0943471373691,1152.7360342492987,312.0402656607861,-665.7670843369357,319.384174140073,455.843588682748,163.08611065170427
7.9925,1.2496677539288772,0.2027998216971818,0.8011342722990166,0.0171592444896056,0.0043455521246522,0.0430531074260894,-0.0309623285930519,0.0125256648988098,-0.0024641325661689,0.9994386393538378,0.0721984259060086,0.0049452127246444,9.84318009817563,-0.0662203603717203,-0.0124963742196881,-0.007083491394914,-5.033159201925632,4.4925994297392045,2.0449757341753525,1133.401007445655,1110.0853975625334,1121.7777671963672,1153.95001278709,225.4260175991524,-609.6286251017902,231.01754084546465,513.458784055103,163.08436671407347
7.995,1.6155244004177796,0.4752351167551649,0.7001255725846482,0.0211672269708961,0.0069209877141915,0.0447788358747813,-0.0309297818663957,0.012547856862984,-0.002357791503568,0.9994396796198484,0.0718739967678179,0.0029504595120804,9.846343990643676,-0.0653988391454002,-0.0106708587158634,-0.0068457845072036,-5.033321532271679,4.492568949426718,2.044962755088915,1133.8669908532747,1108.5835110158164,1122.2494348415964,1155.303328169574,120.81305018114364,-482.36018757198633,109.01884097702585,433.79536083071815,163.08225531559611
7.9975,1.875719451258866,0.6102804103088137,0.6003074576456252,0.0253224808758921,0.0099074198305046,0.0457421501892459,-0.0308936764396163,0.0125712284882764,-0.0022661082292069,0.9994407715996207,0.0712206604425118,0.0015384661006301,9.848879714661395,-0.0645745818822881,-0.0088501965239194,-0.0065907923222227,-5.033488147362501,4.492539721918247,2.0449528960960697,1134.0050726965608,1107.6735966246736,1122.3228614012523,1156.1189895912437,19.18764616721132,-284.4316605728242,-38.0464561716516,212.82108526648244,163.08048428638213
8.0,2.062698156829033,0.6530152985212531,0.4911787134528542,0.030253998335001,0.0129005403762506,0.0465914071499679,-0.0308568033817054,0.0125950383430593,-0.0021946506088724,0.9994418219989384,0.0702655091354906,0.0006569655403838,9.850735912370402,-0.0637440353348979,-0.0070290758902595,-0.0063247374494929,-5.033658382941676,4.4925125903879355,2.044945458749403,1133.962929084111,1107.1613527129523,1122.059202560738,1156.3674335959065,-31.195405662362482,-135.67056884592574,-157.65407570528123,-18.391889925900635,163.07870657807163
8.002499999999998,2.1702003038809856,0.6417078004064402,0.3728392130288558,0.0358315723548505,0.0150881140385089,0.0474410017691469,-0.0308176045589995,0.0126198912877981,-0.002142078539147,0.9994428709833864,0.069014214688794,0.0003192336042604,9.851877237884061,-0.0629047639889888,-0.0052022500552865,-0.0060536359869359,-5.033829505481934,4.492488857633664,2.044939527678601,1133.8490956682488,1106.995243780444,1121.534591022726,1156.0270301416142,-44.64690484032174,15.327138140262255,-261.6972221232618,-280.91572114494886,163.07692764570328
8.005,2.164985014095673,0.6081984060715377,0.2367777334394931,0.0420250277392673,0.0159496766593148,0.0483493485817584,-0.0307717657192025,0.0126437352277825,-0.002103477666337,0.9994440867668964,0.0675279469418513,0.0005759350366541,9.852284792450526,-0.0620560067715018,-0.0033652860787259,-0.0057826744952338,-5.0339985733766195,4.49247011333929,2.04493415914644,1133.7396945599091,1107.2379884036536,1120.7507164501217,1154.9628549901815,-27.36167282941578,192.24534701040008,-380.91844839935624,-600.0353836330731,163.0751528912604
8.0075,2.0222847818344545,0.5961404023308938,0.0449272202150306,0.0493409647582039,0.0157861852489435,0.0493109469709205,-0.030716454467303,0.0126649128435813,-0.0020743384755642,0.9994455881072266,0.0658613495280169,0.0014351065347422,9.851958013261806,-0.0611988207207765,-0.0015150982282304,-0.0055165822511264,-5.034164154505279,4.49245700999889,2.044928886616946,1133.712287304102,1107.9564705154962,1119.629998780729,1153.0268532234484,19.38768076857217,325.128193108295,-417.036745394754,-769.6188359350966,163.0730355052146
8.009999999999998,1.8000310301768216,0.6332462589684908,-0.140011627404599,0.0546427397466116,0.0153721226433575,0.0497416954788524,-0.0306511138814194,0.0126803731366201,-0.0020542391232092,0.9994474334259666,0.0640960516934022,0.0028504169194962,9.850914088126151,-0.0603360355605117,0.0003497036237809,-0.005259392969056,-5.034324928068961,4.492450064183659,2.0449228132945887,1133.8366329637522,1108.8636293691948,1118.6655327231483,1151.1147608105068,92.5755886359368,414.6691952509997,-358.887715194513,-753.398325279945,163.07128635591448
8.012499999999998,1.4979022307727294,0.718686551602927,-0.3441898008694986,0.0586813561899168,0.0159598370320084,0.0495580700306334,-0.0305752153695564,0.0126886064458497,-0.0020408692879725,0.9994496654722624,0.0622898732190435,0.0047652373719937,9.849186771319262,-0.0594719708484764,0.0022297446447399,-0.0050148437727658,-5.03448000322348,4.492449505399976,2.044915105358916,1134.1751652472815,1110.0298164917508,1117.8355602047568,1149.2598615970492,206.9444456551213,557.908152417671,-295.0844852922722,-724.7022676683405,163.06955844341647
8.015,1.0836786180320468,0.8460973739652091,-0.5937379712796037,0.0621876007709599,0.0185982663508001,0.0484287558525813,-0.0304880512443528,0.0126852583530083,-0.0020267949965762,0.9994523785517486,0.0605672450977477,0.0071181291164484,9.846824280674115,-0.058611941391915,0.0041254892760465,-0.0047860256732964,-5.034628307416369,4.492455591895002,2.0449065082220654,1134.871355192028,1111.6531701312836,1117.1901102966867,1147.4912494721643,301.48416839046894,619.9608073376961,-153.53617949265174,-533.6882758601025,163.0675147314316
8.0175,0.7249075415862035,0.9456949559665244,-0.7883809414371866,0.0639758345050853,0.0217773337690607,0.0466530251041435,-0.0303931067942239,0.0126649134345677,-0.0020089104094472,0.9994555422061668,0.0590757879374076,0.0097628733480399,9.843889487906749,-0.0577616234523944,0.0060364368194334,-0.0045757758328454,-5.034769658118056,4.492468231514523,2.0448983107503143,1135.682586089234,1113.1296205284395,1117.0678793072934,1146.5914202177485,354.1864950062768,599.4526312348909,57.08846710546139,-225.35352877416636,163.0658396621496
8.019999999999998,0.382425030904778,1.0177296956466266,-0.9486228174826092,0.0648813888188143,0.0248407014279479,0.0441075743386297,-0.030296493901297,0.0126277647859095,-0.001985607901141,0.999458971783252,0.0578572916407949,0.0125000513142042,9.840458598473305,-0.0569263237556224,0.0079617686067012,-0.0043874154755549,-5.034904837838992,4.492486800803476,2.0448912499947007,1136.642287667059,1114.6504332874574,1117.475552632214,1146.364481828294,381.30004773582584,603.3171295850444,254.27703407977447,9.40925998406636,163.06419678672492
8.0225,0.0711484508170742,1.06273444999519,-1.0685415980267308,0.0654692306270303,0.0273851692456871,0.0410731859651861,-0.0302039304343967,0.0125806105890908,-0.0019598478237316,0.9994624018467972,0.0568241208928359,0.0151397309265201,9.836618032621864,-0.0561103961319253,0.0099002098054652,-0.0042247151687529,-5.035034725013529,4.492510554248244,2.0448861303774777,1137.5890863279135,1116.1462061763655,1118.3392644776925,1146.6384665176688,329.79309279689306,580.2157918157266,440.7505785586857,195.5181718168809,163.06258239645817
8.025,-0.1837366674293212,1.0760097040929577,-1.1338808223441879,0.0655262277637459,0.0294004923091062,0.0377549457193467,-0.0301234800006579,0.0125329270583902,-0.0019349767688737,0.9994654619594006,0.055838727884872,0.0174478811277364,9.832462228949952,-0.0553167304670887,0.0118506338577518,-0.0040910848698978,-5.035161293617215,4.492538401375244,2.0448840930304737,1138.2912531310435,1117.5515122465365,1119.6793055250075,1147.3420726873785,189.2129873561693,587.5108599949986,654.8202100805548,351.50026489320845,163.0610038916868
8.0275,-0.3975893104148403,1.0510336920389687,-1.1543572107698905,0.0644240499823708,0.0317316487547434,0.0341287285457612,-0.0300558733022179,0.0124957389510544,-0.0019122073198455,0.999467987385475,0.0547356911708295,0.0193375129106081,9.828087232991727,-0.0545463647251116,0.0138122264700857,-0.0039892850702099,-5.035286163377089,4.492570105435584,2.0448836599440443,1138.535151264694,1119.0837604763399,1121.6133655280946,1148.3959678421345,-47.922385665479375,532.8907253168533,715.5446302040277,381.1640558646408,163.05915262401916
8.029999999999998,-0.4794310705062622,0.9849793080201696,-1.1337265619770736,0.0624893369926524,0.0340389263511674,0.0316858297791677,-0.0299995917519941,0.012479351687316,-0.0018911586172913,0.9994698963844976,0.0533632259763029,0.020770360316529,9.823589037158829,-0.0537983969445091,0.0157842978006917,-0.0039208326918732,-5.035410782668224,4.492605512809209,2.0448832438459448,1138.0516412027164,1120.2159658731202,1123.2570286760272,1149.247892966701,-355.8873725585625,422.01193851017473,599.8419457630433,301.2865692011912,163.0576467158112
8.0325,-0.4468447513472705,0.8525344095333052,-1.0865086533055313,0.060175703761577,0.0370211610178346,0.029682759736357,-0.0299537104370027,0.0124923574626853,-0.0018695613326526,0.999471118556426,0.0516001865841144,0.0217023569132554,9.819061364708144,-0.0530700964991684,0.0177661322688252,-0.0038857091680056,-5.035536481776733,4.492644164469673,2.0448823071623408,1136.755714401901,1121.193820168891,1124.6125752569103,1149.9024006881407,-737.5790865353549,393.96860920185856,465.2644359445913,229.9721347647487,163.05618041336373
8.035,-0.2804836200536598,0.6015545479944175,-1.0038990702072619,0.0581652723012528,0.0410113070388532,0.0272977457749816,-0.0299155489463221,0.012537036637677,-0.0018442441179665,0.999471718722684,0.0494425008017632,0.0221318275114248,9.814591196696057,-0.0523572894926809,0.019756615491123,-0.0038819980896865,-5.03566401658731,4.492685888452272,2.0448805658323463,1134.363745770039,1122.1858089191298,1125.5833508557505,1150.3977536405253,-972.4415484403496,331.1352465657114,218.15121597514707,143.40203374766259,163.0544684747669
8.037499999999998,-0.0533607349727536,0.3214031998730187,-0.9087711924252128,0.0574097658599879,0.0437589553864835,0.0250193166941655,-0.0298744607970724,0.0126053460449235,-0.0018090090254421,0.99947212981137,0.0470811264646856,0.0222220275208708,9.810253337449076,-0.0516547702286275,0.0217541502551224,-0.0039059211793809,-5.0357928808954995,4.492732437584358,2.0448763722154553,1131.8935066597003,1122.8494964017193,1125.7033313367858,1150.6194108568789,-1010.5417863878087,225.59423334461027,-98.4083074156234,77.91750156696854,163.05308303715907
8.040000000000001,0.2355171995469892,0.0011512606458499,-0.7763853488482754,0.0575317843121792,0.0447645585079496,0.02241177096331,-0.0298238489121926,0.0126853927931985,-0.00176730745025,0.9994726905388798,0.0447613438135646,0.0220707480584947,9.806113532185208,-0.0509573062809156,0.0237553128957859,-0.003952432929914,-5.0359228944211525,4.492785129901243,2.044868845864609,1129.3110368380992,1123.313780085853,1125.0913093186723,1150.78734114836,-1065.910870201075,149.45558313422617,-404.1340910624336,101.67919513804237,163.0517423057559
8.0425,0.6139506876360074,-0.3669747312381721,-0.5691579477294739,0.0586854633525259,0.0435156304806223,0.0194259061605527,-0.0297605576271468,0.0127638744568396,-0.0017299782167711,0.9994736405028773,0.0427361026515694,0.0217222764944192,9.802226817353402,-0.0502601759845274,0.0257552325675062,-0.0040158010615477,-5.0360544232874815,4.492844263621024,2.044858737073919,1126.563952308694,1123.5967743173903,1123.682660881473,1151.1278068325691,-889.4372349566717,54.055188191443285,-584.9709744871943,170.14247950554565,163.05018763437755
8.045,0.9258444750127564,-0.6143167994011998,-0.3628289840743403,0.0603886849512933,0.0407369950797797,0.0176668392363026,-0.0296776594914343,0.0128298129191669,-0.0016965080380173,0.9994753167826536,0.0412104042128623,0.0213024250617054,9.79863408260356,-0.0495587013031384,0.0277496862465249,-0.0040906253956651,-5.036185820349242,4.492910744755116,2.0448464561558164,1124.8638506633167,1123.5840560268102,1122.166454446237,1151.6380535458875,-514.4281755607722,-54.76857100185224,-615.2601502637341,257.95984185461424,163.04893924448515
8.047499999999998,1.1973794427768312,-0.7639727341959565,-0.1421198138979002,0.0630120607262091,0.0372684342763308,0.0171870447929417,-0.0295712811497442,0.0128749488249487,-0.0016639953509685,0.9994779369767381,0.040325827849268,0.0208883016690494,9.795363837326828,-0.0488488921998314,0.0297345063634577,-0.0041718543153347,-5.036314809416217,4.492984754162379,2.044832310111764,1123.9918114308907,1123.3229314623811,1120.6063601301553,1152.417606041842,-203.56757151540927,-138.25607577243886,-586.600260024533,344.23153404417536,163.0477422684807
8.05,1.4076785335374342,-0.8271640042462625,0.0713838997785047,0.0664889841704095,0.0341476747554903,0.017540306411496,-0.0294432991176146,0.0128951785154959,-0.0016285402397847,0.9994815006673898,0.0401323416532328,0.0204558031470629,9.792433193004285,-0.0481275458980203,0.0317058396838937,-0.0042548935212692,-5.036439946093736,4.493065749975759,2.044816764191338,1123.8460128057395,1122.892775647948,1119.2334531461136,1153.3592112161089,99.18537210217704,-197.76956021857225,-463.02565015741527,383.9573984865492,163.0465896610585
8.0525,1.5140516207452595,-0.8022610794505282,0.2571387898377736,0.0707641894679739,0.031900775883885,0.0184344549313513,-0.0292983977342568,0.0128931798696997,-0.0015869379000877,0.9994858390478536,0.0405369429099639,0.0199371240163035,9.789847562686226,-0.0473921139441121,0.0336603421956753,-0.0043360746367622,-5.0365607489062105,4.493153711089016,2.044799419041557,1124.4877382914017,1122.3340836612883,1118.2912318793678,1154.337393034275,417.47843963256975,-252.1184628444236,-288.3190163560476,388.58835578074377,163.04549246505024
8.054999999999998,1.49451489768958,-0.705026425764096,0.4325960660132681,0.0762736349893764,0.0301547742220524,0.0198705195378628,-0.0291445491707866,0.0128753728095171,-0.001545150440885,0.9994906241165687,0.0413572725853921,0.0192134418875486,9.787601537605411,-0.0466410188665434,0.0355947201044731,-0.0044124149804747,-5.036678742255339,4.49324769788165,2.0447801631468674,1125.933405003902,1121.632183333726,1117.7918580643338,1155.302152995012,600.0601913725376,-246.43994546027685,-79.51933636889984,285.0643036532356,163.04424211999577
8.057500000000001,1.3481022994704543,-0.5926044472366149,0.5340202828899204,0.0809343140185873,0.029231634840607,0.0213436656710187,-0.0289900481108445,0.0128530025093026,-0.0015095396013879,0.9994954588262271,0.0423108801689656,0.0181682054893215,9.78567951455875,-0.0458729123652047,0.0375068312950686,-0.0044819915150605,-5.0367958601812015,4.493345990012491,2.0447598323859584,1127.4880392482648,1121.1018839339868,1117.8936351975233,1155.7627145525414,644.7438372155276,-187.74590924646665,124.28534603307402,87.06557391340995,163.04325686787854
8.06,1.076320689482387,-0.4686120721989678,0.5885263614158027,0.0851392989134836,0.0285096399671798,0.0230961030392999,-0.0288433305071694,0.0128410946034152,-0.0014827464683012,0.9994999051614896,0.0430418899665174,0.0166874059681763,9.784057378923155,-0.0450863644071983,0.0393961090488809,-0.0045439380528377,-5.03691354908555,4.493446836627804,2.0447398312004714,1129.15712418998,1120.6934537874936,1118.4132847944993,1155.7374808645793,713.530747623514,-148.51582886543156,279.593973412658,-124.93224114134802,163.04233202119087
8.0625,0.6436278410037936,-0.318459575731702,0.6069708608314978,0.0888021871619837,0.0275942665496684,0.0252914743060284,-0.028713786648909,0.0128523562284701,-0.0014607613854887,0.9995035385477375,0.0432454280753979,0.014640924110011,9.782703997673556,-0.0442798825107804,0.0412635791656133,-0.0045977845085662,-5.03703274322661,4.49354897263519,2.0447220987233066,1131.0556929863817,1120.3593047896595,1119.2916050645863,1155.1380533468348,653.4081589861606,-102.6103041300052,327.66746160316114,-294.8119602519587,163.04129360073443
8.064999999999998,0.2385696079894598,-0.1959371627152549,0.5941979256772432,0.0904173973217351,0.0267608960604599,0.0268942984920156,-0.0286063514365577,0.0128903823084992,-0.0014459179134348,0.999506167574134,0.0427910744434975,0.0119917427264006,9.781580372122292,-0.043453431240254,0.0431101852506818,-0.0046431551066138,-5.03715283932417,4.493652250479984,2.044707194252218,1132.4241649849102,1120.1804022668437,1120.0516221025148,1154.2634210633198,483.20197433919645,-65.20911237584077,270.83694401976885,-384.3264219780703,163.0404887301727
8.0675,-0.1473130551348266,-0.0808294210831899,0.5700633050112796,0.0905067536911046,0.0260807985728436,0.0281308397067641,-0.0285154604974421,0.0129531277188566,-0.0014387798591772,0.9995079765947928,0.0416652326183086,0.0089094583010279,9.780640041089926,-0.0426082630155998,0.0449369610550973,-0.0046803617192311,-5.037272276672094,4.493757810541723,2.0446933176885143,1133.471702858078,1120.0332592277805,1120.6457897846851,1153.216421236944,374.4843964955049,-76.21375297020396,191.4228185026487,-438.89674938120567,163.03974750094463
8.07,-0.5067808444689403,0.0373691918980291,0.5487809302788503,0.0888015414749299,0.0258473395197917,0.0292207087025708,-0.028428357002806,0.0130287521567785,-0.0014329634514804,0.9995094889998478,0.0400598104592206,0.0057024649976072,9.779831997950527,-0.0417467812733418,0.0467450293163363,-0.0047096789773722,-5.037388396036108,4.493868204773172,2.044677898337014,1134.296586967388,1119.7993335019924,1121.008736195028,1152.0689373164134,227.10829275652,-104.88413288264648,62.36083823306548,-361.26714033296497,163.03893168089058
8.072499999999998,-0.6647776330408229,0.1073368487715479,0.5485771771591477,0.085830631589494,0.0263115382861889,0.0298884113261744,-0.0283372343303718,0.0131032257615699,-0.0014223905151286,0.9995111142986748,0.0382197467444691,0.0025817544987973,9.77910781292309,-0.0408730702708506,0.0485349115656609,-0.0047309967770922,-5.037500032344924,4.493984531533201,2.0446606475007068,1134.6072443218604,1119.5088385633671,1120.9575939758506,1151.4100855352797,47.40170004057324,-136.52341757763668,-96.46528172358657,-170.27766763238765,163.03831243738384
8.074999999999998,-0.6285365419699842,0.1346955357244246,0.5708753499714245,0.0816024517269757,0.0272628703563713,0.030518151924167,-0.0282338846546399,0.0131719999304735,-0.001399492050294,0.9995131511892124,0.0362186472508286,-0.000236415535123,9.778422886112928,-0.0399923211778252,0.0503067784279188,-0.004745381031018,-5.037606510344533,4.4941071941478725,2.044641313211234,1134.5335954675909,1119.1167164141043,1120.5264097864103,1151.2175489782517,-88.99423234273372,-164.50356134466503,-229.235719731933,3.183074418256595,163.03775417647427
8.0775,-0.4217749516567558,0.1226994511884946,0.6066380630799287,0.0771893126511245,0.0282412816269329,0.0312913460275428,-0.0281149855244125,0.0132337284420764,-0.001355105152397,0.9995157231248168,0.0340831775135963,-0.0026346782310757,9.777738863226151,-0.0391104529023151,0.0520607386954092,-0.0047541754167514,-5.037706253047776,4.4942364418472645,2.044620278346064,1134.1622731601467,1118.686320756644,1119.8114153771908,1151.4260009073707,-212.3539083509181,-162.72632339493796,-337.6456467425596,155.8293479541346,163.03724430177124
8.08,-0.041596645254167,0.0682808168891526,0.6422444909007918,0.0744630386942205,0.0288651865734999,0.0323876055524799,-0.027985233691754,0.0132898334958302,-0.0012853329832603,0.9995186842860084,0.0317962994848677,-0.0046543778365511,9.777025772352705,-0.0382342433260365,0.0537966485431577,-0.0047587328099321,-5.037798688979416,4.494371708153489,2.0445989129983086,1133.471825925836,1118.3030847971297,1118.8381815526973,1151.9966957180225,-364.8157516506943,-136.21643670774557,-454.8110609770442,278.6010441842436,163.03678926798705
8.082499999999998,0.5232392595639901,-0.0295817719214964,0.6539262925279585,0.0754194326486844,0.0289497890550328,0.0341377715975808,-0.0278465184209835,0.0133378750106974,-0.0011921788910766,0.9995220134414032,0.0294259375615543,-0.0062845917895864,9.776259056585811,-0.0373708193016655,0.0555143070560021,-0.0047610404729421,-5.03788328145494,4.49451249890458,2.0445776099873294,1132.3381944018936,1118.005238573105,1117.537360072306,1152.819006128292,-455.9929035740621,-77.39804366686867,-467.89985066763586,278.9769022515903,163.0363010261297
8.085,1.0039038348148297,-0.1233296816834648,0.6117900346462386,0.0795645893481866,0.0284144048571749,0.0360952776498038,-0.0276955052652497,0.0133705834266297,-0.0010806141230155,0.9995258980779675,0.0271451061783309,-0.0074173599414853,9.77541984812484,-0.0365266036109417,0.0572139343768372,-0.0047639530368453,-5.037960474010051,4.494658652866355,2.0445568393095193,1131.1918614079655,1117.9160945787953,1116.4986822993587,1153.3915802292806,-486.48622993797864,-15.86801648513508,-365.3886615226267,164.30812212526848,163.03593742375503
8.0875,1.4211275505571783,-0.2149352662921583,0.4877821152127699,0.0851517095167448,0.0273401121506498,0.0386335551210496,-0.0275367799853943,0.0133854458145055,-0.0009640212665679,0.99953022912656,0.0250379176527085,-0.0081045938206511,9.77450050705761,-0.0357070968625239,0.0588961047582875,-0.0047703334747864,-5.03803342861602,4.4948087221221344,2.0445385724107785,1129.905763252203,1117.9258984906796,1115.7104167646924,1153.6405467389184,-579.6087953707472,-7.110780895028761,-248.166860969199,16.327179841895095,163.03561205664636
8.09,1.8155649586237816,-0.3161166664412025,0.2296551280041483,0.091631392801592,0.0258117112198672,0.0417425777824248,-0.027378580979151,0.0133930169981502,-0.0008567045339197,0.9995346166427808,0.0229405697587821,-0.0084787251648169,9.773503960325183,-0.0349154638567152,0.0605623463585591,-0.0047836532093548,-5.0381059222301285,4.494961328850832,2.044523432242955,1128.2938174311123,1117.88054067432,1115.2578479945128,1153.47321612849,-586.7116039572269,-54.289374657502655,-65.6946418200863,-131.99616437343943,163.03525780778827
8.092499999999998,2.0612033081693006,-0.3978528558055176,-0.0663930083252073,0.096383663019615,0.0247503380249493,0.0437942608865601,-0.0272257830197718,0.0134043721128311,-0.0007653681004674,0.9995387647680672,0.0206901539170091,-0.0086189956558585,9.772439973000418,-0.0341515814793936,0.0622154761594565,-0.0048073812300611,-5.038180328808115,4.495116140193253,2.0445108831740417,1126.9722052324175,1117.654451617392,1115.3819435555922,1152.9805659170513,-502.6480404855316,-153.8778043197213,155.69104357348192,-243.21582534813223,163.0349871195128
8.095,2.2413203569601863,-0.4898117715538451,-0.4048568850173269,0.1008834769282661,0.0240412170451222,0.0440830435043652,-0.0270799738316975,0.0134232613701162,-0.0006935713850243,0.9995425713569236,0.0182706531047779,-0.0085518873802014,9.77132373805612,-0.0334129685911963,0.0638589373994845,-0.0048440858964592,-5.03825738488232,4.495273044011837,2.0444998602282056,1125.7805772286843,1117.1111516527214,1116.0363032123803,1152.2571370017492,-467.8726788518084,-317.5410686472746,387.70393309381086,-326.6311102939597,163.03473544561797
8.0975,2.4008524803307503,-0.6255629515939484,-0.7838472889783658,0.1070389213186148,0.0231387112235117,0.0411957322606869,-0.0269393638024935,0.013451626238724,-0.0006390541351567,0.9995460579870008,0.0157042879799968,-0.0082507218971557,9.7701751201956,-0.0326949402822154,0.065496640206565,-0.0048955824407085,-5.038336921815568,4.495432219162135,2.0444893565277384,1124.6328418381584,1116.0667462741555,1117.3204632210616,1151.3474103655813,-356.47011521985223,-433.904119836684,523.8011483551551,-306.30327970285816,163.03444832584188
8.099999999999998,2.4931187822260465,-0.7632148515327994,-1.0223255974632914,0.1129531153293858,0.0220993924955908,0.0368118644317759,-0.0268003953372041,0.0134897891934701,-0.0005957997905639,0.9995493213531496,0.0130435635000054,-0.007666249436122,9.7690176083021,-0.0319914593654012,0.0671325101152545,-0.0049626317690327,-5.038418000633508,4.495594805566108,2.0444780730361782,1123.9982266525851,1114.9416310535385,1118.6553089541555,1150.7256206032353,-172.90791280494912,-466.1781851045088,542.8608254763792,-187.7058153877149,163.03421653879215
8.102500000000001,2.5480357588089375,-0.9204675718282768,-1.14259215445799,0.1190493671814423,0.0206864032374236,0.0323194990558727,-0.0266639187223436,0.0135393905280783,-0.0005629307161804,0.999552319699405,0.0103048175939579,-0.0068439304352246,9.767878661329853,-0.0312968627345221,0.0687697695590895,-0.0050443334530021,-5.038500539629002,4.495760680045451,2.0444652577615527,1123.7683022741335,1113.7358553486326,1120.034767348444,1150.4088812886423,-21.407214267534364,-458.6779719211528,522.3226547523702,-63.89233291260008,163.0339869301411
8.105,2.5765778707676907,-1.0819912671243908,-1.1626591210475448,0.124936458472064,0.0187943334514505,0.0284880072939793,-0.0265328101434876,0.0136011969504809,-0.0005432953042217,0.9995549685060128,0.007511288510435,-0.005876940807443,9.76678716943612,-0.0306062994630666,0.0704109129328166,-0.0051383765075525,-5.038585306890866,4.495929340554592,2.0444500055631782,1123.8911905812477,1112.6482411939323,1121.266922227918,1150.4061589386722,128.4462199000046,-361.3280267957444,417.02382103998497,70.05990084068374,163.03375517838765
8.1075,2.5777151753275414,-1.2260331439058771,-1.0818797206628634,0.1306227385482691,0.0160468322609,0.0254395849948376,-0.0264052781529971,0.0136767679302255,-0.0005374911993298,0.9995572990863772,0.0046653979737879,-0.0047761189533837,9.765770028530083,-0.0299154414553824,0.0720578890845163,-0.0052423259777778,-5.038671662673268,4.4961009920539405,2.0444312428502247,1124.4105333736331,1111.9292152146543,1122.1198864536434,1150.7591807928459,300.57963527625884,-187.76487707290568,250.73537668541104,209.65372495833967,163.03351638442976
8.109999999999998,2.54609416078906,-1.3452717320933931,-0.9072961055050264,0.1373349405046246,0.0116466166497834,0.0226155575661131,-0.0262773530185346,0.0137590375263997,-0.0005388953761969,0.9995595196772112,0.0019372157777856,-0.0035184449059052,9.764851325630378,-0.0292203783987804,0.0737122400613826,-0.0053531628996875,-5.038757769214127,4.496276903478215,2.0444091185585695,1125.3940887576287,1111.709416808568,1122.5205991113448,1151.4544275634637,399.7476565752834,39.73826792729885,32.70502628351493,270.1156899127487,163.03321659174475
8.1125,2.4844411466092127,-1.3796771011028524,-0.7279497198079368,0.1429739010354215,0.007433868506369,0.021043015088417,-0.0261429429430051,0.0138360691317324,-0.0005405020923594,0.999561961778921,-0.0004134864865024,-0.0020443397781715,9.764051915763005,-0.028518819077645,0.0753746277835039,-0.0054680661663145,-5.038841013032528,4.496458235525039,2.0443840370398325,1126.40927165651,1112.1279065542908,1122.283411585061,1152.1097592424098,418.17504786575057,281.72821639605127,-202.51566100252165,239.7136511107045,163.03295259954066
8.115,2.3694933282348805,-1.3355449369465024,-0.5465039818538826,0.149080297205294,0.0034662786019019,0.0202070452462485,-0.0259934099269232,0.013903427047213,-0.000535336520213,0.9995649201142068,-0.0022776851140612,-0.0002477926693303,9.763389371873489,-0.0278099824142679,0.0770449423355142,-0.005585647451697,-5.038919560753739,4.496645383502674,2.0443563499896817,1127.4849639969575,1113.1180578905485,1121.508020806332,1152.6529958190174,456.8872271351665,524.8809104542623,-424.4651618748711,176.15166813642512,163.03267088224544
8.117499999999998,2.1505340672182798,-1.1966552767002487,-0.3533189796099192,0.1569307717286708,-0.0006296385407328,0.0197751440392762,-0.0258255548592631,0.0139571027697817,-0.0005152465231822,0.9995685411017308,-0.003556695038883,0.0018690940082135,9.762880131732425,-0.027094212774434,0.0787226770213503,-0.0057046294462984,-5.038992167927355,4.4968388376152735,2.044326976968838,1128.6937077921855,1114.7523111065616,1120.161085775687,1152.9905175830916,413.9510029482871,627.9854524641834,-518.2904107045587,55.34256534923814,163.03230972694527
8.120000000000001,1.8969095367947604,-1.020638862367324,-0.2227319638235545,0.1631898386208554,-0.0035688068198413,0.0196595168981009,-0.0256465141165575,0.0139933587245363,-0.0004840876861804,0.9995726821036636,-0.004168993632517,0.0041060079947771,9.762541410814212,-0.0263745659288419,0.0804065726445921,-0.0058232037345754,-5.03906000604641,4.497037653564735,2.044298529064988,1129.5547190116995,1116.2579851528699,1118.9165687528089,1152.9297086457636,306.38362523231746,571.9030030724768,-460.1867902549847,-96.00204937031184,163.03198821863128
8.1225,1.5865088307195323,-0.8009920979277629,-0.1247056410290483,0.1681093247397126,-0.0060638762894752,0.0195456156620256,-0.0254639833339588,0.0140116787561649,-0.000444918782926,0.9995771405268712,-0.0040965978529044,0.0062528604962816,9.76238871179592,-0.0256543150843677,0.0820954999634723,-0.0059405191289182,-5.039124049015729,4.4972402169901295,2.0442720669678742,1130.2256259183473,1117.6118261219244,1117.8601518244116,1152.51050733624,253.81750740025885,499.2137360608551,-351.9832188633036,-244.12739757181356,163.03164454446983
8.125,1.1912956546458715,-0.5153736031298691,-0.0367594537305407,0.1721366277098139,-0.0081188378536843,0.0192218095268979,-0.025282520461812,0.0140092948382591,-0.0003991988622423,0.9995818295055064,-0.0032775039875567,0.0081631724469657,9.76243482474441,-0.0249364708775903,0.0837884907606157,-0.0060567107676277,-5.039183546442482,4.497445836233238,2.0442473924098934,1130.8238065487003,1118.7540538331737,1117.1566526584927,1151.7090716579048,190.35353892967723,309.01366638810725,-127.6040293268833,-315.82572473768687,163.03120643072344
8.127499999999998,0.8801832404411574,-0.283164941725532,0.0190022473374494,0.1742549940950811,-0.008782648159465,0.018907254839923,-0.0251036864973475,0.0139877781701929,-0.0003501173782976,0.9995866782732908,-0.0017375115504313,0.0097534641717055,9.7626902167542,-0.0242238440084602,0.0854844461235131,-0.0061729091250953,-5.039238864057538,4.497654381628483,2.044224794452932,1131.1773936129955,1119.1568944538647,1117.2221316777775,1150.931378712552,118.1777622656952,37.98131272318957,175.95863455755511,-298.03138809188454,163.03082039448063
8.13,0.6292855340192824,-0.0843745007284822,0.0620240492166464,0.1751713632009973,-0.0086293632543269,0.0189136419001289,-0.0249215711474002,0.0139526576717935,-0.0002972857936046,0.9995917502447929,0.0004206730734045,0.0110902359351175,9.76316151307467,-0.0235177552303942,0.0871821475929393,-0.0062916292313821,-5.039290028722224,4.497866450818935,2.0442036277249303,1131.414695360029,1118.9439603967896,1118.0364458312806,1150.2189147174452,79.98818330587369,-173.7707778164987,435.8230116976529,-251.94206518713753,163.03041361458662
8.1325,0.451814513365181,0.0715441987716016,0.0959899210750665,0.1751387815576931,-0.0081814832411893,0.0192161074504249,-0.0247301450701893,0.0139092452801144,-0.0002421731568887,0.9995971169116727,0.0030929367958043,0.0122492524581634,9.763853629499772,-0.0228186575913873,0.088879896848929,-0.0064150591281262,-5.039337653412827,4.498082800426977,2.044182702668593,1131.5773345295247,1118.288040564782,1119.401246736266,1149.671668386616,52.451699764525515,-333.4334996210809,635.8424510122305,-163.14469460656773,163.0299906001948
8.134999999999998,0.374723657342785,0.1652129734441685,0.1209504878575495,0.1746978790230883,-0.0077001674648186,0.0196598328238821,-0.0245263493106727,0.0138638160006878,-0.0001911195555218,0.9996027632733476,0.006146523833302,0.0132572387619729,9.764770501937472,-0.0221264048555544,0.0905753717912079,-0.006544357775715,-5.0393839731322325,4.498303876406795,2.044161167924704,1131.6769538588517,1117.2767928986843,1121.2156580863411,1149.4031912444125,38.63889332447657,-470.03518245942615,828.9325926086179,-49.331176163523914,163.02954944299864
8.137499999999998,0.3868240764834059,0.1981847449228912,0.1459255451181596,0.1747815107730901,-0.0067268006737641,0.020154366552962,-0.0243125382788838,0.013819893663128,-0.0001536103646591,0.9996085788097616,0.0094922000168445,0.0140446702622679,9.765915239291392,-0.021439988911596,0.0922657957737091,-0.0066789221422897,-5.039430387393456,4.4985296553529,2.0441384601325905,1131.7705289961473,1115.9378646524851,1123.5459096993084,1149.4250125057983,39.275982844258806,-472.65395593496464,824.9325123615638,57.8079406936377,163.029001269874
8.14,0.4601236207367634,0.1578410198725536,0.168482948314882,0.175690159094203,-0.0054666235412029,0.0204261712212376,-0.0240920723223315,0.0137795384610682,-0.0001341768369659,0.9996144512149135,0.0130642969086395,0.0145299430956929,9.767287982425549,-0.0207562070699432,0.0939483247614299,-0.006817223759382,-5.039478671755796,4.4987602488086615,2.044114217519879,1131.8733337730728,1114.9135231190091,1125.3403206481496,1149.6922309478807,59.50451238999428,-356.8989145624425,632.364677408433,140.80423347907143,163.02853064776775
8.1425,0.5629596366377014,0.0549932360471251,0.199801927660496,0.1772916151648667,-0.0043451451014872,0.0205232559290908,-0.0238667320921878,0.013745027542533,-0.0001317484967228,0.9996203077952271,0.0167872519608542,0.0146699544714982,9.768884396955489,-0.0200698286345315,0.0956201031284379,-0.0069574915398885,-5.039529934414629,4.498995706631896,2.044088696022915,1132.0680515580973,1114.1533700796729,1126.707733086351,1150.129033673194,122.15965571983972,-255.60291254456013,463.31398958973426,206.45432667087803,163.02804818039056
8.144999999999998,0.6816517786255736,-0.1138991885494862,0.2508683276898783,0.17955316239967,-0.0040166896999112,0.0206873197349258,-0.0236398065748273,0.0137189086874539,-0.000141383045743,0.9996260388545491,0.0205724391637843,0.0144003338583123,9.770696179844727,-0.0193744495348639,0.0972783071180083,-0.0070972927374956,-5.039583454579954,4.49923604268201,2.044061897528174,1132.484132051672,1113.6355085562868,1127.6568905960978,1150.724502581235,191.64989604334284,-124.54057399184292,223.2315547160048,213.40108968125904,163.02745878577227
8.1475,0.7538147642059972,-0.2645595626134464,0.3018539259221001,0.1815310131652688,-0.0047897874919201,0.021069596640496,-0.0234122028919319,0.0137062680431661,-0.0001491025358796,0.999631554429232,0.0242780587095598,0.0137093040707526,9.772709510511971,-0.0186619876035877,0.0989203865608472,-0.0072344872204773,-5.03963731631285,4.499481815705553,2.044033138853948,1133.026301038314,1113.5306672097136,1127.8238908599312,1151.1960391216005,262.17883857485043,13.847880495902809,-50.34861045595912,168.72991759612069,163.02696155502187
8.15,0.7768210129675435,-0.3922594403451217,0.3526388280510297,0.1837708450537116,-0.0064159915128728,0.0218569482564787,-0.0231849730466965,0.0137093117164794,-0.0001470857692762,0.9996367987527542,0.0278033137197613,0.0125930524986654,9.774905290414717,-0.0179261540263752,0.1005436490522236,-0.0073667841977049,-5.039690083624534,4.4997332112955615,2.0440021724396824,1133.7950262445463,1113.7047479587663,1127.405147543818,1151.5681521692156,386.0549724891684,118.6301494062954,-279.18969118455703,133.45538178562418,163.0264614541485
8.1525,0.7302765293903168,-0.4927564966511797,0.4001769679690289,0.1868780500601538,-0.0088877538635429,0.0232472849433071,-0.0229610596167686,0.0137285036516042,-0.0001325952838297,0.999641697935117,0.031068748685807,0.0110206585582763,9.777259798293683,-0.0171625630475516,0.1021455766136179,-0.0074916615742272,-5.039741688173011,4.4999890865999275,2.0439701865826043,1134.9565759007596,1114.1238179567447,1126.4279424040087,1151.8633160305285,454.45063199149394,170.43362382049716,-396.2560738245762,85.83808853683766,163.02586236878474
8.154999999999998,0.6255368630271628,-0.5263679344182859,0.4208811819497473,0.1895605187492884,-0.010893770443109,0.0246086439777705,-0.0227415759167183,0.0137673540983241,-0.0001086249932998,0.9996461779939624,0.0339245321297051,0.0090061809755654,9.77974410906533,-0.0163689823277781,0.1037239429524681,-0.0076074482571764,-5.039792972196361,4.500248718495544,2.043937626192652,1136.0672794045036,1114.5569160778687,1125.4238671746955,1151.9973426118995,451.38884276177345,170.76351731713717,-388.0979296186827,43.42138156556988,163.02536742102748
8.1575,0.4627199378133712,-0.5156282506034481,0.4182066600520835,0.1917229605755962,-0.0124102509282704,0.0260306890444782,-0.0225247747019299,0.0138214305354601,-7.765129765671646e-05,0.9996503359507704,0.0363730056150462,0.0066255947315743,9.782323130961757,-0.0155444952844476,0.1052770592107032,-0.0077132438857189,-5.03984320960654,4.500511804039284,2.043905652237626,1137.2135201145688,1114.9776355433307,1124.487452755915,1152.0804229383564,443.05137050707697,155.04706983190167,-328.8444216856019,38.6398937459429,163.0248813142457
8.16,0.2717295795338494,-0.4809060121701246,0.3983720522202072,0.1929191669104573,-0.0135821625653416,0.0273261438713009,-0.022308861998835,0.0138877872026468,-4.632209940114001e-05,0.99965424861888,0.038383854066923,0.0039620989088263,9.784958086917383,-0.014690498099651,0.1068036342798114,-0.0078086690327234,-5.039891743020592,4.500778355680027,2.0438743580467214,1138.2825362570393,1115.3321514270283,1123.7796450662672,1152.1905420806295,383.1894457175474,117.87571183574597,-201.75037484136203,65.00220113859015,163.02440604129256
8.162499999999998,0.0796959782376395,-0.4347601086211344,0.3660771308819498,0.1928683320745012,-0.0144988711449466,0.0282064117234894,-0.0220900076738372,0.0139612815638015,-1.924942270304364e-05,0.99965807257439,0.039974220494881,0.0011413177144597,9.787606244290142,-0.0138095852485867,0.1083028790098705,-0.0078940368560441,-5.03993726168275,4.501047863673919,2.043842949179072,1139.129467343156,1115.5670141025091,1123.4787008817084,1152.4054339440493,295.9969428227388,71.32022175786709,-31.69781303426548,125.799535237937,163.02394834456857
8.165000000000001,-0.1118903821337888,-0.3865156490019652,0.3259170298263182,0.191887981136957,-0.0150853968104569,0.0287755271921366,-0.0218654954256459,0.0140323205843193,5.9890804561386765e-06,0.999662004182696,0.0412595966779627,-0.0017338541824064,9.790222493484265,-0.0129044257436888,0.1097745734872439,-0.007969550346701,-5.039977981403513,4.501320553397884,2.043810861545208,1139.7625209711532,1115.6887525358177,1123.6211560010959,1152.8195397568193,159.6348376351421,18.05584803982756,121.00126894268142,171.23962235593405,163.02342560821072
8.1675,-0.2185758142885071,-0.3624148606122002,0.2980599019107172,0.19070765086867,-0.0151317006591699,0.0290438993266808,-0.0216362428462587,0.0140930745226623,2.7789271876307215e-05,0.9996661351354844,0.0423266474904651,-0.0046299318925627,9.792761646651327,-0.0119797345721938,0.111218690151123,-0.0080349611849104,-5.040013383305742,4.501596942088157,2.0437777242486,1139.927641531332,1115.6572933427085,1124.083707226422,1153.261632055829,-5.089471804377457,-36.30544097100751,220.93274395124203,174.29133220174492,163.02301676979107
8.17,-0.258943508361728,-0.3559619182692284,0.2771507035637889,0.1893987358791236,-0.0153183095698639,0.0294610924251986,-0.0213988913505689,0.0141427619828705,4.8401309969690255e-05,0.9996705512693916,0.0431380938968904,-0.0074325094931912,9.795177487064194,-0.0110400080631604,0.1126354574362962,-0.0080914497315563,-5.040044040132408,4.50187768232881,2.0437433688649143,1139.737073612131,1115.5072253309627,1124.7258197208519,1153.6909964178278,-143.7463483892147,-83.87323688590945,274.30698316676165,145.28502001106224,163.02264100559367
8.172499999999998,-0.2337600689904884,-0.3539623695999416,0.2536687854764038,0.1878504004237907,-0.0164406888630866,0.0303915758463639,-0.0211513162161306,0.0141777851422716,7.665161555495698e-05,0.9996753503470092,0.0437293186308794,-0.0100565604635667,9.797424233667332,-0.0100886450193514,0.1140255307686856,-0.0081402637794858,-5.040070013673417,4.50216355122474,2.043708481502,1139.208909789386,1115.237927158279,1125.4552421422554,1153.9880571558842,-218.74559203289428,-104.04161682461756,226.8009270234516,39.81346967734058,163.02223337656915
8.175,-0.1636741544313095,-0.3424307221240158,0.2299098294459085,0.1867810588366583,-0.0178633606209971,0.0315460996294433,-0.0209004856909117,0.0141924613399676,0.0001115296756037,0.9996804583695889,0.0441833828842101,-0.0125952173827107,9.799459671555324,-0.0091312791861889,0.1153899230449183,-0.008181050692409,-5.040092150545716,4.502453667493604,2.043674403234992,1138.6433456519667,1114.9870172468395,1125.8598243559693,1153.8900637662143,-219.26002460878615,-94.47993655024561,88.49110069994349,-142.20271879910393,163.02193264472194
8.1775,-0.0678207511361745,-0.3090047553727329,0.2012121323979123,0.1863582528605922,-0.0191760381911752,0.032685845533328,-0.0206526190831151,0.01418770798009,0.0001499686590504,0.9996857232212408,0.0444675323659287,-0.0151312736585366,9.801243884917788,-0.0081736007844641,0.1167302315425636,-0.0082140966632929,-5.040111269932661,4.502746562862486,2.043641983116988,1138.112609666342,1114.7655274755275,1125.8976976457552,1153.2770435618886,-184.81819948764533,-78.17456542426687,-59.60171880498186,-340.138544968317,163.02167484671946
8.179999999999998,0.0256610277371859,-0.2557980452583061,0.1755358430459206,0.1866744466139513,-0.0201289078070923,0.0332733843672095,-0.0204096742633668,0.0141669044456999,0.0001919862456484,0.9996910502573,0.0445178851657739,-0.0176712688305815,9.802738364568393,-0.0072200736329492,0.1180486794231513,-0.0082408206739209,-5.040127339804399,4.503041481815605,2.0436112125947847,1137.7192546545286,1114.5961444197183,1125.5618157619444,1152.1893710413733,-107.85179698462476,-55.23881216535347,-227.54383797219896,-538.4186175627815,163.0214538084655
8.182500000000001,0.0894016645491271,-0.1829262234986773,0.1676477989902356,0.1877771389337743,-0.0206401207216095,0.032964776245099,-0.0201738869414562,0.0141329450093506,0.0002376517427426,0.9996963497405038,0.0442944474056726,-0.0202338601503704,9.803907413684147,-0.0062746025872814,0.1193479658453897,-0.0082624327007603,-5.040141607304377,4.50333759218983,2.0435820887389524,1137.5733506814188,1114.4893334147007,1124.759978455894,1150.5849504740743,-3.11156941315809,-42.27762017566668,-444.30821344997054,-784.4846337607261,163.02127764139195
8.185,0.1106435131943361,-0.0804366590123229,0.1903446157914403,0.1895493705178872,-0.0209866737875664,0.0321986431578802,-0.019943730299648,0.0140904201794646,0.0002858516040362,0.9997015867496916,0.0437366964530402,-0.0227704376863189,9.804717537892463,-0.0053407718224176,0.1206309199069069,-0.0082806857173862,-5.040154431903206,4.503634817454893,2.043553476450134,1137.7036968074628,1114.38475631884,1123.3402746946942,1148.266947872569,88.93816565757284,-46.773872829144445,-570.6480893925572,-872.5093499817747,163.02111773194363
8.1875,0.0825852111970177,0.0121127881235194,0.2319475517792026,0.1907724176170036,-0.0211880087588322,0.0318430388134848,-0.0197161309123971,0.0140425749489497,0.0003393367348026,0.9997067771970924,0.042825278666517,-0.025210519184962,9.80513788974256,-0.0044207939086472,0.1219002748750216,-0.008297161219269,-5.040165098055664,4.5039336810672115,2.043524638288845,1138.0180415097063,1114.2554640505552,1121.9067380089318,1146.2224037241663,145.17935376491707,-76.84334936908891,-582.4199447887871,-785.3245596792219,163.02102639476587
8.189999999999998,0.0259835014457158,0.1049636151468181,0.2761086129580682,0.1910586710858503,-0.02132951283599,0.0322285787205701,-0.0194915061585423,0.0139931047700189,0.0003992224984021,0.9997118622765248,0.0415414291777327,-0.027557911767841,9.805141954063142,-0.0035168657001425,0.1231583956249054,-0.0083120605541577,-5.040173472554742,4.504234648021292,2.0434949381320675,1138.4295935762873,1114.0005395719943,1120.428174970751,1144.3403250741735,169.04876189880355,-155.41367180123714,-609.0224777732559,-733.4093670641087,163.0209770922312
8.1925,-0.0410369182153926,0.2042459169124652,0.2964549676828043,0.1902242132858032,-0.0212647257356254,0.0337226040848625,-0.0192694238380393,0.0139417205207887,0.0004634221259916,0.9997168564250084,0.0399512299928237,-0.0298042645614453,9.804705968736068,-0.0026316540721016,0.1244070141501274,-0.0083252927224617,-5.040178119407137,4.504538342843966,2.043463925224896,1138.8632853192007,1113.4783956915487,1118.861625620065,1142.5553568888452,124.70804597931289,-230.41907178249892,-510.2106740446855,-546.1776531199631,163.02096510789696
8.195,-0.075085069587024,0.2634271522585879,0.2625749872108663,0.1889725064629497,-0.0207490525647618,0.0356798745198728,-0.0190460564169905,0.0138903784497339,0.0005317889088345,0.9997218084622452,0.0380848721345283,-0.0318802043839447,9.803809387863412,-0.001766774187814,0.125647136110517,-0.0083373139770321,-5.040178757602392,4.504845959053664,2.0434313939778472,1139.053133806184,1112.8484442130818,1117.877121600527,1141.6094368085735,19.936417603461777,-283.9586908850489,-310.6017239521115,-249.12891636809445,163.02099368495473
8.197499999999998,-0.0763555440934285,0.2792196903804736,0.1632474594327,0.1883403496109684,-0.019412800367549,0.0377259261015427,-0.0188205800848834,0.0138460694526997,0.0006041748207597,0.9997266391924198,0.0358783936190826,-0.0337788581983376,9.80243737423762,-0.0009229793644489,0.1268791588505537,-0.0083477339126567,-5.040176316357008,4.505157803757313,2.043397285444772,1138.962967407218,1112.058602237124,1117.3086170003048,1141.3097123070047,-110.38710562895552,-360.4907038604132,-161.49244428337198,15.699066151822475,163.02106172943405
8.199999999999998,-0.0442690858046451,0.2330691333155496,-0.0166250403545347,0.1890412244266845,-0.0171204101448511,0.0391451682764939,-0.0185923699625995,0.0138161144210126,0.0006749194168126,0.9997312625558764,0.0332603304596388,-0.0354975434172738,9.800580224371917,-0.0001014615510117,0.1281029605500566,-0.008356192768525,-5.040172667438212,4.505473542444405,2.0433615039598108,1138.5011982780393,1111.04599069378,1117.0696593791104,1141.6879321393324,-220.3560280590974,-358.67967608791184,-33.18311715292502,249.80396089554876,163.0211887839205
8.2025,0.0096210867682272,0.1434890887552186,-0.1881899184344763,0.189984699698782,-0.0156093075643667,0.0389845291989171,-0.0183579785752641,0.013803869199833,0.0007420201068743,0.999735697706794,0.0302394863019465,-0.0369809143557637,9.798233251835889,0.0006983805952251,0.1293180386750129,-0.0083633529404519,-5.040169247884713,4.5057931775881475,2.0433239099753737,1137.8611872669223,1110.265203856684,1117.14270141454,1142.5587321114829,-289.62306507332886,-270.1834106614602,55.15437845337193,442.17273196788847,163.0213326112703
8.205,0.1051884962465654,0.0241856134731144,-0.3389296620040211,0.1898532182637674,-0.0156138076507377,0.0375536030403546,-0.018116199470745,0.0138056126620913,0.0008076503645723,0.9997400171485586,0.0269637471363837,-0.0382192573396986,9.795399197277153,0.0014788362271941,0.1305237004469297,-0.0083699078838698,-5.040165692602674,4.5061164259082735,2.0432850754221588,1137.0530829526724,1109.6950736404726,1117.3454312713773,1143.8987957991724,-333.9009288280732,-174.3067392013819,80.28072856688374,594.9982827985697,163.0215162962158
8.207499999999998,0.250793702591874,-0.0961519535295358,-0.4439218691483561,0.1887479119970271,-0.0166870551582505,0.0353716024639901,-0.0178711886094512,0.0138150886202535,0.0008714984200493,0.9997442322969696,0.0236248627429688,-0.0393060693535446,9.792091050000904,0.002241982592963,0.1317192151911715,-0.008376014644641,-5.040161719169013,4.506442267597764,2.043245825678565,1136.1916826227823,1109.3936701606774,1117.5441050573745,1145.5337235254751,-338.58276807012936,-39.305740932735034,56.95422321977295,700.2370186495953,163.0217336306469
8.21,0.4620351826994599,-0.1980743298860637,-0.4748650047652148,0.1876272069717234,-0.0182271276968464,0.0327138727779247,-0.0176253711672587,0.013826975226988,0.0009316105584247,0.9997483747991556,0.0203895524066328,-0.040298486084367,9.788332208794879,0.0029897336197467,0.1329037299295929,-0.0083832551690712,-5.040156572330181,4.506770815945459,2.0432056317467,1135.3601691123215,1109.4985449358087,1117.630202387476,1147.399980892421,-340.96658544057516,152.30600311172003,-6.149996076054725,839.7827589725291,163.02199256368775
8.2125,0.7637004577631441,-0.2952895356073798,-0.4297648082462598,0.1880271660380826,-0.0198861046108358,0.0299629042839118,-0.0173769793273774,0.0138334747235568,0.000991355966067,0.9997525793206644,0.0174690961515722,-0.0411709018987183,9.784157109583598,0.0037254598993728,0.1340761647180945,-0.008395416562685,-5.040149877108246,4.507103291708534,2.0431653871366446,1134.4868496955792,1110.155200176236,1117.5133550769942,1149.7326373203384,-291.82683981117754,331.0893323873392,-84.24312718490766,843.2223335786915,163.02235307469047
8.215,1.0130741450227068,-0.3665614772429932,-0.3456697851545012,0.1906382254742261,-0.0207940510812326,0.0288368229454551,-0.0171283489128933,0.0138276873230979,0.0010482465219986,0.9997568993703924,0.0150455131012738,-0.0419729364661122,9.779614655568798,0.0044509862560426,0.1352354659719202,-0.008416364053018,-5.040142071482511,4.5074401254977765,2.043127225083804,1133.901034913266,1111.1539915977453,1117.2089867515515,1151.6160925603135,-202.93120811942967,485.161841965106,-158.37199043470233,706.0552039306499,163.0226965053639
8.217499999999998,1.2050693023359256,-0.4487707524189165,-0.2512280783912658,0.1951810123061786,-0.0212091895895143,0.0289963912136795,-0.0168804527465662,0.0138060755234187,0.0010973522637595,0.9997613686262546,0.0132250709829098,-0.042723282852447,9.774767718170063,0.0051674432913669,0.1363806769797555,-0.0084512727199854,-5.0401331843706165,4.507780715444014,2.0430922070456425,1133.4721936549822,1112.5810093860612,1116.7214951248209,1153.2629133399907,-159.89045066050724,701.5768358776126,-232.89082344777847,631.1415973933813,163.02308669914248
8.22,1.3300488688507863,-0.5799214901312912,-0.1629185254837124,0.2010504113713818,-0.0216587685217549,0.029699965405414,-0.0166324636935349,0.0137699732966476,0.0011366584750792,0.9997659822393504,0.0120117593711883,-0.0434028180465253,9.76969315854243,0.0058766299144127,0.1375110345585204,-0.0085063087480365,-5.040123569828514,4.508124446754327,2.0430607812381014,1133.1015826599632,1114.661875777134,1116.0445326343126,1154.7718005472807,-122.69234539151412,794.4616049461396,-236.5222248634012,452.96528039168345,163.02361186369137
8.2225,1.3441523146626022,-0.7208420831420129,-0.1234363594238824,0.2054046853005948,-0.0223372830369617,0.0301089262052812,-0.0163851316213533,0.0137171792832401,0.0011646960868255,0.9997707561918538,0.0114701791537778,-0.0440199310008601,9.764481430302169,0.0065800553020585,0.1386261058175175,-0.0085872701726292,-5.04011280766352,4.508470506133319,2.0430333340216422,1132.8587319280243,1116.5533174107925,1115.5388840005037,1155.5277397419495,-98.12253138895491,741.8764699689858,-152.72996815068237,185.45717013061272,163.02409930318467
8.224999999999998,1.287494359574428,-0.8856714791729265,-0.1197099648196215,0.2088545442391953,-0.023531942231459,0.0301983716792887,-0.0161343447525753,0.0136516758208825,0.0011814418590326,0.9997756973530196,0.011536606361536,-0.0444850293240333,9.75923423577328,0.0072792980381857,0.1397256248998349,-0.008700664508485,-5.040100509326972,4.508818456161568,2.043009011317163,1132.6109700030183,1118.371258126978,1115.2808827935592,1155.6990863979336,-121.08912008664372,721.7202363418218,-18.659371041118717,-51.02814822566072,163.02464156380466
8.227500000000001,1.179639645154214,-1.0839100117884295,-0.1449467651090845,0.2118157416855338,-0.0257407773485574,0.0299556331893733,-0.0158733440854471,0.0135795108501945,0.0011927855142173,0.9997808206538136,0.0121023153579848,-0.0446557367985992,9.754062579856793,0.0079771095460706,0.1408093449831026,-0.0088525907178728,-5.04008617848559,4.509169240072515,2.0429864145371712,1132.2532863275912,1120.161918592502,1115.445587145298,1155.2725990008214,-140.2581161468569,552.0125341669474,154.166006356239,-240.14782078403067,163.02535963263907
8.23,1.0859458366537071,-1.2207926229759751,-0.178817951599678,0.2135425228935954,-0.0284720116100624,0.0294595985851054,-0.015600882637865,0.013502696276785,0.001204404407555,0.9997861086172424,0.0131293678345198,-0.0444945403733277,9.749085336810376,0.0086755830090022,0.1418771814018412,-0.0090461509764163,-5.040068926942854,4.50952308643,2.042964414387382,1131.909679422284,1121.1313207978133,1116.0517128253407,1154.4983472940135,-133.385639431098,251.11707426090555,334.22027940793953,-359.7810719136566,163.0260170496497
8.2325,1.0109796742889323,-1.2898918023806343,-0.2119489724275255,0.2151197657239864,-0.0323068204602449,0.0286652928299449,-0.0153210175615142,0.0134194170447976,0.0012210962224193,0.9997915140947312,0.0146464057877247,-0.0440646212017481,9.744425658132585,0.0093760772499715,0.1429292409640074,-0.0092812291944884,-5.04004783626018,4.509879333171387,2.0429424471409363,1131.5863581304359,1121.4175039638064,1117.1166885423374,1153.4736936412535,-108.9357884176696,1.1618842041118607,479.27814611589827,-422.57292663688753,163.0267387623201
8.234999999999998,0.956510075606478,-1.278675315299589,-0.2366013360625303,0.2168132870118208,-0.0367347200273836,0.0276841958081901,-0.0150390405480383,0.0133318026393491,0.0012440876499746,0.9997969238106448,0.016596163722377,-0.0434497158181511,9.740206633539362,0.0100788733560915,0.1439658239482899,-0.0095553736169829,-5.040022414656007,4.510238205270314,2.0429189290452703,1131.365000480196,1121.1371302188338,1118.4481035559195,1152.3854826608294,-41.28201583497949,-220.1708244262701,552.2224540302933,-422.4747996305063,163.02751565257847
8.2375,0.9207533461070182,-1.1579700412709284,-0.2474108527910486,0.218594928759542,-0.041045717889069,0.0267040000669754,-0.0147597517620124,0.0132443163635968,0.0012712222531983,0.9998022084976534,0.0188673861169359,-0.0427209613699999,9.736546854185104,0.0107835247869086,0.1449874101995932,-0.0098643303269335,-5.039992983600869,4.510599470845781,2.042892627259073,1131.3799480512607,1120.3166498416747,1119.877800812489,1151.3613196431006,83.71741832491863,-418.9641765137167,587.6380631368638,-413.85244257042257,163.02836083562266
8.24,0.8813026576472912,-0.8973747144303728,-0.2479220035381899,0.221062184325221,-0.0454210905791402,0.0259064052234481,-0.0144864083210917,0.0131616923731669,0.0012952547118878,0.9998072679523944,0.0213342647904112,-0.0419163315694918,9.733556186208926,0.0114886442523513,0.1459946830465593,-0.0102026128895658,-5.039961629255669,4.51096205670379,2.0428632231292863,1131.7835875718204,1119.042309336265,1121.3862938716045,1150.316220447977,218.2202977220165,-455.668626651686,478.67986640358566,-347.14726714585225,163.02945564280492
8.242499999999998,0.8341498366081577,-0.6099323530407366,-0.2438903849756844,0.2236263730984841,-0.048014057407468,0.0256996394710685,-0.0142191514544896,0.0130886249457743,0.0013125040952027,0.9998120467945542,0.0238669674925526,-0.0410133991167063,9.731331851469198,0.0121945821826663,0.1469882240749105,-0.010564295135089,-5.039930108618592,4.511325722630003,2.0428304577159326,1132.4710495398708,1118.0383067084167,1122.2712001445068,1149.6255833073717,337.8932927650948,-323.3363153401973,248.99325158444955,-241.3719200319142,163.03043587224718
8.245000000000001,0.7552010204018076,-0.296975009478177,-0.2397044239207531,0.2262435075944627,-0.0492162911462998,0.0257831377564088,-0.0139575628393204,0.0130251263368689,0.001325227420316,0.9998165530753504,0.026422913556416,-0.0399805879480462,9.729955576718583,0.012903960977749,0.1479683047690754,-0.0109427832430864,-5.0398989494863775,4.511691026151528,2.04279453093529,1133.4730540356463,1117.4256277595637,1122.6312601295267,1149.1093608478172,480.6736250972948,-131.07160448037345,35.72917688847507,-193.77847359789183,163.0314868976558
8.2475,0.6170125626671982,0.0435069709212461,-0.2287954534652994,0.2288054607421625,-0.049035954111292,0.0256448568226173,-0.013701430517449,0.0129722242299769,0.0013324798595242,0.9998207834745532,0.0289311774625487,-0.0387893968739667,9.729491787311476,0.0136188952491516,0.1489349483875881,-0.0113308897475831,-5.0398680886492615,4.512058239856188,2.0427557615355023,1134.8744176653577,1117.3829486860147,1122.4498460289492,1148.656690939382,513.6254710387333,106.68710549191321,-151.63699539333095,-141.79173541854746,163.0328296128689
8.25,0.4693473399009573,0.252976378547185,-0.2028110508617082,0.2303464232450039,-0.0476309785379743,0.0250750013704603,-0.0134472925729885,0.0129377416192624,0.0013386172946414,0.9998246813283144,0.0311848661543315,-0.0373505036171841,9.729985716591555,0.0143433784313229,0.1498875355469924,-0.0117220182123737,-5.039837148587991,4.512428109295602,2.0427137754052445,1136.0411813908395,1117.9590632870231,1121.8730751525604,1148.4004021707246,425.66938698382097,332.2512585590381,-285.0754701226946,-79.03325006001731,163.03401544884528
8.252499999999998,0.2983952521889851,0.3444793253848384,-0.1416297364233187,0.2313277855677702,-0.0451890257663442,0.0242062793704859,-0.0131915064491338,0.0129207217012012,0.001349538164458,0.9998283011683954,0.0331427243240183,-0.0355732496953308,9.73146175205168,0.0150815038370294,0.1508249494634699,-0.0121100374656721,-5.039805005292914,4.512801947316498,2.042668725939625,1137.0027646002764,1119.0442049788098,1121.024468678336,1148.261524689082,340.39107342463603,535.43326943787,-392.0118835081963,-36.63704410759574,163.03526825276407
8.255,0.0818043521278448,0.2999880438729308,-0.0123526485083863,0.2318856980623741,-0.0418053910509719,0.0232363000387305,-0.0129352684872914,0.0129140977607445,0.001363227054616,0.9998317168302698,0.0348733338758198,-0.0334607731054425,9.733924606483743,0.0158344581088548,0.1517461367217767,-0.0124881024893957,-5.039771885267138,4.513180216941814,2.04262171173427,1137.7431367579627,1120.636229634213,1119.9130157350191,1148.2172169501866,191.53131418626532,579.9534760138162,-395.12214109711937,-2.053293231210452,163.0368443950611
8.2575,-0.0962720271062381,0.1476960089772545,0.1454412641926345,0.2317276525947207,-0.0395503204722331,0.0227294044216362,-0.0126742245378089,0.0129163591052803,0.0013794962922754,0.9998349966046992,0.0363348338568216,-0.0309120896515845,9.737358464920744,0.0166036519214783,0.1526498732710189,-0.0128516592252642,-5.03973848168971,4.51356341072963,2.0425730450494304,1137.9604211712078,1121.9439723588791,1119.04885797285,1148.251258222926,11.18582316276156,461.40337597385127,-310.7594574752675,13.93455849884326,163.0382139298302
8.259999999999998,-0.2588937112987088,-0.0770838020352618,0.3488294278088462,0.230833024248922,-0.0389251277318854,0.0227823199352411,-0.0124019143463449,0.0129251111484004,0.0014060736331836,0.9998382356885104,0.0375048525252294,-0.027792824964669,9.741728267902358,0.0173922494556708,0.1535349892250289,-0.013197752640035,-5.039703561791905,4.513951950108529,2.04252273797879,1137.7990658737767,1122.9432465140817,1118.3592184476431,1148.2868897426808,-108.3085194690954,316.7256929520311,-240.31785355369044,-0.2575442277248442,163.039634828771
8.262499999999998,-0.4027053620096563,-0.3118511627581374,0.5776960812225028,0.2294731718437251,-0.040009485525858,0.023448120984027,-0.0121183918924812,0.0129393879104691,0.0014485380321661,0.999841430315728,0.0383320211620685,-0.0241011363373929,9.746983782533693,0.0182020317976107,0.1544013287592191,-0.01352245730973,-5.0396668006599725,4.514344774324027,2.0424716324757006,1137.4188785738625,1123.5276008236392,1117.847268705082,1148.2499705017874,-170.98352675759145,114.52897744091416,-163.7004873253062,-50.48664911541102,163.04109215613803
8.265,-0.5244521951107702,-0.4988440342317391,0.8150609940591705,0.2278359572382112,-0.0426631475344294,0.0249328166320868,-0.0118234843323611,0.0129581586993204,0.0015113136434832,0.9998445834682064,0.0387677893800269,-0.0198387558200719,9.753059702808239,0.0190336256825704,0.1552499454720163,-0.0138230202590174,-5.039627519673715,4.514740684030462,2.0424197854096695,1136.9441482399886,1123.5158914012864,1117.5407160110165,1148.0344564971035,-182.84884853680393,-143.67054820638742,-95.61202078715138,-152.35332425806865,163.0425846714398
8.2675,-0.6564596691912477,-0.6146837833148042,1.0753000795178655,0.2260007013554167,-0.0462817985922316,0.0274524716493695,-0.0115169336805713,0.012969599494032,0.0015963133562068,0.9998478422020358,0.0389771568158314,-0.0150154112119295,9.75987658839506,0.0198857716294338,0.1560834123894849,-0.0140982565943759,-5.039584755176927,4.515139141101016,2.042367886345479,1136.5046343311783,1122.8092480826072,1117.369208601146,1147.4882038804967,-108.48833681909466,-362.2129344478064,-35.825447738405124,-249.61838101208247,163.0444035346568
8.269999999999998,-0.7676097793648321,-0.6053944358498362,1.2440152909684439,0.224752651948214,-0.0489648768202947,0.0301065308976542,-0.0112021787700563,0.0129569478768336,0.0016946629284298,0.9998513874984428,0.0392225993276983,-0.0097212935261221,9.767344836861747,0.0207530023458924,0.156906386602506,-0.014347178135688,-5.039538875797475,4.515538523385279,2.042318306339537,1136.4017065558933,1121.7048267290477,1117.3615887723245,1146.7863645920436,37.07819359669304,-526.788163237788,22.08953853759904,-316.87452058913146,163.04593245425323
8.2725,-0.8926998301219873,-0.492242857387189,1.3277219356686027,0.2234278492334206,-0.0509915737172048,0.0335622681593675,-0.0108837063466155,0.0129105949992611,0.0017956601302829,0.9998552996722166,0.0396344977649494,-0.0040798995797813,9.775367598758349,0.0216289556157488,0.1577251623302234,-0.0145690306044773,-5.039490161403977,4.515937182877905,2.0422720406689465,1136.6900252991616,1120.1753072664178,1117.479656293834,1145.903831277551,219.6712207588573,-744.4682927172579,81.17281907114925,-393.2699023970894,163.04746320197927
8.275,-1.0620396679343789,-0.2639164240182119,1.2925140158201804,0.2216574670179144,-0.0525062808566581,0.0388494272758779,-0.0105664119609664,0.0128250301137922,0.0018938365106768,0.9998595968829747,0.0402756473307298,0.0017609957689593,9.783842255515676,0.0225086540293824,0.1585470314997281,-0.0147630659089637,-5.039438670152368,4.516333345012364,2.04222881472392,1137.5000626596875,1117.9824852654608,1117.7674528676803,1144.8200150800578,357.84935830213567,-845.1629986053692,128.80035234946095,-368.0580189822472,163.04928876610856
8.2775,-1.2107977444483569,-0.0241211514169193,1.1343987339238015,0.2202495807012132,-0.0528208556813771,0.043907069145754,-0.0102553112962322,0.0126936226746892,0.0019893472480653,0.9998643030817402,0.0412447248860042,0.0076348157010233,9.792661438413747,0.0233886293066506,0.1593796261090346,-0.0149283169169806,-5.039383053772152,4.516725527908044,2.0421872959129663,1138.479272090672,1115.9494922733916,1118.1236580555812,1144.06354118264,417.61206508107654,-833.8303279337947,159.43732300923773,-235.25037228601053,163.05079103157183
8.279999999999998,-1.339672150787833,0.2319043221136047,0.8522045177031465,0.2183551186863498,-0.0520750370412811,0.048178614903881,-0.0099503624957566,0.0125224456811995,0.0020828786211469,0.9998693291014776,0.0424040798365065,0.0134612393753582,9.801714322779166,0.0242660127201773,0.1602301284307848,-0.0150642418909963,-5.039323885118393,4.517113834829249,2.0421447115546134,1139.5881229850927,1113.8133336257927,1118.5646394827263,1143.643763218628,464.3207891933982,-935.0566975450776,195.9013259861116,-80.83519576865555,163.0522623399337
8.2825,-1.4136292330724507,0.5228558988056103,0.4234890666181345,0.2141250597802202,-0.0502610271806776,0.0503809064632652,-0.0096490335427127,0.0123229720861199,0.0021727391179958,0.9998745530562372,0.0435208924393746,0.0191994902825995,9.810887816019008,0.0251375920291075,0.1611045816990237,-0.0151701378609152,-5.039262322835595,4.5174999971021625,2.042098454675799,1140.8008760366395,1111.2742087856657,1119.103164685512,1143.6593652037968,388.8141119388212,-902.8564454665635,181.81319896322637,94.28856295729365,163.053979439298
8.285,-1.359357135510401,0.733912086694045,0.0455916393109863,0.2088322345794487,-0.0485112518310873,0.0496245779399664,-0.009348924219409,0.0121090947362806,0.002256968654195,0.9998798308390264,0.0443265867368871,0.0247995063113234,9.820068426107964,0.0260004861791662,0.162007104659111,-0.0152447325517332,-5.039199930548871,4.517885946813442,2.0420479928514848,1141.532193544787,1109.2990513984591,1119.4737054775424,1144.1152060334143,204.99540332143155,-728.7160461016896,111.69205834319148,255.16606947808745,163.05536090927723
8.287499999999998,-1.1451838567538448,0.8985475231449134,-0.2977624241399267,0.2031123365314847,-0.046930317316976,0.0475421964848415,-0.0090522056528859,0.0118964214507648,0.0023331105840711,0.9998849620825392,0.044530329183777,0.0301187780976857,9.829145313186057,0.0268519511327563,0.1629395274592344,-0.0152853087926752,-5.039137957617591,4.518273623179601,2.041994774035072,1141.8258530532464,1107.630628555158,1119.6616249772278,1144.935195551187,37.11096679921286,-591.372904642229,33.884606392343066,361.60385437414146,163.0566805057536
8.290000000000001,-0.7977987582520081,1.0140810730060243,-0.5898563003452681,0.198326023882239,-0.045113662439609,0.0452842850180157,-0.0087618512940117,0.0117007932586006,0.0024001644176765,0.999889740981486,0.0438494179573294,0.034999841704236,9.838010396074452,0.0276897187487103,0.1639009486643739,-0.0152894667376612,-5.0390751937838525,4.518665533438896,2.041941210227763,1141.7177483787832,1106.3421868752475,1119.6431285095043,1145.9232253052855,-132.4481762445223,-395.8109202738633,-61.90647463544279,397.9012862458436,163.0579412142702
8.2925,-0.3279676756991851,1.0515039423175676,-0.815248213568819,0.1956469231382271,-0.0424417568613003,0.0430803935441279,-0.0084815023445131,0.0115339790762389,0.0024566660520363,0.9998940127351376,0.0420930428141211,0.0392780133360484,9.846559372747656,0.0285109628241663,0.164887916388133,-0.0152556595972274,-5.039010480045174,4.519062908192361,2.0418888256156182,1141.1636121720237,1105.6515739537883,1119.3520926040503,1146.9247019824163,-322.45204693228567,-140.15215791935648,-185.1701778752072,402.656103333482,163.05912228652775
8.295,0.2925019909806112,0.9799800030197175,-1.0182084322102538,0.1955697717589755,-0.0383021730047894,0.0405717105934144,-0.0082134043849944,0.0114004466056703,0.0024999747662564,0.9998977266428984,0.0392258944305908,0.0428264712026425,9.854692211573727,0.0293118349539659,0.1658947510310794,-0.0151840636228099,-5.03894329822856,4.519465952173009,2.0418387346205793,1140.105488144122,1105.641426085651,1118.7172776201285,1147.9365058219523,-431.8040308061831,139.1916857718392,-268.0211547150599,322.26120039501484,163.0604370957879
8.297499999999998,0.785085917346725,0.8128275662018936,-1.1408443544429903,0.1980933587776355,-0.0348173229057046,0.0383074054325701,-0.007950987344584,0.0113054922192275,0.0025328146099006,0.9999008847864757,0.0352122398726156,0.0457047005110465,9.86231282404991,0.0300899425069524,0.1669133925353051,-0.0150784055455958,-5.038873611241347,4.519875361900437,2.0417905765490345,1139.0045920179932,1106.3475323826472,1118.0119868304755,1148.5360079843913,-462.8765880216819,421.5573826573996,-295.4540978319976,187.063534368115,163.06144029993047
8.3,1.1776850278955595,0.5410466988503059,-1.2233472545725987,0.2025184625571988,-0.0322797416698325,0.0354842643107199,-0.0076860094662381,0.0112511962490966,0.0025652481684635,0.9999035194925529,0.0300957613834801,0.0480205893288923,9.869333112432908,0.0308449802757595,0.1679340173612304,-0.0149436321950195,-5.038801095148973,4.520292473523345,2.041742797888832,1137.791105204013,1107.7492129989382,1117.2400071309683,1148.8718234937933,-542.1135790274155,746.8086385110125,-318.840730325651,102.41127671004725,163.06233969887663
8.3025,1.4817786533430533,0.1257351441074237,-1.282159897019176,0.2085990349518637,-0.0308389301504442,0.0316826976405325,-0.0074170851394514,0.0112284246597784,0.002595967567195,0.9999057507892936,0.024145458210219,0.0497697933341693,9.87567763089481,0.031572336522907,0.1689471145932367,-0.0147835046201383,-5.038724815588397,4.520717454906039,2.0416947291117338,1136.2940241228555,1110.081575575203,1116.417783178847,1149.0480643679416,-548.6724004240568,930.8551198962083,-253.84089029549207,44.311036590042654,163.06329066348485
8.304999999999998,1.5860295012009515,-0.2621234695932637,-1.303398600144189,0.213596749269089,-0.0310780294611564,0.0285016648119902,-0.0071451190272546,0.0112260099048803,0.0026212349041372,0.9999077076572096,0.0176785903067832,0.0509233333991913,9.881284734999626,0.0322665765120913,0.1699436271455952,-0.0146015832147255,-5.038644489889417,4.521149325917391,2.041645993136852,1135.0477432018936,1112.4034885984183,1115.970802679491,1149.0933786767434,-493.4263794801747,961.3270755817982,-94.43036907126384,18.33239198863052,163.0639706528575
8.307500000000001,1.5504128737938763,-0.6524529788584607,-1.3049138335225023,0.217935523944412,-0.0327863176288173,0.025526043501233,-0.0068701725798338,0.0112274944950917,0.0026445860987864,0.999909564602146,0.0111285344327456,0.0514858664924845,9.886106669249315,0.0329249807348086,0.1709149671858315,-0.0144025881431064,-5.038560104220471,4.521586801802406,2.041597516271656,1133.8268922254545,1114.8882109531128,1115.9456313334906,1149.1397263278848,-479.6607885574008,985.9385643646696,79.5197809110835,31.012724243368815,163.06452786174572
8.31,1.4226765879696863,-1.0184196736473643,-1.2968099776180944,0.2214430276701022,-0.0355637584002397,0.0227941442170143,-0.0065922222282009,0.0112172356199564,0.0026658591082044,0.9999114967160352,0.0049151415399568,0.0514828617031813,9.890111507039821,0.033544412169773,0.1718542923277859,-0.0141918887574653,-5.038472142151905,4.522028425314386,2.041551224977396,1132.6494392591062,1117.3331814202425,1116.3684015840463,1149.2484422979603,-450.07381482400746,932.2955855468115,285.9228892843135,64.52633653599524,163.06497919501876
8.3125,1.216768750475396,-1.3337097133427616,-1.2813630985370108,0.2242332703693554,-0.039127505223199,0.020260369141182,-0.0063105099676388,0.011190290714693,0.0026836066694419,0.9999135664945562,-0.0007528562926947,0.0509706043788681,9.893283752185308,0.0341227492646754,0.1727567137376007,-0.0139749477772262,-5.038381416081351,4.522472932277427,2.041507595552308,1131.5765231513349,1119.549688880846,1117.375245779912,1149.4623580105647,-426.9182354963899,892.1867933389832,564.580182372923,112.1286908676889,163.06529848217727
8.314999999999998,0.9172962008610828,-1.640941272898592,-1.250744868451054,0.2269971882307209,-0.043663633293194,0.0171716219603971,-0.0060258046245712,0.0111464493512249,0.0026948137442553,0.9999157799259292,-0.0057640036960891,0.0499879969253814,9.895624674094204,0.0346588141557784,0.1736195644202778,-0.0137566384742639,-5.0382886180857644,4.522919107207714,2.0414663271168165,1130.5148480816247,1121.7941153869365,1119.1913024959103,1149.8090857522986,-333.8108492149719,746.7936761784326,739.1862084017001,129.2788339161032,163.06552399975797
8.3175,0.6476390804912752,-1.8351575346340423,-1.2055597398406683,0.2286062026124929,-0.0477801347422025,0.0143675517364429,-0.0057430976466206,0.0110832410822774,0.0026980415621145,0.9999181392673108,-0.0099680127586006,0.0484984313308394,9.897152826287964,0.0351533842756123,0.1744422451996195,-0.0135404595134322,-5.038194047592965,4.523365105893275,2.041428022549923,1129.9074689052595,1123.2836572617387,1121.0711768219207,1150.1087521801453,-168.30953558644163,525.2693344531142,777.9103010074925,103.57372296542252,163.065577438612
8.32,0.3806346444571243,-1.9639313782313497,-1.1236527458275436,0.2293897016290675,-0.0525688176192809,0.0113386160161415,-0.0054669860909729,0.0110032143388332,0.0026903346840195,0.99992059834085,-0.0133249463710579,0.0464786849913661,9.897901492913661,0.0356084373396454,0.1752260613419494,-0.013329341178924,-5.038098419818249,4.523809431022422,2.0413921017812324,1129.6733004036923,1124.4204620592025,1123.0808540009486,1150.3269543671258,-10.878741209355557,441.25383601567273,847.2729649532861,60.2994930074721,163.06548811374276
8.322499999999998,0.0830107343421632,-2.0438738723135494,-0.9653808591262139,0.2295119795453261,-0.0588204168053094,0.0076367725443856,-0.005198797711951,0.0109118062591575,0.0026725726687142,0.9999230886640428,-0.0158636525723377,0.0439710960724029,9.897916230138302,0.0360289578044854,0.1759733221562143,-0.0131265004493165,-5.038003666998464,4.52425227149735,2.0413579560286754,1129.8530751992128,1125.4899264418164,1125.3075416466863,1150.4102496451826,135.32478944123758,360.63013292667057,741.1383268829123,-6.197210537585629,163.06521293466108
8.324999999999998,-0.1377446271443945,-2.053838267070045,-0.776679521537949,0.2291097888717321,-0.063833793855163,0.0047498203266536,-0.0049400167611903,0.0108102166219587,0.0026462794768353,0.9999255861428228,-0.0175458174284436,0.0410131648914168,9.897254829371592,0.0364214539167419,0.1766871311115854,-0.0129345763731896,-5.037910093581075,4.5246944489072245,2.0413249116473344,1130.3499243508984,1126.2236127238355,1126.7865456353625,1150.295968314438,250.47659068550905,275.8611181296169,476.92614841714015,-87.55609984690177,163.06484196567519
8.3275,-0.3270560814583323,-2.0161460470236614,-0.5324266972401157,0.228469872054818,-0.0682246944485756,0.0024143489688896,-0.0046866939658575,0.0107045978297402,0.0026152575058215,0.999928033718084,-0.0184493376671859,0.0377457679955748,9.895983499855843,0.0367945051514516,0.1773706613833748,-0.0127568590471249,-5.037818288983878,4.52513677059759,2.0412925373605355,1131.1054581526407,1126.8692320324649,1127.6921723887726,1149.972469145948,361.7783249325728,269.2843862633742,252.56715000705896,-192.15329190603092,163.064322562094
8.33,-0.518480995991546,-1.9251377221336616,-0.1957550940407301,0.2277926675385472,-0.0731478163453501,0.0006718430502518,-0.0044337082971942,0.0106007205813378,0.0025843802516691,0.9999303844643131,-0.0186654821729943,0.0343267648879527,9.894176853251917,0.037157782921171,0.1780270454751405,-0.0125961698303056,-5.037728786039956,4.525580282048333,2.0412600994142087,1132.1588159755615,1127.5700346551523,1128.049381385398,1149.3352018549076,389.66513033200073,241.21805497479977,18.796617830961726,-274.86607721799385,163.06352692287572
8.332499999999998,-0.6458436506072865,-1.8103856955092583,0.0963408728442625,0.2272726097397257,-0.0774095364669979,0.0002675103318479,-0.0041793598581445,0.0105022080925159,0.0025577674191791,0.999932603526834,-0.0182660503709264,0.0308389814205344,9.89191786621084,0.037520888058265,0.1786594601944703,-0.0124534335133118,-5.037641037212053,4.526025234861831,2.041226966795121,1133.0537838043003,1128.0753223073386,1127.7861554779274,1148.5981387598583,343.46981932948523,176.32729637527487,-193.60823894673257,-334.0477888045757,163.06272047913356
8.335,-0.726004862867988,-1.6474852779087028,0.3639538729593675,0.2262070234564238,-0.0819825977411967,0.0010260494303047,-0.0039265388467649,0.0104084202544389,0.0025367083907107,0.9999346873422876,-0.0172625062765185,0.0272666903032598,9.8892963573448,0.0378920996118771,0.1792712364649722,-0.0123275659642861,-5.037554430402976,4.526470716620873,2.041192989942774,1133.8761650722092,1128.451671137029,1127.081340190664,1147.6649629108845,310.8519414461139,120.88957964718176,-327.4215047209452,-398.9088150968486,163.06176643097928
8.3375,-0.7473957768036689,-1.439978268335297,0.5832282280426107,0.2241489117251237,-0.0864057429410236,0.0027566280965097,-0.0036748472241024,0.0103233866337677,0.0025254729732662,0.999936586876938,-0.0157786133413732,0.0236505636794319,9.886404195500932,0.0382803450277923,0.1798651258149941,-0.0122178076131873,-5.037468342996965,4.526916934821471,2.041158309844741,1134.6080435115312,1128.6797702055746,1126.1490479543224,1146.6035946843735,272.6620722458025,47.1033462379276,-393.8298732451459,-440.25366970913296,163.0606916609517
8.34,-0.6723865664516366,-1.1818265913356027,0.7165086543311285,0.2206793563628143,-0.0901292603218881,0.0055225006067886,-0.0034247877713421,0.0102533516960573,0.0025220853168587,0.9999382411525578,-0.0140043174513567,0.0200069558325919,9.883335368142845,0.0386915168059192,0.1804439873381872,-0.0121226386504367,-5.037383078338864,4.527364393707009,2.041122838260881,1135.239475433438,1128.6871878682186,1125.1121908244388,1145.4636945623392,264.12330091839766,-53.47017326913528,-443.74816862991526,-492.28441437449663,163.05947425780727
8.342499999999998,-0.4601905391032181,-0.8305485165886884,0.7597068037486145,0.2156039823197561,-0.0935358507676617,0.0093773479384941,-0.0031794453008732,0.010197609820601,0.0025201558583597,0.9999396610456496,-0.0120108873021755,0.0162947808394315,9.880185128581005,0.0391285998025849,0.1810106288860267,-0.012040052160985,-5.037298371617088,4.527812821361563,2.041086688519813,1135.9286600161229,1128.412419339229,1123.9303071111733,1144.1421726125016,249.06854157334888,-146.8666474156405,-404.3525060934194,-454.21995460344255,163.05785344084853
8.345,-0.2065752102215666,-0.52316548136106,0.7044007081301767,0.2121730378034418,-0.0953115196299737,0.0121073798032854,-0.0029404612164659,0.0101505116200925,0.0025161526914755,0.9999409059085163,-0.0097840388063893,0.0124949576251812,9.877047236751608,0.0395941128895366,0.18156708930254,-0.0119690292136491,-5.037213129693464,4.528262150336204,2.041050284622429,1136.484818141305,1127.9528546311403,1123.0904282939712,1143.1925947893217,224.0563820853017,-222.52132715371928,-293.7965818400239,-324.61257516251334,163.0563739458503
8.3475,0.0511741216036332,-0.229007801596475,0.5815948390241455,0.2119156235154827,-0.0958009293130856,0.0134957124997686,-0.0027082253385,0.0101067045490279,0.002509059472562,0.9999420306843496,-0.007324079533479,0.0086084166193226,9.874013009539373,0.0400899629398136,0.1821145771486204,-0.0119092137164424,-5.03712716695401,4.528711755007234,2.0410146290478903,1137.0489419265496,1127.2998127034602,1122.4613242019727,1142.5191097366887,248.43773789366816,-312.4145184278116,-223.59648899859977,-217.4433424811901,163.0547670593066
8.349999999999998,0.249834474431408,0.0783475814889043,0.396392530877282,0.2155838390633355,-0.0952450013607395,0.0138172387720413,-0.0024799912720085,0.0100633998364642,0.0024974419768458,0.999943074576303,-0.0046876480144435,0.0046957209665739,9.87116983490323,0.040616354547573,0.1826535213690119,-0.01186145618821,-5.037040081357538,4.529161495753875,2.040980235806878,1137.727006830773,1126.3907820390016,1121.9724458489786,1142.105378076916,242.8227614981172,-337.4979480194652,-134.1651301528845,-86.08814932166315,163.05269981152065
8.352500000000001,0.2574621360299542,0.28146790491354,0.2323536710680283,0.2201983379486064,-0.0943154356274263,0.0136646988966865,-0.0022484397208619,0.0100180590364587,0.0024837405929244,0.999944075829532,-0.0019359974059814,0.0009060573542612,9.868599917172087,0.0411732676364996,0.1831830253185074,-0.0118284285205383,-5.0369504833144685,4.529612490163082,2.040946991623932,1138.2630557340403,1125.6123229633627,1121.7904985512084,1142.0886689900804,197.7605617891786,-300.18217552587737,-24.00821031551084,50.226528811428,163.05086761638395
8.355,0.0791610709171377,0.4214363824554405,0.0687380642076676,0.2240261289106378,-0.0931779816995378,0.0136743710578648,-0.0020087173260452,0.0099657177271008,0.0024683154215407,0.999945095946072,0.000919344597489,-0.0026587770504868,9.866381605053501,0.0417582822288257,0.1837014200574328,-0.011812166874185,-5.036857231064372,4.530065607046489,2.040914619200214,1138.715809639719,1124.889871161372,1121.852404797401,1142.3565107209731,166.25380497929325,-300.137883319681,88.1039129005051,164.3675082456284,163.04892950868333
8.3575,-0.2971304904466335,0.5153776332835461,-0.1281350475805697,0.2260787245181313,-0.0915915805086838,0.013964147188769,-0.00175913018389,0.0098965885184872,0.0024482053146468,0.9999462440408244,0.0039674617383807,-0.0059561206380538,9.864588305149736,0.0423662957367416,0.1842064423420568,-0.0118138959110164,-5.0367600528053895,4.5305215632733375,2.0408832747899592,1139.0943247589366,1124.1116335467643,1122.2310181157109,1142.9105065313083,102.19194858093248,-277.71932959741275,192.090643918702,228.63168083222263,163.0464905375756
8.359999999999998,-0.6696377027206664,0.5345339719985464,-0.2935063582478622,0.225170446201014,-0.0900985899637908,0.0142191751638657,-0.0014996783519214,0.0098076550872787,0.0024284043909951,0.999947534191318,0.0071768128016913,-0.0089742983747533,9.86328726594875,0.0429942963523976,0.1846944298117189,-0.0118334305620031,-5.036659471055003,4.53098129624416,2.040853224412046,1139.2267693826236,1123.5012745133852,1122.8128580169944,1143.499669125134,7.227047525201449,-254.42700674230423,287.0004129285923,249.90327045935103,163.04437056818972
8.3625,-0.9945770081158614,0.4989537223686842,-0.4524335159668336,0.2215358723002199,-0.0884167760989593,0.0140076489122459,-0.0012341673988249,0.0097011661338434,0.0024149551023693,0.9999489185233152,0.0104252201123562,-0.011771974534847,9.862539035960992,0.0436391255835091,0.1851612321407682,-0.0118683417041038,-5.03655541422953,4.531444930406132,2.040824360890827,1139.1304599965626,1122.8394985130528,1123.666020180354,1144.1600228836055,-78.2547219086487,-289.17091347671004,381.53068110176207,269.0963118871002,163.04216818413147
8.365,-1.2063977700561892,0.4270586393986325,-0.591104495047799,0.2161592652728076,-0.0865934375389823,0.0128703110351887,-0.000968269432865,0.0095763434252916,0.0024112968864796,0.9999503842457864,0.0136645988102633,-0.0144391480191332,9.862395146357438,0.0442962327766557,0.1856028678709906,-0.0119151904238585,-5.036447447082866,4.5319119570701725,2.0407967963487734,1138.8354957730803,1122.0554199460012,1124.7205114225035,1144.8451506845695,-161.32164884341844,-357.192287964088,460.1062461850239,272.48196597443854,163.03990388584216
8.367499999999998,-1.2259177742464566,0.3311010137433437,-0.681565948142503,0.2101635779293238,-0.0850376716863585,0.0105271897788578,-0.000703235676856,0.0094347725887613,0.0024199791736615,0.9999519059384054,0.0168170220907699,-0.0169736856079369,9.86289523260904,0.04496077420893,0.1860156236855723,-0.0119712226441601,-5.036335509660321,4.532383039146602,2.040769866328165,1138.3238517523455,1121.0535370732327,1125.9665514112787,1145.5224327134774,-260.02669336590344,-495.0606633991037,573.9913281654493,285.03216800354585,163.03757290186888
8.370000000000001,-1.012331486502172,0.2267226270039782,-0.7117248023075474,0.2042175928279186,-0.0843872532126255,0.0072023882730908,-0.0004398529623932,0.0092850258498983,0.0024385064303959,0.9999534054951054,0.0196828217069277,-0.0193590531370368,9.86406740071772,0.0456265005728775,0.1863969482373351,-0.0120323745353078,-5.036220369848791,4.5328581603584,2.040742161229389,1137.5353623062504,1119.5801166290055,1127.5904680633312,1146.2703115245877,-301.58624215346043,-576.8501827318695,599.5849819264067,253.84249480080723,163.03470919267156
8.3725,-0.6636423412978966,0.1806337100332786,-0.6685170658325013,0.2010365859072633,-0.0849761281001383,0.0047977435845526,-0.0001804991452537,0.0091343320760081,0.0024618507468765,0.999954825160054,0.0221056067953847,-0.0216073796959193,9.865927198010958,0.0462867587951409,0.1867457444126678,-0.0120932422316255,-5.036103154669621,4.533335596986529,2.0407126909182,1136.815920541578,1118.1692861595727,1128.9644763209112,1146.7916451874817,-278.3112045955576,-581.2961329821311,529.7636521978037,175.85035742625993,163.03227523455507
8.375,-0.1979816693296407,0.2050113622719364,-0.5663751851813283,0.1997780010540012,-0.0860037459236062,0.0030406300177787,7.592555651258787e-05,0.0089908212748085,0.0024892637824762,0.9999560926636004,0.0239293932287206,-0.0236630938541274,9.868475456461304,0.0469372730977728,0.1870619435241545,-0.0121489581174293,-5.035984188055043,4.533813605071088,2.040680648993805,1136.143806283273,1116.6736359640954,1130.2392863243197,1147.1495633117188,-262.403980345341,-645.1628941967475,508.80591344467695,110.93804780086816,163.02980161558
8.377499999999998,0.4113504143514523,0.3213404790451487,-0.4006006668530125,0.2003295391594009,-0.0868253231156854,0.0016714507904959,0.0003317421337647,0.0088565368850642,0.0025238671935561,0.9999571834059124,0.0251347799285713,-0.025449824692833,9.87169783308028,0.0475758988845926,0.1873466691030907,-0.0121953597597035,-5.035863187659047,4.53429139448543,2.0406458191723647,1135.5039006398515,1114.9434716885899,1131.508505888134,1147.346335426486,-197.0184172150458,-597.9778992802014,403.16942561897184,33.861320559657706,163.0267989710674
8.38,0.8990864369257459,0.4753555683870949,-0.246594443647527,0.2025178395603135,-0.0868498036643218,0.0012010385413124,0.000585501290748,0.0087292456887433,0.0025613952506024,0.9999581284487966,0.0257983956266846,-0.0269680456896513,9.875566132481692,0.0481984798756231,0.1876033272300652,-0.0122274360712344,-5.0357411350058925,4.5347678034160674,2.0406094826787524,1135.1587141971977,1113.683746467694,1132.2551334524148,1147.318869914517,-97.42726707421137,-436.9809686537109,218.99957408915031,-39.79662774449312,163.02427683178402
8.3825,1.299524408383574,0.6513827197545141,-0.0972249112202806,0.2062009006813691,-0.0857850987911757,0.0013162782022289,0.0008384208904924,0.008610304439231,0.0025986582483535,0.9999589237195476,0.0259383949290245,-0.0281717809533588,9.880037683390974,0.0488022143766663,0.1878364231436932,-0.0122413214800381,-5.035618292400803,4.535242012950929,2.040572467345895,1135.0167643044806,1112.7585668453207,1132.60350375858,1147.1473522877632,-24.852998360670824,-301.92613513378643,57.09652213632807,-86.92811436578178,163.0217445945514
8.384999999999998,1.6198977166922799,0.8319317259781353,0.060952059954508,0.2115433477570719,-0.0828292309596593,0.0017848961425298,0.0010909975228098,0.0084970271549442,0.002634762781508,0.9999595967268406,0.0256631636019469,-0.0290376693451925,9.885056497112275,0.0493858507525504,0.1880511425959479,-0.012233951515381,-5.035493967238934,4.53571369460606,2.040535871478537,1135.0344492053944,1112.1741157920253,1132.5406160630964,1146.8842293426883,27.19661063866256,-112.75471181836537,-96.46382003899919,-89.50513208912487,163.01870688809228
8.387499999999998,1.7239540385725087,0.9187293192273096,0.1704323641395125,0.2166097932317907,-0.0791400964962594,0.002200212217993,0.0013402299387434,0.0083865855470494,0.0026629338100905,0.9999601951153688,0.0250900512648855,-0.0296185224897437,9.890555564399827,0.0499466464290164,0.1882537607168464,-0.0122017290875759,-5.035368319388401,4.536182443892061,2.040500959744944,1135.152747357674,1112.1947932862292,1132.1211846583851,1146.6998266273179,57.63204566873364,119.8111410595442,-225.89557449010607,-52.25876483795311,163.01618575742924
8.39,1.6407387743298152,0.9133586293053116,0.2559560297281272,0.2223072704796713,-0.0751604668533165,0.0026708705994566,0.0015839700500262,0.0082797932129087,0.0026770882239865,0.9999607346603218,0.0242702763381628,-0.0299591567336873,9.89645758695193,0.0504829060709827,0.1884503875558249,-0.0121416497483006,-5.0352424178847865,4.536648294435572,2.0404677058800686,1135.322609433738,1112.7731714973231,1131.4111381906455,1146.6229355184985,72.86783838097787,318.8880342739096,-313.84849085102,-8.318265352953468,163.01368676836756
8.3925,1.4055326646988875,0.8332850358190744,0.321817995256792,0.2279783394740116,-0.0718149013411282,0.0032032947310018,0.0018214936466692,0.0081819229204752,0.0026764830537779,0.9999611788127892,0.0231715674680406,-0.0300856375299421,9.902676617797974,0.0509956450723898,0.1886459512824964,-0.0120512142608974,-5.035117143682617,4.537112201317263,2.0404355739159743,1135.5170865495788,1113.789233457599,1130.5519422041295,1146.658235300553,87.31311289340654,493.8105630641603,-356.92683150707853,40.7147019281264,163.0112145123336
8.394999999999998,1.018755886047463,0.6880554319876233,0.3626795684736998,0.232400109975787,-0.0697932935187193,0.0038079236944012,0.0020538670709814,0.008099380849861,0.0026648765026324,0.9999614664203648,0.0217416944547966,-0.0299966318210005,9.909119506906467,0.0514879647622,0.1888438000809339,-0.0119287416860112,-5.034992814647317,4.537575099207038,2.040403962119476,1135.759174998205,1115.2422243126434,1129.6265040331107,1146.826509028139,130.51091090381084,704.5427369036851,-400.3042449006727,101.63090206372775,163.0087841680925
