t,ang_acc_x,ang_acc_y,ang_acc_z,a_vel_x,a_vel_y,a_vel_z,quat_x,quat_y,quat_z,quat_w,acc_x,acc_y,acc_z,l_vel_x,l_vel_y,l_vel_z,pos_x,pos_y,pos_z,mot_1,mot_2,mot_3,mot_4,dmot_1,dmot_2,dmot_3,dmot_4,vbat
0.005,0.8224240970204589,1.7818943051643303,1.529059210437567,-0.114301518790073,0.0005264361135658,0.0099534862679609,0.0045512608856258,-0.0110247328718223,0.0130848830522872,0.9998431053286247,-0.0437358529331873,-0.08104230424172,12.180274524240515,-0.0121568282253915,0.0135852528669177,0.6882597889844364,0.0978724169697399,1.8414237232779735,0.2530470165365998,1212.4683663983435,1230.1507921345099,1245.6093080108908,1187.0537772335583,-1079.6482859383107,-1569.0002756168726,-1372.4290525130527,341.3238117243964,157.95456713784597
0.0074999999999999,1.6976528013390473,1.4235277765339849,1.4527927440999324,-0.1103871395720048,0.0027179109142966,0.0143037405063119,0.0044851161950421,-0.0109830578900519,0.0131645576223086,0.9998427880678236,-0.0458358490768897,-0.080709665057693,12.171687033063522,-0.0127049229065514,0.0133916510737852,0.6939058535790623,0.0978002889685229,1.841441555692424,0.2547778595766773,1209.7692456834975,1226.2282914454677,1242.178235379608,1187.9070867628693,-856.8538051761152,-1435.2121097676445,-1294.6477981629412,197.3700487983024,157.9709182354025
0.01,2.310544936794204,1.1636023287495356,1.3116365995380783,-0.1025837227764073,0.0039241484306187,0.0178752794751297,0.0044115167409644,-0.0109473039537438,0.0132347091526575,0.9998425604046614,-0.0477565265448902,-0.0805126684584275,12.162781112389627,-0.0132520322095665,0.0131847520493401,0.6995762238274568,0.0977300954593143,1.841460970759524,0.2565131812567199,1208.1840973724627,1222.9747315856716,1239.136069020076,1188.0406274775498,-440.0540271884892,-1223.0679076616068,-1216.2198880561389,-99.5917815138,157.98684284231112
0.0125,2.66477241311816,0.9515915517061646,1.1127095714511355,-0.0909704569877891,0.0053151894884116,0.0210514326113294,0.0043262119737932,-0.0109192692255649,0.0132915426173513,0.9998424723055463,-0.0494327961557391,-0.0805277674147922,12.153367182453124,-0.0137982417240721,0.0129580213991718,0.7052808027090822,0.0976611815504173,1.8414809063789788,0.2582545127804544,1207.5689755475553,1220.1129519071596,1236.0971359393275,1187.4091278553003,-36.26197277767461,-863.9200617232746,-1003.464731543545,-349.1731395344232,158.00544243912094
0.0149999999999999,2.632574205499505,0.8247646514826753,0.9553788048020047,-0.0816356944194947,0.0071388106671056,0.022862116163268,0.0042325048436083,-0.0109025956009822,0.0133345046483063,0.9998424752240704,-0.0507478333292446,-0.0806424120731829,12.143223943978663,-0.0143403771136062,0.0127160579634286,0.711027856240316,0.0975919400153128,1.8415007920850333,0.2600030852529369,1208.0027875085743,1218.6551312770553,1234.1187453623584,1186.2947617798775,314.1355219895103,-409.15406777758096,-683.0397807209919,-545.6964898918158,158.02050746255625
0.0175,2.305438534802523,0.695635095457515,0.8378478840553744,-0.0742955300418483,0.010239152557071,0.0239399209945511,0.0041335455263692,-0.0108994341384766,0.0133664346244152,0.9998424921747782,-0.0516178344470683,-0.0807424694482211,12.132108381025983,-0.0148765159132295,0.0124641632318741,0.7168229288907987,0.0975220350664284,1.8415201229771667,0.2617598179889432,1209.1396531575028,1218.0671815682715,1232.6819370357225,1184.6806454058412,516.3730073977148,-125.03089165952584,-500.17662048198866,-711.036163360768,158.0351128265396
0.02,1.796210437049542,0.5293534511998876,0.7655110606633821,-0.0687599020950232,0.0141520351283943,0.0246890041700342,0.004035947702018,-0.0109143467510119,0.0133926032815178,0.9998423733840524,-0.0518976282917969,-0.0806268961558663,12.119766447397518,-0.0154002196961447,0.0122134531412382,0.722667849191543,0.0974511860312435,1.84153689654574,0.2635271889806875,1210.5846525455631,1218.0299768187576,1231.6178622599484,1182.7395809630739,581.4704301616533,58.95864164572234,-361.03450004820854,-835.8403165232634,158.04933287389443
0.0224999999999999,1.158324049300563,0.3044681933321745,0.7450611303397999,-0.0651633915100013,0.017736513350252,0.0255882637743227,0.0039439241250678,-0.0109494026576054,0.0134202393106885,0.9998419814682684,-0.0515034287492275,-0.0801494745434118,12.105945161300504,-0.0159075563768248,0.0119724137100423,0.7285599644390695,0.0973786936047547,1.8415496136864544,0.2653077158016042,1212.047005308311,1218.3619747765003,1230.8767645354815,1180.5014438232247,566.3476621293283,142.20061696255468,-284.87307999539547,-1032.6525626875534,158.06308576990125
0.025,0.3667413980150746,-0.0004785127244439,0.7567056840483563,-0.0636030774117512,0.0198329117372402,0.0273742397653941,0.0038590491662687,-0.0109983316153471,0.0134566250936575,0.9998412805329236,-0.0505558507063323,-0.0792235305383079,12.09040477802634,-0.0164058470683053,0.0117460234452517,0.7344915281919026,0.0973038599413726,1.841557932595277,0.2671045249371168,1213.4163908562095,1218.7409799035704,1230.1934968599714,1177.576318149636,394.8884801607164,67.99674522453641,-236.44285047230363,-1100.2893661924188,158.0790490497583
0.0275,-0.2283445875714349,-0.2312016835132115,0.7704680917365896,-0.0649932843388633,0.0192855446406968,0.029435469065735,0.0037770461037222,-0.0110477444884311,0.0135087882252518,0.999840338932979,-0.0493519621145454,-0.0779000105594681,12.072931065383663,-0.0169124791521078,0.0115302654819785,0.740449769459067,0.0972267454623089,1.8415635174006897,0.2689194733649559,1214.0214477091147,1218.701958502623,1229.69455028312,1174.9999969922628,104.12981093127206,-162.43641246819615,-199.6914463034956,-1047.5615500446568,158.09190382376983
0.0299999999999999,-0.6719670207358813,-0.3656350470073127,0.756787781592737,-0.0683055401704604,0.0167175115667154,0.0318870495380607,0.0036918313291705,-0.0110849310487744,0.0135775439567729,0.9998393083289376,-0.0481759237494771,-0.0762732114804322,12.053346358847568,-0.017443819802484,0.0113169068882307,0.7464173928925985,0.0971467089053854,1.8415684064173936,0.2707539229800042,1213.937039910866,1217.9287978412294,1229.195039628454,1172.3385103994128,-150.88916615841296,-470.8139793203371,-202.7677527212745,-1071.9544403060352,158.10429849861453
0.0325,-0.9508703085412517,-0.378759039560355,0.7018485008766299,-0.072457305400195,0.013127373711903,0.0345243417884021,0.0036006412586866,-0.0111052555225818,0.0136571254898525,0.9998383247678476,-0.0471204894493869,-0.0743594632058569,12.031518831995832,-0.0180040798695592,0.0111007066125875,0.7523733590259327,0.0970629175709237,1.841574654711544,0.2726098110800586,1213.2670018783226,1216.3478886060211,1228.6807115195136,1169.6402247907326,-398.32124656336384,-845.9449005591059,-205.57643127103785,-1082.9753661435907,158.11631609341535
0.035,-1.0180044077519237,-0.2303114696169524,0.5864288272710401,-0.077064298135308,0.009816586262996,0.036987797085782,0.0034999306818891,-0.0111068044477018,0.0137418193967521,0.9998374971227209,-0.0462195369933049,-0.072192949643376,12.007370156819512,-0.018593117700685,0.0108739312280162,0.7582936880064565,0.0969754568201993,1.8415836089519937,0.2744878324217101,1211.9454336780493,1213.699073338434,1228.1671574720988,1166.9236335686949,-709.6163500720198,-1391.1738285241888,-220.1004128623482,-1195.1889489614139,158.1278847714674
0.0374999999999999,-0.88077631082995,0.1018996857545208,0.3821461398722325,-0.0817760036106794,0.0077033564790542,0.0390304471446505,0.0033893784201042,-0.0110908042065912,0.0138239901151145,0.9998369150497334,-0.0454378620653895,-0.0697307640942969,11.980880048503407,-0.0192058345853682,0.0106326915214304,0.76415248711866,0.0968844402344322,1.8415965444426636,0.2763893094145941,1209.7189201279623,1209.3920194634004,1227.5802094552018,1163.6642800459256,-906.5511773890653,-1719.4546433180683,-210.8403108590211,-1190.7189009468318,158.14125607857983
0.04,-0.6322468557772903,0.4533335414820614,0.1705687255467344,-0.0842220207390587,0.0076956285617864,0.0398616907195322,0.003268438864262,-0.0110584952144327,0.0138994975729184,0.9998366224921948,-0.0447480365925519,-0.0669349138219853,11.952088379742912,-0.019837009390627,0.0103727572876055,0.7699232048835293,0.096790266037452,1.8416131046583728,0.2783168164403127,1207.412677791104,1205.1018001218436,1227.1129559178037,1160.9700390639607,-1001.0019124227246,-1774.4027670432827,-190.4691936722882,-1063.286022284227,158.15197890773112
0.0425,-0.3196200782515258,0.7993864602795429,-0.0621318118360135,-0.0851060616392518,0.0096884789354805,0.0400448518692382,0.0031396748644369,-0.0110118654502785,0.0139658049749981,0.9998366245591684,-0.0441114543870079,-0.0636954226760289,11.92109363145692,-0.0204803087308694,0.0100952491983162,0.7755801715182907,0.0966931160688575,1.841632257416876,0.2802706625558858,1204.713910565849,1200.520005628184,1226.6278634868404,1158.3478499345044,-1266.7024663172476,-1965.0486486538748,-231.77394956410365,-1119.5433705857345,158.16227325247928
0.0449999999999999,0.0386602791910136,1.1108111377535188,-0.3381681103823208,-0.0846230238501158,0.0146574927206764,0.0393476012295338,0.0030040940815412,-0.0109565210899355,0.0140161707541939,0.999836950060952,-0.0434112449878156,-0.0599471233229401,11.888048804063008,-0.0211241050991521,0.0097996812870977,0.7811006098983116,0.0965924570844546,1.84165293699958,0.282248531157894,1201.0791654595175,1195.276556878574,1225.9540861699832,1155.372322211032,-1390.9526695746088,-1800.3870564181407,-271.1472671833236,-1048.3226994899728,158.17413990342015
0.0475,0.2637790694274005,1.2292866405508251,-0.5455272826259709,-0.0828536674817609,0.0201153362592157,0.037799109557019,0.0028649359570503,-0.0108952376327178,0.0140449738240368,0.9998376368331648,-0.0426040737413896,-0.0555789517820115,11.853153828040291,-0.021761455439361,0.0094906676740509,0.7864659834867597,0.0964877411577856,1.8416754089698288,0.2842466652990539,1197.7591472179759,1191.5180703460933,1225.2721271509236,1153.1062364370543,-1374.86760565739,-1309.2603974888775,-302.50659920629886,-848.3858256751765,158.1836298472663
0.05,0.3606581479041072,1.1750646464167351,-0.7108701382217982,-0.0796974477074051,0.0256002655511504,0.0352197144349685,0.0027287009342158,-0.0108286336813613,0.0140563069282973,0.9998385992365836,-0.0417009898530002,-0.0504120013214835,11.81664561334276,-0.0223893293589818,0.0091805254976641,0.7916632702121418,0.096379485501973,1.8416989036603149,0.2862596560302917,1194.2048274312308,1188.7302548911296,1224.4415531739517,1151.130393082656,-1444.9015787856758,-933.2919759576275,-354.68517501471996,-737.3097082803274,158.1927134966718
0.0524999999999999,0.3362035592759662,0.991682402485648,-0.8371956518508606,-0.0759605831139288,0.0303380992777835,0.0322018810062073,0.0026002685732134,-0.0107602156116308,0.0140598144628345,0.9998396479382364,-0.0406472490488291,-0.0443221553399613,11.778786942986429,-0.0230011716766762,0.0088815935580696,0.7966859260863539,0.0962688842585526,1.8417214747261383,0.2882828764267141,1190.5346393240475,1186.8516104663051,1223.49870127585,1149.4196878956527,-1469.58182326971,-544.3388514739129,-394.17952927401547,-623.021427200138,158.201465831725
0.055,0.1880513562266859,0.7058714559351786,-0.9283895104520616,-0.073242877166805,0.0332586885145904,0.0297087799060178,0.0024785844410597,-0.0106943358341001,0.0140660773648148,0.9998405883039008,-0.0393706512654621,-0.0373446389219802,11.739854792806383,-0.0235904160084423,0.0085990354853334,0.8015338439548227,0.0961573262663983,1.8417406228282391,0.2903134244311536,1186.8569183148823,1186.0085606337602,1222.4706555275816,1148.0152859466555,-1579.0762332234394,-185.74152545120324,-452.2465521322825,-561.8153979883568,158.20982504648913
0.0575,-0.0550684269583764,0.3415254126826176,-1.0266172520815549,-0.0729333092961357,0.0338561672894171,0.0281459871653486,0.0023608662181103,-0.0106292565965371,0.0140828190083025,0.99984133659485,-0.037940989946081,-0.029574675774613,11.700127861781192,-0.0241616439272094,0.0083369462555169,0.806212379520165,0.0960461344073548,1.8417551371960557,0.2923487772214293,1182.6392581579303,1185.9229028390491,1221.2374685151888,1146.6106109057112,-1482.5349740839108,65.93301157231511,-436.41785170580096,-485.78328709973016,158.21940935272673
0.0599999999999999,-0.2399158415326711,0.0917799897604466,-1.1154979486398107,-0.0746891155839127,0.0323911131935906,0.0274987785567514,0.0022461962455824,-0.0105607920974624,0.0141178599200463,0.9998418305836488,-0.0364795204831282,-0.021085434359469,11.659874560347848,-0.0247247017800505,0.0081036387688948,0.8107314957036151,0.09593647746925,1.8417651379005897,0.2943862408052388,1179.4442434444627,1186.3382256916218,1220.2885662690524,1145.5863695111568,-1177.0239841316659,194.4364124308323,-347.68101819736347,-404.1066996659085,158.2270292038794
0.0625,-0.3320243483147288,-0.040551913110836,-1.2056863979966268,-0.0772449542496824,0.0302802024738155,0.0259355983547604,0.0021397370367752,-0.0104889997796472,0.0141776460403043,0.9998419651147678,-0.0349998532131197,-0.0118342079216162,11.619341885530575,-0.0252834907344916,0.0079176775667312,0.8151047588460256,0.0958294592785452,1.84177071264335,0.2964245765903253,1176.754138237272,1186.8950849012033,1219.499063424202,1144.5900774073816,-971.5466624670617,199.38954812596404,-282.0905988395223,-410.8425456004167,158.23427373987445
0.065,-0.3123215421201336,-0.0561446319780438,-1.271769121027174,-0.080012843660268,0.0284549275747585,0.0227578198453581,0.0020420401020456,-0.0104173949117441,0.0142658826983815,0.9998416460024864,-0.0334309342334404,-0.0019121085579325,11.57874908352986,-0.0258368321173392,0.0077898586234041,0.819347986027281,0.0957255810716393,1.8417724505140216,0.2984637312102152,1174.5865101321272,1187.3351734322516,1218.8781132748547,1143.5321567831547,-726.2721489340485,112.08921853303752,-205.74979901207357,-450.2452208496375,158.24121086703286
0.0675,-0.1456789685763137,0.062657173114577,-1.2706940052038624,-0.0828066052341517,0.0275551608263246,0.0176902911609609,0.0019536403045103,-0.0103468382572902,0.0143817021025332,0.999840873305416,-0.031758602282463,0.0085670698009508,11.538281527187223,-0.0263877158393092,0.007729932560403,0.8234773077232311,0.0956241799417856,1.841771586131972,0.3005047644617406,1173.1227774926017,1187.4555309938685,1218.4703144291416,1142.3388513031334,-480.8854799458454,-32.286073810973875,-137.97734028503316,-555.7249367824165,158.24778139160617
0.07,0.1972305687454376,0.327375782042395,-1.1670778454672728,-0.0852813965053228,0.0276327462733816,0.0108959341506177,0.0018757560193682,-0.0102748242596576,0.0145197623452346,0.999839747101192,-0.0300418902461024,0.0194861307947515,11.498087445783584,-0.0269439941965423,0.00774724522347,0.8275076717321239,0.095523949368094,1.8417687022205644,0.3025495317048193,1172.182082732398,1187.1737430631968,1218.1882265734298,1140.7535320992426,-224.84411161690372,-157.52878805933534,-82.05072228638542,-593.7017914471664,158.25524711589688
0.0724999999999999,0.5509371405932622,0.61633010083914,-1.0117822087198103,-0.0854809977956636,0.0285050722479664,0.0066383251361882,0.0018089303524366,-0.0101999635028509,0.0146713043209339,0.9998384095729927,-0.0283111075221191,0.0306958110984602,11.458277303432004,-0.0275106396451579,0.0078480573817096,0.8314519270900796,0.0954235982456566,1.841764632680086,0.3046004809873111,1171.9985569345172,1186.6678870535718,1218.0600608177097,1139.3703423458976,13.350341658906496,-216.19676769514663,-50.358221254327965,-538.8276799736569,158.2611233142339
0.0749999999999999,0.8873032539336755,0.9313946380473284,-0.841683404377039,-0.0826228418206381,0.0302701556887028,0.0055066106600606,0.0017507684475874,-0.0101223293733951,0.0148264999909034,0.9998370109096376,-0.0265628717871118,0.0419685915869914,11.418925788543119,-0.0280888866025421,0.0080315817039918,0.8353200936451041,0.0953225566818186,1.8417599520105057,0.3066605156282221,1172.2488344406927,1186.092759224721,1217.936435467158,1138.0593936993744,149.31684764010228,-208.26495885567036,-77.9563181941284,-523.0299261386331,158.26664635540288
0.0774999999999999,1.1698880951031139,1.2841329393311536,-0.6919271665793735,-0.0763622490981877,0.0337138204985751,0.0063963631848469,0.0016937634716953,-0.0100386801032065,0.0149740123077924,0.9998357664212622,-0.0248726536185964,0.0529574181817154,11.380075949475088,-0.0286841389075061,0.0082860873178213,0.8391187998338583,0.0952199978940936,1.8417552347736608,0.3087329581769953,1172.7451411727177,1185.6265622592935,1217.670279226739,1136.7551927152044,165.6750632630063,-94.16881294646365,-131.35768985653147,-410.92819536165695,158.27287248711875
0.08,1.2586426103150707,1.517091012810723,-0.6380032945174849,-0.0705804887741691,0.0378322967923062,0.0071295597692001,0.0016341178950247,-0.0099518837111686,0.0151028250977548,0.9998348181834548,-0.0231785776538615,0.0634007850196523,11.34174029095768,-0.0292899560325513,0.0086033353890032,0.8428518413382874,0.0951149532446537,1.84175175169033,0.3108190119408231,1173.0772097570075,1185.6219151599887,1217.2796470178755,1136.004752722566,61.68563680998881,107.02466329275912,-202.7935121552217,-218.3782838233126,158.2777317389418
0.0825,1.1885224826090404,1.6476629310925135,-0.6457359559310316,-0.0663318013114448,0.0429343470486413,0.0066331571621643,0.0015715786120277,-0.0098670774548305,0.0152060875726078,0.999834217947496,-0.0213712397864064,0.0731254772573486,11.303905100611985,-0.0298943747590966,0.0089788103566512,0.8465205128746157,0.0950062758448742,1.8417503463887033,0.3129199516842237,1173.0535693567676,1186.1616855757572,1216.656311665963,1135.6633012960879,-99.03916263297096,310.79195915544886,-293.5334027199585,-74.69994818852675,158.28225628275823
0.085,1.0096413451984956,1.6769936743992635,-0.6729922147272922,-0.0640413977412695,0.0482421688315577,0.0047338741612854,0.0015022285033511,-0.0097871062437409,0.0152788797211115,0.9998340188637788,-0.0194015954756824,0.0818898067189972,11.266537818248532,-0.0304880505409963,0.0093996792425221,0.8501242304300626,0.094892506138555,1.8417513611694247,0.3150364730602345,1172.5820139438429,1187.175874955766,1215.8119800042757,1135.6312529816234,-313.0405073009567,505.71854579898127,-395.0970046591007,38.00219920558444,158.2865088627489
0.0875,0.7346676942301986,1.5845180166783768,-0.6799204656005212,-0.0632415889025597,0.0533039117008477,0.0017092904256422,0.0014219676618616,-0.0097138102809825,0.0153153718645047,0.9998343006679624,-0.0172517275852559,0.0894677005289096,11.229590506768192,-0.0310625478869903,0.0098505607205164,0.8536614773007626,0.0947726104895939,1.841755749147376,0.3171676233003262,1171.4883668202629,1188.690278304752,1214.6808266426672,1135.8533122921156,-612.8244666843796,743.6441609227599,-564.1089157101769,115.60107475947936,158.2904407038199
0.0899999999999999,0.3210794955464427,1.3573343388375831,-0.6266238140453402,-0.0623760123000246,0.0586570573582534,-0.0016530054131611,0.001329624552868,-0.0096469674698238,0.0153138069312716,0.9998350974407028,-0.0149553722448496,0.095724257730227,11.193002809953317,-0.0316126410571179,0.0103195759857954,0.8571305595146911,0.0946465818274577,1.841765051282383,0.3193083743998791,1169.5178916104207,1190.8940957603795,1212.9914354257248,1136.2092583554208,-799.4219471871489,834.0710898197827,-668.0878414369557,118.14307795853004,158.29479791074692
0.0924999999999999,-0.0864717764898128,1.1039942767037996,-0.5219698203218353,-0.0616037772283334,0.0619673012680435,-0.003742072832838,0.0012303398437519,-0.0095873922031487,0.0152781029058831,0.9998363351227456,-0.0125253030567068,0.1006929613821607,11.15670393303004,-0.0321316057459415,0.0108048054041003,0.8605302098916428,0.0945153482632441,1.8417802158453145,0.3214561070799126,1167.4912570843271,1192.860633753851,1211.3403874354826,1136.4440276819084,-831.06016194888,759.5635140504775,-690.9840997033365,61.35221117810937,158.29813539742636
0.095,-0.5524385144217961,0.8338401785839723,-0.3607332919405399,-0.061536575241803,0.0637309347689837,-0.0052969329823578,0.0011250306927829,-0.0095355025442568,0.0152155781888902,0.9998378967096692,-0.0099884381066392,0.1043417231590527,11.120620436284481,-0.0326145948454429,0.0112967963990845,0.8638597160245036,0.0943798258052029,1.8418011365214888,0.3236112482356234,1165.3625908006763,1194.691913330632,1209.536514927208,1136.5160194113112,-818.6231643055173,666.6984542045151,-722.7513387363153,-0.9290822108596322,158.30117696313317
0.0975,-1.053786888013478,0.5860162397221685,-0.1649844342689296,-0.0625033408610132,0.0646254705778913,-0.0063595129638108,0.0010115638808174,-0.0094894933025386,0.0151341751105845,0.9998396823424968,-0.0074248981766305,0.1066019131964986,11.084679346431864,-0.0330623470265476,0.0117809427633511,0.8671186312771205,0.0942415285423799,1.8418273178633409,0.3257740397847604,1163.3981412627995,1196.1941260248736,1207.726630741801,1136.439382270854,-694.3615204083011,471.1888015353448,-689.2940920926769,-58.1654091055952,158.30397964795728
0.1,-1.5683357990293312,0.3985127554547814,0.0503364826334086,-0.0650822308456962,0.0650579034803067,-0.0065029201553465,0.0008907408632834,-0.0094424912208942,0.0150467214333198,0.999841563297426,-0.0050240169514306,0.1075031250044829,11.048808947482067,-0.0334862773089555,0.0122488378546871,0.8703063052449437,0.0941027727653805,1.84185847102322,0.3279432361914252,1161.890783198635,1197.0478573383089,1206.0900444667448,1136.2251923657834,-517.0061443765912,174.1482098763298,-634.6429325360526,-109.52238534546258,158.3065021247643
0.1025,-2.148100545602542,0.2709515646056849,0.2990809142035549,-0.0701699413546466,0.0654404127425366,-0.005641512982073,0.0007667276187779,-0.0093896808735489,0.0149680356442503,0.9998433592948638,-0.0029242004707872,0.1071774776468144,11.01294098936721,-0.0338962655084443,0.0126992423148456,0.8734221489018366,0.0939662430649638,1.8418941547332963,0.3301188413797513,1160.8131105409163,1197.0648670742553,1204.5534160791208,1135.8917703441268,-268.67126916458847,-181.603508477156,-467.23891674710194,-125.17930720227947,158.3092152429632
0.1049999999999999,-2.5550460611890613,0.2574356034317625,0.4767699144629264,-0.0759525874458556,0.0658801717853176,-0.0042546617565323,0.0006439600028746,-0.009331850181804,0.014907640503401,0.9998449157386056,-0.0011376619231249,0.105786223461763,10.97701460847262,-0.0342943243998037,0.0131325081202184,0.8764657358395122,0.0938335986097383,1.84193275862574,0.3323018073147748,1160.547426852812,1196.139839795923,1203.7538498830093,1135.599295829772,-0.552988488561824,-560.7835761213673,-207.67163807936447,-115.52096783088948,158.3112219466298
0.1074999999999999,-2.8290784697239806,0.3484214089247948,0.6046335474028341,-0.0832117115964957,0.0662357239752369,-0.0025124650181557,0.0005230310024741,-0.0092705334053236,0.0148638929215492,0.9998462374089966,0.0003395016975365,0.1034276432626931,10.940981379608312,-0.0346826605893004,0.0135432326934982,0.8794364412672641,0.0937049960810241,1.8419719137450428,0.3344917888412523,1160.8103455984735,1194.2609491936485,1203.515057888724,1135.3141655049724,175.71822735435475,-1006.5876740141892,10.720657640786149,-125.73432588756064,158.31297342869692
0.11,-2.9519376482665516,0.5817630911536757,0.6879652069332532,-0.0932420508082608,0.0665429199925225,-0.0002808052652185,0.0004044069972654,-0.0092057084514629,0.0148313338958533,0.9998474015808184,0.0014827906193597,0.1002172386879922,10.904806673428727,-0.0350667531763765,0.0139273496357264,0.8823331041388186,0.093579456245435,1.8420099744335257,0.3366884331469273,1161.426017989584,1191.106901425852,1203.8074531712132,1134.9706242003342,218.47453231157468,-1257.261057206232,174.9278908165705,-127.68968862410463,158.31478994603697
0.1125,-2.8598969829189613,0.8734354878841514,0.6950074206510755,-0.102065140241093,0.0671077368269348,0.0017360835997779,0.0002880110233595,-0.0091357815024719,0.0148047603474795,0.999848498618756,0.0022421932250544,0.0962746962019473,10.868472490742445,-0.0354546801179015,0.0142814527179193,0.8851539380162083,0.0934555193081492,1.8420463716477065,0.3388919776372009,1161.9027182600316,1187.9746439076173,1204.3896973428068,1134.6757170618519,116.08075157214432,-1284.8322093107515,252.68959410641375,-115.6878403862719,158.31607261894862
0.115,-2.5663326895172167,1.2416672512611813,0.6380847627079625,-0.1104139478179006,0.0686527744774239,0.0040168357383048,0.0001748540245223,-0.0090578357861198,0.014778423364218,0.999849639978082,0.002548731440969,0.0917545182874296,10.831979252746288,-0.0358562196038953,0.0146051777473227,0.8878964251155772,0.0933318330398766,1.8420819919530813,0.341102314871878,1162.0064217474446,1184.6827403792984,1205.0709011417453,1134.3921849984029,-58.90570679989646,-1286.1866463705144,245.60969322151297,-102.09221244390385,158.31712240293135
0.1175,-2.1293142565352943,1.6412970690279358,0.535098922508387,-0.1176529136031257,0.071355487073969,0.0064204718157414,6.682525784832726e-05,-0.0089712441734317,0.0147500005202755,0.9998508643118688,0.0023941808302053,0.0868354827250763,10.795347775271242,-0.0362760689009045,0.0149007372376452,0.8905575311463153,0.0932072258630662,1.8421189723915248,0.3433188621884661,1161.608189726032,1181.5437106757647,1205.6177458089144,1134.1652559996323,-302.77324734784145,-1156.8818957226108,136.7228180652094,-59.15301623749667,158.31798355151116
0.1199999999999999,-1.5740842201157852,2.026674242158619,0.3978362932633073,-0.1229383712473407,0.0758681188036861,0.0083496179370261,-3.66141518838226e-05,-0.0088733034538956,0.0147225917406035,0.9998521474126568,0.0017350905658646,0.0816459336405343,10.758622873714343,-0.0367215082741498,0.0151672054350504,0.8931334161533127,0.0930810577127149,1.84215963719388,0.3455403082747963,1160.4925555107054,1178.898330900685,1205.7545152320713,1134.0964199172151,-651.2753084075042,-991.4526270646563,-82.78544971267381,31.52356832943048,158.31862178506876
0.1224999999999999,-0.8648724360162787,2.4001434715982617,0.238430654142672,-0.126121062792082,0.0835850492518101,0.0088665881107918,-0.0001373203569554,-0.0087652248616255,0.0147001430897293,0.999853416672576,0.0006192178196836,0.0762814917863608,10.72187365321019,-0.0371918635632785,0.0154020875363126,0.8956196827131355,0.0929534679294318,1.8422047924023388,0.3477663625770093,1158.3518131839946,1176.5864475404414,1205.203818560351,1134.3228738412795,-894.1086945502312,-684.1475051231096,-337.64268404188414,148.65855259859003,158.31913472019423
0.125,-0.3107882367085356,2.592819887766588,0.1462796342475447,-0.1260001265117553,0.0913948586785821,0.0076690975566259,-0.0002410362328919,-0.0086509774540329,0.0146842288676176,0.9998546084101216,-0.0008440543211796,0.0707462677543236,10.685195314599712,-0.0376807465234194,0.015596840890194,0.8980111634799511,0.0928240585794863,1.8422531241826332,0.3499984738305563,1156.0220120379543,1175.4775933750695,1204.0663018118619,1134.8397126802083,-1002.852480508226,-283.5200802613142,-589.0745194747063,280.05762525594923,158.31935404679209
0.1275,0.134476139553706,2.6346682339561487,0.1224834218723857,-0.1239622159286751,0.0992867928647035,0.006103509039849,-0.000354426988327,-0.0085315437900789,0.0146763624761043,0.999855685931088,-0.0026066619110909,0.065015192581781,10.648708489065044,-0.0381863168641662,0.0157428838506804,0.9003013230576283,0.0926921423858126,1.8423024070655132,0.3522399378932189,1153.3375507814535,1175.1688471391349,1202.2584459629775,1135.7231619675592,-1099.544057204047,-22.738667161047463,-810.6842960241004,407.77521580544055,158.3193595762953
0.13,0.4607168381511364,2.5527926161774084,0.1522939882930902,-0.1213055148158822,0.1063581863097503,0.0054421494523731,-0.0004824068574538,-0.0084072175926479,0.0146784206313403,0.9998566149363463,-0.004632435225244,0.0590865524620249,10.612557069597102,-0.0387073167619323,0.0158365599331562,0.9024826110511904,0.0925577920109821,1.8423503347673305,0.3544919233170276,1150.524291751934,1175.3639000392643,1200.0128803317411,1136.8785887592355,-1123.4969908873145,138.8671247253568,-960.2910339467587,510.4947835119215,158.31918883456248
0.1325,0.6408090056225916,2.3418732655788435,0.2211369856631879,-0.118548741483621,0.1119421692888472,0.0062163647484775,-0.0006253128924162,-0.0082788995885087,0.0146924579184131,0.9998573551287636,-0.0068699162410219,0.0530374995577058,10.576905108872603,-0.0392409047459183,0.0158841043703928,0.9045471039554224,0.0924215806888569,1.8423956211691372,0.3567553961905898,1147.7200658270167,1175.8631827627617,1197.4569907932437,1138.2756358851188,-1203.8515181050104,200.44059988786083,-1134.86563422989,644.1003017460838,158.3188063959337
0.135,0.7173561466164659,1.9695220024449067,0.3108859349709973,-0.1157011620251057,0.1174715353691082,0.0080409045952635,-0.0007815580505907,-0.0081457177535701,0.0147179890797858,0.9998579200946284,-0.0093055172580146,0.0469646544760706,10.541934625977383,-0.0397873200383628,0.015896338965393,0.9064872671689238,0.0922833481399917,1.842437695756784,0.3590312306762157,1144.5050341614087,1176.3661030387038,1194.338552160592,1140.099090267966,-1143.2866496208123,106.56172045182745,-1111.9185253029164,676.2425643279124,158.31810371571083
0.1375,0.7015996316582873,1.5752369047538055,0.3726566892234062,-0.114050518321173,0.1215878702918187,0.0096910323114795,-0.0009449304764146,-0.0080075754354464,0.0147500112320463,0.9998583857366729,-0.0119098491238087,0.0410379580049981,10.507839810767228,-0.0403454683638949,0.015892795253305,0.9082971239046288,0.0921425740242579,1.8424767205636168,0.3613196297737084,1142.0036325789129,1176.3959913650208,1191.897398166729,1141.6568487067584,-958.1043211161603,-125.41824579629962,-909.342051042585,618.17633972696,158.31731567099283
0.14,0.6526325130566856,1.1052577444775824,0.4132287794575706,-0.1130162981462405,0.1253139437836405,0.0111513324361151,-0.001109708537492,-0.0078647389673272,0.0147845722328723,0.99985881063519,-0.0146468472410353,0.0353925941685034,10.47482263834892,-0.0409138229184081,0.0158924211182678,0.9099735379814514,0.0919995698284538,1.8425128509064927,0.3636184278971311,1139.714512555828,1175.7390118097223,1189.7918419053788,1143.1899719666008,-954.076971525,-478.5336244426613,-829.3484271446225,662.588983329851,158.31631815420508
0.1425,0.6054930207600376,0.47097262589837,0.4430917080884373,-0.1123374072892448,0.1290481581076072,0.0124496428013955,-0.0012693895117395,-0.0077173801207222,0.0148211755128262,0.9998592048192751,-0.0174827459186933,0.0301574588962265,10.443085335985504,-0.0414913598086196,0.0159155512148947,0.9115171624917904,0.091855145025941,1.8425464201653723,0.3659227890952947,1137.2332477212879,1174.0033232428075,1187.750656031006,1144.9697936234077,-861.0018752978287,-787.5695759779355,-665.6498881724505,640.4123831184763,158.31487967221267
0.1449999999999999,0.6012635611064183,-0.0909123671402111,0.4605246718753654,-0.1120146521597422,0.1307955368273461,0.0132038221386987,-0.0014253251871133,-0.0075636852359975,0.0148613001351192,0.999859556491534,-0.0204288791612635,0.0252782434747133,10.412825082074686,-0.0420814378485066,0.0159675166723681,0.9129331058987012,0.0917108866918387,1.8425770492082745,0.3682285493746786,1135.409503179339,1171.8011639298327,1186.4635924645168,1146.3920338821931,-669.5843274366811,-994.8513408272493,-436.9030757816311,552.7846236877875,158.3134801749455
0.1474999999999999,0.6458657961033613,-0.6363234064004839,0.4776538730433724,-0.1113115106843394,0.1301636530225169,0.0139796267744039,-0.0015827347994786,-0.0074029426947823,0.0149039646418738,0.9998598800479116,-0.0234773101719408,0.0206049706139103,10.38422462751923,-0.0426862030799499,0.0160447364139109,0.9142310195781432,0.0915687496337824,1.842604362261464,0.3705325421073265,1133.8853260841045,1169.0290665386713,1185.5661406520978,1147.7337167418464,-549.9992644834942,-1150.994908831125,-303.2937644039973,519.7819000123668,158.31187276949683
0.1499999999999999,0.7276710526934934,-1.1194622324760628,0.4957441043284749,-0.1099112853504336,0.1273853725754069,0.0149520092388922,-0.0017433930968531,-0.0072383310584642,0.014944055245828,0.999860228007771,-0.0265418311975627,0.0160479819825038,10.357443055973619,-0.043301070417917,0.0161471903741059,0.9154245433685048,0.0914294688593671,1.8426294279658169,0.372831623003317,1132.6595068569216,1166.046189385677,1184.9471236424968,1148.9909433822547,-404.58265800252735,-1170.9846958183323,-187.9543065771484,479.2667883438749,158.31009331365308
0.1524999999999999,0.8424261848836364,-1.4719924357536367,0.5122454363268751,-0.1076582009444523,0.122475039906747,0.0162082054804225,-0.0019060918141345,-0.0070768691330227,0.0149798564919193,0.9998605811047456,-0.029458257654464,0.0115733620188343,10.332610132231387,-0.0439140650631731,0.016277806476412,0.9165303095072044,0.0912929714711153,1.842654432288772,0.3751238860326733,1131.8624127940918,1163.1741430595796,1184.626369119212,1150.130050683566,-237.5418277732477,-1155.435305516902,-73.00307361906553,473.8637715958244,158.30810731494063
0.1549999999999999,1.0049207585213222,-1.6982606459537803,0.525412950101135,-0.1044120952308591,0.1154038565708605,0.0178345783602677,-0.00206462033362,-0.0069278525653286,0.0150116026414233,0.999860882222294,-0.0320177882736119,0.00724974813283,10.309821649361279,-0.0445081285506751,0.0164457784418463,0.9175664179268485,0.0911584143470175,1.8426815655796176,0.3774104977613632,1131.4717977180553,1160.2690128580923,1184.5821082744014,1151.360262240234,-46.60217109822038,-936.682361762768,44.871571131034166,431.29072521542145,158.30548787174885
0.1575,1.15751731108283,-1.7168297079122048,0.5284842441102702,-0.1016633469014132,0.109535383939572,0.0190064083164502,-0.0022135817940175,-0.0067925069735005,0.0150382095377345,0.9998611476476774,-0.0341833901194091,0.0031359929005918,10.289138611240707,-0.0450799352505994,0.0166558869855657,0.91855033384395,0.091023365666952,1.842713199764018,0.3796945780921124,1131.6294019386007,1158.4907312507655,1184.8507269748673,1152.286504309643,150.75623305710891,-566.488862826372,175.97299689655287,354.744809407384,158.3031110432598
0.16,1.3296627557366927,-1.584354804382396,0.5206469824405097,-0.0989653211131206,0.1047963122552435,0.0198627122834795,-0.0023516431249143,-0.006667660421928,0.0150583242625712,0.9998614215433028,-0.0360137168735222,-0.0007813240184488,10.270586837060591,-0.0456330605590558,0.0169028608920692,0.919498257116241,0.0908848413431259,1.8427515502124152,0.3819793377356291,1132.2255788833409,1157.4365685439607,1185.461973258884,1153.133986287271,288.7400339083794,-316.67571473990364,300.2330489240191,327.92227028312453,158.30053763119432
0.1625,1.5188659679694176,-1.362508357143462,0.4987526888646576,-0.0959784399339142,0.1012862832231882,0.0206628313068366,-0.0024781649160094,-0.0065493073903883,0.0150683678394282,0.999861787850845,-0.0375890801224411,-0.0045153164055973,10.25415701753333,-0.0461715987460946,0.01717793007518,0.9204247790932748,0.0907409294828302,1.8427983319282253,0.3842662844644105,1133.0731021081426,1156.9073526770662,1186.3518922194871,1153.9261156610587,359.71734468957914,-121.32520397976792,410.0859450799813,301.04939805150906,158.29780569422624
0.165,1.724379083882715,-1.0818154359020231,0.4475751463442574,-0.092222728185985,0.0990010051706312,0.0218694968406447,-0.0025935521312139,-0.0064319041927713,0.0150659292162368,0.9998623222207375,-0.0390250759937851,-0.0080826924286941,10.239807468956071,-0.0467018453074542,0.0174695340590669,0.9213426338822291,0.0905909628972404,1.8428541264207288,0.3865542361766025,1134.0241656067888,1156.8299425240618,1187.512402984284,1154.6392332775283,385.76517355395447,19.742564726857363,536.485552108888,285.3972444580447,158.2948892021017
0.1675,1.979097244808428,-0.7323507912005129,0.3335718065921849,-0.0866463411985488,0.0971306199073185,0.0240720986802752,-0.0026981173213922,-0.0063134627532855,0.0150481095472491,0.9998630858006652,-0.0403679746632032,-0.0114811284619407,10.227467851022492,-0.0472236404309696,0.0177662551456185,0.9222629865061088,0.0904352576737126,1.8429178332791811,0.3888404395463554,1135.0019279759124,1157.0060655007003,1189.0343199800316,1155.3531018833487,296.0469376694161,81.66659130256441,538.6989232166793,227.86091118700804,158.29118608384658
0.17,2.190669272083102,-0.4619449515208724,0.1880925736901514,-0.0814333090559843,0.0960215865039123,0.0260319643584349,-0.0027911092353811,-0.0061953505309672,0.0150152491561579,0.999864071048278,-0.0415971232794756,-0.0146696350983658,10.217044203112229,-0.0477312576833025,0.0180601404852017,0.9231949976039004,0.0902750103646393,1.842987588047308,0.3911236176629274,1135.5044002951358,1157.2382754805747,1190.2058976003675,1155.7785378334636,112.57316463279484,97.84381125782592,389.6115691277824,124.28111147851256,158.28793899998695
0.1725,2.396305961769932,-0.2420218617442755,0.0011950034017365,-0.0763862840720453,0.0954185025376813,0.0270498479751923,-0.0028741252854043,-0.0060755332570448,0.0149729897147509,0.9998652044736364,-0.0427623335422471,-0.0176382072101518,10.208425672781331,-0.0482264839451119,0.0183417475426698,0.9241446310948817,0.0901122314124046,1.8430611737441571,0.3934045949542088,1135.5647937990764,1157.4952845569896,1190.9823778256707,1155.9745074407415,-72.71492178188046,129.68827896906976,186.1394557424317,28.671836580951975,158.28453463773738
0.175,2.6272536454516087,-0.0635854910274411,-0.2356847882179378,-0.0702756114489036,0.0956206331108876,0.0265066156319531,-0.0029508742420617,-0.0059506401967457,0.0149313925194056,0.999866348823349,-0.0439398293809912,-0.0204070107225734,10.201490715276964,-0.048715241061913,0.0186010338421991,0.9251141247312028,0.089949602667526,1.8431364239985932,0.3956859133156124,1135.1408256862264,1157.88671687542,1191.1365948790797,1155.9218970163683,-216.86376596108047,176.2012132293884,-102.84222210093552,-63.46900908752134,158.2802778602998
0.1774999999999999,2.789564887410678,-0.0005918232800527,-0.4133548500448021,-0.0642709416342821,0.0964840612003003,0.0249226301899448,-0.0030255540246632,-0.005820913183707,0.014901302577838,0.9998673309137348,-0.0451297818094255,-0.0229995289732585,10.196113032893008,-0.0491985961908475,0.0188300835840182,0.9261019620985914,0.0897894707472029,1.8432109783093733,0.3979726812566309,1134.4804749692707,1158.3762906231364,1190.468166715166,1155.6571623953039,-286.52416614263666,254.40429064560823,-434.00306729045246,-140.58864113735646,158.27659403852363
0.1799999999999999,2.8880717009849426,-0.0313380175538868,-0.5431441421078218,-0.0567729734769625,0.0975407018029968,0.0229595827162088,-0.0030997338517881,-0.0056885327944649,0.0148886806475805,0.9998680453404384,-0.0462892144852342,-0.0253840349336133,10.192166828522868,-0.0496757011318641,0.0190282205158242,0.9271027262691884,0.0896328074756483,1.843282923906023,0.4002711386150032,1133.7082048555133,1159.158738328648,1188.9665795426274,1155.2189538106816,-291.7910728318472,374.049081168732,-710.5544008659756,-193.6956827271386,158.27277497309387
0.1824999999999999,2.9097183258969497,-0.130545392312243,-0.6231300215061522,-0.048326412925998,0.0983088551786616,0.0209987970341902,-0.0031727334903444,-0.0055565680460713,0.0148971373496314,0.9998684234536928,-0.047351503299893,-0.0274857812612024,10.189531507011065,-0.0501450939570453,0.0192012201032076,0.9281079385789616,0.0894797824901745,1.843351491717732,0.402585111187361,1133.0215196051115,1160.2465360289802,1186.915394710836,1154.688683981668,-214.95142239969007,509.2228837241232,-890.0606139831771,-223.15132700846317,158.26884765279672
0.1849999999999999,2.8262880531208143,-0.2854300968323023,-0.6414807000469703,-0.0396918756735481,0.0983046444384834,0.0190544381089776,-0.0032447718491461,-0.0054278004886692,0.0149249107981995,0.9998684752722092,-0.0482511179852086,-0.0292556975273444,10.188095122326816,-0.0506064638304902,0.0193545652221151,0.9291077108871936,0.0893299565820939,1.8434162165558043,0.4049156247952204,1132.6334477435148,1161.7048527472687,1184.5162764727115,1154.1031971756393,-66.94756388756099,706.875627848148,-1037.711846936235,-259.8144489351396,158.26479341042383
0.1875,2.621127788517541,-0.4871635272192862,-0.5998793464285075,-0.030739866540679,0.0971375488367632,0.0166181270596104,-0.0033164930278791,-0.0053032971510803,0.0149669417350726,0.9998682686511938,-0.048951947921445,-0.0306638770227818,10.187755218787398,-0.0510626000715123,0.0194938677182211,0.9300926231092096,0.0891819076699907,1.8434769876186812,0.4072620756113962,1132.686781785674,1163.7809141682208,1181.7268354761547,1153.3896117369925,115.41583274647554,789.1677814985989,-938.6439326650352,-258.2018437386976,158.25978489121388
0.19,2.3937419738644086,-0.62984086260944,-0.5246162915312412,-0.0250603776435972,0.0952219265931327,0.0145412444343335,-0.0033848205772081,-0.0051808259687163,0.0150151805181837,0.9998679449816577,-0.0494789746323297,-0.0316174842126277,10.188417157399908,-0.0515217604750878,0.0196319205932777,0.931055451039925,0.0890346117778515,1.8435346524140812,0.409619376211789,1133.2105269072472,1165.6506916547617,1179.8230568093863,1152.8121879569455,299.72296145474473,740.9283797078836,-610.3710288064569,-223.09032434036436,158.25549314531725
0.1925,2.1494384117290073,-0.7055447110491945,-0.4326153320517647,-0.0208451166470438,0.0926951698302852,0.0128845775988439,-0.0034476208316167,-0.0050551408847109,0.0150628730185758,0.9998676389363472,-0.0499144480592635,-0.0320572077132999,10.189992150012653,-0.0519967992385364,0.0197798517124376,0.9319929639843868,0.0888881510550406,1.843590244985149,0.4119802240588059,1134.1853965929477,1167.4855560667604,1178.6749803321227,1152.2741601152907,445.7029636733292,704.657058916154,-307.5991449094087,-206.56593271901312,158.25108051892357
0.195,1.912676840890401,-0.704792688584094,-0.353773620956195,-0.0171836710296747,0.0900118240734471,0.0120731703889024,-0.0035026970912877,-0.0049224983896559,0.0151038021965088,0.9998674715868284,-0.0503079057231953,-0.0319389870215971,10.192393298160884,-0.0524965519155174,0.0199482535572882,0.9329070809566316,0.0887424682069103,1.8436441451662129,0.4143390350819065,1135.4390417256138,1169.1739769493424,1178.2850610848393,1151.7793582933507,539.5158096749577,621.6869784434033,28.658277683007302,-185.35787882706228,158.24656918287343
0.1975,1.6922970901433472,-0.6012987863691239,-0.3261521151155891,-0.013456936348272,0.0873574369423636,0.0123325752876021,-0.0035470339676332,-0.0047830288790465,0.0151323730680617,0.9998675395356948,-0.0506300971916941,-0.0312191216630505,10.195531326766583,-0.0530211791637579,0.0201481268345012,0.93380489249013,0.0885962552483378,1.8436969640985468,0.4166923789678492,1136.8829756413224,1170.5939909589774,1178.8182717205375,1151.3473707211551,645.3432773965227,553.5076404190927,414.155276197516,-171.9886253729781,158.2419412518274
0.2,1.4389498390943722,-0.3655399958464104,-0.3845242556703193,-0.0084840224151231,0.084517470920734,0.0133100783240806,-0.0035794131636681,-0.0046386339089184,0.0151467027606908,0.9998678696078194,-0.0508185421543141,-0.029905599320188,10.199311238332246,-0.0535659068973623,0.0203861089401444,0.9346976483797252,0.0884482058097651,1.8437499064770344,0.4190381368737453,1138.6657581125964,1171.941515151438,1180.3558374658269,1150.9194151664858,644.6603966224296,437.13313192433776,668.2545996687162,-138.8273977521293,158.23625685576556
0.2025,1.230091147928699,-0.0978216477120315,-0.513354142158085,-0.0042690554295069,0.0829467733687099,0.0141099971503947,-0.003597672373282,-0.0044924984304248,0.0151512093780934,0.999868392042442,-0.050788535985017,-0.0280001587060688,10.20362926349679,-0.0541218068627191,0.0206697544402478,0.9355992649192916,0.0882976226039645,1.8438042794710765,0.4213752154116556,1140.1062776244344,1172.7796566185991,1182.1595447188813,1150.6532337323947,556.357601461968,287.8045279731393,763.0361912154506,-84.4362920848652,158.23141421988785
0.205,1.0271824340199744,0.1994825613330943,-0.7000168747409375,-0.0007950883345498,0.0829506076002693,0.0138701066413996,-0.003600211558398,-0.0043508272279452,0.0151507492266517,0.9998690155840548,-0.0504017288985399,-0.0255279833972134,10.208372118460828,-0.0546730798885613,0.0210040409142095,0.936524994866264,0.0881438852572188,1.8438612110815211,0.4237042928644721,1141.4475461199063,1173.3805377913036,1184.171018421904,1150.4972337060615,565.9339524787351,231.1884462818396,853.7523471299202,-39.044857932094565,158.22646671819595
0.2075,0.8136448531338119,0.5272040377439985,-0.9284554534072536,0.0016932551886765,0.0851212075149029,0.0112078982498077,-0.0035897942994286,-0.0042207102192031,0.0151459584814056,0.9998696921890872,-0.0495137817438534,-0.0226127293838211,10.213418623530032,-0.0552016980812837,0.0213839646635077,0.9374897440753563,0.087986329607206,1.8439216368931852,0.4260270658071052,1142.9359473868283,1173.9355988500083,1186.428306454531,1150.4580094427342,529.8159683231031,194.9174370478895,750.9517564227317,14.253016707334673,158.22041494025072
0.2099999999999999,0.6823212030518738,0.7357162583441568,-1.0700600114549632,0.0022987317630476,0.0882157003998216,0.0070537601372598,-0.0035714426032135,-0.0041034238290618,0.0151391714988318,0.9998703647661764,-0.0481105369570912,-0.0194286884398083,10.218642453058711,-0.0557000312116491,0.0217996821882206,0.938505790954098,0.0878253403303844,1.84398541482646,0.4283453443370369,1144.0966259615216,1174.355124976543,1187.9257772040175,1150.568498789598,456.2861813667062,183.0737180030164,475.40166005647046,77.56059204002702,158.2152814504817
0.2124999999999999,0.6139327950896853,0.8508705601518404,-1.1159966806328063,0.0024140411065022,0.0915760777369507,0.002207799750669,-0.0035524281784892,-0.0039951605622305,0.0151318725196835,0.9998710008773898,-0.0462947507526761,-0.0161988788912647,10.22391718601762,-0.0561700725430772,0.0222365708685314,0.9395816463022202,0.0876619540511923,1.8440511937749309,0.4306620542874102,1145.2173782936616,1174.8509674400232,1188.8053147548133,1150.8458124029344,448.2983887526639,228.63086209363223,231.912176188416,136.90028631526718,158.2100608393504
0.2149999999999999,0.5919647014750438,0.8885027648412496,-1.0741297409915107,0.0028694415990312,0.0946325906010775,-0.0021820196160886,-0.003538527188883,-0.0038960365077009,0.0151201169192934,0.9998716367814744,-0.0441022523305464,-0.0131194939525989,10.22912211901729,-0.0566070083966039,0.0226817078965001,0.9407220567090702,0.0874973079422159,1.8441183988131615,0.432980719358073,1146.3381179052851,1175.4982792870112,1189.0853380849599,1151.2530002211745,452.65524478972975,314.47406728257164,-35.54869126137416,183.23842979420968,158.2047727301324
0.2174999999999999,0.600415177118953,0.8510818253519321,-0.9467547905181222,0.0040518015310028,0.0969024711998326,-0.0054720933250895,-0.0035331490482593,-0.0038078839287254,0.0151002718061755,0.999872305254491,-0.0415446249676583,-0.0103388565228364,10.234149398383503,-0.0570032001532421,0.0231264004226156,0.9419273411103128,0.0873320062795561,1.844187251026269,0.4353046078548648,1147.4806545176104,1176.4233377764363,1188.6275712985064,1151.7620045519054,504.49083643848047,490.3150342910972,-358.5352396767572,223.7738514354076,158.19940852233123
0.22,0.6013587711040848,0.7534789712571918,-0.7462220925263193,0.0062038068272904,0.0986064420631046,-0.0077172734034735,-0.0035374875971012,-0.0037287752206156,0.0150673425894717,0.999873082965784,-0.0387204420443008,-0.0079570685824754,10.238911783515206,-0.0573586446667502,0.0235659698643974,0.9431928638957232,0.0871652326896413,1.844258002351812,0.4376364093530989,1148.8605720874775,1177.9498544584667,1187.292661886576,1152.3718694783515,498.06903240350897,636.5735765619313,-602.9530857990716,204.50972560984135,158.19288978823985
0.2225,0.5628975680637552,0.6505469199697534,-0.5818283248274368,0.008251481835186,0.0994374859587474,-0.0079371891860281,-0.0035523463876997,-0.0036549641193115,0.0150148090527032,0.9998740796796683,-0.035774414192009,-0.0060623696363633,10.243350477147313,-0.0576775000212559,0.023996359554513,0.9445098479005208,0.0869960731570266,1.8443308532184124,0.4399772798455319,1149.970999679628,1179.606205659246,1185.612805869511,1152.7845531799546,419.20811711834136,739.8661245087162,-765.1654062789924,129.42022866254763,158.1873936540427
0.225,0.4547463289843071,0.5397689402556161,-0.457356817744395,0.0103648482458075,0.1001122432826968,-0.0070479064429261,-0.0035765436377634,-0.0035829628048718,0.0149412254064918,0.999875335706678,-0.0328501148398911,-0.0046975161834419,10.247441347411295,-0.0579639665607107,0.0244180347728488,0.9458663287968204,0.0868246906500098,1.8444054902637956,0.4423267440464601,1150.9566126730692,1181.6491850810103,1183.466834855181,1153.0189706216643,360.08130547220355,869.7466970560973,-916.3443837862807,61.915054855216965,158.18183584719685
0.2275,0.2768888234183294,0.4228452482956606,-0.3715737400912698,0.0123179292883389,0.1008523075350183,-0.0063219672110446,-0.003604816429595,-0.0035090220365486,0.0148521933221436,0.9998768002241932,-0.0300964476094142,-0.0038156344515286,10.251199640256718,-0.058223332140874,0.0248403630995001,0.9472478369337424,0.0866515471294455,1.8444811737552875,0.4446845405918691,1151.771406206989,1183.9549391445264,1181.0310839505796,1153.0941284542307,271.7156296678238,961.1535662189901,-1018.8822472977326,1.8527392669966487,158.1762300418086
0.23,0.0157149107306575,0.2897941473067346,-0.3096585421587852,0.0136490168325842,0.1017354867764639,-0.006702153416438,-0.003632127049919,-0.0034252355884204,0.0147581327253521,0.9998783643419829,-0.0277462654170634,-0.0033665461788834,10.254684387043307,-0.0584698136774708,0.0252733845170791,0.9486379273533844,0.0864775445999988,1.844557236428016,0.447050299439947,1152.3151908214084,1186.4549529121052,1178.3724236186924,1153.0282343179992,169.14540585876225,1104.4360262886576,-1183.0368288291072,-35.65537496115209,158.17056982380296
0.2325,-0.3728179032666351,0.0969389740977411,-0.2137102443094963,0.0137873277920094,0.1028814088426983,-0.0085690108247791,-0.0036535693661194,-0.0033236866541822,0.0146717115386254,0.9998798867590142,-0.0260288742971663,-0.0032953752011634,10.257999521957297,-0.0587189983572024,0.0257274764944028,0.9500193911072032,0.0863040121766587,1.8446333439542333,0.4494239196521679,1152.6171332362828,1189.4771192759697,1175.115899806434,1152.9158515794247,56.26070047401294,1079.7354779640943,-1172.0994419992608,-24.048129824132022,158.16371873873527
0.235,-0.7327238688883772,-0.0982710965097354,-0.0834019049256065,0.0125278755543467,0.1036376490581245,-0.0107569305649421,-0.0036675425560726,-0.0032033365956147,0.0146036176442746,0.9998812196924004,-0.0250276483712625,-0.0036087568821105,10.26129307505464,-0.0589750430903696,0.0262064302030636,0.9513759367709104,0.0861322227791926,1.8447091808243947,0.4518061378066217,1152.5964943237784,1191.8536303019257,1172.511926408696,1152.9079936688784,-47.253837179823634,884.8441306578017,-975.9102835372676,36.564269738710166,158.1579631947101
0.2375,-1.093861478663475,-0.3270070090150898,0.1140627057677304,0.0101450615983932,0.1036485482168546,-0.0125706527625654,-0.0036730688198848,-0.003070306569628,0.0145582097497404,0.9998822806388252,-0.0246715195373765,-0.0043186620613756,10.264752958541727,-0.0592300431195705,0.0267117399895051,0.9526928757865372,0.085962522276537,1.8447849776238487,0.4541983714894676,1152.3808640503837,1193.9013399292587,1170.2363483887475,1153.0986729281185,-104.99447352417567,791.9339098578384,-878.2122206354002,138.02273155561187,158.15216253426044
0.2399999999999999,-1.4878553444123788,-0.6238797437747509,0.406313792923723,0.006272970399732,0.1026214331242173,-0.0132284289409856,-0.0036721398568241,-0.0029305947537135,0.0145332361646056,0.9998830715772608,-0.0248824559852063,-0.0054869638158727,10.268601864411684,-0.0594776503504607,0.0272380378838138,0.9539573049730316,0.0857940851952895,1.8448606072159632,0.4566008862132295,1152.0715219561575,1195.8132998512149,1168.1208653055191,1153.5981073266566,-89.80452414898578,596.3928038176646,-646.2559728679056,220.6576915045399,158.14515267276997
0.2424999999999999,-1.7555636112417488,-0.872091542863436,0.6577074722188003,0.0023614799674436,0.101087972998149,-0.012006056758501,-0.0036688413379678,-0.0027862857638455,0.0145280616073835,0.999883575938386,-0.0256485789826092,-0.007204998707615,10.273089042142924,-0.0597195494990278,0.0277756093797762,0.9551586589992906,0.0856269363881385,1.8449360446269183,0.459013237625291,1151.9318414296388,1196.883303948347,1167.0050685244082,1154.2019613856412,8.516288628106842,318.31654308148217,-294.50643908062347,260.57019321187886,158.1392722890245
0.2449999999999999,-1.928630721797368,-1.0954969574324784,0.8614786332552186,-0.0022704517903956,0.0988968338512848,-0.0089690584426068,-0.0036652512718528,-0.0026384015141773,0.0145424857193418,0.9998837839222564,-0.0269633385886348,-0.0095089978985104,10.278479012930127,-0.0599597999792793,0.0283177480494882,0.9562898881552228,0.0854615308093557,1.8450119284823148,0.4614347890071291,1152.114103399298,1197.4048825666223,1166.648333110116,1154.900958292716,151.86096226489084,127.61770788974889,-16.151969505926886,279.3163063124664,158.13335384845277
0.2474999999999999,-2.0008015770966048,-1.2763232445966455,0.990634870780904,-0.0076921964509948,0.0960819702079794,-0.0050089619429142,-0.0036589719179461,-0.0024898781458401,0.0145744379787518,0.9998837255639857,-0.0287634086715666,-0.0123290392652129,10.285039045551928,-0.0601990043531933,0.0288649527937133,0.9573486684375676,0.0852978198630175,1.8450897556012509,0.4638644613440335,1152.6911462409632,1197.5213924877955,1166.9243086768784,1155.5985429172035,344.2521795873287,-31.238527189452697,250.3072930688629,266.75672991768784,158.12740539452503
0.25,-1.9313248730039028,-1.377574635965479,1.0099972012926823,-0.0139921404810451,0.0925359441501617,-0.0007509944328394,-0.0036501329535836,-0.0023470497199991,0.0146204012852951,0.9998834352127576,-0.0308998073128763,-0.0156325226468284,10.293027546653912,-0.0604313645907487,0.0294115468454798,0.9583388258340396,0.0851363903942985,1.8451715282232664,0.4662985429363395,1153.8353642972347,1197.248689930675,1167.8998695754603,1156.2347419423045,634.5176242152313,-184.12659014661568,561.0139173200419,265.5445687825247,158.12142248018557
0.2525,-1.682058374904491,-1.3743427105787505,0.9166861372546656,-0.0213810872739752,0.0875838593463608,0.0037043183278666,-0.0036430415353957,-0.002214033112612,0.0146751433134531,0.999882963681512,-0.0332543371571098,-0.0194563155635342,10.302681127468064,-0.0606551854511163,0.0299428488887909,0.9592702653276504,0.084978007305879,1.845258686623349,0.4687312522285864,1155.8637343620392,1196.6007595370627,1169.7293782634788,1156.926265761116,834.4043605291964,-278.0764912185075,751.2294810971518,252.0365205544292,158.1142052378284
0.255,-1.3588809911249002,-1.2519848008477443,0.7726907351873799,-0.0260525165414275,0.0830819601543552,0.0061375533493877,-0.0036430984724007,-0.0020877376457888,0.0147335961563226,0.9998823733400094,-0.0358424631298863,-0.023842345609369,10.314200967443336,-0.0608818761892509,0.0304419221219868,0.960158032498911,0.0848223812504755,1.8453511182955695,0.4711584037179563,1158.0073860998807,1195.8583074745825,1171.656016980946,1157.4949245450766,911.1233383109256,-335.0627146840904,814.5132128109701,247.17564997195015,158.1081608613986
0.2575,-0.9666973283188512,-1.0048323269027055,0.6116966544025743,-0.0282397870148363,0.0789102172234763,0.0065901757829076,-0.0036518312006327,-0.0019630991744657,0.0147897322030873,0.9998817609596082,-0.0387067920494783,-0.0287378533672861,10.327739827001997,-0.0611254643733968,0.0308994158909435,0.9610217898742086,0.0846680169243387,1.845447610863304,0.4735782561451754,1160.419351053594,1194.9254459636422,1173.8019443275336,1158.162144010976,970.69065627902,-409.6152123767748,866.5978596630786,302.25751763668967,158.10208699462987
0.26,-0.5589130868184448,-0.6715894195168726,0.4711606833462685,-0.0286428770034786,0.0756812743124708,0.0059223268715694,-0.0036671595332371,-0.001837554600868,0.014836779757481,0.9998812416798408,-0.0418274580260621,-0.0340035871584765,10.343392301832855,-0.0613936927085265,0.0313135080051126,0.961885047563608,0.0845131464406879,1.84554714401382,0.4759897197736061,1162.8608393812758,1193.8102314126986,1175.9890062792615,1159.00621213326,935.0254319816477,-499.0436701856647,860.1071811156991,402.26212117695434,158.09598987796372
0.2625,-0.1669088757375016,-0.2759149429894688,0.3726724122272242,-0.027850170010074,0.0741506647551186,0.005267020380023,-0.0036898150472983,-0.0017098129898394,0.0148702658773923,0.9998808838471376,-0.0451515468939448,-0.0395482201912052,10.361188796773602,-0.0616902496904003,0.0316783747164343,0.9627738518270088,0.0843567707272772,1.845648919421264,0.4783925628345714,1165.0944782135023,1192.430227612714,1178.102480233112,1160.1734546168607,879.5845660850765,-671.4493420532102,900.1939278565706,608.8975818396642,158.08986617010459
0.265,0.2718952664359671,0.2027291563147533,0.2895810951610832,-0.0264083093967337,0.0744595287448814,0.0055771800269807,-0.0037215925902573,-0.00158099037466,0.0148874217292058,0.9998807229818112,-0.0485722410338941,-0.0452958102315805,10.381091068953516,-0.0620126780312685,0.0319876828176494,0.9637151976198064,0.0841981734270454,1.8457522357328415,0.4807883063064569,1167.2587622117012,1190.4529847024323,1180.4899759185444,1162.0507000424584,679.4458130430934,-767.0633458018067,855.1135052683995,772.3903074089769,158.08248886276894
0.2675,0.6210092346045664,0.5543957152981217,0.2239261733904965,-0.0251318704884959,0.0762386688547594,0.0069040376101083,-0.0037616742950133,-0.0014546985834316,0.0148861928137536,0.9998807891466714,-0.0519287561021554,-0.0511129764120573,10.40299096326064,-0.0623523961790745,0.0322416931422662,0.9647352719421264,0.0840368725418123,1.8458562707631652,0.483179032352083,1168.4917072787175,1188.5949108837049,1182.378047759454,1164.0354061539056,362.09129290800735,-752.4779729710183,748.5213141094384,868.5110478929338,158.0763184671409
0.27,0.9758215404578816,0.8078876029625577,0.132930906633991,-0.023920153771701,0.0791977248679703,0.0087478228175248,-0.0038093847024185,-0.0013377206531295,0.0148611370499327,0.9998811573261914,-0.0549961739653551,-0.0568697100028832,10.426713318370355,-0.0626940772867123,0.0324414688898065,0.9658583969727332,0.0838728263556083,1.84596015247958,0.4855662725608341,1169.0692186762412,1186.6905948375775,1184.2325824890916,1166.393255281923,116.89948614498452,-785.5889205288343,821.5784684215117,1082.3369090666336,158.07012632533113
0.2725,1.4292481841203943,0.965287229573724,-0.0165051619920498,-0.0221809185854924,0.0834530766358227,0.0103492363898385,-0.0038621362117601,-0.0012368173397049,0.014810079586496,0.9998818615967644,-0.0575519259466783,-0.0623988233312668,10.452021205119731,-0.0630216087731869,0.0325937222919764,0.9671054340255908,0.0837068259007244,1.846063195426168,0.4879514010437928,1169.0762047094427,1184.6669662810607,1186.4859401015617,1169.4470906992387,-84.39365436133805,-644.2817721786918,830.2775439030931,1111.9001204073347,158.06267288638088
0.275,1.8297105066702273,0.9691856755110048,-0.1636989454134115,-0.0199874811818356,0.086994642501729,0.0107033328945029,-0.0039137413989993,-0.0011558903747057,0.0147394206164907,0.9998828250004176,-0.0594360932841169,-0.0674623004859492,10.478623851983013,-0.0633234254661634,0.0327147166105426,0.9684924365243698,0.0835402744636883,1.846165079293796,0.4903361534776082,1168.6472504044343,1183.469185976684,1188.383970208607,1171.9527558839595,-215.0257999912808,-315.83047212870923,748.5139260953922,933.9542733758202,158.0564446574204
0.2775,2.226336141805332,0.8573350033206419,-0.306552317470744,-0.0163490252062806,0.0898695453288992,0.0098337918745579,-0.0039581059384968,-0.0010937275011422,0.0146610588610464,0.9998838952395028,-0.0606033067701986,-0.0718303077629331,10.506187135064994,-0.0635973676017229,0.0328226068908982,0.970029916453922,0.0833742766758742,1.846265236330728,0.4927233931826425,1168.0010757094863,1183.0878139204171,1190.2285097320387,1174.1168620661178,-253.82103258016264,18.293384754815612,711.4818146299506,771.0812689481821,158.05020175142192
0.28,2.5800484197489126,0.6741856400882176,-0.4226032814768427,-0.0110468496620047,0.091894043252628,0.0081093928084062,-0.0039898063840955,-0.0010422850389372,0.0145882934423349,0.9998849055925068,-0.0611627244351009,-0.0752957062775506,10.534345234471687,-0.0638543753986845,0.032935547665409,0.971722299391736,0.0832085434723902,1.8463632674652564,0.4951175459451371,1167.3781452415335,1183.560652900458,1191.9413792817568,1175.8081622287007,-194.40498321537217,415.6353592004049,633.8073089900712,539.5217396803214,158.04394937306492
0.2825,2.820828546139596,0.4412898093799307,-0.4871844451390104,-0.0036528833625621,0.0927386021186187,0.0058044189585203,-0.0040044132684745,-0.0009890711272068,0.0145330282124242,0.9998857110838794,-0.0613311182782502,-0.0776841823942834,10.562713355583847,-0.0641141043657439,0.0330702580836132,0.9735683663498272,0.0830421388751945,1.846459047153614,0.4975215587764952,1167.0290507934092,1185.1659907164192,1193.397546276989,1176.8144707645195,-36.78944958719509,957.1596296961608,567.4483860504547,292.7973385634684,158.03768941991152
0.285,2.9062893099495795,0.1469854763379441,-0.501444733944658,0.0069442120518533,0.092782806092826,0.0031954134415445,-0.0039979964974301,-0.0009249809126555,0.0145031393567749,0.9998862199733528,-0.0612688317955961,-0.0788482346179021,10.590900876434564,-0.0643899195583871,0.0332419941721622,0.975562815086316,0.082874367192402,1.8465524423859545,0.4999356820711905,1167.1941979935975,1188.346451048939,1194.778621212009,1177.272148921518,183.13822499244435,1336.0915031042157,444.8379546607608,73.80078701494305,158.03017446556302
0.2875,2.7748486853634975,-0.0879038571967917,-0.4736828381322282,0.0164511982090493,0.092475798033106,0.0016021696453201,-0.0039694080661802,-0.0008433561642878,0.0145027899114747,0.9998863811163328,-0.0610993153146319,-0.0787164860740287,10.618524149423871,-0.0646908425005928,0.0334597257757981,0.9776970848765266,0.0827044992246734,1.8466441549804224,0.5023598555149876,1167.9447419183716,1191.8464482319403,1195.6217360502928,1177.183474699594,434.7576930522836,1493.7887246194502,279.61994618381425,-78.70601501995306,158.0239142681984
0.2899999999999999,2.432803829750233,-0.2942716425204405,-0.4322833240195859,0.0252416650699458,0.0920533917167131,0.0007020863500781,-0.0039231746136266,-0.0007380802773212,0.0145304761887918,0.9998862016204793,-0.0609496520456564,-0.0773558923067037,10.645218530353734,-0.0650256866676079,0.0337198423225053,0.9799600901629424,0.0825327638111501,1.846735805020644,0.5047941105758662,1169.3679864588591,1195.815394672036,1196.176720942928,1176.8786188464182,667.3917500562834,1584.4363439162569,178.87015263700232,-115.12949191060332,158.01766282963553
0.2924999999999999,1.9494323409101015,-0.4662954096608015,-0.402097936128785,0.0322740329522289,0.0914545117312127,0.000251285884672,-0.0038669794907849,-0.0006074119502323,0.0145784843640724,0.999885762640345,-0.0608671302374831,-0.0749204667560089,10.6706491783143,-0.0653957417914518,0.0340105775602654,0.9823392958777551,0.0823601084448005,1.8468291777618004,0.5072376080044368,1171.281700668653,1199.7686299515215,1196.5160868134778,1176.6078272400412,846.7464456286954,1476.3721581622563,84.44985170585817,-59.67232697066715,158.0114239322049
0.2949999999999999,1.368606578160955,-0.5813159276900342,-0.4069578665107052,0.0362085204269056,0.0903007041873683,9.155982502330217e-05,-0.0038091393204494,-0.0004540533993024,0.0146346077040859,0.9998852066391528,-0.0608147132892691,-0.0715972814774716,10.694520408837176,-0.0657945093919466,0.0343171355436881,0.9848212014060268,0.0821872198418498,1.846924678846618,0.5096899941001054,1173.6017186870026,1203.1972554628471,1196.5989702014574,1176.580257211565,1048.9708409850655,1284.4527391261624,-28.168340004094688,70.00538265242534,158.00520695290763
0.2974999999999999,0.6677315798389161,-0.6293620491535401,-0.4670983868992978,0.0371979296368749,0.0878614599801176,-0.0001327366279938,-0.0037560634695966,-0.0002820991993403,0.0146850552407825,0.9998847088362816,-0.0607331248433404,-0.0675499690213147,10.716583313972723,-0.0662133768183974,0.0346273276524656,0.9873912912694208,0.0820139053768801,1.8470218956352495,0.5121520857702281,1176.5265548735783,1206.1908936471523,1196.3752451134571,1176.9578541533033,1043.333010835339,873.3971748020841,-140.10961707831473,204.61086256268555,157.9977811241251
0.2999999999999999,0.1479213330649641,-0.5800110943913419,-0.5605093202387939,0.0356762974763546,0.0849317544125824,-0.0006249256770911,-0.0037133170499926,-9.854895633089583e-05,0.0147194566839801,0.9998843999643588,-0.0605064448202591,-0.0629401641472816,10.736641938510818,-0.0666382390855985,0.0349303373146376,0.990034798290159,0.0818397700054542,1.847121066374675,0.5146239066137291,1178.818383741179,1207.5642413368575,1195.8984221160658,1177.6033115243783,831.9781215209781,326.00041035493604,-248.0583349779406,304.3483873668717,157.9916287655668
0.3024999999999999,-0.2607991004624125,-0.4380988411261257,-0.6829649752967178,0.0331615871508817,0.0816825252306855,-0.0017418540424714,-0.0036851750861468,8.44381356655545e-05,0.0147342801505509,0.999884314874174,-0.0599109684955656,-0.0579171544479669,10.754557560920778,-0.0670446989057206,0.0352182269631221,0.9927374685394188,0.0816646841401045,1.8472222398396112,0.5171040576604132,1180.6864454811832,1207.8208956989267,1195.1349534385677,1178.4795960901376,688.3259998582156,-73.67901116972455,-379.2259439548612,402.78569760262104,157.985522418954
0.3049999999999999,-0.6236283327802788,-0.1985899241661633,-0.8331080117911092,0.030977477433001,0.0790685921536989,-0.0040253319139064,-0.0036723697554441,0.0002562361282901,0.0147311362239988,0.9998844251487264,-0.0587566456247214,-0.0525659267642344,10.770250750237327,-0.067411374325883,0.0354906547886648,0.99548486608586,0.0814891118014307,1.8473248405611076,0.5195914508204302,1182.2600137404704,1207.1958462810092,1194.0022923962915,1179.6172400123914,465.6744289269678,-307.0213808239711,-418.5224338939857,410.02537816752886,157.978258789112
0.3074999999999999,-0.8422829347744683,0.0061737732098491,-0.93655543714768,0.0304025415252854,0.0791181714327101,-0.0066506923829257,-0.0036738292948342,0.0004127950277076,0.0147134065000726,0.9998846822980914,-0.0569960668539674,-0.0469415626333099,10.783702104030384,-0.0677303666381061,0.0357513824245866,0.99826194399511,0.081314290010859,1.8474284565142107,0.5220854628415736,1183.014817625818,1206.285788794807,1193.0423412690975,1180.5297229809753,217.618497120702,-345.76180845042444,-330.9224932896083,348.0767845308034,157.97226735395392
0.3099999999999999,-0.997327481682184,0.1442111762977306,-0.9936540267928724,0.029941501327697,0.0813100312426996,-0.0096749726520653,-0.0036837346504505,0.000553011300987,0.0146854839926385,0.999885041374324,-0.0546451355351421,-0.0410057619296891,10.794951078205802,-0.0680000959012768,0.0360141078519592,1.0010533259588614,0.0811417218007614,1.8475328646637688,0.5245865987095653,1183.348106226074,1205.467037238757,1192.3476799298435,1181.3576239350455,103.31239466645448,-250.00339602893268,-184.94775170588565,324.27533267577894,157.96635019495193
0.3125,-1.098506405246286,0.1865249298427886,-1.0021145610559323,0.0283595539415188,0.0841300768039406,-0.0127193517759391,-0.0036936420220363,0.0006762567111297,0.0146515471917215,0.9998854724450724,-0.0517299407686491,-0.0346722408099727,10.804093780648495,-0.0682203487503722,0.0362981251363211,1.0038437921602434,0.0809722958782589,1.847637607883234,0.5270970815571207,1183.5313795991503,1205.0357718146624,1192.1176025105683,1182.151099644354,89.90401061423646,-33.547303848263226,73.73586396292913,331.34272975216817,157.9605025989829
0.315,-1.1128072247822582,0.0984029396632529,-0.9499824871611317,0.0249608180869528,0.0863149409045269,-0.0155271557830206,-0.0036976429693077,0.0007819641951248,0.0146147132410152,0.9998859537030568,-0.0482789796808236,-0.0279174892826725,10.811279856438077,-0.0683912884530058,0.0366178333768978,1.0066188947051584,0.0808058725049228,1.847742104189665,0.5296182494152519,1183.797626279145,1205.2993007195157,1192.716359249658,1183.0143375838063,188.49153537366857,290.6965764233516,497.26182105055113,430.2070829218788,157.9547484163803
0.3175,-1.0012938212064115,-0.1357633494502028,-0.8257149260880844,0.0194490446344977,0.0872377053576793,-0.0185075463157567,-0.0036926899179456,0.0008718378139181,0.0145784231623593,0.9998864474672196,-0.0443703876658282,-0.0207864291998378,10.816707532935247,-0.0685173827121284,0.0369821291882032,1.0093651246233732,0.0806412907250308,1.8478465684865988,0.5321503206310544,1184.4738372760187,1206.4892546967792,1194.603911615821,1184.3021350589636,323.48886050622207,564.3134703248957,887.3245949015646,533.5212819636577,157.94796336739495
0.32,-0.8005485358717049,-0.4026193392883398,-0.6826218248415982,0.0151180005218113,0.086487634519265,-0.0205185217414044,-0.0036759191682857,0.0009506850013297,0.0145469946349788,0.9998869006824768,-0.040148928862045,-0.0133331974493527,10.820616903036024,-0.0686086851383317,0.0373996866351781,1.0120701709906297,0.0804772726776016,1.847951905064282,0.534691996735499,1185.4150705816762,1208.12086807114,1197.152982224166,1185.6819439936244,444.03144820848826,743.5314877006015,1181.1054682264044,622.6465708622067,157.94241764550102
0.3225,-0.5228959734122166,-0.6963379090308186,-0.517061788179899,0.0130033126707302,0.0846816500148051,-0.0217765242784302,-0.0036467792019993,0.0010242657664443,0.0145226061796459,0.9998872822979694,-0.0357810742432662,-0.0056662116310307,10.823282755936232,-0.0686766985431881,0.0378740643721383,1.01472387499486,0.0803127962967104,1.8480583099878505,0.5372417976686119,1186.6939945170611,1210.2069121352822,1200.509438956953,1187.4153679132746,540.8676546222064,871.7908843976139,1418.1813729267546,743.7225828789443,157.9369944408301
0.325,-0.2259615106442371,-0.9804375933599236,-0.3470409968243877,0.0130129430264927,0.0823041177788697,-0.0224435337204724,-0.0036067305251312,0.0010974125266846,0.0145040947686401,0.9998876026423492,-0.0314148961717715,0.0020597851466114,10.825005965742275,-0.0687306803660245,0.0384039986746499,1.017318806013712,0.0801474545183027,1.84816487950532,0.539798592290944,1188.1194088547873,1212.4798224931283,1204.2438890887995,1189.400556908019,561.87878866458,908.7492683166593,1495.3876784647023,833.3750219581808,157.93168007540424
0.3275,0.0432682354247074,-1.2212530933501873,-0.1844746570705272,0.0143163543809064,0.0788011070006817,-0.0226620657524529,-0.0035565896915343,0.0011723961319937,0.0144885150979133,0.9998879021001464,-0.0271437892577799,0.0097030138986952,10.826103430339076,-0.0687742114837968,0.0389888461866078,1.019850451736937,0.0799811550380611,1.8482709139552211,0.5423616765993324,1189.503388460384,1214.7506584768655,1207.9863773492766,1191.5822430230655,545.6321827470215,946.0550968317868,1535.9204474242674,974.6260604684712,157.9265055408355
0.33,0.2936954911612867,-1.4321574303299691,-0.0065721116082486,0.0161312552450671,0.0734222724832586,-0.0225253207618425,-0.0034992443564397,0.0012482969442679,0.014472134383466,0.9998882284555692,-0.0229935864663924,0.0170782515939425,10.82689857496,-0.0688040328389321,0.0396229716183169,1.0223175525574815,0.0798134054777438,1.8483764742943136,0.5449312939814399,1190.8475697685224,1217.2100979772872,1211.923491325921,1194.2736872103617,412.573052401012,825.2677623699121,1289.7726402861267,980.6538820402227,157.92046865167208
0.3325,0.4307948110523152,-1.5379247523674267,0.1264681315574881,0.0176999172742107,0.0689579940605696,-0.0221057273980225,-0.0034399500234724,0.0013223496636192,0.0144513688063775,0.9998886221742392,-0.0189513507260193,0.023953550150256,10.827711321708076,-0.0688129002904035,0.0402950101122949,1.0247219788854585,0.0796435377815141,1.8484823571788531,0.547508000775012,1191.566253722389,1218.876997288715,1214.4352405507072,1196.4855124332666,193.3079731750693,557.5449823644699,812.812305657689,864.5386760687862,157.91558949403213
0.335,0.4958357988591067,-1.5840917036339444,0.2480043754093496,0.0192394493053171,0.0652212967742303,-0.0216085760340742,-0.0033832365891183,0.0013933720625134,0.014425355537577,0.9998890844045968,-0.0150372373729797,0.0301209530161471,10.82884738958042,-0.0687965938983522,0.0409944179372783,1.0270681222883562,0.0794713280064216,1.8485893161329556,0.5500919752069852,1191.8141096343977,1219.9978228891096,1215.9875528542095,1198.5963805907056,18.595131086158272,346.41262790241825,480.3258485622332,898.6382894227964,157.91087660072225
0.3375,0.5053550346093583,-1.5951511571944215,0.3888909328891763,0.0208277643640206,0.0613204295019608,-0.0210585578969547,-0.0033297571768193,0.0014630224656678,0.0143968264000113,0.99988957136608,-0.0113294241568867,0.0354679108925607,10.830587684061962,-0.0687567505296077,0.0417180259754862,1.02936262905081,0.0792969873184759,1.84869748546788,0.5526830194796463,1191.6592293778199,1220.6090604282272,1216.8368697935184,1200.9787038803806,-101.09864756127529,99.70827272613853,185.47626877539167,845.7904530589522,157.90542305864236
0.34,0.4706687562277129,-1.5810179942868512,0.5062326712341662,0.0218249086891396,0.0583119293466591,-0.0205546697586468,-0.0032794264045194,0.0015302479246538,0.0143682772817823,0.9998900483126608,-0.0078449557858028,0.0399108976626066,10.8331795904561,-0.068690294238536,0.0424629157077561,1.0316155744732318,0.0791213927567647,1.8488068781295273,0.5552793823226693,1191.308616396591,1220.4963642527402,1216.9149341980865,1202.8253328560004,-138.16348832442588,-157.45912598363233,-33.72916710823117,703.6906672935396,157.90105337471252
0.3425,0.4082861572955426,-1.5468298125988051,0.6208759707171126,0.022502381699241,0.0553511809191769,-0.0197516478887292,-0.003235181938232,0.0015915547962796,0.0143401062588859,0.999890504800458,-0.0045460333926181,0.0433171036545503,10.83683004067686,-0.0685905349548293,0.043218374352326,1.0338407602810011,0.0789462258689027,1.8489181032682944,0.5578777826939488,1190.9684119361975,1219.821764798309,1216.6682239579773,1204.4971572168483,-99.96135782130288,-335.7990479698853,-107.0260102658266,629.948941347356,157.89687272969155
0.345,0.3317774782124589,-1.488743310330478,0.7240861422733749,0.0231821682423381,0.052021423130575,-0.0184554019979376,-0.0032012958664331,0.0016445804790643,0.0143107152861035,0.9998909531221972,-0.0014152890205698,0.0455446460314875,10.841698821347874,-0.0684546009121181,0.0439694508876347,1.036054767696068,0.0787729835863454,1.8490322473671676,0.5604751835475607,1190.8088096074848,1218.8173690128908,1216.3798041467571,1205.9750775627372,7.505809709027738,-435.6802672073168,-86.87915046471056,526.4463250589865,157.8928540731212
0.3475,0.2444397387440159,-1.3845526063281348,0.795745672606773,0.0240766166578026,0.0479645730991816,-0.0163109759684269,-0.0031794678023589,0.0016890442888448,0.0142783151371403,0.9998914139249908,0.0015269580360108,0.0465293763657588,10.847892775742068,-0.0682850650311134,0.0447054188489836,1.0382757255031447,0.0786027410607733,1.84915003717611,0.5630700175429098,1191.005940984743,1217.6433634622724,1216.2338282056537,1207.1293888421433,179.04033464496916,-494.58944262560135,-5.153589142810229,408.5919213276608,157.88903667193136
0.35,0.1355704149948452,-1.1880351560000904,0.8232113618566518,0.0252281083691298,0.0427145873059652,-0.0127313195514642,-0.0031688135235477,0.0017256418199703,0.0142409954193376,0.9998919178872576,0.0042479035524294,0.0462863468962729,10.85546312427886,-0.0680873901366018,0.0454200570839286,1.0405223244878574,0.0784361420159855,1.8492717170545043,0.56566124417433,1191.7040112807097,1216.3444217997628,1216.3540362010433,1208.0180371693755,321.355508387163,-423.2136980181665,98.7262319675675,230.9080809398916,157.88469560808275
0.3524999999999999,0.0528102246699444,-0.9650798018158904,0.7909440334909523,0.025920637157971,0.038690513088178,-0.0093603072085591,-0.0031643240956968,0.001755982409296,0.014199507297106,0.9998924699521724,0.0067059209508362,0.0449437851028913,10.864404806288388,-0.0678690745315669,0.0461155877223477,1.0428123417023607,0.0782733518396669,1.8493978552592456,0.5682488342420617,1192.6127185266787,1215.5272949721816,1216.7274593654915,1208.2839292468427,402.27502576095,-254.36287150164648,202.621849541358,6.74766670927063,157.8812826857172
0.3549999999999999,0.0001321972056265,-0.7041946325176746,0.7147808693244389,0.0259611095090097,0.0360205081409527,-0.0068003399931017,-0.0031576741091272,0.001782690740137,0.0141576184507575,0.999893040205154,0.0088484033166029,0.0427257944453737,10.874659019850728,-0.0676393740874889,0.0468014934869324,1.0451612781194974,0.0781138032891024,1.8495289263069508,0.5708351215912988,1193.7153864095144,1215.0726074422544,1217.36714544875,1208.0517755029218,447.68506228842807,-129.9471198030459,294.2137315252691,-165.26556819053425,157.87808695147135
0.3574999999999999,-0.0080712691330378,-0.4434560304612755,0.6266980346554462,0.025496796463135,0.0349475173013065,-0.0054688030092619,-0.0031430546514602,0.0018056605283198,0.0141181895170412,0.9998936081405116,0.0106895916799929,0.0398243395696638,10.886119040467804,-0.067401582115802,0.0474821883167221,1.0475821640330905,0.077956699950393,1.8496648626424008,0.5734238398113018,1194.8511438381208,1214.8775593731664,1218.198528023118,1207.45760140589,437.24607987487576,-46.13061727577583,371.63360802705904,-303.10245834211827,157.87507400252167
0.3599999999999999,0.0574663551824352,-0.223687742014982,0.5574079757985684,0.02485813752605,0.0356878456238683,-0.0051171425332069,-0.003119624100297,0.001823477026457,0.0140818312494108,0.9998941706332722,0.0122778815922227,0.0363445189177265,10.898637209960636,-0.0671558211322037,0.0481521704494187,1.0500848024057308,0.0778010320320642,1.8498056040645408,0.5760186282152099,1195.9016168088888,1214.8419543558755,1219.2253134888851,1206.5362632112112,427.57584932087366,-29.94838820250149,488.5695448896509,-448.89794351702176,157.8722835992025
0.3624999999999999,0.2355558426842069,-0.0399582908953646,0.5243258578297287,0.0243207103526829,0.0377326799373902,-0.0047814728776578,-0.003089839434892,0.0018399050887869,0.014048190679696,0.9998947168416852,0.0135543235902554,0.032339458684575,10.912032572380664,-0.06691229337395,0.0488002648082912,1.0526744775358448,0.0776455093274657,1.849950493047192,0.5786224486700396,1196.9890230847252,1214.7278174321539,1220.641375747566,1205.2131116883047,373.9836599082533,-88.34194633245707,543.3775060681451,-499.6663717703536,157.86919375008625
0.3649999999999999,0.466593216000639,0.0482054060340478,0.544279603404621,0.0241588885996404,0.0394058336257719,-0.0041840301608284,-0.0030555749948405,0.001861130274258,0.014018357067368,0.9998952130945294,0.0144128243294071,0.027889856763902,10.92609761350079,-0.0666852017244013,0.0494183830874172,1.0553521628612548,0.0774894409035396,1.8500978413042863,0.5812367727951927,1197.77153510843,1214.4002446242134,1221.942201019226,1204.0379313523595,306.9802979900029,-207.0319702851064,536.2062887660154,-462.9470759302417,157.86683439353348
0.3674999999999999,0.7681041977765458,0.1025531265093969,0.605995678998177,0.0245097019858171,0.0399593513014621,-0.0030491568915667,-0.0030152846219003,0.0018901795324296,0.0139951563178284,0.999895617910694,0.0148211539697689,0.0231602245240803,10.940605258770908,-0.0664810137874883,0.0500076681153238,1.0581154723156907,0.0773325928626553,1.8502456793883983,0.583861872380802,1198.5239245746752,1213.6926575807283,1223.3224071913962,1202.8983763086535,356.0605765721899,-407.75245653271634,613.6573948333073,-470.3857250302004,157.86469755563294
0.3699999999999999,1.1706339119386333,0.1893526244945438,0.7093833731499952,0.0260903885985405,0.0391652606497657,-0.0014042423257891,-0.0029649045126583,0.001927547306812,0.0139802763200036,0.99989591836285,0.0148048250234497,0.0183758177713175,10.955317493992316,-0.0663002387872775,0.0505763314037946,1.0609592392774716,0.0771749511353681,1.8503927557384272,0.5864983302526356,1199.5518379912908,1212.3614823415498,1225.0104879933926,1201.6860027272085,419.91242569038104,-557.0849287458709,615.8685115208294,-403.18454535508823,157.86238777505284
0.3724999999999999,1.494649171981895,0.3191847492543598,0.8029233600431412,0.028829726494263,0.0378763611110659,-5.178199893280277e-05,-0.0029010188403027,0.0019734974068663,0.013973986412275,0.9998961207505952,0.0143945587039628,0.0137497515896624,10.969994081622907,-0.0661426146571277,0.0511328267477,1.0638761562602674,0.07701663511659,1.8505389884245669,0.5891465647163913,1200.6234867031271,1210.9072329369988,1226.4017497490004,1200.8824535818783,490.8004638843972,-618.7047817529212,545.1467106688136,-263.05651568936787,157.8606721167484
0.375,1.740505308270567,0.5308330895419447,0.878336344745763,0.0333630917572904,0.036899502451838,0.0016904244357538,-0.0028217086035377,0.0020267868901903,0.0139758906506457,0.9998962402702308,0.0136531843307075,0.0094592557185366,10.98439912680282,-0.0660045503675898,0.0516837925780788,1.0668577084001587,0.0768579279814365,1.8506848141388352,0.5918057112962991,1202.0058403107128,1209.2679584327852,1227.7362215467367,1200.3707201487616,607.2662821307398,-647.7729751645251,519.6073273973066,-149.42462107005653,157.85916986624096
0.3775,1.872446223670848,0.8019105461731691,0.9145877463272102,0.0392906259092207,0.0370071122466028,0.0042595734131033,-0.0027292158433295,0.0020842588828195,0.0139834397111659,0.9998963134693704,0.0126826071645368,0.0055827869647085,10.998306959891636,-0.0658786445325728,0.0522278374618202,1.0698951307580256,0.0766991339845003,1.8508302797555447,0.5944759749696251,1203.6598181137808,1207.6683680611764,1228.999786385987,1200.135330476528,716.4297078202246,-578.1382101424691,482.22996569584166,-28.016119659059743,157.85784192835692
0.38,1.8249230279929705,1.1077053854718188,0.8757308994902722,0.0462190582572778,0.0390436436184393,0.007695399418812,-0.0026311222827766,0.0021438954396985,0.0139917413746488,0.9998963897625104,0.0115557273983936,0.0020707266985624,11.011506752449389,-0.0657603850762868,0.0527527266672709,1.0729797257643676,0.0765404799750749,1.8509751972603017,0.5971588938381608,1205.587988849814,1206.377267382073,1230.147371375216,1200.2306395504663,883.1284436492742,-440.1555859399646,466.62244832036737,103.2950733818324,157.85672114528873
0.3825,1.5477440998127765,1.451337015084769,0.7243231885579728,0.0539679997758366,0.0437763453268382,0.0117646494192804,-0.0025361642082426,0.0022066083260203,0.0139972997120471,0.9998964877462136,0.010278573937081,-0.0011662267446613,11.023804520426815,-0.0656515981165932,0.0532445314176678,1.0761028719557353,0.0763825267835794,1.8511194120927323,0.5998539955361522,1208.0754603320272,1205.4675901314763,1231.3328986275887,1200.6518058434372,913.9590545297315,-203.3791162061787,390.3465535040592,183.41234855461133,157.85561198796233
0.385,1.1590905418737731,1.6761832378298909,0.5175182153841021,0.0588181747990952,0.0491534687591083,0.0142562138149649,-0.0024518560983793,0.0022751084574596,0.0140000239129242,0.9998965762670444,0.0088156562004389,-0.004207739181349,11.035024142618887,-0.0655578216198004,0.0536927008023286,1.0792566022326124,0.0762263661785972,1.851262720707252,0.6025586808149225,1210.1577841224628,1205.360371801042,1232.0991041427362,1201.1477012932392,801.997297857087,92.92749102019107,240.63433054525356,192.3980033146561,157.8548816363011
0.3875,0.6710617351810294,1.8087142416103212,0.2558326706266261,0.0613907670857228,0.0549820479919177,0.0153495767057575,-0.0023827483976551,0.0023521300272998,0.0140021813787191,0.9998965960737034,0.0071289019004992,-0.0070871045032303,11.045007507699392,-0.0654844772477903,0.0540934312132855,1.082434092196215,0.0760728104289851,1.851405388266007,0.6052706068964482,1212.0854468213126,1205.9322275865775,1232.536070280315,1201.6137958600104,723.3174314875206,322.2820062720072,102.88431253334228,154.52812917505966,157.85434976819874
0.39,0.162094496543234,1.8644261074314343,-0.0218354512505124,0.0619268103448944,0.0604440103717731,0.0152846932289113,-0.0023304521228113,0.0024397308308511,0.014006283388887,0.9998964897690374,0.0051924453296841,-0.0097921495477453,11.053614428277111,-0.0654353699762026,0.0544491816498979,1.0856298421775596,0.0759210988217847,1.8515476072237247,0.6079893368273595,1213.7743712799004,1206.971781832402,1232.6135257054027,1201.9203419391147,594.1763198067288,489.1853304840874,-75.91290602608744,65.25919840519231,157.85398053781716
0.3925,-0.2987371202075756,1.8477433092589484,-0.2845994415178103,0.0602575750731621,0.0648384277354218,0.0139139679823496,-0.0022952773672229,0.0025401984773773,0.0140121620452971,0.999896241428438,0.0029714733602732,-0.012300608199473,11.060722541368074,-0.065414817564392,0.0547646611615538,1.0888396002997482,0.0757690229055998,1.8516892725780345,0.6107148334920526,1215.0563284203463,1208.378154238998,1232.1565057501844,1201.9400918520364,440.88905836606466,646.460823457482,-342.7832351981121,-50.842991342778944,157.85380522939448
0.395,-0.7224010825809963,1.7784120304393365,-0.5528668422929774,0.056574666239044,0.0688408131974326,0.0114428932176767,-0.0022727435799702,0.0026541696516881,0.0140171654707743,0.999895893252221,0.0004652087537135,-0.0145029668170804,11.066225666105112,-0.0654234254204853,0.0550542845798367,1.0920600242427443,0.0756149176854964,1.8518305104795956,0.6134457929561351,1215.9788165717307,1210.2040859496894,1230.8996095294124,1201.6661269824008,216.1735322959428,656.0426052227734,-581.2219337930395,-122.40512732046216,157.8538162249583
0.3975,-0.9376483480628396,1.6965940384139533,-0.7301485254250148,0.0529580575837455,0.0716229296347475,0.0093667067799085,-0.0022524313466845,0.0027772851373766,0.014021345148192,0.9998954842254708,-0.0022170305001126,-0.0161776835117483,11.07003262510611,-0.0654503317966655,0.0553452241023991,1.0952886713216603,0.0754589845099206,1.8519714492877135,0.6161811512096202,1216.137196081826,1211.6583672651116,1229.2503960812192,1201.328066215434,-80.0782548159531,539.885928526382,-768.9963108766726,-109.3080423939681,157.85400764645146
0.4,-1.0038184266354016,1.5891374472825823,-0.8647912769005732,0.0494304402936981,0.0746334808559187,0.0075238329744877,-0.0022222575097802,0.0029005916353489,0.0140269465941966,0.9998950481121388,-0.0048656890630369,-0.0170840442652223,11.072067699967265,-0.0654744693666517,0.0556680066686245,1.0985239233610231,0.0753026981042135,1.8521121333416783,0.6189210647474239,1215.5784252976507,1212.9035155923211,1227.054627975029,1201.1195867704307,-414.4585204408028,494.2350000212168,-1050.0485570580158,-6.720066543175556,157.8543853824603
0.4025,-0.934305262850985,1.4047869904972563,-0.9883967003070911,0.0456055396120338,0.0791409502822323,0.0052152951825632,-0.0021722191422584,0.0030137251101144,0.0140343364007006,0.9998946466604294,-0.0072431556994702,-0.0170417504853139,11.072271426147086,-0.0654722646947572,0.056047773962419,1.1017644212712172,0.0751476518599369,1.8522529821500713,0.6216662649893893,1214.064903479622,1214.1295422652179,1224.0001532959293,1201.2944658827182,-681.2071722793911,419.45016147988053,-1146.9906499575236,160.62590579581396,157.8550504537174
0.405,-0.7838564884148193,1.1805571626727087,-1.0651278202676944,0.0430276959108169,0.0835215615808104,0.0030768825879256,-0.0020976409310855,0.0031089903927267,0.0140422244587799,0.9998943414053396,-0.0091747293159725,-0.0159996384106929,11.07060162878072,-0.0654267230946668,0.0564970921853841,1.1050083979888252,0.0749949377403407,1.8523946700651717,0.6244184229500178,1212.172389436254,1215.0007663997208,1221.3196747252412,1201.92271629941,-848.3626017787165,349.3633534505531,-1044.1755196251952,353.70559802636274,157.85577834577506
0.4075,-0.5861979156754052,0.865855427163822,-1.1154664086965735,0.0414948513774809,0.0875620690464616,0.0008307493905994,-0.0020023428458879,0.0031845075034122,0.0140483656695457,0.9998941664591968,-0.0106187529369804,-0.0141025136413363,11.067034769118088,-0.0653343518796925,0.0570089132312705,1.1082533220200153,0.0748448273935997,1.8525379240071853,0.6271790187309354,1209.8230904707284,1215.8763590324706,1218.779275697803,1203.06299387285,-969.6840281754693,375.6449617687846,-953.6864560971017,518.9614777329093,157.85668290101907
0.41,-0.3887522834865168,0.4813001138417349,-1.140012069971868,0.0410035771411167,0.090573027965683,-0.0015931127868107,-0.0018966550228553,0.0032434950123746,0.0140493446505608,0.9998941393494902,-0.0116496420609605,-0.0116444382625583,11.061566536395576,-0.0652034647846737,0.0575607320989289,1.1114957185733616,0.074696884528327,1.8526836313871708,0.6299479893196018,1207.3239692953766,1216.8789912085647,1216.5512424447559,1204.5175236880743,-967.405116928784,446.5079960682484,-777.6577819128299,606.6840757061067,157.85773109759367
0.4125,-0.2328352326196828,0.0416195861333768,-1.1236306122227029,0.0414334843382978,0.0919686998399614,-0.0044391935970702,-0.0017922922876981,0.0032908373302942,0.0140424528411684,0.9998942587344508,-0.0123792417270433,-0.0089534591023869,11.054211950257423,-0.0650460577145581,0.0581261065845206,1.114731108934517,0.0745504167225184,1.8528321130431047,0.6327253427995271,1204.9860648860845,1218.108899012812,1214.8909867882392,1206.0964142513803,-902.087314653817,580.306060514976,-566.6785122359211,641.920446356516,157.85894885955813
0.415,-0.127814006664563,-0.4913961949656531,-1.0429133576761287,0.0422879033720882,0.0914412100274162,-0.0083095165030344,-0.0016990215865241,0.0033322268203403,0.0140267998770087,0.999894499264337,-0.0129359605227937,-0.0063153415732018,11.045005932571408,-0.0648755222554562,0.0586824264265574,1.1179538104645292,0.0744045105986748,1.8529828588747232,0.6355120301029615,1202.8135327221075,1219.7805215111396,1213.7178498835763,1207.7271259198571,-637.474429443325,611.7226510942663,-283.78374178119265,496.8435367933176,157.86060146316277
0.4174999999999999,-0.1169692008554441,-0.8908797244754041,-0.9201070633852504,0.0427598154326492,0.0890360832049402,-0.0114873358950526,-0.0016222758763163,0.0033755246307711,0.014004234430677,0.9998947973405898,-0.0134932958754205,-0.0039180453536972,11.034003920583347,-0.0647094647986908,0.0592167211491792,1.1211565996994464,0.0742584355463959,1.853135215913447,0.638308757872659,1201.7986927388679,1221.1675122682832,1213.4720680793332,1208.5806319353471,-204.5711499033608,494.8381297375868,47.670348203974335,189.42695912947067,157.8621347063182
0.4199999999999999,-0.1792075848457794,-1.191256971500468,-0.7462612571578,0.0429713643404957,0.0849908936012663,-0.0140001731674585,-0.0015619083655027,0.0034302302047783,0.0139792006391295,0.9998950552894332,-0.0142571091894389,-0.0018224807321247,11.021282171593455,-0.0645686086555115,0.0597287230666629,1.1243308578193956,0.0741119269543991,1.853288654417644,0.6411160118952878,1201.7906769725907,1222.2547121598275,1213.956201624596,1208.6742607155045,163.54496321787323,340.6146979120419,296.37156144412955,-98.84997017998094,157.86382615541464
0.4224999999999999,-0.2885081570408287,-1.3842318322779144,-0.5437202952307848,0.0430091995746202,0.0803000192388176,-0.0157658297746265,-0.0015127537031564,0.0035019358526568,0.0139553483007244,0.999895206393598,-0.01534393718017,2.52306256901258e-05,11.006937673959696,-0.0644649096735146,0.0602292488080579,1.1274676700459803,0.0739648467880008,1.8534420490411956,0.6439337525324584,1202.6164175549573,1222.8705857578434,1214.9539258865539,1208.0863820844472,496.3476847103716,98.34707468517072,484.5859773694879,-378.1782203458075,157.86564609849796
0.4249999999999999,-0.4292196461771858,-1.441085392890041,-0.3285935289404912,0.0425310015370477,0.0759096911791563,-0.0165692421058586,-0.001467230417007,0.0035907860785084,0.013933526768758,0.9998952451197312,-0.0167486806942792,0.0017373063778887,10.99108838373472,-0.0643984638275222,0.0607341054642781,1.1305586772688756,0.0738174177400502,1.853594244422996,0.6467607251035385,1204.2724153961426,1222.746447533253,1216.3791315114436,1206.7833696137754,840.2285519038278,-224.71898189869515,662.498289712675,-675.086613814846,157.86761787608728
0.4274999999999999,-0.5924208537310677,-1.36834016634891,-0.0835061996929603,0.040655037944351,0.0716615937411438,-0.0167249701507565,-0.0014195509955751,0.0036947020290678,0.0139133409437831,0.99989518926666,-0.0184169896235719,0.0033936418599669,10.973873713731104,-0.0643647719132421,0.0612546750379937,1.133596431391185,0.0736703601038795,1.8537454668278297,0.6495950110387563,1206.8175603144764,1221.74699084835,1218.2664173351172,1204.7109490153728,954.098887366262,-470.2804373370323,673.7296155417873,-782.5755615604513,157.87015570713754
0.4299999999999999,-0.692730026702921,-1.2101430333429655,0.0939626293295158,0.0379765180601107,0.0688330857600113,-0.0164896670209556,-0.0013675621719473,0.003811221381285,0.0138952100698602,0.9998950430817752,-0.0202859541090315,0.0050032232440966,10.95545391529192,-0.0643587660068321,0.0617936790264294,1.1365744601369931,0.0735244352506193,1.853897014572232,0.6524348077472168,1209.042909832974,1220.395045346568,1219.7477795891523,1202.8704918059732,827.3682579607787,-568.2665177089343,526.9347111000111,-684.275185923388,157.87241097466173
0.4324999999999999,-0.7318069089193862,-0.9729223983479331,0.2299708654541693,0.0349099317158958,0.0663013380999106,-0.0158599005127031,-0.0013118487712899,0.0039376921472306,0.0138819361432097,0.9998947767201156,-0.0222877643520552,0.0065252353480787,10.936008208152042,-0.0643750083440701,0.062347094209264,1.139486981940838,0.0733801354454776,1.8540499387778249,0.6552797769057483,1210.9544016042803,1218.9056582598053,1220.9010908906173,1201.289573085756,691.0824868140475,-578.7163435839369,399.83171829799136,-567.7307887870024,157.8748089330972
0.4349999999999999,-0.7066215915026511,-0.6189310750585482,0.3345699702052488,0.0316876253202004,0.0632916099041651,-0.0144140753731651,-0.0012551492252585,0.004073286860537,0.0138781837690043,0.9998943263763026,-0.0243938075105595,0.0078837869391365,10.915732510533358,-0.0644122228389998,0.0629053637329059,1.1423283035546212,0.0732379553177204,1.8542052987998607,0.6581320408693878,1212.498322267044,1217.5014636286485,1221.7469381806425,1200.031837862038,406.2828645335226,-385.6010749475441,211.54134688986207,-328.85775296949726,157.87784807404992
0.4375,-0.6412220122792285,-0.2859142039206428,0.3704704588626734,0.0300129692453825,0.0610330079296835,-0.012843443600385,-0.0012015675090481,0.0042189618730482,0.0138860484437229,0.9998936549837172,-0.0266146158992834,0.0089864352906912,10.894836381453512,-0.0644736120100211,0.0634547380718466,1.145092615109744,0.0730981378017639,1.8543644874335008,0.6609949093450022,1212.985815926948,1216.9776528850675,1221.9587976250666,1199.6452843209083,16.70175635226768,-36.87827333474157,-18.59683642678645,-20.27115778100777,157.88051298817146
0.44,-0.556774116425506,0.0484189832266715,0.3607576977892694,0.0297893704874782,0.0600054159042695,-0.0117099411928295,-0.0011530435587011,0.0043731290693861,0.0139011851922455,0.9998928260660612,-0.0289057950186302,0.0098001470273885,10.8735384743854,-0.0645571438701153,0.063985057252013,1.1477743951961343,0.0729601183830477,1.8545282198329096,0.6638702953831236,1212.5818310488055,1217.3170722619748,1221.6539539985083,1199.9304820731331,-298.58723898496436,270.70445814360914,-206.6581632287578,201.14735930278567,157.88331251005312
0.4425,-0.4701465915453135,0.3428266536951056,0.3254576515206565,0.0303262225511099,0.0606324280613007,-0.0112854907105851,-0.0011077141626237,0.0045323944611397,0.0139184385010971,0.9998919266992288,-0.0311832830253183,0.0103848321472202,10.852062012683952,-0.064656210553295,0.0644947390890181,1.1503687639297675,0.0728231275655792,1.854696191210704,0.6667572073981197,1211.492879732023,1218.3311751757856,1220.9255068089228,1200.6510211174225,-570.4989368884521,518.4930949480072,-393.13313350758074,349.8122242307542,157.8862217023476
0.445,-0.3744915528302559,0.5350608792272323,0.2729614152240967,0.0303393115279301,0.0629573734816329,-0.0110315456103104,-0.0010633337045611,0.0046915313591038,0.0139367850230868,0.9998909968996726,-0.0333236684261145,0.0108160311814936,10.830630750440188,-0.0647588620356028,0.0649840730546386,1.152872676110767,0.072686738707705,1.8548678362898336,0.6696529822474026,1209.7293363643632,1219.9095377367148,1219.6882883309706,1201.679543194287,-884.0956913684287,731.7848256257997,-660.0350392011018,468.73857001469287,157.88926085211523
0.4475,-0.2140972620650166,0.593403967043415,0.199042819265815,0.0285124935549695,0.0665919240777477,-0.0100093917470942,-0.001019716679832,0.0048418951459553,0.0139553523151355,0.9998900887749214,-0.035132905854583,0.0111297237058008,10.80946408667336,-0.064844665779626,0.0654495067536219,1.1552859953693524,0.0725506342485829,1.8550426148144403,0.6725550623877626,1207.0724012751807,1221.9900993039143,1217.6253316129173,1202.994713967496,-1030.8460572469348,723.3990706420165,-847.7897503817068,463.41107012321993,157.89305519191998
0.45,-0.0154007861239183,0.4795428162631121,0.1337186159523669,0.0258770997679936,0.069567829258478,-0.0087289376008197,-0.0009760982174071,0.0049757045595465,0.013972197091722,0.9998892676180364,-0.0364396921089447,0.0113782098827695,10.788770735007308,-0.0648946535288045,0.065890076159154,1.1576108081705598,0.0724145984276217,1.8552197821023289,0.6754616245480481,1204.5751060781283,1223.526533089925,1215.449339579062,1203.996598544903,-1024.3748673951804,505.6103262829761,-952.4492800644103,352.42345466081093,157.8963378831917
0.4525,0.2558816120722636,0.2028092244414402,0.0809345075710976,0.023447096452904,0.071624513298853,-0.0077352507016705,-0.0009302460929381,0.0050890668482924,0.0139863272383169,0.999888571485419,-0.0371602699065049,0.0116463893386486,10.768742556261577,-0.0648981433718568,0.0663101049361909,1.1598508197654178,0.0722785313418777,1.8553985649084603,0.6783720165914525,1201.950526938205,1224.5181509353295,1212.8630852125953,1204.7568312408,-1050.724628146826,274.762728669293,-1086.1123514897363,247.11649589344208,157.89974348357816
0.455,0.5588689251608682,-0.1857409373857619,0.0612625380934233,0.0227399891797556,0.0726107305836806,-0.0076578363220535,-0.0008822186070457,0.0051812524142092,0.0139964260205305,0.9998880277331976,-0.0372839945222153,0.0119671054494194,10.749549579590152,-0.0648515415585409,0.0667105083357334,1.1620116998857635,0.0721421472748323,1.8555781100145743,0.6812871208427629,1199.3214829373944,1224.9003467332711,1210.0187778216134,1205.2321810243702,-1031.2191449384036,-8.474698332338441,-1169.7621154537035,104.07811365653276,157.90324922159087
0.4575,0.8321974204407696,-0.6641819026943948,0.113623284320698,0.0253263093566479,0.0722058872207338,-0.0090648551299512,-0.0008337841092186,0.0052535329086186,0.0140001713118391,0.999887665775976,-0.0368480944285117,0.012330311337236,10.73133448169062,-0.0647559167189362,0.0670900391938346,1.1641009667934163,0.0720051399698007,1.8557572699167475,0.6842076183427434,1196.794431213513,1224.4757774436675,1207.0142746353267,1205.2772218090827,-1061.7902257819414,-368.0741727879191,-1307.3476494236716,-96.13827391367512,157.90687355983118
0.46,1.0337617350664408,-1.26913174533589,0.282314582415412,0.0310690743889808,0.0696827091999939,-0.0111289152341411,-0.0007841909090252,0.0053072304779464,0.0139976590705125,0.999887480714564,-0.0358934709076423,0.0127697683987102,10.714206899962607,-0.0646120589183484,0.0674553765571325,1.1661275875235206,0.0718678156741241,1.8559349114143224,0.6871314208853653,1194.0125318084847,1223.0599758693315,1203.482039574495,1204.7514896548018,-960.0445464475331,-653.3827089375785,-1239.2428534858016,-292.91537411318103,157.91135708734788
0.4625,1.0538747371979635,-1.7393277126059852,0.500044973011532,0.0363103893857549,0.0655514530370717,-0.0116238525584032,-0.0007338346784913,0.0053446400502369,0.0139919506563746,0.999887418394465,-0.0344852983585281,0.0132817362282297,10.698240647644123,-0.0644228439126723,0.0678124470085546,1.1681021505568832,0.0717308447590783,1.85610988200906,0.6900558831452765,1191.994208481275,1221.2088638989799,1200.8180603678975,1203.8126449385168,-726.8787895037342,-848.0998446390905,-955.982328229583,-468.3516904011408,157.9152032385284
0.465,0.9151802605892458,-2.1063655598134625,0.7538191523356286,0.0406396751739146,0.0595495338967356,-0.0100286095004756,-0.000685906148012,0.0053694980221303,0.0139858544442556,0.9998874181389912,-0.0327238889962122,0.013788790458102,10.683471597099649,-0.0641949477404941,0.068161755466921,1.170036560592849,0.0715946545672168,1.8562810293112677,0.6929803772271214,1190.378137860966,1218.8194766461363,1198.7021279333471,1202.409731202796,-604.1734353176702,-1129.8093022845924,-758.8540766516865,-691.9357051985111,157.91916094642463
0.4675,0.6095629233310611,-2.3694639660128263,1.0345591455286611,0.0440068041533911,0.0509946441601764,-0.0062106142760196,-0.0006424872674512,0.0053847832312742,0.01397927813158,0.9998874649363174,-0.0306965685462468,0.0142225527375854,10.669895453080157,-0.0639339953442027,0.0685065078933481,1.1719431231327293,0.0714592777410781,1.856447555714425,0.6959050941277704,1188.9733413046868,1215.559817387557,1197.0237899846393,1200.3529664125242,-421.476873941901,-1226.593046613924,-457.3472283543648,-784.6911227603406,157.92403619912727
0.47,0.2924274956008327,-2.420620925505834,1.2089062199390848,0.0448645120545806,0.0433585354912126,-0.0022434383050312,-0.0006037972586178,0.0053934266000362,0.0139694747119513,0.999887582675544,-0.0284919600398304,0.0145402789922237,10.657467766011878,-0.0636461728378212,0.0688537210464555,1.1738336162757723,0.0713242596629335,1.856609369950488,0.698830121973502,1188.2707534912563,1212.6865114130667,1196.4153917915753,1198.4862755889944,-184.37973918321387,-1147.4070889993973,-89.80711695535312,-741.6106054038202,157.92820168338133
0.4725,-0.020128178631868,-2.3039334914283187,1.2940430625647803,0.0435567178028984,0.0361909503654654,0.0017784358414277,-0.0005684608792184,0.0053977225899197,0.0139539448560872,0.9998877965921942,-0.0261859849020321,0.0147200176232891,10.646105583404943,-0.0633365011384343,0.0692131435492193,1.1757186941620532,0.0711892306675956,1.856767528786048,0.7017556449207991,1188.051442608771,1209.82278194256,1196.5747543998625,1196.644913385505,-11.340928022536888,-1124.9808030720478,163.65131108564114,-712.1486939415256,157.93247108978272
0.475,-0.2881301192684266,-2.0749133410100686,1.2997099800113787,0.0410455039512184,0.0301580173232359,0.005567892369855,-0.0005344560395129,0.0053972243929596,0.0139315016929325,0.9998881292990957,-0.023796251382571,0.0147423260218982,10.635690527406728,-0.063003847747479,0.0695943774591404,1.1776076020095287,0.0710546168133174,1.8569241814408433,0.7046817048995851,1188.2140488511438,1207.0616073977064,1197.2336483470035,1194.9255321192868,148.5856542418786,-1064.8911472333557,334.96110203791403,-646.5280102444008,157.93682453427903
0.4775,-0.4822181151626144,-1.7599758940881232,1.2159941444321503,0.0383882006679392,0.0259098724063546,0.009062474582494,-0.0005024943538851,0.0053925055076419,0.0139018588557967,0.99988858362162,-0.0213623717272983,0.0145233399342807,10.626073908849788,-0.0626500048238453,0.0699984892598329,1.17950750506169,0.0709212183508378,1.8570816175907447,0.707609225550475,1188.7943708799803,1204.4983262063931,1198.249559910052,1193.412273334283,332.5603911182532,-1071.09352984836,459.33120840041295,-615.8583512583454,157.9412766081005
0.4799999999999999,-0.6416666756351843,-1.34914667590389,1.031597011757242,0.0362839561007694,0.0227356773019562,0.0127756061667246,-0.0004759375585514,0.0053868587223341,0.0138656871721743,0.9998891315143126,-0.018980872743447,0.0139217146736054,10.617081876972488,-0.0622837125802575,0.0704180243307621,1.1814227367088523,0.0707896356328472,1.8572412320933425,0.7105414336301185,1189.876850806735,1201.7061397484647,1199.5303043890056,1191.846240362995,438.06011923880294,-973.6214282616046,431.963207401809,-535.3972479450076,157.94672944292688
0.4824999999999999,-0.737184378945054,-1.0173952789944243,0.8283232446260768,0.0355847725414005,0.0210596906791414,0.015133035472077,-0.0004571220826169,0.0053843960361072,0.0138254240019987,0.9998897150872548,-0.0167624441508449,0.012820818884816,10.60852005570756,-0.0619158740998509,0.0708457499133164,1.1833543228930337,0.0706603440843692,1.8574036149348496,0.7134820441595323,1190.9846714761743,1199.6302190650852,1200.409375947061,1190.735287094558,445.1606110613735,-781.6649158419287,268.0391127797518,-407.3725862795978,157.95136259977485
0.4849999999999999,-0.8174761733309681,-0.7221488911981279,0.6018713282575309,0.0352716766059624,0.0195768107172981,0.016542116118967,-0.0004468312624807,0.0053904896701617,0.0137850164288725,0.9998902484737536,-0.0148404199498037,0.011144677157931,10.600179240075017,-0.0615604498397684,0.0712761271364886,1.18530010636061,0.0705337387566978,1.8575692869155835,0.7164325178305782,1192.102653862042,1197.797815169255,1200.8704999529043,1189.809377431597,410.00539227807127,-701.1004736960325,95.66261433983519,-340.21114735864984,157.9560847045842
0.4874999999999999,-0.886999441379514,-0.4643331386720508,0.3763311740543637,0.0344880333131167,0.0182501739977399,0.0172674338388677,-0.0004444200463739,0.0054090831634337,0.0137487413724803,0.9998906491031548,-0.0133135415020511,0.0088589999818613,10.591840851576013,-0.0612280295954972,0.0717051329152197,1.1872557238711856,0.0704097159828052,1.8577389835851728,0.7193929890262573,1193.0346984375647,1196.1247166966048,1200.8876890187603,1189.0342313577648,277.35568810608106,-647.8022384036188,-105.14268624469868,-272.481982471754,157.9608777513025
0.4899999999999999,-0.9240384954511268,-0.2546074643780283,0.1702670290044855,0.0326767023334519,0.0176771981378935,0.0172126362086615,-0.0004465685842776,0.0054403471777321,0.0137213712134823,0.9998908493914515,-0.0121957420164439,0.0060005173431573,10.583281574947955,-0.0609199142497934,0.0721335927020154,1.189215492013964,0.0702874050083052,1.8579131570024368,0.722364234691446,1193.4894323025724,1194.5588039772367,1200.3447865216808,1188.4469675192383,34.176370143131834,-690.9375858697325,-354.68120755726846,-214.1281085645003,157.96575272331623
0.4924999999999999,-0.8905939409173463,-0.0584226364118605,-0.0426669009532244,0.0292852389777135,0.0179069255007651,0.0165806371240261,-0.0004483066598752,0.0054815929657685,0.0137071727719848,0.9998908055862697,-0.0114361952629758,0.0026584582372912,10.574278127936015,-0.0606302201031841,0.0725651895317446,1.1911732750033015,0.0701657731310749,1.8580916204164872,0.7253461644897445,1193.2055802882803,1192.6700287672563,1199.114282980974,1187.9635908149423,-265.6514970055921,-714.1264520319958,-528.6579105252254,-142.73105190836748,157.9716924288059
0.4949999999999999,-0.7702246082096894,0.0649274883452718,-0.1927689467964505,0.0258446994286594,0.018354490633212,0.0159166451062328,-0.0004454367410492,0.0055283097354808,0.0137088398094258,0.9998905062644504,-0.0109424404980195,-0.0010744555724143,10.564611633442183,-0.0603484958951797,0.0730011347545977,1.1931235553595168,0.0700442805241682,1.8582741518763872,0.7283359004570233,1192.1611748175444,1190.9881717170767,1197.7014969690547,1187.7333122596965,-584.1256101063658,-715.7463045409705,-620.4332811264969,-65.5453111334736,157.9767131067609
0.4974999999999999,-0.5387018823493241,0.1624919663782961,-0.3251635923465681,0.0225214722660954,0.0186022673714115,0.0154078860537979,-0.0004361942441371,0.0055768224829529,0.013727070138912,0.9998899625180688,-0.0106373085201856,-0.0051355055581502,10.554071193009484,-0.0600662417325502,0.0734367104072681,1.195061975466785,0.0699225863457811,1.85846060749834,0.7313292730788429,1190.2849522377485,1189.0912972445515,1196.0121165753415,1187.6358642592747,-864.4824380787661,-803.9046029051852,-705.8050882228138,-30.05763526725784,157.98180250156776
0.5,-0.223895767144424,0.2534757991027352,-0.4529588346166136,0.0199807149506976,0.0185185114608209,0.015377848967147,-0.0004209898352855,0.0056259440180918,0.0137604615788153,0.9998891997983068,-0.0104937181321336,-0.0094863829609013,10.542456392880416,-0.0597810466027822,0.0738623436397579,1.1969852437221022,0.0698004081560917,1.858650683909366,0.7343233997478632,1187.8387626271503,1186.968648702551,1194.1724715279406,1187.5830240833602,-1064.4640512480564,-901.1733692031048,-760.4746761354272,-33.76206972375217,157.98694498480793
0.5025,0.154770113151507,0.3494983116029606,-0.5792328429088369,0.0191805887086083,0.0181563094942083,0.0156860290886302,-0.0003990423772176,0.0056756867013492,0.0138068583711504,0.9998882489234736,-0.0105060842914992,-0.014044413479604,10.52957868280974,-0.0594934340650297,0.0742721785320813,1.1988904468011348,0.069677959348517,1.8588443383873383,0.7373178650191936,1184.962631981508,1184.585430398536,1192.2097431946643,1187.4670539106562,-1283.4540780693249,-1081.2827840169566,-887.6141299643668,-100.93048200151308,157.9921464640109
0.505,0.6136978716054075,0.4699961432067928,-0.708957744506331,0.020783523557653,0.0183522093029655,0.0148991138245046,-0.0003659623502059,0.0057247412146195,0.0138636568171164,0.9998871577692476,-0.0106364430306489,-0.0186355041671857,10.515262907048172,-0.0592008907768674,0.0746702760468341,1.2007743800711277,0.0695560831032409,1.85904185958766,0.7403138107958994,1181.421492236804,1181.5622347824662,1189.7344008781188,1187.0783716733526,-1253.7703148377648,-1098.737037987211,-928.4480826949667,-206.85261740291008,157.99844953466976
0.5075,0.9469728566846304,0.5604078216570028,-0.7663966286656048,0.0241326330616616,0.01985821843144,0.0124012822478634,-0.0003168381732168,0.0057694199704211,0.0139281718956719,0.9998859903149828,-0.0107933636899254,-0.0230636693508372,10.499350068430113,-0.058895455341492,0.0750637053599798,1.20263353362128,0.0694358363690748,1.859243410920312,0.7433125178968074,1178.6937804073193,1179.0917452085998,1187.5675027811894,1186.4327908236417,-985.9236536977725,-923.6465542170656,-884.5266420901218,-337.7941011862273,158.0037478104868
0.51,1.1826895402751703,0.6185057212779655,-0.7309181490738873,0.0286899070911175,0.0226029141216002,0.0085524581411225,-0.0002535630921297,0.0058077293646882,0.0139967526677437,0.9998848114483736,-0.0109201973706063,-0.0272679474017795,10.481701076887205,-0.0585738464299007,0.0754454168393985,1.2044643018270067,0.0693175827081722,1.8594481140118135,0.7463164172096194,1176.491873968315,1176.9440020113807,1185.311767667668,1185.3894011674215,-806.6181052011133,-812.9843931924996,-990.8411091786304,-540.767131373616,158.00908673501823
0.5124999999999998,1.336209623036034,0.642523620213219,-0.5638355545385073,0.0341741961824561,0.0260305611376383,0.0041557477648806,-0.0001849992134055,0.0058403274422106,0.0140629322774425,0.9998837058076072,-0.0110154684019449,-0.0313289257690327,10.462198815966884,-0.0582399860374796,0.0757939795083868,1.2062628397112198,0.0692008723403148,1.8596532609277376,0.749328541537418,1174.6606898813138,1175.0268232426374,1182.6132972352964,1183.7289551667736,-529.9754863101948,-566.7785204482693,-958.1675704108867,-656.8692440585431,158.0155320234558
0.515,1.3694944711911454,0.6375614070453312,-0.3381815683095479,0.0380260272405265,0.0282353251355799,0.0015688592873824,-0.0001176802300105,0.0058680932981998,0.0141210955543812,0.9998827424176628,-0.0110786084639002,-0.0352794997268475,10.440748562624448,-0.0578981946242623,0.0760963792008722,1.208024277627604,0.0690854870556729,1.859855279100812,0.7523486446409618,1173.841996536764,1174.1101094091396,1180.5209298156135,1182.1050549471288,-202.96407995124335,-221.94652843045313,-760.5194944779662,-673.8100407408177,158.0209290123227
0.5174999999999998,1.338293075051035,0.6395011348740626,-0.0741027585616041,0.0407121171890527,0.0293879907617261,0.0005493347287539,-5.2978330274034446e-05,0.005894629955702,0.0141692244968008,0.9998819230249923,-0.0111613596571455,-0.0390505674049605,10.417280041429429,-0.057558660436304,0.0763549927148985,1.2097424616266104,0.0689718241245115,1.8600513027427217,0.7553730842427521,1173.6458694815576,1173.9170906004852,1178.8106997629063,1180.3599049630695,-12.211525304883242,23.177924283118024,-591.6560085785017,-706.363548199078,158.02634623255867
0.52,1.27987322646576,0.6743655656075778,0.1697782559453583,0.0426228907511292,0.0296540797151907,0.0009529693739409,9.862608571088303e-06,0.0059260549705353,0.0142069275992323,0.999881212967421,-0.0113646788221104,-0.0425388228793985,10.39175002318281,-0.0572373092401591,0.0765793707687408,1.21141065637643,0.0688603406573458,1.8602400279852596,0.7583984078930124,1173.7809389102397,1174.2259990305552,1177.5626497727212,1178.5732372061332,72.40074991486829,199.47550895831208,-370.97678324002993,-724.6210379345932,158.03177614525856
0.5224999999999999,1.2064094733858475,0.7686725542909367,0.3246601654970144,0.0443672125565211,0.0293848198094886,0.0030854121303508,7.267854812550969e-05,0.0059665784862276,0.0142347671825402,0.9998805775080988,-0.0117475369429653,-0.0456333046787264,10.364144061970192,-0.0569451354204366,0.0767824693798146,1.213021979081292,0.0687512461512322,1.860422381090577,0.7614229049888627,1174.007873231132,1174.9144681452767,1176.9558158467064,1176.7367997733963,35.96397928745316,319.8561922581118,-132.0328103696737,-834.5095516593565,158.0372175217857
0.525,1.0990275142503596,0.9420514512089984,0.3440664208974817,0.0472319331712635,0.0297219663822653,0.0069383638256176,0.0001361183217061,0.0060174969546482,0.0142534890585421,0.9998799981741668,-0.0123082005347583,-0.0482647663661826,10.334478439041831,-0.056685753502171,0.0769739871146343,1.2145692502134968,0.0686442809572635,1.8606008801813008,0.764446704388769,1173.9607588066767,1175.8252799918455,1176.9024857208728,1174.4006894478366,-125.857351846298,298.13192050223705,57.18433059241756,-893.6620039151413,158.043756832281
0.5274999999999999,0.9805170669171364,1.1031948925103408,0.2034073724061424,0.0502307673455214,0.0314931144723852,0.0100746887893582,0.000197897284448,0.0060785965040011,0.0142622709927403,0.999879489836329,-0.0130156822222445,-0.0504415113194447,10.302801931663929,-0.0564589298961219,0.0771551661688608,1.216044398832348,0.0685383733624681,1.8607781489038184,0.7674724504752656,1173.3785864719005,1176.405127747788,1177.2417374996685,1172.2684897538209,-392.1372427445473,146.67662583783553,150.57341551605515,-903.7464053494652,158.0492126502657
0.53,0.8173669040568348,1.2208206501178032,-0.0800755152233158,0.0535137812466256,0.0352703114697493,0.0119670041588729,0.0002545088805774,0.0061470409491533,0.0142584833587015,0.9998791111217482,-0.0137879597355489,-0.0522135098273619,10.269196575021084,-0.0562577525238133,0.0773224378974937,1.2174378732500715,0.0684324391011533,1.8609563848292547,0.7705042374746784,1172.0000725929542,1176.558663121035,1177.6553527984531,1169.8819574210893,-697.9392947791433,-34.360857284809725,123.84004526898012,-996.4663420355456,158.05467424754815
0.5324999999999999,0.616245651107933,1.2576488648001916,-0.4395281097510004,0.056723456341136,0.0403638538181546,0.0124032631552327,0.0003050361117642,0.0062190377872253,0.0142414947219553,0.9998788985173314,-0.0145265833822473,-0.0535933287118833,10.233777771324128,-0.0560719914247068,0.0774770849790252,1.2187379086550527,0.0683266403524133,1.8611371310935132,0.7735445158796567,1169.8888899980047,1176.2333234613639,1177.8609377260132,1167.2861580436431,-1009.8768734870182,-263.53288042246254,-24.44739615561955,-1074.7195136043035,158.06014081353146
0.535,0.3883683723965222,1.1668895596150215,-0.8177011572296145,0.0591660846707629,0.045955300336809,0.0108603668032021,0.0003527953088473,0.0062941864086364,0.0142148558899543,0.999878804074249,-0.015206180692958,-0.0545212877494689,10.196693835168848,-0.0558984173577109,0.0776298875286458,1.219930317283986,0.0682217372842811,1.8613210687927504,0.7765939086557755,1166.9506882255191,1175.2409987189224,1177.533115817675,1164.5083598530675,-1435.28357472196,-598.856804530032,-315.18867395325253,-1232.4355014104171,158.0656143299567
0.5374999999999999,0.1354343618428809,0.9200453905861756,-1.190475105782825,0.0602401789385924,0.0512459692523699,0.0064879646645704,0.0004017339252554,0.0063744082280316,0.0141820462177208,0.9998787610690048,-0.0158538990762114,-0.0549381257973517,10.158124354447732,-0.0557390817130019,0.077792326262129,1.2210000053029086,0.068117783488956,1.8615079611296017,0.7796533786903754,1162.7124721243947,1173.2390394387137,1176.2849943562471,1161.123980536591,-1620.0245521478323,-862.4814013231107,-612.0075470925707,-1220.7440937821036,158.07219194213357
0.54,-0.0095771772271453,0.6394045237738308,-1.3675087519583435,0.0591138407878953,0.0532631275383125,0.0010584993203766,0.0004529834681928,0.0064598699494564,0.014143886971298,0.9998787515927952,-0.0164678072939323,-0.0548540687368777,10.118276770437603,-0.0555919211322115,0.0779682089634698,1.2219330068044376,0.0680140382262079,1.8616967641404365,0.7827242945554553,1158.85056546478,1170.928591712307,1174.473078082212,1158.4046393841572,-1544.4250905353315,-1030.8167405892154,-871.7152077982056,-1032.1123113405056,158.07768189850742
0.5424999999999999,-0.0369305824604965,0.3457532707558241,-1.3579113353385504,0.0565943185762351,0.0528575935756203,-0.0049578776198593,0.0005071304772358,0.0065453766661973,0.0141001777106804,0.9998788082355228,-0.0169443330215787,-0.0543016216886139,10.077380827517404,-0.0554416565094577,0.078159582933936,1.2227177864744907,0.0679097997230721,1.861886428653701,0.7858063957188686,1154.9903466717183,1168.0849557357676,1171.926418317256,1155.9634189798885,-1629.6286466547813,-1319.6771454649922,-1245.6345891748683,-975.941074464662,158.0831814226168
0.545,0.0835088657380381,0.0378860153753535,-1.1297943529596206,0.0541551979266599,0.0510174713965745,-0.0108681189033257,0.0005670082141133,0.006623133458945,0.0140520874306472,0.9998789600762892,-0.0171348834599698,-0.0532772771300981,10.035681917546574,-0.0552662171081162,0.0783740916874369,1.2233458222032154,0.0678049871168342,1.8620763835915035,0.7888961135741543,1150.702422231506,1164.330205984982,1168.2449051363378,1153.524934011834,-1482.0895543424272,-1383.0291389034744,-1408.6851594391176,-795.80867476975,158.08979221137278
0.5474999999999999,0.2917080425213471,-0.163796729629624,-0.7919517766513591,0.0535577716806783,0.0494840730496589,-0.0139287954804383,0.0006361336542259,0.0066899532467535,0.0140034319667147,0.9998791682643589,-0.0169910144728235,-0.051770240962552,9.99343392991144,-0.05505447557482,0.0786216000300319,1.2238121191850313,0.0676996889595397,1.862266027388357,0.7919883792150254,1147.579898900006,1161.1698100412502,1164.8829925200605,1151.9843756060395,-1141.5871766454063,-1209.2382440875542,-1347.6607388570744,-508.7388282843217,158.09531058064687
0.55,0.5618083449475632,-0.3165022080210631,-0.3620216533956384,0.0547284920028592,0.048777519552296,-0.0150940813208529,0.0007166479919717,0.006747545989534,0.0139606836741337,0.99987932652436,-0.0165680613760352,-0.0498020333905079,9.950890974463892,-0.0548072997170557,0.0789091157832626,1.2241160347481823,0.0675941515398667,1.862454424773374,0.7950790105520705,1144.9944863482788,1158.2840147645443,1161.5066014420524,1150.9812398704123,-952.1892373928033,-1071.7322127939033,-1315.2940077791288,-321.2940168381008,158.1008381918682
0.5524999999999999,0.8392652797197839,-0.4452573650317352,0.0945234422250336,0.0571621640574362,0.048551841439506,-0.0148290002032582,0.0008100920509773,0.0067993993606,0.0139323501384297,0.9998792906933645,-0.0159599026556067,-0.0474096293506182,9.908298461864149,-0.0545301991525026,0.0792423534371055,1.224261425093306,0.0674890894394206,1.8626412404222945,0.7981650517434254,1142.818952713042,1155.8111489772807,1158.3065224811648,1150.3779055218492,-794.4316665435047,-865.419398181529,-1207.9503649767037,-173.19967456269282,158.10637279236497
