t,ang_acc_x,ang_acc_y,ang_acc_z,a_vel_x,a_vel_y,a_vel_z,quat_x,quat_y,quat_z,quat_w,acc_x,acc_y,acc_z,l_vel_x,l_vel_y,l_vel_z,pos_x,pos_y,pos_z,mot_1,mot_2,mot_3,mot_4,dmot_1,dmot_2,dmot_3,dmot_4,vbat
0.0025,-3.7305935772174417,7.698917488657261,-0.4605019711636217,0.0669818186850938,0.0135075955155566,0.022966776814632,0.0018202129538079,-0.0163904242554137,0.016322177880218,0.9997387340900812,0.0949364101104024,0.0003166579041225,11.669284903537756,-0.1044118729801232,-0.033455979449756,0.935042519572753,5.898180839552808,-0.6383051694600582,0.1611196482064805,1242.5134131154143,1260.8189629398803,1275.9426755737,1173.9788156107527,-1233.3211739234685,-398.5072615151694,-373.5307618483602,326.87856108641427,163.4164395943893
0.005,-4.067256927764519,7.691000382662179,-0.5241814628186958,0.0578987309296374,0.0330934883757513,0.0212714494211081,0.0017759147831748,-0.0160420563918703,0.0163383741060134,0.999742181195522,0.0985188985407099,0.0095729341241227,11.689784761964715,-0.1055416609956589,-0.0334301967038971,0.9394194802271636,5.897846977405563,-0.6384040359134492,0.1634799538741757,1239.4301101806057,1259.8226947860924,1275.008848669079,1174.7960120134687,-1387.6136746785962,-363.67191939621085,-415.56719841401,522.4210802034123,163.4380231633147
0.0074999999999999,-4.343476152982327,7.366299029424083,-0.5280608684909985,0.0472365958543389,0.0530664480378094,0.0193906769520575,0.0017388628800749,-0.0157035330000004,0.01636203198052,0.9997453980403408,0.1023576910528174,0.0189968721779408,11.710200951037471,-0.1066586349343838,-0.0333879549948144,0.9438247716970912,5.897513083133858,-0.6385021101662967,0.1658272460357354,1235.5753447420211,1259.0006033428995,1273.86483958163,1176.59092101177,-1669.1472420697664,-306.33406248316527,-491.81932396722914,885.2591416030463,163.4591142002986
0.01,-4.511443498873794,6.6787770949962235,-0.4584556174540876,0.0363176682669911,0.0729801401400107,0.0174530739396005,0.0017160404802848,-0.0153886447961141,0.0163973124026676,0.999748223244899,0.1068202198060738,0.0287448458834296,11.73042992970194,-0.1077356059158136,-0.0333134975640706,0.9482802657487978,5.8971784077957805,-0.6385979950931847,0.1681680401557384,1231.0843739702568,1258.2910244736768,1272.549752049243,1179.222307721484,-2036.4417960135136,-321.80273890226084,-583.9687477856386,1250.0604325404308,163.4796127323415
0.0125,-4.551610887845176,5.510786711343668,-0.3018431544298738,0.0237545542021923,0.094519666272965,0.0154159978175558,0.0017115517634164,-0.0151082159364564,0.0164449255261763,0.9997505291747992,0.1122095891396823,0.0388988632875293,11.750328178400952,-0.1087499185528955,-0.0331963357367456,0.952806358255194,5.8968427675898285,-0.6386928559129059,0.1705088516978802,1225.3931357619535,1257.391589648388,1270.9449958427017,1182.841223174472,-2071.2073537759807,-364.9614807043236,-569.1048662363756,1326.0330361626532,163.5035281862528
0.0149999999999999,-4.42367925205136,4.3540723437773,-0.1299898821353296,0.0127109438797334,0.1078889757126324,0.0144077480947252,0.0017198080725511,-0.014856830624293,0.0165034241591701,0.9997524338269012,0.1184445272137151,0.0493078993874995,11.769717804413983,-0.1097092284142301,-0.0330435122079605,0.9574162761376708,5.896506592525061,-0.6387884721233594,0.1728556902868935,1220.7283372013767,1256.4662170701552,1269.704227718061,1185.8524729022974,-1773.8613242820516,-433.1368881993967,-460.8263646302474,1110.746043289509,163.5228904243179
0.0175,-4.095694547346612,3.1696986985517768,0.050986244416782,0.0003095350146778,0.1150520707068972,0.0144607071224187,0.001728994747412,-0.0146236558801282,0.016567548066858,0.9997541836299596,0.1253079791059501,0.0596609382622768,11.78838791882758,-0.1106311137934406,-0.0328741479855523,0.9621172084730152,5.896169189576043,-0.6388855631543172,0.1752129831355968,1216.5238291405435,1255.2259052073912,1268.6408640195505,1188.3949533909197,-1668.5425942639993,-637.6073476362761,-431.491540791103,909.6770036795075,163.5416658015727
0.02,-3.4607055729128406,1.9028272837712543,0.2359857471684721,-0.0143060808540181,0.1185071975944509,0.0155267985488869,0.0017266088024067,-0.0143966277317862,0.0166315733989561,0.9997560400822104,0.132543765374841,0.0696135279576849,11.806098275903384,-0.1115352398611579,-0.0327085712042341,0.9669110469223936,5.895828948138101,-0.6389849881489506,0.1775856551448407,1212.3856242300567,1253.2781803319735,1267.5467700141055,1190.4008579206948,-1327.1786630434697,-797.5800620408339,-386.5951461782972,498.57600023265167,163.5635199643359
0.0224999999999999,-2.761256275629441,1.07766147168516,0.336923633373493,-0.0244088935817511,0.1191395990892512,0.0169480425763425,0.0017081271204525,-0.0141756471955228,0.0166923144937962,0.9997580222513532,0.1401693216751083,0.0789864590495202,11.82257979995028,-0.1124177725635247,-0.0325515349320308,0.9717980850911172,5.895485952940658,-0.6390861494713639,0.1799764361923874,1209.887935825326,1251.238004897187,1266.7078882886588,1190.8878333920827,-779.8950627531211,-906.1797230123373,-344.2528745529216,-106.40046294979582,163.58116962438007
0.025,-1.97016863033351,0.5618450068209084,0.3619088991176577,-0.0312768932275068,0.1190542718444807,0.0185038263986345,0.0016691511712586,-0.0139635983069462,0.0167494486120932,0.999760059372306,0.1482595625756191,0.0875840094552317,11.83754565038469,-0.113268772951645,-0.0324071161478605,0.9767752265905428,5.895141068813841,-0.6391881863791755,0.1823854692163574,1208.4861489162913,1248.747281716912,1265.825505641341,1189.868855605946,-370.6009311308662,-1203.8281568023192,-419.4457413261716,-829.5764159322515,163.59823723840532
0.0275,-1.0547931450319028,0.329666226034139,0.2954437734005148,-0.0352506531242625,0.1188962782575557,0.0201291234265879,0.001613511561341,-0.0137586203200342,0.016802073420709,0.9997621490363408,0.1567641616255195,0.0953893161595637,11.850698426005112,-0.1140868113620111,-0.0322636911126872,0.9818356847794144,5.894794655458893,-0.6392904796974619,0.1848120326795261,1208.0349311696718,1245.2188641131754,1264.610659582028,1186.7399513124217,14.794446770974908,-1388.6849308727055,-478.0647501245769,-1466.290228815297,163.61804675564764
0.0299999999999999,-0.4296693974573191,0.4584441994771812,0.162272496807424,-0.0350286414728975,0.1187766557657597,0.0211249540268252,0.0015517292512544,-0.0135573498584868,0.0168501442723611,0.9997642936378284,0.1655818662484683,0.1025290453992147,11.861736946073664,-0.1148729844914591,-0.0320964441231349,0.9869704029757052,5.894446103058024,-0.6393932138153117,0.1872556237317921,1208.560121150146,1241.8038570625483,1263.435181890718,1182.5374044618695,347.9873524451704,-1473.069474357362,-502.75177115759095,-1986.8245499033033,163.63399579868323
0.0325,-0.0583938666642011,0.9043090254714148,-0.0403990185528199,-0.0324451737089078,0.1192612067266342,0.021588926159873,0.0014935926681057,-0.0133601359351275,0.0168941765523693,0.9997664454140957,0.1746801428697651,0.1090976068972014,11.870363987986952,-0.1156209421885109,-0.0318820960011231,0.9921694417352576,5.894094535569653,-0.6394969103519602,0.1897154811274702,1209.7748679318977,1237.8535167413886,1262.09690072624,1176.8058285629052,552.9426714956112,-1674.728558090872,-558.0220940933482,-2509.2726836028737,163.649365858536
0.035,0.0509635514265952,1.5869842215095804,-0.2875053759066456,-0.0292740733493569,0.1209722138713654,0.0215598546034618,0.0014390082620549,-0.0131730501808501,0.0169324617011155,0.9997685361616085,0.1841382822304352,0.1149415331254877,11.876295278634757,-0.1163129907208406,-0.0316181223599783,0.997422430221652,5.893740396640454,-0.6396010699626614,0.1921905435875371,1211.3248345076242,1233.430214272094,1260.6450714202513,1169.9910410438551,637.6524794869059,-1884.2011662366535,-604.0208529977466,-2926.550412859844,163.6642568311888
0.0374999999999999,-0.1703575564621788,2.506640777467263,-0.5671879756070787,-0.026640972811655,0.1251078496553598,0.0209056996459055,0.0013807190116601,-0.0130045852311952,0.0169630309820388,0.9997704792218152,0.1940709944204764,0.1197283606887928,11.879265458305657,-0.1169266744051801,-0.0313174246113855,1.0027184484397809,5.893384588036883,-0.6397053427886681,0.1946795848169454,1212.9631303293322,1228.432510910205,1259.0767964612514,1162.173076498606,660.7438328831907,-2316.9799298323155,-717.2628872696354,-3582.837434457408,163.67857153626477
0.04,-0.7803907755741636,3.803344785860872,-0.9063351437125116,-0.0256142193742479,0.1338306911554905,0.0191691836885734,0.0013095884869843,-0.0128438352658174,0.0169861376290511,0.9997723974749774,0.2041137300586496,0.1230852383206404,11.879039749612213,-0.1174787714365405,-0.030996875288605,1.0080415447066347,5.8930268028808355,-0.6398104245503655,0.197183460422429,1214.62855367204,1221.8453146229326,1257.058756983903,1152.076853871568,506.88455088106775,-2487.4741376711404,-767.6397920945867,-3753.2509830853055,163.69508500528335
0.0425,-1.5152115123945402,4.978984393182326,-1.162062196255726,-0.0274561116703288,0.1443488718823113,0.0166809859645858,0.0012154653327736,-0.0126715916292947,0.0170021552897977,0.9997745174649701,0.213687866302348,0.1246207298133975,11.875414597232908,-0.1180038111388894,-0.0306767951127409,1.0133734935163443,5.89266671174842,-0.6399171993416978,0.1997026077774795,1215.4975530837376,1215.9951402218496,1255.2385975007785,1143.4068215831794,186.34858818027175,-2365.406908040178,-767.7181933270278,-3440.250258563994,163.70829430840843
0.0449999999999999,-2.3904748364548265,6.174959315653882,-1.352203545208838,-0.0324946510457557,0.1578747863789408,0.0129341246125841,0.0010954507035405,-0.0124744866344462,0.0170096218480596,0.9997770057083812,0.2223429770194224,0.1241219962605341,11.86821164600174,-0.1185254764075333,-0.0303655269308223,1.0186978965365403,5.892304565271076,-0.6400257383698676,0.2022372683678311,1215.5602966129416,1210.0182800827315,1253.220166017268,1134.875602578748,-200.94832166214485,-2586.472269172056,-950.574945997096,-3629.6160996475032,163.72093261142066
0.0475,-3.4885702260977625,7.546388609007589,-1.4692150462781235,-0.0416854344335941,0.1777796426455811,0.0073299503247232,0.0009505429774394,-0.012239022479315,0.0170112224102763,0.9997799504935392,0.2296202586497086,0.1214827185762021,11.85728323399332,-0.1190692264066335,-0.0300645563328622,1.0239988631832353,5.891939996817029,-0.6401347231675122,0.2047865967613613,1214.4928114754268,1203.0627788759891,1250.485722770793,1125.258741084942,-594.248335130714,-2460.1083966870624,-1066.6213304033126,-3358.203504987156,163.73544063113687
0.05,-4.366983240873654,8.574981207883127,-1.4625891251185903,-0.0514658916358698,0.1976860787433941,0.0023996184253298,0.0007837153037634,-0.0119515207787533,0.0170134548532202,0.9997833726555004,0.235055507629301,0.1166629908100083,11.842514669023636,-0.1196626797011134,-0.0297726630120434,1.029261101446408,5.891572733342852,-0.6402421180465451,0.2073492024096284,1212.589054937288,1197.7177380992964,1247.8870593652512,1118.0845850538124,-960.2024153485222,-1988.983735631656,-1115.1259316829514,-2623.932493995791,163.7469843711083
0.0524999999999999,-5.126424223188708,9.420828565250945,-1.3569768327538279,-0.0634633994567222,0.2205537042936652,-0.0019541843958984,0.0006003719224758,-0.0116063457926566,0.0170236390220768,0.9997871735915445,0.2383781584951315,0.109702653580714,11.82382115151624,-0.1203186853489704,-0.0294860523129392,1.0344719821249173,5.891203416710769,-0.6403460315809669,0.2099237915651395,1209.6917993986842,1193.117860197831,1244.9100931123783,1112.1390786149627,-1457.0903695041586,-1806.8095077194369,-1396.8390252633078,-2262.231953708216,163.75796502525867
0.055,-5.818599081504163,10.172613404839211,-1.15185405669774,-0.080516604279152,0.2500701281738303,-0.0060332894721429,0.0004096952650216,-0.0112009352766987,0.0170436145416355,0.9997913007933752,0.2393964389968465,0.1007612390787774,11.801150360698195,-0.1210450908836755,-0.0291967674386048,1.0396203505326522,5.890832414220255,-0.6404444916263684,0.2125096622436844,1205.3036030897672,1188.6836905606992,1240.9028642389349,1106.7734252852713,-1709.5446618950955,-1426.221045625242,-1532.6846550802643,-1636.2059128714905,163.7704977680114
0.0575,-6.165507097248393,10.55968929038641,-0.9516741661636408,-0.0965496420180455,0.2755842203476852,-0.0084373898234474,0.0002066475359374,-0.0107396613609618,0.0170696031628345,0.999795713749928,0.2380861749059535,0.0896961449172446,11.774487683143555,-0.1218374094987769,-0.0289297942612988,1.0446960937574234,5.890461161377986,-0.6405358868888786,0.2151057297123788,1201.1440760892087,1185.9867549697049,1237.2466698369767,1103.9580490506055,-1700.2743742062655,-864.5154743526294,-1507.8127155064528,-764.5350652678646,163.78041162906308
0.0599999999999999,-6.24179890587674,10.691499999529256,-0.7662517190429133,-0.1134844066878172,0.3015642162443767,-0.0097347004693131,-1.3753724699046151e-05,-0.0102298435250521,0.0170960428684241,0.9998003728661036,0.2345078469714662,0.076405804769683,11.743853071639663,-0.1226866754171318,-0.0287120167833795,1.0496897636986915,5.890091438341039,-0.6406194260357243,0.2177125494276162,1196.8022312187359,1184.361113188936,1233.3638006614024,1102.950749958932,-1722.9222836651852,-477.5824747227036,-1570.120506192871,-114.00611538224445,163.78978494342172
0.0625,-6.093889334437574,10.61584728002584,-0.6218191513207523,-0.1302074628267205,0.3274635890968497,-0.0101725814414721,-0.0002464953304722,-0.0096761865206938,0.0171152551607216,0.999805306087736,0.2286842184363173,0.0610669494906564,11.709301700785375,-0.1235905402574248,-0.0285502863708117,1.0545914518772623,5.8897247747537005,-0.6406954078916586,0.2203309292327942,1192.5294646708828,1183.5988425960911,1229.3960673060124,1103.3880184736943,-1661.3450484229347,-115.03376606856352,-1580.0235465572755,478.2416264784839,163.79871852991388
0.065,-5.70681346133006,10.30334472508542,-0.5467430996013882,-0.145554936735617,0.3525358350251023,-0.0103037777474043,-0.0004908497907755,-0.0090889886280527,0.0171216766438453,0.9998104590122924,0.2207926630942108,0.0437936092172166,11.670925853423668,-0.1245364337701276,-0.028459398622519,1.0593916393463771,5.889361620123055,-0.6407650319577359,0.2229617165792283,1188.4955059766212,1183.7859443585933,1225.4636829286162,1105.3419580913244,-1717.6046501837827,260.4564873734487,-1689.90324899123,1118.4270807309067,163.80713371943355
0.0675,-5.037041221954052,9.677426284175164,-0.5383629384212493,-0.1612463150537373,0.3812251004213819,-0.0109007842356322,-0.0007503052649146,-0.0084802409878298,0.0171140844727408,0.9998157022683744,0.2110758701601469,0.0246397923477583,11.628857022622112,-0.1255092470223443,-0.0284606100330094,1.0640801787880532,5.889001609052366,-0.6408304281203812,0.2256065427660368,1183.941441419964,1184.9011250329584,1220.9465510610564,1108.9801538773488,-1646.374272253523,513.7610004911035,-1605.9112656960665,1468.253630906564,163.81664986308715
0.07,-4.370591695604436,8.96480794842688,-0.5863570275945404,-0.1716680627429436,0.403982976634108,-0.0118409071705129,-0.0010220725719344,-0.0078601295119334,0.0170925272090258,0.9998209251495964,0.1997650998864756,0.0038438662724026,11.583265411426096,-0.1264977145735483,-0.0285595347421455,1.0686461891265655,5.888644059526378,-0.640892876129527,0.2282664606380814,1180.2636346153536,1186.3547493610488,1217.4341266001359,1112.6832262458572,-1494.6616524265692,625.7283236892829,-1343.62862012222,1523.6478841977744,163.82410864855066
0.0724999999999999,-3.6610008287775746,8.079492961546132,-0.6660746162810756,-0.1795789156109051,0.4249889697269375,-0.0132259375582447,-0.001298018388199,-0.0072454947498006,0.0170580386760817,0.9998259673237114,0.1872764501748959,-0.0182029571881605,11.534357700463028,-0.1274760033741845,-0.0287478833685596,1.0730804877975075,5.888288465771296,-0.6409535600616608,0.2309415533137081,1176.468133157831,1188.0297666514048,1214.228407960445,1116.5983932983377,-1754.3024175365679,707.9433441917913,-1342.4191547429043,1680.743900498513,163.83109509498763
0.0749999999999999,-2.813849637974727,6.859870392846219,-0.7637211522483536,-0.1868452004774832,0.4470508655693114,-0.0154423522118068,-0.0015689088689826,-0.0066488912753474,0.0170098781299416,0.9998307489039616,0.1739539930366502,-0.0410569089841547,11.482382375822509,-0.1284267689977106,-0.0290125530596898,1.0773730875809107,5.887933941641043,-0.6410146862663468,0.2336302018357521,1171.4921225276707,1189.8944660820075,1210.7220308264211,1121.0869457483495,-1923.1528335636065,606.5120442845449,-1237.8423431975068,1569.9265936017111,163.83895225030588
0.0774999999999999,-2.128084029246813,5.752725496440781,-0.8217561692534832,-0.1914491851762291,0.4625186413610373,-0.0176144105063915,-0.0018334293097952,-0.0060721976716825,0.0169495707370959,0.9998352307419016,0.1599217498721007,-0.0644328465645402,11.427629895009032,-0.1293556183588639,-0.0293538323461427,1.0815113917722823,5.887580403321137,-0.6410780272595986,0.2363313742717508,1166.852368990013,1191.0623268728275,1208.0391962444576,1124.4480262663462,-1965.5696868035172,340.07576046092225,-1038.9737880457224,1253.5467109800709,163.84507512544272
0.08,-1.457679334730456,4.606498443550294,-0.8294063682895725,-0.1950622891361732,0.4746433134609088,-0.0198767601793318,-0.0020873795278274,-0.0055188551993418,0.0168821399905669,0.99983932357617,0.1453697908930005,-0.0879653114376549,11.370422988706759,-0.1302646103907628,-0.0297627280710604,1.0854842656076071,5.887228803668793,-0.6411430599969293,0.2390451706024678,1161.6642740936531,1191.5948448843124,1205.5271618861927,1127.35467930325,-2382.003537619719,60.88196702189629,-1086.2782568460707,1202.2028761588888,163.8507736796749
0.0825,-0.644030741937245,3.2519027359581165,-0.7560710117505933,-0.1986058111373029,0.4849395274371093,-0.0224439804763155,-0.0023192943314997,-0.0049903954991373,0.0168091685668934,0.99984303245931,0.1304732656498001,-0.1111144802807991,11.311114685840346,-0.1311590972779537,-0.0302134534712695,1.0892817327862172,5.886881247856154,-0.6412085221799582,0.2417710111053058,1154.9423513019144,1191.3667367079372,1202.6078049602274,1130.4590406471407,-2508.3734631261427,-226.52440439728687,-1070.0932465710584,1112.9933270708525,163.85714029741033
0.085,0.0622099196190281,2.1824953546043884,-0.612131069300036,-0.200650772951706,0.4901547859437445,-0.0245246832073366,-0.0025173101426658,-0.0044851769229294,0.0167303195055034,0.9998464150574788,0.1153593472548381,-0.1333312203674196,11.250083991152044,-0.1320505339297192,-0.0306779596555093,1.092894548058312,5.886539984205898,-0.6412729492906795,0.244510117240998,1149.1224067780224,1190.462222862326,1200.1766956533374,1132.9196459386044,-2315.639256734992,-482.1010885149458,-990.9218678255902,1008.0535794633296,163.8620663439073
0.0875,0.807727081164639,1.2068625336123056,-0.3710349434134215,-0.200937885777809,0.4927058813970089,-0.0267246243068703,-0.0026850972090432,-0.0039902149139067,0.0166520498355452,0.9998494193098691,0.0999153001376907,-0.1544180849017834,11.1877283403984,-0.1329748882408986,-0.0311582227793396,1.096311390296567,5.886205369745684,-0.6413366216848906,0.2472613880096969,1143.3641550182394,1188.9562312653625,1197.6531956210995,1135.499308544457,-2250.343705443224,-663.3139359234077,-1038.085106447854,1079.7062578120424,163.86661440610624
0.0899999999999999,1.576578326287482,0.3158026318731381,-0.0497927051083567,-0.1990674284804694,0.4937283647081915,-0.0288701264401765,-0.0028296326745032,-0.00349224211365,0.0165762080976762,0.999852063846585,0.0840413877161561,-0.1742555150565894,11.124452126267403,-0.1339667248913358,-0.0316633958718305,1.0995229323689792,5.885875155991083,-0.6414014356446879,0.2500229871288336,1137.8706882508063,1187.1456531827089,1194.986270121098,1138.3181772276644,-2090.548330778124,-736.4028643163707,-1113.3857022290179,1195.5828073512316,163.87086051192583
0.0924999999999999,2.3451403905453545,-0.4818738004844431,0.3475421283726043,-0.1944751650482857,0.4934261741935824,-0.0300880676958294,-0.0029561182442527,-0.0029855191863985,0.0165026571010816,0.9998543779987088,0.0678200906997981,-0.1926956181519443,11.060658777441848,-0.135041137004314,-0.0321983234161321,1.10252462009013,5.885546281428464,-0.6414689026736266,0.2527928273982756,1132.9114133643488,1185.2742169437806,1192.0862671099544,1141.4772225812135,-2017.6723249775005,-755.8580782795609,-1334.317341115228,1445.2180157396,163.87475532062183
0.095,3.221028070229821,-1.349564648204178,0.8546128279830069,-0.1862657103644386,0.491648281912739,-0.0291866549283755,-0.0030702108911815,-0.0024686124864712,0.0164294214952794,0.9998564105465688,0.0514332002726253,-0.2096156011651691,10.9967446027189,-0.136200305162781,-0.0327684739782002,1.1053158790559514,5.885215488005818,-0.6415397804796173,0.2555700498727588,1127.7823266259188,1183.366362791311,1188.314683415522,1145.5442673063624,-1723.5878307114929,-593.0356257700163,-1423.9927507791876,1496.2692295115617,163.87903768429166
0.0975,3.878854929211129,-2.0063208861469968,1.2442186866271758,-0.1773925697778108,0.488709906882229,-0.0263094026288514,-0.0031759715937325,-0.0019428794198858,0.0163565117252081,0.9998581828526748,0.0351191474477434,-0.2248761645400368,10.933092820155283,-0.1374369363991543,-0.0333746359351476,1.107899908147921,5.884880438846352,-0.6416139574025393,0.2583537194743731,1124.2934742107911,1182.3090388149303,1184.9663033560585,1148.9585687287713,-1218.4166091121358,-274.5053050678505,-1360.988837173453,1305.321652867086,163.8822895318784
0.1,4.427715025498999,-2.5895776240134456,1.5281474220860756,-0.1668697744493197,0.483718794891517,-0.0218229737594069,-0.003277008680538,-0.0014121771926559,0.0162891817885614,0.999859637130016,0.0191567869816163,-0.2383502700535456,10.870066873235528,-0.1387355666636194,-0.0340148420117038,1.110283515339272,5.884539620722876,-0.6416916983291037,0.2611435768940417,1121.690243580358,1181.9938362659718,1181.5097392296548,1152.070875570698,-935.65549793634,41.90948390846639,-1513.873122205585,1223.2570194705647,163.8852221258971
0.1025,4.931694266099223,-3.182811763391577,1.6802483719161003,-0.1528085137957349,0.4750263880060384,-0.0151147574784649,-0.0033780019056752,-0.0008802517835636,0.0162331703610275,0.9998607189991848,0.0038020076445466,-0.2499574704505284,10.808003955154843,-0.1400788735302573,-0.0346893042840199,1.1124762311986867,5.884192317638515,-0.6417723833452679,0.2639380565279427,1119.6151967211097,1182.5185862344729,1177.3969377450303,1155.074853826124,-589.7022548528196,325.28199113267027,-1481.1154215993183,936.2768143231297,163.8883811692399
0.1049999999999999,5.209516921356079,-3.570912767293364,1.6215959528407176,-0.1399861586365733,0.4659776927361805,-0.0087155812221485,-0.0034809133511412,-0.0003469937220316,0.0161887521811898,0.9998614673789314,-0.0107938067423638,-0.2595826107044546,10.747210736319653,-0.1414564500650988,-0.0353938251855681,1.114489364025007,5.883838598239951,-0.6418550437492693,0.266735079731438,1118.741732306094,1183.6202462216352,1174.104162121658,1156.7522596423137,-185.0238895479382,531.2617810514904,-1274.7973949081395,470.752267796116,163.89071884170463
0.1074999999999999,5.334769999085391,-3.839546702980293,1.3718917180703682,-0.1263880881442557,0.4561991011251959,-0.0023640053585056,-0.0035860665045651,0.0001812838901979,0.0161530757598712,0.9998618794634228,-0.0243654343071911,-0.26710600345547,10.687958644491236,-0.142843039103782,-0.0361220865406201,1.1163384364909479,5.883480208625696,-0.6419398375183156,0.2695316359184777,1118.69007727337,1185.1748951397303,1171.0229507704898,1157.4286151651047,139.8535683189492,709.5680551499293,-1308.7255751340297,64.16356488512059,163.89275500653056
0.11,5.321408254660304,-4.033249860844132,0.9082129363127036,-0.1101647809579586,0.4446264140467916,0.0035064946776101,-0.0036914640077184,0.0007001712927504,0.0161264646010578,0.9998618981086178,-0.0367180069029114,-0.2723877482719694,10.630481630313218,-0.1442182061215513,-0.0368621096190606,1.1180402517455996,5.88311838711268,-0.6420258163484703,0.2723245437744182,1119.4410001476888,1187.1680864973848,1167.560534245988,1157.0730774667393,382.8798304194148,688.5283981162951,-1242.599709587738,-308.1242225389812,163.89485342745073
0.1125,5.195919327439813,-4.102393744180037,0.4614853825479661,-0.0976410184104734,0.4353408531543488,0.0057547022155164,-0.0037974041134632,0.0012103788799887,0.0161109784598994,0.9998614458773428,-0.0477955741993909,-0.2753658907662404,10.574972376096866,-0.1455742550657194,-0.0376068535858789,1.1196105082875092,5.8827539966592814,-0.6421120050337764,0.2751138370753319,1120.604476425467,1188.6175371303118,1164.8099522225511,1155.8879940524096,536.1217324555578,468.158037063085,-1092.1968881017156,-624.5208533885938,163.8963168555174
0.115,4.9843565030803525,-4.092065899093711,0.0657614935149676,-0.0865397515306969,0.4261928177684012,0.0046324479831445,-0.0039044472213055,0.0017136927503803,0.0161048974480762,0.999860517784938,-0.0575899096974459,-0.2760142448059287,10.521583162223916,-0.1469071855262839,-0.0383513333605088,1.1210638371713035,5.882388828037204,-0.6421982758750719,0.2779028416422951,1122.1216088099663,1189.5088766827002,1162.0995498054795,1153.9504731997963,631.7041235959545,228.27823599500317,-1090.0037554431028,-870.6134266061318,163.89748683382263
0.1175,4.719849087738337,-4.021663226692874,-0.2083481409687407,-0.0761531276436957,0.4169327241783429,0.0014119969533023,-0.0040088899216783,0.0022189353931432,0.016107038621426,0.9998591155303076,-0.0662631852791122,-0.2742453500395315,10.470428946733248,-0.1482303623751984,-0.0390808288195978,1.122411451798561,5.882024197132456,-0.6422844200035382,0.2806942909422603,1123.7629970434468,1189.7589283102868,1159.3599334453356,1151.5349269193791,644.81586313059,-72.54721341018934,-1109.0968043761243,-1048.6384030918107,163.89841544012543
0.1199999999999999,4.397166787101491,-3.8780382507547753,-0.2759868545285367,-0.0658783238769849,0.4073798206995828,-0.0027404283682963,-0.0041105376107557,0.0027385870750524,0.0161204591087028,0.9998571605645452,-0.0740759573216058,-0.2700752897600722,10.421587420235385,-0.1495674916746711,-0.0397871215916049,1.1236609392966634,5.881660948351181,-0.6423700614860473,0.2834889232205681,1125.3456881256195,1189.1461406156493,1156.5540657835988,1148.7072811843373,630.762595635407,-457.1200482598678,-1245.19550358664,-1302.7955051990855,163.89905537352607
0.1224999999999999,3.933483544196601,-3.6181004455986607,-0.1065666571477206,-0.0535523165582533,0.3956878822941755,-0.0070435454120756,-0.0042132455716706,0.0032758037069706,0.0161479296181003,0.9998545882440588,-0.0811126060010765,-0.2636375678642494,10.375105096456865,-0.150922940487015,-0.0404713099953158,1.124819853491271,5.881299343661692,-0.6424554627278012,0.2862874109442701,1126.9168100216239,1187.4733280689875,1153.1339559274024,1145.0209493933835,486.75687588524806,-737.8174633014163,-1253.2549499136155,-1375.8969474828052,163.8994926494721
0.125,3.475054906835355,-3.3330584351110737,0.2052599692249274,-0.0437106219984797,0.3861775747411329,-0.0090167544899855,-0.0043185780392833,0.0038300690483233,0.0161879745267442,0.9998514294164637,-0.0873969093503507,-0.2550484562926748,10.331005008356216,-0.152293520309314,-0.0411303037651314,1.1258946277128752,5.880939550746732,-0.6425410249910402,0.2890896216255779,1127.7794725050455,1185.4570532991422,1150.2877910340308,1141.8277964469232,218.9069367203954,-879.268074441642,-1124.6139052006574,-1271.1166101381866,163.89958375988712
0.1275,2.9428866092203054,-2.9991856348479256,0.6058374776734357,-0.0350322076388977,0.3776636138921753,-0.0082749391478105,-0.0044229156538222,0.0043958152792605,0.0162371815060579,0.9998477949525107,-0.0928628780036588,-0.2443484390113288,10.289293525039374,-0.1536650457001074,-0.0417495027941407,1.1268914159322123,5.880581705931605,-0.6426280943769112,0.2918980424405315,1128.0113447052258,1183.0769876967793,1147.5108864013991,1138.6653663426928,-66.35667632417602,-1059.3733649960986,-1193.8688930956675,-1343.026038823108,163.8993938865826
0.13,2.241658507056758,-2.590894138657771,1.0628173516814603,-0.0267001303956764,0.3692150004482146,-0.003867097438116,-0.0045209502779849,0.004956527808655,0.0162937766500875,0.9998438218085116,-0.0972359003306801,-0.2315768380117703,10.249965220306734,-0.154999039102767,-0.0423097859545026,1.1278179957433336,5.880225478786548,-0.6427180971192592,0.2947130406406359,1127.4476891234249,1180.1601864741615,1144.3184465685524,1135.1126662528077,-348.88201712260496,-1034.2367061971336,-1141.6417716338392,-1230.7376831741283,163.89884437763598
0.1325,1.634663687260968,-2.289727344825325,1.3419235828830711,-0.0218379367270956,0.363915213565761,0.0019607755234259,-0.0046111393230627,0.0054998761442636,0.0163546629269275,0.9998396402663072,-0.1003446172803791,-0.2168776530137552,10.213003231028845,-0.1562664967900705,-0.0428003247002758,1.1286791885191432,5.879869771500167,-0.6428122265496315,0.2975328009388,1126.2669346196128,1177.9058041657936,1141.80267754323,1132.511677926822,-603.0020163614603,-829.6416715187654,-972.6137525900403,-931.8074394274382,163.89812095021355
0.135,1.0472166509773047,-2.0819001720456685,1.4572007050705476,-0.0192017140335817,0.3603728903824443,0.0082657899928361,-0.004694975643438,0.0060155596652823,0.0164173864053745,0.9998353608926964,-0.1020734356824419,-0.2004819517069405,10.178384078308653,-0.1574430299580754,-0.0432168662272374,1.1294779551960077,5.879514005204532,-0.642910553603304,0.3003572250396603,1124.4326790416176,1176.011978116568,1139.4553778056022,1130.4536290556705,-916.960457346203,-737.6712993625453,-991.22994461486,-751.6849705959422,163.8971253813484
0.1375,0.411434086141567,-1.9786696037662268,1.4010047120820788,-0.0183166908010452,0.3570250047826802,0.0147190086378895,-0.0047741967391634,0.0064950479933079,0.0164777707591186,0.999831120219772,-0.1023532407835518,-0.1826480331445116,10.146081945701184,-0.1585079906130573,-0.0435566653828056,1.1302160358004663,5.879158331597632,-0.6430120180727348,0.3031869762063172,1121.6821323328816,1174.2174476689809,1136.8465278201556,1128.7532530738424,-1060.446467339624,-586.8098470018589,-918.9332788749188,-484.77538405259065,163.8956206024739
0.14,-0.0372478977131342,-2.016561220953045,1.222830635481289,-0.0188937704859123,0.3538411391909747,0.0185758077682922,-0.0048535956314738,0.0069414116776655,0.0165311313861098,0.9998269805343596,-0.1013593823149801,-0.1637117353952128,10.116068540133083,-0.1594669429831166,-0.0438245737843698,1.1308909332145067,5.878802880353894,-0.6431165232154737,0.3060222888547947,1119.1304467049194,1173.0779288815584,1134.8607114112276,1128.0297521354075,-1023.5663171744354,-405.80488582063447,-748.2844374519566,-146.95905907233268,163.89411186279915
0.1425,-0.3909025846539194,-2.155710523352841,0.9670274002807268,-0.0200630428870312,0.3491302394627567,0.0208607718133953,-0.0049380918910713,0.0073551240707593,0.0165765005567962,0.9998229646597188,-0.0992198278958714,-0.1440273215985738,10.08831821593969,-0.1603198483647984,-0.0440260967082094,1.1315010793288571,5.878448029648337,-0.6432231533621015,0.3088625399765489,1116.5643007470096,1172.1884232398777,1133.1051056328959,1128.0184577784808,-993.7029009282516,-337.15869657853705,-656.7414988618597,101.50226481641812,163.89234347956543
0.1449999999999999,-0.6684596915033358,-2.3460965768995004,0.6939251071479747,-0.0214381675487983,0.3431666505232966,0.0220521455999429,-0.0050289236746381,0.0077401789344045,0.0166158559369865,0.9998190434625664,-0.096135929081201,-0.1238848792665375,10.062807676650662,-0.161074698326834,-0.0441590816644289,1.1320447360518908,5.878093386617612,-0.6433301865038605,0.311706424615351,1114.1619322002782,1171.392135398666,1131.5770039169183,1128.5372634594896,-889.1634824130093,-323.8614649686512,-548.6273800720054,308.45126884837697,163.89036368091823
0.1474999999999999,-0.8630763169037655,-2.5613131378217826,0.4483329830013578,-0.0229306701377468,0.3365076372309063,0.0222526676361917,-0.0051158106491539,0.0081046048835407,0.0166523775620035,0.9998151930560945,-0.0923876160447202,-0.1033493479150879,10.039515126247636,-0.161748275663252,-0.0441966127565361,1.1325209124186864,5.877738333665959,-0.643436615183472,0.3145523405062797,1112.1184833349444,1170.5691159150344,1130.3619687325358,1129.5607141227226,-792.6006390864579,-398.39785625508705,-459.63108847122334,520.8095412017424,163.8881340553039
0.1499999999999999,-1.0090872987527748,-2.8149209533395334,0.2282474458314634,-0.0249711004935737,0.3282870739890218,0.0218077757506209,-0.0051838144834308,0.0084461134243336,0.016685423406587,0.99981154462658,-0.0880464077295271,-0.0824003103736713,10.018418696657363,-0.162333567677327,-0.0441046243823826,1.132933519241336,5.8773833690996415,-0.6435408785016479,0.3173994062750318,1110.198929004846,1169.4001461173905,1129.2788484745622,1131.1413111654983,-611.3583664722677,-473.3122421879212,-340.555564841861,600.9275744416294,163.8851767732703
0.1524999999999999,-1.0573437556724714,-3.00683019474034,0.1220207036685212,-0.0271652276205118,0.3211251709736958,0.0211706702132389,-0.0052319297938683,0.0087677467244679,0.0167145507431871,0.9998080976919685,-0.0832959362973532,-0.0612936133715469,9.999490581728729,-0.1628362576615091,-0.043882084696584,1.1332846449144711,5.8770295656784,-0.643641814048529,0.3202483941842617,1109.0616915025832,1168.2025547040948,1128.6591909083263,1132.5653519949308,-367.0887370339639,-531.5831844558484,-205.4768174380568,549.2772639872323,163.8824829925454
0.1549999999999999,-1.021864090238134,-3.165874176305767,0.0951016552949044,-0.0301407241416822,0.3136136353753515,0.0206299174096357,-0.0052710099457398,0.0090778974561973,0.0167388464557701,0.999804747577133,-0.0784293661637796,-0.0405118919094911,9.982697352018047,-0.1632746359568229,-0.0435562473743583,1.133574772011207,5.876677561915305,-0.6437400618749014,0.3230993500830111,1108.363485319676,1166.7422301951112,1128.251464387372,1133.8876974854345,-224.5710600721393,-696.1009509094305,-157.0116696306739,517.850129494172,163.87955764211745
0.1575,-0.8760676438896065,-3.308139037065547,0.1340258432149443,-0.0341083659993755,0.3045214144511066,0.0203838161133123,-0.0053118626368316,0.0093790559216129,0.0167588062516299,0.9998014144572864,-0.0736186259882749,-0.0205244524332676,9.968000067086711,-0.1636536676023082,-0.0431552193859486,1.1338077004441052,5.87632653948759,-0.6438366749461604,0.3259529086043541,1107.9388362022223,1164.7220499495477,1127.8741325601732,1135.1546026424016,-103.5488273725604,-770.8183892339086,-139.147813653335,390.1617352025365,163.87578713689902
0.16,-0.6746266812313445,-3.3784078012156717,0.2020601925326869,-0.0369112470820181,0.2968003910006019,0.0206521332386459,-0.005363023754174,0.0096753114076296,0.0167757525579746,0.9997980003648596,-0.0690621968123046,-0.0017364374869228,9.95534945139204,-0.1639817844019489,-0.0427026004925764,1.1339885461856751,5.875973705671873,-0.6439322721820924,0.3288081747609757,1107.8457411828133,1162.8881382489417,1127.5557253191052,1135.8385061614472,-5.1748721863532365,-737.2344341748422,-144.87085026321424,183.03624015670704,163.87243393607085
0.1625,-0.4138795969291375,-3.386075757011519,0.2739104247678315,-0.0386070129685786,0.2885481287974798,0.0215139228165165,-0.0054299583995833,0.009972214478038,0.0167945331791404,0.9997943508562824,-0.0649791191636175,0.0155302358481795,9.944682199539123,-0.1642709223463019,-0.0422147969823243,1.1341240316992691,5.875617907454299,-0.6440265539907816,0.3316630608349815,1107.9129618412908,1161.0358777786735,1127.149778308857,1136.0697838431852,35.62632429830043,-717.923265749004,-181.8643895107924,17.261544520215452,163.8688683953802
0.165,-0.1303950395515266,-3.3318721549252825,0.324961622928959,-0.0393772344770153,0.2798072031963012,0.0228705790627766,-0.0055137797637772,0.0102735323473981,0.0168206117635371,0.9997903410802064,-0.0615421374283687,0.0310644540227436,9.935917809592691,-0.1645293416534817,-0.0416991334874702,1.1342236344677663,5.875259893559896,-0.6441190434902808,0.3345163767781253,1108.0238728043048,1159.2985219201967,1126.6464033715513,1135.9248138840483,32.92142017298826,-634.9264238315749,-222.2298398967721,-135.8176345130231,163.86513190939027
0.1675,0.144677504969114,-3.1980612405333053,0.3291702991615207,-0.0389399258153036,0.2708166219020767,0.0246309892617835,-0.0056127221198158,0.0105740398091904,0.0168521577588702,0.9997860677520656,-0.0587354746255996,0.0447378735531465,9.92895698340623,-0.1647452683544641,-0.0411598959740155,1.1343015491274269,5.87490159628203,-0.6442100108766948,0.3373660833407072,1108.0775689421555,1157.8612456595156,1126.0386291093732,1135.39069567062,-14.209227359287967,-529.3115516696157,-281.6285428858462,-291.65801643071035,163.86119560323766
0.17,0.4224809811748515,-2.9586464518695546,0.2682408414701663,-0.0369612418482725,0.2604168741313152,0.0265892702941528,-0.0057231446466096,0.0108698057134135,0.0168859336136099,0.9997816472052456,-0.0565559944239451,0.0564907570914058,9.923679398317422,-0.1649110578879814,-0.0405983941834656,1.134372710384384,5.87454421549194,-0.6442985591904393,0.3402088813036359,1107.9528266675084,1156.6519641618484,1125.238260657122,1134.4665238018947,-88.7825640965274,-343.6269427428212,-296.6539573040788,-352.5717166663068,163.8562493698251
0.1725,0.5890349419553048,-2.7210768870727615,0.167217752685497,-0.0345879759252462,0.2526437723363454,0.027619679352799,-0.0058350187953727,0.0111595646117052,0.0169212597562657,0.9997771607531372,-0.0550342275316866,0.0664236065769166,9.919942849726516,-0.1650265418389684,-0.0400013985251198,1.1344518435646331,5.874188466021706,-0.6443835291182676,0.3430447986559743,1107.633656121673,1156.1431109458015,1124.5553593228528,1133.6278370872883,-175.28772144305535,-99.10831776937805,-267.0899884463777,-307.0649994527227,163.8519483225294
0.175,0.6807416194410106,-2.496260787840252,0.0314728190657809,-0.0322407711116221,0.2463470010312267,0.0278278359785607,-0.0059390314136126,0.0114459861047351,0.0169561746815955,0.999772665815232,-0.0542600757401464,0.0746584268767346,9.917586807518218,-0.1651018752020216,-0.0393582291907853,1.1345513283585007,5.87383501529732,-0.6444641378877268,0.345876307738098,1107.076388060293,1156.1564225730017,1123.90281071489,1132.931198804631,-290.8935160734486,109.30151912894011,-271.8091182372531,-235.69083712454923,163.84746942597528
0.1774999999999999,0.7166078391368292,-2.313231360367385,-0.1463004139238592,-0.029899349146341,0.2405428822169615,0.0272527574443372,-0.0060278246201429,0.0117363814038254,0.0169935439155717,0.9997680760817746,-0.0543921162536588,0.0813144273300518,9.91643653413763,-0.1651594690093921,-0.0386613908440949,1.1346799348948715,5.873483557125433,-0.6445397074355909,0.3487046491155578,1106.1791885413058,1156.689618541446,1123.1963137316664,1132.4493829016656,-355.2661041655045,260.6172164144494,-242.71899817476992,-107.03903563298859,163.84189933979533
0.1799999999999999,0.701351234219547,-2.280119939303155,-0.2909975902091364,-0.0283940152153695,0.2366336377302934,0.0262134849988036,-0.0061008912555862,0.012033211759299,0.0170345100728535,0.999763351259752,-0.0554715477670531,0.0864084319003325,9.916310535689217,-0.1652120480043618,-0.037919693497582,1.1348448742528259,5.873134080993007,-0.6446105285168824,0.3515310793950889,1105.3000575394656,1157.459508655074,1122.6892157240163,1132.396003626466,-364.82030413480936,346.3508017237925,-184.8866839926812,38.00474449813006,163.83710271976267
0.1824999999999999,0.6597439042860446,-2.406713715989393,-0.4206548349715941,-0.0271514065695502,0.232891904364893,0.0248638085746143,-0.0061620338453756,0.0123371288583973,0.0170798008830037,0.9997584575143224,-0.0574799639313319,0.0899050068194696,9.917025435754079,-0.1652694214372018,-0.0371515651147053,1.1350505756943012,5.872787111006318,-0.6446775258235762,0.3543564548307008,1104.3550870206316,1158.4213725500651,1122.2718803117032,1132.6394066241564,-419.95589681350754,436.3614825133023,-164.64690380780652,133.78098456205396,163.83215546952292
0.1849999999999999,0.5971442826564582,-2.749014363871473,-0.5563288878925485,-0.0257440821541493,0.2276845699645888,0.023237650131673,-0.0062138983788261,0.0126511323404448,0.0171288273891144,0.9997533652384688,-0.0604198874712309,0.0918242457208878,9.918400000316252,-0.1653475162642253,-0.0363724101979907,1.1352974586021296,5.872443125832213,-0.644740668468528,0.357182016566222,1103.200278055398,1159.6413160676404,1121.8659812049773,1133.0649085492764,-422.4743930879864,441.3591089731194,-135.54944807360687,139.75597096537047,163.82605721004296
0.1875,0.5424112419182265,-3.171712206597119,-0.655718287844822,-0.0246987234684856,0.2219812665920492,0.0220168167772039,-0.0062543383678932,0.0129634810759377,0.0171784544946208,0.9997482939995802,-0.0639756706565711,0.0923053326152792,9.920262216926831,-0.1654291332895114,-0.0355871501158063,1.135587694490493,5.8721045612465055,-0.6448002271930232,0.3600111640293417,1102.2427150551919,1160.6281680949307,1121.5941330713351,1133.3381864789833,-376.4551646485866,377.482510419031,-99.39078486504505,52.70267446935572,163.82085044200684
0.19,0.4890683891474622,-3.6862963591941025,-0.7441403517171948,-0.0238579081417654,0.2142427947638367,0.0209283359372206,-0.0062791596015371,0.0132588194840216,0.0172226465996544,0.9997435748684876,-0.0677366975940103,0.091552292539671,9.922455309623048,-0.1654888246440293,-0.034795899514314,1.1359215214630387,5.871774319351541,-0.6448569281610502,0.3628476746693586,1101.318002232155,1161.5287286197356,1121.369027280652,1133.3284219216232,-355.8077979333117,343.409821523164,-86.5623444877655,-66.28540809924738,163.81552630006925
0.1925,0.435481307353277,-4.227588433822542,-0.8210815156083447,-0.0230611855976973,0.204874664744856,0.0197674680070232,-0.0062875809643859,0.0135244459843104,0.0172557115875138,0.9997394832505768,-0.0713249592459779,0.0897231374926861,9.924844245201145,-0.1655067165364905,-0.0340050203253844,1.1362954756865415,5.871453141065393,-0.6449107190684512,0.3656931122302821,1100.4636760655253,1162.3452172025463,1121.1613213488963,1133.006759438487,-305.88024919998105,306.56852991965,-84.44155788120035,-198.74140365018303,163.81011419636073
0.195,0.3746591004618973,-4.737716783377096,-0.8715689389301572,-0.0222224872742965,0.1936595324166571,0.0181868702664985,-0.0062835602581153,0.0137576299302511,0.0172730308550125,0.9997361164426825,-0.0745446768165391,0.0869013180701942,9.927319120089283,-0.1654841875319881,-0.0332295506073332,1.1367010058790428,5.871139203770684,-0.6449613672516323,0.3685476015711228,1099.7886009861552,1163.0615712693339,1120.946819491246,1132.3347149033723,-223.82936521053105,291.56982708632285,-102.32440024574308,-342.526402897374,163.80460731417756
0.1975,0.280311392485546,-5.2376274638538165,-0.8744756294749063,-0.0213267720087727,0.178090192229983,0.0154426424053583,-0.0062734980122781,0.0139614509916806,0.0172709300870989,0.9997334650864572,-0.0773046202766257,0.0831350241724309,9.929797300362177,-0.1654333581742734,-0.0324881155740306,1.137127272628328,5.870829824693101,-0.6450098664988396,0.3714096382567284,1099.3445292394726,1163.803066337978,1120.6496993476676,1131.294127424,-79.77950990439231,249.26967896117253,-119.03509411863514,-383.59301880914205,163.7979039782428
0.2,0.1732419334748325,-5.5161450039379245,-0.807269318178536,-0.0207084753554791,0.163637140939591,0.012418350322887,-0.0062605479951372,0.0141369742999708,0.0172491689027835,0.9997315096655566,-0.0794661618672188,0.0785422368044486,9.932223909098397,-0.1653585427216958,-0.0317895116903508,1.1375652611661526,5.870521885166582,-0.645057946823752,0.3742770611046065,1099.3897034366332,1164.3079196641395,1120.3516440206529,1130.4167498093263,119.65654409787012,171.31280728976876,-131.42808625320856,-308.8725429204257,163.79224916131463
0.2025,0.0242028228720927,-5.621312611730185,-0.6521658128163145,-0.0200882581102789,0.1483760043997603,0.0091425321949338,-0.0062495468625751,0.0142888934089403,0.0172128390378664,0.999730076445362,-0.0809632540796824,0.0732097258368201,9.934572399956703,-0.1652691091348221,-0.0311432499883918,1.138006379833042,5.870212094650193,-0.645106398606899,0.3771464727241924,1099.942811959962,1164.659630374427,1119.9925589164015,1129.749764709398,357.31823885553206,107.55506852906355,-168.80533082467068,-210.9001735996569,163.7865355598379
0.205,-0.212545297054241,-5.5506144416618906,-0.3731284557454564,-0.0192458657604408,0.1303603336886213,0.0060272916679786,-0.0062454899733663,0.0144171871006882,0.0171696028281924,0.999729013203409,-0.0816444467741534,0.0672161423903058,9.93684408672885,-0.1651604999114071,-0.0305575030830867,1.1384456863579968,5.869898278405854,-0.6451549817891836,0.380014261039088,1101.176294630911,1164.845695006785,1119.5076173665295,1129.3622489413283,530.253075454902,19.45339468857126,-179.1308512977592,-67.40397121652671,163.77962580252287
0.2075,-0.4556209831633346,-5.35594126835436,-0.090035556039588,-0.0187171286887822,0.1166556181620811,0.0047217386660748,-0.006251006325856,0.0145184844468384,0.017126300426928,0.999728244549212,-0.08130691177788,0.0606787160460022,9.939065205429051,-0.1650176600148045,-0.0300345474008339,1.1388814411450559,5.869579702561158,-0.6452030883659647,0.3828786405789486,1102.5940773372365,1164.7568973478699,1119.0969046599128,1129.4127448533154,615.5990694208896,-95.95896395826499,-148.61335837108595,80.89416966277024,163.77383375458075
0.2099999999999999,-0.7247556219644331,-5.073725713699213,0.1960785231556576,-0.0191284316665511,0.1050611912034975,0.0049627618006774,-0.0062720376863271,0.0145925481312792,0.017086662417301,0.9997276824990776,-0.0798335530609294,0.0536388908024538,9.941284782459746,-0.1648307325839625,-0.0295842974691684,1.1393120276842812,5.86925611721116,-0.6452504645818389,0.3857393875329062,1104.254289978015,1164.3659001869937,1118.764550574674,1129.766719789642,743.0242988325095,-248.08775180613452,-98.79207068488584,181.38649393145073,163.76801918684052
0.2124999999999999,-1.0288275467633707,-4.6941182148138,0.4789706133636402,-0.021688648202342,0.0932617545343115,0.0071108558810333,-0.0063176823327304,0.0146429018568305,0.0170538251677373,0.9997271747782256,-0.0772087116493625,0.0460616559484084,9.943571397482598,-0.1645975014309766,-0.0292232799203563,1.1397350508489532,5.868928275662812,-0.645297025187079,0.3885973295147003,1106.309198831399,1163.5164585888392,1118.6029443064883,1130.3196773229727,734.6216801211987,-374.03086331405535,5.152558958752702,181.22359414196563,163.7610301154969
0.2149999999999999,-1.2238113760982015,-4.368965031174704,0.625181458107844,-0.0255391654462651,0.0844172475711634,0.0101309796533303,-0.0063909718303856,0.0146807823209791,0.0170314409383696,0.999726481838337,-0.0735962130694734,0.0380170044318164,9.946007489711889,-0.1643329437106787,-0.0289531314380244,1.1401459744900495,5.868597755054994,-0.6453423147437907,0.3914552016889219,1107.927398378621,1162.4957458704234,1118.7903133694679,1130.672837760352,601.8289674405418,-465.19157034840606,169.23238829463102,66.36850264198978,163.75520625413137
0.2174999999999999,-1.3176747268714584,-4.032778354149319,0.6543155365121519,-0.0303657564794447,0.0756492969041943,0.01333239301292,-0.0064846232831034,0.014713145661016,0.0170214263389662,0.9997255166514528,-0.0691018432309606,0.0297583404804891,9.948687859444517,-0.1640422976201746,-0.0287520267072293,1.1405419302945679,5.868266261567728,-0.645386672438215,0.3943164744369634,1109.3183436686015,1161.1905007370972,1119.4491062479615,1130.6515198361826,508.61997406136607,-558.7591832173072,355.5426585189704,-101.32529275474543,163.74939401503016
0.22,-1.3155370949827907,-3.665302765675412,0.5895479210084364,-0.0353164812237101,0.0665217919701219,0.0158912146350629,-0.006591431990443,0.0147415163209319,0.017023958071461,0.9997243013122472,-0.0637539957526328,0.0215137533164821,9.951719209710799,-0.1637192497168014,-0.0285984427007426,1.1409214984018996,5.86793506638662,-0.645430322594919,0.3971835584852968,1110.470498248928,1159.701949954337,1120.5680266620627,1130.1662112965782,402.26126102970704,-623.8993535353524,562.0984921002669,-320.67841115444907,163.7435992927008
0.2225,-1.2099577688994572,-3.2236669157428794,0.4359423998377637,-0.0393758047313917,0.0569585551006353,0.0174005429459333,-0.0067019318559592,0.014764337286102,0.0170411367081582,0.9997228854941648,-0.0575472315748438,0.0135316382581055,9.955215694872871,-0.1633515653567739,-0.0284646846967912,1.141284593627009,5.86760534988286,-0.6454739904886616,0.4000559393673837,1111.3296499737503,1158.0710039694204,1122.2595987084628,1129.0481277804104,318.43062717939546,-730.7619076754228,861.6606378467615,-619.4482339950349,163.73783462041104
0.225,-1.0062921761064587,-2.575611290435692,0.1926262993127694,-0.0421379798144547,0.0460943061002924,0.0182396393687115,-0.0068148188646288,0.0147810958267699,0.0170694782871655,0.9997213435443562,-0.0505280092328731,0.005875603365919,9.95929608661198,-0.1629306288396744,-0.0283428866378511,1.141631115287633,5.867277261729377,-0.6455188124067553,0.4029314115338495,1112.0626513848251,1156.0481404159596,1124.8763298512963,1127.068970126603,227.24705888408587,-741.4463804229392,1032.9719383550118,-791.7160249371129,163.73096254799896
0.2275,-0.808322745233395,-1.9385432964948703,-0.0257879325097163,-0.0427598582470647,0.038829894495649,0.0182645154137802,-0.0069335527203239,0.0147901905631241,0.0171026807458826,0.999719784079087,-0.0427468788546124,-0.0015086596690487,9.9640786724548,-0.1624465427164265,-0.0282367739117039,1.141962368171685,5.86695015011015,-0.6455649479445397,0.4058085625937475,1112.4658852681707,1154.3637720673055,1127.4244584002379,1125.0895476557248,125.73402490293108,-666.3887681022965,1055.6070574329615,-791.1488855677355,163.72528112882435
0.23,-0.607566120893472,-1.235566577831416,-0.2228301861225684,-0.0426459981156945,0.0344797833376237,0.0175156766410638,-0.0070565906104786,0.0147989323805536,0.0171379603439729,0.9997181582359432,-0.0344488400784322,-0.0085955903554063,9.969674628575712,-0.1619108814921809,-0.0281373945277535,1.1422786880732407,5.866622508643964,-0.6456123146110968,0.4086858723307412,1112.6913215093396,1152.7161965754483,1130.1543651384611,1123.1132256987644,62.14534646419446,-716.4989753459388,1193.5555301136887,-782.2401026312028,163.71965495305608
0.2325,-0.3591039701046508,-0.3819336832859699,-0.3977822876981016,-0.0429642688141962,0.0326570154318747,0.0158389121285102,-0.0071762999307997,0.0148197996455159,0.0171714405663589,0.999716404614142,-0.0259957289697614,-0.0152561884953313,9.976184798935247,-0.161348096127294,-0.0280224534778146,1.142580765237322,5.866293791638361,-0.6456608070200622,0.4115623011641311,1112.7766120004917,1150.781277190576,1133.3922360508063,1121.1783471425688,1.606429598814428,-705.5013390068773,1150.1094200044452,-582.800993536693,163.712976421407
0.235,-0.123670228807516,0.2879318394175861,-0.4731435107180668,-0.0441448224853751,0.0334737309881471,0.0139867254245531,-0.007289728208037,0.0148638913679746,0.0172020421807696,0.99971440400207,-0.0177338906766404,-0.0214730343923242,9.983697606230663,-0.1607814501139522,-0.0278804219569699,1.1428709478428392,5.865965077584613,-0.6457099512115794,0.4144379969849965,1112.6993536573339,1149.188689880414,1135.9049122384836,1120.199220731081,-58.18029890356224,-634.3461987297353,942.5326014415523,-219.39127622067625,163.70747814318148
0.2375,0.1701504847679227,0.8672209319290268,-0.4648645982046046,-0.0460457176731102,0.0360656828994537,0.0118694381687897,-0.0073966159706018,0.0149289881480385,0.0172279994993086,0.9997122224778032,-0.0097508672115243,-0.0273008390202259,9.992284774288159,-0.1602057963361761,-0.0277077924229135,1.1431569364758591,5.86563793516674,-0.645759482575435,0.4173133168745618,1112.4857105059739,1147.609546196927,1138.104899058014,1120.0813907614652,-112.76319482990453,-684.0238791913212,885.4186172503017,155.87050548742883,163.7020571728832
0.2399999999999999,0.5969092570763731,1.4251573732825296,-0.365143624909451,-0.0475677609700637,0.040647564157571,0.0095964246413625,-0.0074838979418848,0.0150084582869797,0.017250149529979,0.9997100332029004,-0.0020411488212109,-0.0325508057023775,10.001995729565175,-0.1596075770116134,-0.0274724895650163,1.1434496006410169,5.865313561636376,-0.6458075295394407,0.4201875664503183,1112.1355376831843,1145.768570484457,1140.332005324735,1120.978573258518,-126.85768836190678,-652.8462493819492,749.5187958551049,481.3546937434261,163.69565012175968
0.2424999999999999,0.9898116818042728,1.767639146553442,-0.2255458075872363,-0.046822658702293,0.0451792116217488,0.0082672208651691,-0.0075428850457377,0.0150941593329716,0.0172720919375913,0.999707953385429,0.005435221222842,-0.0371283884393469,10.012856603254624,-0.1589720558900249,-0.0271531311066077,1.1437607225068027,5.864993385626603,-0.6458529555721952,0.4230599891095271,1111.8514220641644,1144.3453149500176,1141.8524930372896,1122.4881642301823,-84.7223823384865,-524.3532984664394,546.8164731758857,710.9601829100932,163.6903990221468
0.2449999999999999,1.364683182303759,1.9884511112996048,-0.0615762420410457,-0.0431907411364526,0.0498604444751254,0.0078476150471224,-0.0075711310798151,0.0151784518687768,0.0172944199667689,0.999706101398309,0.0127152098027701,-0.0410641910067854,10.024868434056591,-0.158287517101828,-0.026744760715531,1.144101888196707,5.8646786496044445,-0.6458956751339304,0.4259296390368783,1111.711925771492,1143.1468039921251,1143.0660876906145,1124.5333741730683,-11.332552389876572,-425.33781870820314,442.2725811676624,857.5412138382026,163.6852469456512
0.2474999999999999,1.6788765440232811,2.1185663927783924,0.0922389079029447,-0.0377497397382746,0.0545205967722891,0.0083113961317107,-0.0075662871630976,0.0152645730521005,0.0173169819710605,0.9997044442613304,0.0196312073914798,-0.0443839343811125,10.038006500053532,-0.1575684202828984,-0.0262434714773946,1.1444811293434538,5.864370297963105,-0.6459356322358512,0.4287953446772992,1111.7947593022147,1142.2186258564764,1144.063855943128,1126.7758702993735,103.10439608665538,-292.47379449780027,355.49103354883266,884.8400509691592,163.68018264860328
0.25,1.8842357686774387,2.151199802785027,0.1998194367271861,-0.0314737661479324,0.0593417655553859,0.0095141274010898,-0.007526897278104,0.0153581765562469,0.0173382692896236,0.9997029338786296,0.0259822717976665,-0.0471229213102747,10.052220929584868,-0.1568354830017164,-0.0256485210577135,1.1449049951973111,5.864068582728942,-0.6459729896436031,0.4316589706995473,1112.2274477519252,1141.684435019636,1144.8435428583587,1128.9575744279143,273.5337959322803,-142.9867054328496,300.89396851344617,882.0686029764139,163.67523107660273
0.2525,1.996575440786172,2.087783739593726,0.2446321449770771,-0.0242390399112455,0.0654625185457874,0.0112167274577551,-0.007458361884704,0.015460401761207,0.0173579048515064,0.9997015230397582,0.0316735244408,-0.049445667002565,10.067437767231848,-0.1560994760240855,-0.0249754137309715,1.145379871149344,5.863772981346349,-0.6460085221954711,0.4345238360850421,1113.1624282818764,1141.5036923293123,1145.5683257856952,1131.1862133142556,399.0370844432615,-2.4295241409618007,234.76012560272443,719.2397168892505,163.66942827657573
0.255,1.996299359978316,1.9550746565746215,0.2013271528541571,-0.0189579116967526,0.0705821693531826,0.0126172204533897,-0.0073699426906107,0.0155657228360745,0.0173720477971926,0.999700300776126,0.0367611597695247,-0.0515822692717286,10.083560248358877,-0.1553553795597911,-0.0242503011107754,1.1459126050665485,5.863482719261383,-0.6460426153257963,0.4373912749001279,1114.2226331741415,1141.6722873989313,1146.0173434863723,1132.5537730123604,454.0276492532026,107.06849936673268,150.54979869441908,422.6455908284148,163.66471467701763
0.2575,1.9357064851102035,1.7487937606439208,0.0764811756913847,-0.0146102736757346,0.07554412210221,0.0139490476475777,-0.0072722788374681,0.0156636082664037,0.0173810110530019,0.9996993519834904,0.0414222003840154,-0.0537785205504189,10.100471111734848,-0.1545857942990762,-0.0235020918565773,1.146510216066486,5.863197339330386,-0.6460752829454462,0.440261235163517,1115.4325665281424,1142.039034826146,1146.3210747791672,1133.2994412683977,529.366186411016,174.65587439883151,102.0742016897656,179.28138076290435,163.66013481589962
0.26,1.8382193733698833,1.4358941527172648,-0.1453328017649593,-0.0102229355359966,0.0809976745389094,0.0149719797303725,-0.0071795062323787,0.0157520603788457,0.017386953350367,0.9996985677210172,0.0456792519444647,-0.0563314210444876,10.118036870088304,-0.15379155900251,-0.0227674478161375,1.1471758075295975,5.8629151489591855,-0.6461069343646714,0.4431343903979255,1116.8694641061963,1142.5455667709255,1146.527714494821,1133.450179916175,502.0765678040784,181.22302866013325,51.16068808465566,-56.76905034601982,163.65480138593531
0.2625,1.7607452335590288,1.1442996747053018,-0.3602344694916133,-0.0070419347306968,0.0845344713628293,0.0147486497666875,-0.0070976371692028,0.0158314992659741,0.0173889420627476,0.9996979123889213,0.0495246959999504,-0.0593527684217249,10.136110476969476,-0.1529769287866961,-0.0220657278311973,1.1479113055242387,5.86263397276677,-0.6461367779211272,0.4460095656254801,1117.9429493671628,1142.9451499694467,1146.5768782195903,1133.0155960166676,391.0159371104325,153.97113108447215,-1.4736394618921609,-255.9587671709776,163.65049764961526
0.265,1.699803217948138,0.8586805821965688,-0.559956764065648,-0.0038790553637571,0.086592305320458,0.0132058642745995,-0.0070303979056428,0.0159060940809794,0.0173891888280056,0.9996972544545693,0.052890199478856,-0.0628873336334833,10.154535340198917,-0.1521531326582795,-0.0214106048983957,1.1487168667896255,5.862351901330034,-0.6461636856660709,0.4488853867440289,1118.8245437917487,1143.3154224263478,1146.5203462975117,1132.1703860803202,351.94486511554686,178.29125912667203,-40.0385036972693,-405.5584606655881,163.64634630112116
0.2675,1.6385418968434329,0.5681981146289317,-0.7290654776205012,0.0002358478084427,0.0876880097719664,0.0103397918126978,-0.0069774517747314,0.0159757258644027,0.0173909738210871,0.999696540434141,0.0558075641468034,-0.0668779924939472,10.173148098093678,-0.1513201400439666,-0.0208067175675814,1.1495933302737205,5.862067909256729,-0.6461872578837855,0.4517616990331785,1119.7026736927403,1143.83660626508,1146.376685701104,1130.9878037133396,313.6046887547306,231.22998354674544,-56.50833743320613,-409.43287664663296,163.64154781722004
0.27,1.5815222984652089,0.3951653947063712,-0.7814612195569479,0.0040137656686611,0.0878963714474914,0.0075358898754063,-0.0069354502886864,0.0160450271353817,0.0173936467959321,0.9996957295948624,0.0582220810865414,-0.0711814628865554,10.191783423596789,-0.1504879124459026,-0.0202527189553876,1.1505391860537355,5.861781688508053,-0.6462070965596202,0.4546396582198333,1120.3925672355224,1144.4715723440816,1146.2378046103456,1130.123221697087,305.9963600052012,330.49801286765586,-48.95854542546654,-262.47196980989406,163.63770658717988
0.2725,1.494325083193595,0.3095678022718028,-0.7221059948307433,0.0081933115370618,0.0876613654045925,0.0045084947438098,-0.0069033296661797,0.0161146635406361,0.0173961851303345,0.9996948355745068,0.0601665461700892,-0.0756818034769566,10.210276719096607,-0.1496573469498453,-0.0197524983328644,1.1515528019410344,5.8614950866534015,-0.6462233490137667,0.4575203554999523,1121.2326554927663,1145.4890963294183,1146.1318929739768,1129.67544386429,392.1905909527592,488.7909025518179,-31.01719297173983,-79.54303087685723,163.63403439314763
0.275,1.366627542386886,0.2957302895975659,-0.5691128674298696,0.0124347814958745,0.0873304782299134,0.0015675859675168,-0.0068826497638047,0.016186425642086,0.0173994949492539,0.999693802192024,0.0616564122977636,-0.0802993766096004,10.228468071918046,-0.1488325888534521,-0.0193147796785915,1.1526308426785987,5.861210850399133,-0.6462361485074313,0.4604045425903097,1122.353520190286,1146.9155268568406,1146.0827186454867,1129.7255065427028,544.4338155792134,671.8316217663863,-3.8353726271907327,150.68303866182745,163.63050615525992
0.2775,1.1814236512285998,0.3516571097855585,-0.3217536229255704,0.0161699787922112,0.0874857273648429,-0.0004764796716792,-0.0068699436097255,0.016267790489307,0.017405547122863,0.9996924944396188,0.0625973112099873,-0.0848358385263395,10.24620617487907,-0.1480314684674069,-0.0189351512562195,1.1537673688134056,5.8609308521304815,-0.6462464800091263,0.4632935954256985,1123.9548245706624,1148.8482544382503,1146.112716110841,1130.4288590575993,827.3084262563763,941.8073359654945,26.493644048423423,436.23570436984625,163.62715556561005
0.28,0.8963066595619137,0.4623305177365956,0.0376951146940365,0.0195577834707287,0.0889412305880083,-0.0010021771922304,-0.0068626237385144,0.0163614033309946,0.0174169311174698,0.9996908358975845,0.0629965568728748,-0.0891019684198942,10.263349742507907,-0.1472613946122741,-0.0186099592017984,1.1549569373147253,5.86065592242579,-0.646254894989049,0.4661876027669016,1126.490062321568,1151.624563536668,1146.215186865729,1131.906685064552,1018.253909524582,1058.3830614228636,40.49723828452439,606.6850449243697,163.62334486111124
0.2825,0.6163300371630507,0.5613799178160613,0.3479438120218551,0.0214086823822666,0.0910642837437858,9.613822594051763e-05,-0.0068592727678676,0.0164693041644592,0.0174319537916245,0.9996888248817744,0.0628753512359054,-0.0929246893555179,10.279770272290722,-0.146528688926005,-0.0183378794051027,1.156193617180317,5.860385224180172,-0.6462616427606707,0.4690851081261256,1129.0460941182855,1154.1401697453643,1146.3152023022635,1133.4622842822212,1073.6874686678664,995.1415974339843,32.249561041680835,628.2037667621802,163.62034721132997
0.285,0.3072253698391656,0.64234686790466,0.6248978661325597,0.0224275661968073,0.093554905472196,0.0021403303304046,-0.0068623393789644,0.0165910148770012,0.0174489829251121,0.9996864719087406,0.0623065250145678,-0.0962106802881868,10.295353316409203,-0.145834052308032,-0.0181249896116562,1.157471635769766,5.860118087118529,-0.6462667204384257,0.4719850201121177,1131.8584996649074,1156.600271523838,1146.3764346709374,1135.047703898363,1228.709321338373,1006.8987367215404,10.48869560509046,642.7419155657839,163.617537227416
0.2875,-0.0803738878027096,0.7101618693162259,0.8833324645090908,0.0230222974779077,0.0964728835165257,0.0052560894615413,-0.0068744065766349,0.0167271948899175,0.0174660930408659,0.99968377279005,0.0613393590137993,-0.0988741154905991,10.310000208424896,-0.1451806187850184,-0.0179759502721983,1.158784484131644,5.859854477854173,-0.6462697454420779,0.4748883491779952,1135.1896407249772,1159.1746634289723,1146.3676457802887,1136.67599386005,1160.6548932614376,840.8564468015898,-16.47391154715495,527.0423422803614,163.61438499969466
0.2899999999999999,-0.4036322410616361,0.7492654988032444,1.0228061152116268,0.0230254370879826,0.0986170699290759,0.008235030446846,-0.0068993400444955,0.0168793613109142,0.0174805951932875,0.9996807141216288,0.0600030546494112,-0.1008658380346379,10.323628507797231,-0.1445731669224918,-0.0178966426601962,1.1601249697904283,5.85959546160418,-0.6462722649164696,0.4777978574885792,1137.6617741312143,1160.804553757846,1146.2940651132017,1137.6829156097647,870.3466169246074,511.3174505042986,-35.58369646061728,332.9543894471078,163.61194288272426
0.2924999999999999,-0.7044946165836276,0.788982459422691,1.0790428440845488,0.0221626138259991,0.1002446062942341,0.0112310022677051,-0.006938770503038,0.0170515806110235,0.0174917935200767,0.9996772213031344,0.0582712865371307,-0.102106988557602,10.336172317839212,-0.1440217362815379,-0.0178851641046541,1.1614851421329948,5.859341078523296,-0.6462759271427134,0.480715877388699,1139.5413738096004,1161.7312506814935,1146.1897272979859,1138.3407658072856,650.8523246016915,233.44359572211013,-37.655291257033205,246.1746568350916,163.60969379962847
0.2949999999999999,-1.0026447406198216,0.8610541646774033,1.0576505491718846,0.0194830472592717,0.1016520769225056,0.0145469537361996,-0.0069927697500036,0.0172487400559074,0.0175013861227302,0.9996731772572028,0.0560955315879357,-0.102508573220957,10.347581284930223,-0.1435373932789963,-0.0179334954805142,1.162857363334674,5.859090368349236,-0.6462818218209503,0.483642429021621,1140.916035754223,1161.9717717364565,1146.1057886569165,1138.91378889394,352.2093980328915,-44.2051204061499,-10.321229758892503,213.16131531502813,163.60721820208556
0.2974999999999999,-1.1695422696009168,0.95167281056335,0.9759130530396352,0.0158928035596908,0.1028143759373374,0.0169155842132354,-0.0070582743008825,0.0174754827592103,0.0175114229968713,0.9996684874724376,0.0534256471991462,-0.1019424936283087,10.357819201486889,-0.1431294542407325,-0.0180246905444607,1.1642354237875057,5.858841785013712,-0.6462905620429885,0.4865759349990114,1141.3024207997648,1161.5102250794628,1146.1381211491914,1139.4065723838607,21.092373485771517,-284.0614955882754,50.546566686307365,244.81459583766969,163.60534030667728
0.2999999999999999,-1.2270190910416785,1.071269943059366,0.8410303798028947,0.011748104866233,0.1046448034805329,0.0190478554882641,-0.0071265050585429,0.0177260489794646,0.0175247692532106,0.9996632610079816,0.0504198758983418,-0.1001952628547762,10.366861165493056,-0.1427816782734866,-0.0181275664958372,1.165618164853247,5.858594098839417,-0.6463021301940233,0.4895132280478705,1141.0214976216519,1160.5514642585151,1146.358521490348,1140.1378618731285,-185.9783546070956,-426.64375850385983,129.40362674089545,353.5895016023911,163.60365207966132
0.3024999999999999,-1.18934469034143,1.2026977258328533,0.6712708859917436,0.0078640524235401,0.1072767864678086,0.0210304944561165,-0.0071909483738359,0.0179932360961881,0.017541620793345,0.9996576661220196,0.0472552333047755,-0.0971308550188086,10.374692207277416,-0.1424734463544694,-0.0182162246565097,1.1670068223567711,5.8583472368840805,-0.6463159728527178,0.4924505744301618,1140.3725290267291,1159.3770062869437,1146.785139282896,1141.1745198918727,-290.7348120230378,-471.186161875266,226.3511749304596,491.6685368423709,163.60211833975438
0.3049999999999999,-1.0486026330977816,1.3287154255416866,0.4715879678514381,0.0046829656979693,0.1107284136755045,0.022708506524783,-0.0072448649529786,0.0182734688164134,0.017559063916117,0.9996518681863474,0.0440219356965821,-0.0926387285034897,10.381305971589189,-0.1421917336878055,-0.0182645498838072,1.1684034432194417,5.8581004175026195,-0.6463322743033467,0.4953862450377866,1139.5678235615367,1158.1955334491388,1147.4902773650003,1142.5962045573403,-316.42322538682464,-463.889677544466,369.8568561538192,689.444360515608,163.6007663512619
0.3074999999999999,-0.7897006074101764,1.4524129210550256,0.2180040303692997,0.0017581154258636,0.1152810595897056,0.0240951282925163,-0.0072830888080743,0.0185535138352898,0.0175742085292371,0.9996461952982612,0.0409980065035382,-0.0866777850708517,10.386701688189884,-0.1419005255786802,-0.0182506207099467,1.1698139360526567,5.85785340732057,-0.6463511969862824,0.4983203714825781,1138.7904128997952,1157.0575578992211,1148.6344235636648,1144.6217416944507,-211.57363277288803,-339.6736132750445,454.29894740132073,762.5041725049408,163.59934675676635
0.3099999999999999,-0.5254783179817343,1.5234334410618793,0.0148104313621174,0.0001096473160885,0.1190130565242234,0.0245259070485363,-0.0073061519166158,0.018822210840849,0.0175866082940736,0.9996408577162682,0.0384046548940712,-0.0793581126972897,10.390884528918974,-0.1415687551463901,-0.0181657460047713,1.171243761699745,5.857606427066122,-0.6463725354124109,0.5012544600267057,1138.5099553976722,1156.4971653827636,1149.7617721020067,1146.408725419865,-10.664711491881452,-123.4696117567181,456.2540791211628,690.9740503489951,163.59832636545124
0.3125,-0.2448515823518778,1.5559832225819297,-0.1525092790690869,-0.0007498854554951,0.1226178004021731,0.024079520406313,-0.0073141308178087,0.0190657409852405,0.0175965206825607,0.9996361148606452,0.0365072219245475,-0.0708119603606719,10.393865463307828,-0.1411593325130098,-0.018001132949784,1.172698806373488,5.857359661545164,-0.6463956813027847,0.5041888982908407,1138.7370893423358,1156.4402098404375,1150.9156939592708,1148.0766119461955,208.63920491683507,93.53574404326528,469.2798155015676,666.9836004735312,163.5974662106017
0.315,0.0713835259941006,1.5458836273376844,-0.2814214814163157,-0.0009440898632079,0.1268983536346197,0.0226549011926455,-0.0073083926817651,0.019268633730148,0.0176055438307695,0.9996322308756128,0.0355950400071496,-0.0612265040921056,10.395662097302974,-0.1406319135729737,-0.017752174370116,1.174184415421692,5.857113445240886,-0.6464200709634129,0.5071241823163478,1139.5531514222564,1156.96484410298,1152.1081711795148,1149.7436434222327,361.2432950709714,281.1816697193533,375.0235860364224,542.0421542239633,163.5966093076239
0.3175,0.2895074707708255,1.4916360123095072,-0.3132763729314304,-0.0003859416332543,0.130405844033109,0.0210903824823045,-0.0072890272665152,0.0194251695465764,0.0176175334030963,0.9996292537920006,0.0357473744731476,-0.0507823718934435,10.396300964583329,-0.1399699165845916,-0.0174120364373143,1.1757017760607795,5.85686852864877,-0.6464455602993294,0.5100612462612518,1140.5433058176907,1157.8461181890343,1152.7908118894527,1150.7868227173155,412.73823119331576,423.23909910564873,185.1654922218584,347.5702690059731,163.59603437990856
0.32,0.4283872490228823,1.3818832742346543,-0.2607154108040132,0.0010601867652495,0.1339850424072098,0.0195080549637371,-0.0072623581824593,0.0195433829853496,0.0176333896774155,0.9996269667284728,0.0367488769791277,-0.0398005221476158,10.39582009818474,-0.1391905504235707,-0.0169906982356178,1.1772461461887496,5.85662563053496,-0.6464717625056373,0.5130010086861654,1141.6168425782228,1159.081039598508,1153.033998640624,1151.4814947672623,440.9304617949597,593.7270240191532,1.508596250050685,243.73856289962507,163.59559611058026
0.3225,0.4740361149115228,1.1772053094439483,-0.1116214244443492,0.0039711583625236,0.1380826609283162,0.017859486128263,-0.0072316353587537,0.0196334594472069,0.0176535829090847,0.9996251410747335,0.0383374853309778,-0.0285482993846335,10.394270474032762,-0.1383175030093327,-0.0164932100499159,1.1788103030366315,5.856385090268333,-0.6464975389604982,0.5159447807874876,1142.7479581266655,1160.8147533091303,1152.7983548707032,1152.0055155318137,366.6579529045517,654.3177327961524,-162.09281730825737,158.8757767031437,163.59521973309927
0.325,0.403181158717284,0.9430406647442604,0.0630813105996758,0.0070174657329902,0.1410302761947187,0.0169548711235531,-0.0071959615045413,0.0197064010009001,0.01767822291672,0.9996235696643844,0.0402357472913733,-0.0172114163924264,10.391717930860509,-0.1373778800897757,-0.015917308330798,1.1803848947476379,5.856147443365964,-0.6465212850015079,0.5188932724137805,1143.4501323427455,1162.352628262489,1152.2235345540828,1152.2758736507783,227.74790538278447,611.360400800549,-281.70893952542406,94.61357850423147,163.59502493481827
0.3275,0.2373495185693407,0.6457597856880236,0.2503857776119408,0.0093060704456694,0.1433547855857758,0.017106517780707,-0.0071566205788429,0.0197697704067757,0.0177090738208126,0.9996220675334548,0.0422405085712365,-0.0060218034672548,10.388245148967107,-0.1363924772741697,-0.0152680607025744,1.1819594688366994,5.855913709625856,-0.6465417461975431,0.5218484825932296,1143.8866976535794,1163.871555313133,1151.389810173076,1152.4785834243348,142.20698739468375,594.0042461343177,-352.4345539849943,81.95150497217574,163.5949470764052
0.33,0.0286223883220853,0.3035428906660975,0.4113325695474472,0.0098268908381211,0.1449999786407761,0.0186008932038642,-0.0071156233028511,0.0198314100195092,0.0177470178567747,0.9996204543570036,0.044148241933962,0.0047812581186263,10.383953154662843,-0.1353843459482694,-0.0145546881410327,1.1835218376230712,5.855685031694759,-0.6465579233089798,0.524813715240249,1144.1611672797192,1165.3226494931605,1150.4613617841578,1152.6856311756392,92.91807972776942,561.4364606777593,-366.1020753016597,92.606662558046,163.59496174227226
0.3325,-0.1758691720243302,-0.0769098731642841,0.499827152009321,0.0082189092950558,0.1455454421054135,0.0212855725494498,-0.0070745285349657,0.019902780817624,0.0177907916861253,0.9996185185031944,0.0456878030918702,0.0149830232923604,10.378961602254538,-0.1343864192948825,-0.0137875695431063,1.185057941536352,5.855463052097677,-0.6465688994183721,0.527789730378789,1144.3512880522183,1166.6787376165219,1149.5592997965675,1152.941616737125,91.23995436543728,580.8765112253234,-360.47625085257056,128.8831303507776,163.595083018305
0.335,-0.3581917406950135,-0.549727162571849,0.4932879583092002,0.0052979114334714,0.1446302147933304,0.0244388376643267,-0.007036428727269,0.0199910879274243,0.0178394570083845,0.9996161149980786,0.0466851892828291,0.0243527207834919,10.373407103531447,-0.1334225708495089,-0.0129822858146095,1.1865549221778564,5.855248773460516,-0.6465740490354592,0.5307754941270814,1144.6173670515464,1168.2270320492871,1148.6589805298947,1153.330046827393,116.06848147748669,561.7148764176814,-283.5595391082277,156.66266936436827,163.59534592475478
0.3375,-0.4377513486740073,-0.9348657638204152,0.3939323146036116,0.0030140439179493,0.1426072392768635,0.0263770280172018,-0.0070073241735135,0.0200971312386321,0.0178897385007511,0.9996132443162438,0.0471068904838383,0.0326195267928608,10.367440656261984,-0.1325018490453112,-0.0121630529134541,1.188002633978312,5.855042916356928,-0.6465730464792269,0.5337690856323521,1144.9316304596057,1169.4873119986103,1148.1415021010266,1153.724930083947,145.5337170280471,503.9777041607063,-146.3842144774388,170.88832720942247,163.5956589238043
0.34,-0.444914989390119,-1.2867600826866898,0.2163301281056116,0.0013794889498349,0.1395841978353152,0.0274372713154497,-0.0069871045369253,0.020219733910045,0.0179376862003359,0.9996099983210108,0.0469709808208005,0.0396630275933287,10.361222162170511,-0.1316278053319333,-0.0113400964432677,1.1893935243538598,5.85484515647161,-0.6465656089757073,0.5367687391967771,1145.3450356366864,1170.7469205700907,1147.9270594575075,1154.18448846344,187.5856097923132,553.1617285840633,-16.459219176977044,209.3652951068632,163.59606519907283
0.3425,-0.3932831027068076,-1.6493923222359563,-0.0521028059942438,0.0001993833556057,0.1349174642958013,0.0277995779660794,-0.0069763172374751,0.0203545090697485,0.0179846942265577,0.9996064305605912,0.0463706830160215,0.0453706970387933,10.354916186576608,-0.1307950573359548,-0.0105238558188284,1.1907232919436923,5.854654047864406,-0.6465522244066341,0.5397724792664466,1145.8695585085673,1172.2531206415304,1148.0592060051415,1154.7717565594812,176.13196039869743,544.7147981714802,117.05947148006987,210.1390832589912,163.59665626644113
0.345,-0.3210607009388604,-1.8914641827825955,-0.2931760562262458,-0.0002691077229437,0.13032263194285,0.0274976055560047,-0.0069750725399347,0.0205038798562181,0.0180346808215793,0.9996024138500113,0.0452641443827206,0.0496662763541766,10.348686552138043,-0.1300123715834432,-0.0097219906618536,1.191988607047409,5.854467168129816,-0.6465347199688195,0.5427803156302631,1146.22569543868,1173.470494560948,1148.512356814908,1155.2351838797351,98.06402811736909,466.3571713922461,255.28920472074765,161.29648256041932,163.59723234461714
0.3475,-0.2399133792301729,-2.065195086792027,-0.516671653532212,-0.0004087226796542,0.1253640688891048,0.0265705289900737,-0.0069831993434652,0.0206709368404567,0.0180926636108231,0.99959779280311,0.0435985264206633,0.0525046898278631,10.342688929034447,-0.1292876907858509,-0.0089399139188881,1.1931889222353211,5.854282082579286,-0.6465151750756968,0.5457924638534469,1146.359878649154,1174.5849064984918,1149.3356520287455,1155.578238972283,-18.377915886776442,449.89124251951534,446.3372769742815,101.26167716539376,163.59789227076976
0.35,-0.1472892613258948,-2.1942020305875136,-0.721874761767127,-0.0003998152289481,0.1191877760878015,0.0244421367253108,-0.0070021740962732,0.0208532953934263,0.0181605223829334,0.9995925711626328,0.0414315611571054,0.053831096849014,10.337063706041253,-0.1286135201790217,-0.0081864166473116,1.1943281733840647,5.854096875148152,-0.6464954927536403,0.5488084630718081,1146.133805859246,1175.7199507735456,1150.7440431997795,1155.741492265562,-158.1707550446952,370.2730536343135,579.4947949360961,7.933359776825535,163.59877837684803
0.3524999999999999,-0.0780167161553223,-2.237058689587793,-0.8108420795323124,-0.0003494869789607,0.113853491989947,0.0217599418467333,-0.0070342824436987,0.0210517467923905,0.0182398569065107,0.9995866902245548,0.0387509626595499,0.0535984835942255,10.331929793118892,-0.1279878632947479,-0.0074708104799837,1.1954127046126355,5.853909739041659,-0.6464765960541503,0.5518268930324136,1145.5690248739306,1176.4362717666631,1152.233126003426,1155.6179057711674,-304.39548158351806,223.82075680320892,643.0675609883176,-104.2765497890752,163.5995936616189
0.3549999999999999,-0.0149711788249363,-2.2155331226833,-0.7890748357269652,-0.0003248779336519,0.1083928435412824,0.0184140842136024,-0.0070769768623565,0.0212642866645201,0.0183268796310405,0.9995802851556018,0.0355958558695368,0.0518828700738256,10.327376416090084,-0.1274003478699106,-0.0067910422565906,1.19645290245067,5.853719521009086,-0.6464582672875752,0.5548449617609987,1144.6118284513286,1176.8390545575617,1153.959381004721,1155.2201095166167,-438.330196168226,98.41027132483752,708.1092881780926,-194.83520352027864,163.60048721316187
0.3574999999999999,0.0474294526401573,-2.1438410801295915,-0.670311064866175,-0.000337705303386,0.1029590945542329,0.014963323622243,-0.0071178420576962,0.0214787824424553,0.0184124709212382,0.9995738639896544,0.0322087350785014,0.048982299826395,10.323456454827296,-0.1268152537252776,-0.0061222213791549,1.1974647839822443,5.853526840762505,-0.646439780832819,0.5578604467164194,1143.3773738930895,1176.9283231232876,1155.7736724443164,1154.643729753566,-537.9929451006315,-48.282363183216106,711.4641267088692,-249.81847402709693,163.60144485824887
0.3599999999999999,0.1151501185997321,-2.018412401803225,-0.4519432057533027,-0.0003743313723417,0.0976177318411855,0.0121921542915655,-0.0071498689457599,0.0216866326734938,0.018492275740657,0.9995677323175428,0.0287509684550993,0.0450994483875124,10.320188117079647,-0.1262056397516245,-0.0054508210027299,1.198465529314428,5.853332488845581,-0.6464198383180759,0.5608702482368692,1141.9218637258255,1176.5976427416456,1157.5167016382654,1153.9710171464812,-652.4008849899923,-242.46547965117287,697.5253886582317,-277.72148405069834,163.60247919738424
0.3624999999999999,0.2074064753321041,-1.8207500452378225,-0.1272317380772266,-0.0003641685728986,0.0914373770897844,0.0109438189003617,-0.0071735548794196,0.0218815394879304,0.0185646768013607,0.9995620465086312,0.0253273539719056,0.0402976430873132,10.317553494411964,-0.1255512300490664,-0.0047804261467288,1.1994727515207744,5.853137949599458,-0.6463981585067202,0.5638731304919201,1140.1153694681395,1175.7159957250317,1159.2612993876076,1153.2551223333123,-641.024269622812,-394.9448471192678,543.3472582311873,-217.00615865602208,163.60380878663076
0.3649999999999999,0.2926442345477952,-1.6344701258464396,0.1447227524436399,-0.0002092201964481,0.0867757420255554,0.0119431983519042,-0.0071865460769427,0.0220614105136651,0.0186274818189182,0.9995569072060724,0.0219513508925839,0.0347156927648591,10.315496472782854,-0.124843080703022,-0.0041075147109024,1.2005028556177892,5.852944150038687,-0.646375469880156,0.5668695308591609,1138.7167423777112,1174.6229185060492,1160.2334379294211,1152.8859863532011,-502.7698771586979,-491.7469435260041,251.4699399072922,-73.79111922668919,163.60499056848363
0.3674999999999999,0.3788216406447577,-1.4560538682041384,0.3631067893982474,0.0002648870798249,0.0832092606476634,0.0141956408712967,-0.0071866814715905,0.0222236913093187,0.0186799919056753,0.999552401646183,0.0186433550166548,0.0285009247653429,10.31392578774141,-0.1240728683882807,-0.0034286098817656,1.2015707501733313,5.8527519491144915,-0.6463520484403811,0.5698611726405776,1137.601520082346,1173.2572610074017,1160.518649087144,1152.886166737179,-395.4606356154724,-633.4351813999086,-56.17991745439208,93.24560642216957,163.6062495139309
0.3699999999999999,0.4662934219833954,-1.2903890769637367,0.5269991830346614,0.0014200288749359,0.0804207737527322,0.0170583751143559,-0.0071746226759523,0.0223623417352643,0.0187228574184255,0.9995486526305803,0.0154947184311738,0.0217527016043654,10.312720141742464,-0.1232259258705756,-0.0027469150078891,1.2026892906780573,5.852562795365398,-0.6463280723106409,0.5728501508991629,1136.739439199634,1171.4557425990497,1159.9525383421494,1153.352214385312,-225.21290856902831,-663.112565125038,-357.7707592264684,235.55992989263336,163.60785062188506
0.3724999999999999,0.51075626797762,-1.2139958629113758,0.5759505844558414,0.0029855079925379,0.0788867054104898,0.0191376937322427,-0.0071558928848729,0.022472926239628,0.0187576511590105,0.999545696119711,0.0125647667253517,0.01448146681643,10.311735130978136,-0.1222935878137558,-0.002077283146698,1.203867017978856,5.852378427397118,-0.6463038873997994,0.5758393420041925,1136.475455539501,1169.9416981817765,1158.7297952910117,1154.0639663866423,-11.915688669296276,-579.3737215473351,-620.7003871542378,316.90923623023053,163.60926132766045
0.375,0.5106917635589125,-1.2069072310201434,0.544394418078047,0.0051194086284039,0.0773369524150465,0.020800420896555,-0.007135185400327,0.022559393833395,0.0187875381306802,0.9995433550128912,0.0097463742798591,0.0067272915042163,10.31080994732215,-0.1212890976430081,-0.0014323002353333,1.2051059910182291,5.8522008365825124,-0.6462789722795393,0.5788315451967614,1136.6798607562876,1168.558873991313,1156.8490364063782,1154.9367605664631,179.04085076088433,-549.0029981281164,-925.1521457736536,366.8383366539725,163.61075287547203
0.3775,0.455659669321479,-1.2556305222509447,0.437151396903064,0.0077507015081012,0.0743419300859796,0.0223629419492017,-0.0071211974718,0.022629742585587,0.0188136929811323,0.9995413691810876,0.0068550873044022,-0.001540759785511,10.30977634973143,-0.1202370850314363,-0.000835033131172,1.20640270316901,5.852031340043044,-0.6462521890198619,0.5818305339963687,1137.370659793305,1167.196683191136,1154.1040345621432,1155.898158069912,303.0900066773481,-433.4361101909959,-1035.6908378984363,299.26000361788255,163.61263789273949
0.38,0.3752852135116152,-1.3149191551360797,0.310362469331508,0.0092409496501589,0.0706556387913982,0.0232519720151551,-0.0071199743038479,0.0226926420280632,0.0188384955479195,0.9995394600760514,0.0037045749024347,-0.0102915985915793,10.308466076538435,-0.1191644881175456,-0.0003025943316686,1.207749321159664,5.851869930077219,-0.6462217143512133,0.5848390128136239,1138.1953107896743,1166.391693440358,1151.670582216886,1156.4330605845523,343.86049744639394,-240.5766245909033,-937.0179377393459,125.38499795787163,163.61428923726135
0.3825,0.2853865423803498,-1.360894585229301,0.1697798256105506,0.009641726821698,0.0661493648657323,0.0235958844142562,-0.0071347730276159,0.0227519256673777,0.0188680114693142,0.9995374094291228,0.0002222495547023,-0.0194341878711087,10.306719188533748,-0.1180864849389781,0.0001545508392564,1.2091357648740335,5.851715255879117,-0.6461859214269021,0.5878580151605151,1139.0899622805373,1165.9938000681811,1149.4189448734467,1156.5250830597015,338.31218242426047,-88.15028721833177,-826.4987495090729,-45.72773003760626,163.61602550608478
0.385,0.2085268087085478,-1.3831489304992584,0.0350619172698468,0.0093823931711246,0.0614544674490416,0.0235134017005992,-0.007164579961726,0.0228070979207186,0.0189074539913001,0.999535144328124,-0.0035611908415769,-0.0287865788950391,10.304391539888142,-0.1170070458205612,0.0005358087399742,1.210550562185786,5.851565260076657,-0.6461439465944488,0.5908866414551234,1139.8868717017956,1165.9509420042664,1147.5380884693407,1156.2044219343643,259.1349829001499,63.93638068570903,-629.2587028159227,-217.9701662546902,163.61783317554537
0.3875,0.163428505024715,-1.3821393081198203,-0.0759595519273243,0.0087129756144628,0.0573801503702191,0.0229585714305559,-0.0072011691386314,0.0228574575554159,0.0189564834502013,0.9995327522002933,-0.007596417552608,-0.0380142285051716,10.301360936649738,-0.115928460006642,0.0008576658715742,1.2119808751910026,5.851417751086832,-0.6460961653431295,0.5939234899339894,1140.385637195038,1166.31348197161,1146.272651359367,1155.435232228428,113.60520165526384,236.8647420810246,-407.36449208893606,-408.95551956132255,163.61972806061766
0.39,0.147234207436245,-1.3816542292671452,-0.1686715434670252,0.0080458294135919,0.0538836598073345,0.0219974220227247,-0.0072343476515668,0.0229041335514209,0.0190104484984087,0.9995303762136686,-0.0118592308073318,-0.046741417194551,10.29753219069418,-0.1148564355049617,0.0011421079906547,1.2134128895283496,5.8512722858020485,-0.6460443904062678,0.5969685100278957,1140.454897710072,1167.1352657146715,1145.501266008896,1154.159644336558,-78.06861489211762,348.3582097717314,-180.40291989218517,-494.38183978800174,163.62210410179406
0.3925,0.1518510863696846,-1.4047971824022167,-0.2096429093334611,0.0081119027785166,0.0519237713004389,0.0211974719305265,-0.0072506743630851,0.02295027211408,0.0190607530739414,0.9995282100040142,-0.0163543784902107,-0.0545290681114686,10.292839460413328,-0.1138006339844835,0.0014204537478009,1.2148325540714284,5.8511293698326075,-0.645990090992235,0.6000210936108594,1139.9952941205775,1168.0552730204683,1145.370636759906,1152.963323029488,-291.58980820498044,392.306555757477,3.9732885039029457,-468.18504331722534,163.6241702387294
0.395,0.1489540073633063,-1.4651174938919127,-0.2170890803388362,0.0088945756844213,0.050142893109959,0.0205870954275181,-0.0072506501822268,0.0229978158278045,0.0191000932070013,0.9995263418657168,-0.0210562610669094,-0.0612364331787769,10.287247182291626,-0.1127677051478299,0.0016926180085223,1.2162269985907503,5.850989221002054,-0.6459357715777414,0.6030805755066447,1138.996948669047,1169.096798493459,1145.5211324514155,1151.8187191199715,-540.6852517537113,454.16291582059745,63.12273424632616,-458.51113673938886,163.62632704470204
0.3975,0.1077254293244717,-1.5638752085441432,-0.1967656034704463,0.0102929814273707,0.0469948601880326,0.0200972445549843,-0.0072405971199786,0.0230501086909678,0.019126213017784,0.9995246906678809,-0.0259605823660314,-0.0668582052166427,10.2807477474397,-0.1117672621155682,0.0019474842772182,1.217584585798531,5.850850996550066,-0.6458844369725507,0.60614677989399,1137.291867861809,1170.3260875995716,1145.6862504311375,1150.670767345791,-678.4979877314521,420.7959259744253,15.694019689863111,-371.87708096034805,163.6290219125858
0.4,0.0296846801996127,-1.637479642017711,-0.1623993758636629,0.0116554055257757,0.0429905263436475,0.0198418101332658,-0.0072261676783822,0.0231078193736526,0.0191446144896999,0.9995230955876676,-0.0309996312624448,-0.0713971598292778,10.273358825549291,-0.1108017300854717,0.0021785219639622,1.218896364556138,5.850714477562885,-0.6458373411772941,0.6092183610150219,1135.6044587303895,1171.200778123331,1145.5996025498648,1149.95933371517,-679.829681040564,284.05514516612106,-110.22136566980396,-238.21042223062227,163.63135817947995
0.4025,-0.0910241631973254,-1.6589435770571443,-0.1159183374555297,0.0129199721880195,0.0378027885347074,0.0196671373910895,-0.0072108953839533,0.0231643855634823,0.0191592037296759,0.9995216100096872,-0.0359517189051995,-0.074835267115633,10.265120223028147,-0.1098555086932002,0.0023848889547507,1.2201574141767126,5.850580048943937,-0.6457937568847371,0.6122932254306644,1133.892719456606,1171.746363325402,1145.1351436027887,1149.479715234638,-692.3162609436524,124.36313327398229,-290.2914150855392,-182.426860579926,163.6337906623568
0.405,-0.2554055918751045,-1.5896488690678547,-0.0495433951153433,0.0133430524617126,0.0312692649159506,0.0194850309318027,-0.0071954013898003,0.0232131621076627,0.0191738060974945,0.9995203148985234,-0.0405896913050629,-0.0771181330063713,10.25608935920562,-0.1089124591959468,0.0025733387141001,1.2213653644099192,5.8504482407725895,-0.6457525151083269,0.6153689878702244,1132.1428774256715,1171.8225937897007,1144.1481454744371,1149.0471994122704,-545.6804943617494,-91.81499315668579,-409.1975086861108,-159.16843171744387,163.63682382573603
0.4075,-0.3719468730289632,-1.4472027035697184,0.0135578586698102,0.0121796535348376,0.026233159827771,0.0193468435945556,-0.0071823492741561,0.023243352807877,0.0191913862271387,0.9995193868110248,-0.0446015927463205,-0.0782599838979164,10.246336578586291,-0.107946304703618,0.0027452750192376,1.2225211130887197,5.8503195115887765,-0.6457121759414289,0.6184436148019624,1131.164316984797,1171.2872883596187,1143.089156059358,1148.6838730760508,-253.8406775320252,-352.9151298277608,-422.6304587611135,-170.75436075797356,163.63944899366783
0.41,-0.4207148457808448,-1.235145461194069,0.0831745343934556,0.0095905271282919,0.0221327362687417,0.0192795904863789,-0.0071708403501091,0.0232572849632454,0.019210840751071,0.999518791253348,-0.0479449591778373,-0.0782219903014093,10.235938711952725,-0.1069626625768709,0.002910479746792,1.223624631724748,5.850194082683921,-0.6456715405127293,0.6215173011777387,1130.8736740380111,1170.058018140562,1142.0349931806315,1148.1934276084803,6.990604901420732,-603.7241287523551,-376.0424772004168,-225.62562469320235,163.64217848877405
0.4125,-0.3905386703858555,-0.9939952574534852,0.1553717129837723,0.0066443044599583,0.0190969763473701,0.0193775430523091,-0.0071623093276491,0.0232576838452752,0.0192282199712195,0.9995185231991024,-0.0505895257623514,-0.0770391790987625,10.2249747435551,-0.1059681843105459,0.0030721816887391,1.2246772474869985,5.8500725230855455,-0.6456299133323046,0.624591276617436,1131.1992700093044,1168.2686677158567,1141.208943673356,1147.5557449525847,262.33291412299855,-828.5668003876247,-226.127648133024,-285.1514684753963,163.6449969059698
0.415,-0.2646995836498305,-0.7618984618011188,0.2245669604490655,0.0044804998598167,0.0176823209355773,0.0198760645544709,-0.0071564817655754,0.0232455124428498,0.0192419835219787,0.9995185895965996,-0.0524730728772205,-0.0747402834107296,10.213521614766533,-0.1049647855511471,0.0032377052178127,1.2256816309962664,5.849954950532654,-0.6455865825435821,0.627664351799413,1132.1853386086264,1165.915184138624,1140.9043549399664,1146.7676702661036,535.1881000402553,-1118.9142545844902,26.8032579839658,-360.04263537788944,163.64792517656315
0.4174999999999999,-0.0344866350885227,-0.5465614497917435,0.295139054823553,0.0035988928995357,0.0176032793882825,0.0209520478580233,-0.0071511076247721,0.0232224123728881,0.0192524190774201,0.999518966179506,-0.0535537623373273,-0.0713403540956886,10.20165011716704,-0.1039553846501684,0.0034192610854243,1.2266408287764308,5.8498413400863605,-0.6455423601447807,0.6307370101184762,1133.8752105095057,1162.6740964429343,1141.342959963276,1145.755531775695,653.6132106721719,-1217.7825410088767,299.66103655911263,-363.23971778438494,163.65156879353873
0.4199999999999999,0.1881350030895299,-0.4430123450174692,0.3392893400926351,0.0043646135150774,0.0181025215201293,0.0219600528451396,-0.0071440266789672,0.0231956450433144,0.0192625054418393,0.9995194500333254,-0.053913851017245,-0.0668799672425843,10.189421116330216,-0.1029558744434446,0.0036293289574867,1.2275568292991113,5.849731028771748,-0.6454985519531902,0.6338109054477373,1135.4534046619872,1159.8262714335797,1142.402660122762,1144.9514716771816,604.4374219312425,-1124.9754462041428,541.9821776308249,-296.4562302734973,163.65471465039226
0.4224999999999999,0.4029088474013786,-0.4192792541347389,0.3676008095774857,0.0062564220879394,0.0183610144106637,0.0228219206248999,-0.0071353096228944,0.0231751931058416,0.0192752395134851,0.9995197585545104,-0.0537035574101064,-0.0614668730635034,10.17688336487946,-0.1019880200536032,0.0038747761151655,1.228430935356498,5.84962374998267,-0.6454560454168745,0.6368869151008906,1136.897397619162,1157.0492192119139,1144.05287085143,1144.2732506243278,543.9868754478989,-1165.8025779416207,798.7377566298156,-264.8758377103602,163.6579752411873
0.4249999999999999,0.6240172379192276,-0.4531231109194669,0.385370608714905,0.0087861238114795,0.0177650948822937,0.0237437327267901,-0.0071294882757942,0.0231578252065905,0.0192897807330019,0.9995199456933088,-0.0528205787900955,-0.0553232201011979,10.164073509803544,-0.1010403807802293,0.0041497977142651,1.2292669166242576,5.849519192861534,-0.6454151005753779,0.6399644766522083,1138.1733390392267,1153.9972585438716,1146.396348905911,1143.6270924886298,361.6191683934172,-1053.033953576777,859.4871405136009,-217.44567427676864,163.6620210003349
0.4274999999999999,0.7721550131474756,-0.4986484626764219,0.3873698066891356,0.0106279408726112,0.0162563970474481,0.0245669627022613,-0.0071259696758598,0.0231442765119871,0.0193067259893652,0.9995199780182126,-0.0512582207114454,-0.0485825389925811,10.15101313476976,-0.1001098136625139,0.0044608141088005,1.2300673631477117,5.849416906682197,-0.6453746824333473,0.6430432620339513,1138.7054934611288,1151.78404944403,1148.350306553998,1143.186022252944,86.8613114075287,-804.495428827203,706.079530297847,-177.3519721401497,163.66550307641168
0.4299999999999999,0.8851285924447642,-0.5198018768012016,0.3750150187270228,0.0122598727587567,0.0137058822492521,0.0256906977500615,-0.0071222785921812,0.0231359851928944,0.0193264040065574,0.9995198279301348,-0.0490420049389009,-0.0413530770162669,10.137708313007112,-0.0991936629552181,0.0048178414718232,1.2308342857671224,5.8493153083060045,-0.6453337357184302,0.6461233219601925,1138.6076455962643,1149.9747813997355,1149.9267465574003,1142.740332627929,-181.23692408153127,-699.7259480691804,528.7914889510371,-228.29905773537556,163.66909896660025
0.4324999999999999,0.981150905574288,-0.4861899734242676,0.3436758179430008,0.0144144863626114,0.0101158211581167,0.0272551331232748,-0.0071137893696742,0.0231342546482515,0.0193472029965864,0.9995195275661148,-0.0462140712752388,-0.0337082028162598,10.124149375044649,-0.098287873600982,0.0052347510388943,1.2315692008908956,5.849213213218213,-0.645292349620123,0.6492068546879975,1137.799308840721,1148.285419703684,1150.9942639987532,1142.044526964267,-391.9809812071432,-542.4340640978239,212.97815544003225,-303.3484075647263,163.67354369684406
0.4349999999999999,1.0233306148283554,-0.4087054214596392,0.3086019381009827,0.0167721146812757,0.0076287210341988,0.0282212473043294,-0.0070957863370823,0.0231433594885992,0.0193698386768013,0.999518997870134,-0.0428964870529706,-0.0257243638359307,10.11031093513398,-0.0973949805423561,0.0057248736464143,1.2322726284944967,5.84910932308991,-0.6452504941502916,0.6522956184025254,1136.6477406902286,1147.2626110792464,1150.9916373346005,1141.2235905901055,-526.6470782437405,-336.8118625044641,-208.7360471902228,-395.421955124311,163.67735420481145
0.4375,1.016419869499405,-0.3064457602119798,0.2753352883661419,0.0197092780684602,0.0064244990994547,0.0286079880847219,-0.0070607347079402,0.0231618634503439,0.0193966940818426,0.9995182801761044,-0.0391140144556401,-0.017424611063273,10.096152936618088,-0.0965031382273602,0.0063071252253685,1.2329461261960029,5.849003594436732,-0.6452076156044099,0.655389900649772,1135.1660734495026,1146.6013603911615,1149.950583762802,1140.0674171886455,-620.5325696321772,-211.3909883531958,-582.5294239771205,-520.1075550258788,163.68127399276585
0.44,0.9639986046395804,-0.2154040524880262,0.2514276543459469,0.0227938789923207,0.0063240736789851,0.0287576343765377,-0.0069997083242876,0.0231903292497819,0.019428343917274,0.9995174155547032,-0.0349503587998132,-0.0087988201706361,10.08162083341457,-0.0956059060831268,0.0070023438911306,1.2335912597052916,5.848897172974718,-0.6451628051877834,0.6584883887588917,1133.5450778420677,1146.2056561374804,1148.0789902147148,1138.623052814976,-653.012484047394,-103.04229421526534,-915.1126303652736,-634.118644676982,163.68528379772673
0.4425,0.8599697123323407,-0.1750061274381926,0.2424482618642766,0.0255435891737656,0.0073222232743277,0.0288730756956226,-0.0069129971558005,0.0232280306616902,0.0194641449445395,0.9995164318701482,-0.0304836301904534,-1.435829096506358e-05,10.066648519320724,-0.0946952311704303,0.0078070428504692,1.2342107748534294,5.848790667414341,-0.6451158129253824,0.6615866765761138,1131.9010110292656,1146.0861489200854,1145.3750206109755,1136.8968239652606,-701.9323838190752,-2.0048693187618465,-1313.4952686258644,-790.7394351855594,163.68940187866576
0.445,0.692161098648635,-0.212443520552162,0.2443597456972645,0.0280687686435604,0.0088370568043392,0.0291969010059502,-0.006803650689369,0.0232679621574127,0.0195018968068301,0.9995155125615948,-0.0256807685265135,0.0087175707709845,10.051160145441022,-0.0937492784635229,0.0087091398146717,1.234809548514118,5.84868431085552,-0.6450667176991932,0.6646823879411345,1130.0354159229723,1146.1956317908866,1141.5115138715855,1134.6693556390483,-657.0719653281225,69.23000767155821,-1459.4663059438503,-810.711573430762,163.6944689616845
0.4475,0.5345301912974579,-0.312802159994538,0.2476768212324003,0.0294513149693104,0.0093830834109476,0.0296674979385771,-0.0066822341450395,0.0233058884884403,0.0195414488982467,0.999514680926822,-0.0205773653772978,0.0170528883868622,10.035073083251412,-0.0927552364378342,0.0096772024843747,1.2353925478293104,5.848579407170502,-0.6450154695893783,0.6677747005141921,1128.615651202625,1146.4322989584432,1138.0776890812565,1132.8432660981068,-542.266773677829,103.97623422841198,-1344.3959763748796,-684.9246158786167,163.6987965613039
0.45,0.3811448466341177,-0.4580503973614382,0.2387097773454816,0.0302083385157385,0.0082919701095183,0.0303497121201227,-0.0065535358657367,0.0233339623907744,0.0195819419463546,0.9995140956542666,-0.0151406134843352,0.02478423113025,10.018299542900808,-0.0916932190731866,0.0106927247222173,1.2359652142168185,5.848478066164229,-0.6449617538783742,0.6708638462461403,1127.3240820545832,1146.7155129620287,1134.7895339897111,1131.2447325596552,-553.9167357727815,107.35087091111372,-1337.5490894244183,-612.484038153479,163.70323427020622
0.4525,0.223982909734709,-0.6427172050259923,0.1973391267155277,0.0306513043982138,0.0054834221550107,0.0314508380470625,-0.0064219867219929,0.0233406635875469,0.0196251951276839,0.9995139541499136,-0.0092654982813693,0.0317329633588719,10.00075106572,-0.0905362243748333,0.0117372603696907,1.236532801657238,5.848382061471139,-0.6449051902643546,0.6739511100797523,1125.8460675237611,1146.9690533129988,1131.3899436341344,1129.7808459073394,-543.3350722493738,59.7816091100412,-1113.8062155416255,-442.83787549088584,163.7086885781415
0.455,0.1267920986236948,-0.7835339522693296,0.1288836882032924,0.0307993304270822,0.0028934985172664,0.0325815900730569,-0.006292581482422,0.0233165610473428,0.0196705955250434,0.9995144526384409,-0.0028882965406087,0.0377373454079758,9.982343263618056,-0.0892643149341341,0.0127899038996669,1.237098715248543,5.8482929650800415,-0.6448453217748169,0.6770364953624655,1124.6074066933363,1147.014421007579,1129.2205029120028,1129.0305431822007,-506.8792014090373,-31.48063452254061,-703.0697679559574,-196.9309031404917,163.71334283189648
0.4575,0.072970212236937,-0.9013286685514104,0.0245390106824985,0.0308347183672435,0.0008150938158382,0.033715968090037,-0.0061680942791938,0.0232619767374201,0.0197165288444141,0.9995155946693022,0.0038663037614352,0.0427118163830143,9.96300090864499,-0.087882912320902,0.0138349475371813,1.2376626259934649,5.848210883751848,-0.6447808664070033,0.680119937984998,1123.311671516716,1146.811650140386,1127.8745947943546,1128.7961913916367,-579.8965370629497,-151.2131400147608,-404.9461259415235,-0.0001277905994356,163.7181119424255
0.46,0.0631767558878177,-1.0152488798542476,-0.1250621808275738,0.0307494267034391,-0.0013728226364015,0.034403210051424,-0.0060484316625547,0.0231862532198776,0.0197632759346153,0.9995171558464648,0.0107061746752515,0.0466581099319004,9.942664280249152,-0.0864202699832234,0.0148641119870259,1.238220229546099,5.848134615762116,-0.6447109207628193,0.6832017136440681,1121.7079240080216,1146.258355307505,1127.1957722822951,1129.0305425432475,-582.9507157442998,-249.33278531966585,-118.42432555554286,145.848812315853,163.72396957910752
0.4625,0.1011760022624949,-1.0838268516697382,-0.2458513096705209,0.030482278810759,-0.0034451063446787,0.0338024874883776,-0.0059347256463471,0.0231031110279125,0.0198096865252118,0.9995188334498066,0.0172657755738208,0.0495825473705393,9.921296653517405,-0.0849158238036839,0.0158662464946409,1.2387638198562831,5.84806237277464,-0.6446342058666461,0.6862821619664466,1120.3969179379944,1145.5649862137875,1127.282473166577,1129.5254354532162,-494.75587001606937,-311.5827043520764,116.75987011581118,216.14507747626683,163.72896452626415
0.465,0.1819993714792705,-1.1133874302279363,-0.3293138181287215,0.0299891177510138,-0.006207378603183,0.0321273149752277,-0.0058333369206312,0.0230226898792495,0.0198552818064771,0.9995203652962368,0.0232660402458312,0.0514112278520134,9.898891144682237,-0.0834002883167213,0.0168178669312744,1.2392834617031616,5.847992895943369,-0.6445513073273678,0.6893633530610516,1119.2341446579412,1144.7004417857447,1127.7795716328744,1130.111267930629,-420.96523686741375,-360.458910445686,216.47557265191588,210.88617987811608,163.734078851965
0.4675,0.286708403169412,-1.0996570518420523,-0.3635819663250487,0.0296716979206068,-0.0095207759156453,0.0301637489753259,-0.0057552977021125,0.0229533694264982,0.0198961050580589,0.9995215731720108,0.0284780533744668,0.052002394401321,9.87547566827019,-0.0819002381487767,0.0176848118966695,1.2397664878292238,5.847925941927725,-0.644464640042906,0.692448556749753,1118.2920917536571,1143.7626916615593,1128.3648510298365,1130.5798663526068,-305.6900292016505,-376.8227019002094,193.31618138107825,112.985524332771,163.7392931874464
0.47,0.3935033494934938,-1.0265547207183288,-0.3323232964218059,0.0302190365981585,-0.0129473079857459,0.0284517189766008,-0.005709593678831,0.0228958357509112,0.0199314945139876,0.9995224031158996,0.0328456175999715,0.0512706641635869,9.851114663793679,-0.0804227948174995,0.0184398162190289,1.240198457836418,5.847861659833736,-0.6443770365346552,0.6955408981635041,1117.7056945119327,1142.8163282762437,1128.7461525397798,1130.6761955522927,-167.70524462913255,-405.3727938296103,55.176971217133485,-91.24195073604815,163.74462921344218
0.4725,0.4793596475985449,-0.8764732462554559,-0.2303978055788418,0.0323356770826253,-0.0164522852217085,0.0271669691891344,-0.0056938730554324,0.0228449987420751,0.0199654638809906,0.9995229037730468,0.0364502060902108,0.0493649072464034,9.825908852953871,-0.0789598959273045,0.0190858903565271,1.2405630831972707,5.847800868016724,-0.6442895122987493,0.6986433338935565,1117.4535655305117,1141.7358276924112,1128.640735885922,1130.1236565989263,-24.798253004746563,-385.9334368127744,-161.24950094031175,-332.64323791850046,163.7511743402619
0.475,0.48622441792602,-0.7148658299884016,-0.1089740286737245,0.0350087752335076,-0.0185377388852835,0.0267567036283726,-0.0056931402276731,0.022795266166243,0.0199967874487111,0.9995233084162376,0.039402811123608,0.0466937733316543,9.799995654286032,-0.0775018523747667,0.0196586582153008,1.2408423516053968,5.847745489400495,-0.6442020843960445,0.7017571527573488,1117.5817032469092,1140.8866610921796,1127.9399050350783,1129.0129793627004,97.2995233990786,-338.3628160996065,-414.3770623600173,-577.2631599754726,163.7567475792299
0.4775,0.4096384683689648,-0.540521434277569,0.0267125459574913,0.0376104554678592,-0.0197368458351324,0.0268368806326458,-0.0056969505684713,0.022739526721267,0.0200251728425626,0.99952384219972,0.0418580238044023,0.0435781044567569,9.773551569051351,-0.076035309329975,0.0201839857991278,1.2410187954055247,5.847695908993193,-0.64411523186007,0.7048823759107044,1117.940063147507,1140.0440136119132,1126.568850574122,1127.2373407990492,170.41499201022987,-390.2014017244295,-733.0979046169962,-903.9058467647102,163.76244494485462
0.4799999999999999,0.2343484820293611,-0.3446469216171123,0.1804184976844274,0.0396045466213012,-0.0204080445587218,0.0272170508986917,-0.005708470625643,0.0226752802027764,0.0200525651244119,0.9995244986981158,0.0438895224369708,0.0400725941779869,9.746790209231213,-0.0745586112737952,0.0206555382926272,1.2410765992237636,5.847652237524758,-0.6440286421105972,0.7080162552112236,1118.4337782069604,1138.9356540835577,1124.2744155119933,1124.4934501288767,159.78060309721675,-441.143568653938,-914.6644928819208,-1072.320349661424,163.76942572589175
0.4824999999999999,0.0453280125587969,-0.207546576774951,0.2838639036780127,0.0400872802850272,-0.0205494648056956,0.0278012519905532,-0.0057244761077788,0.0226097597089486,0.0200825389137058,0.9995250519834143,0.0453976294785144,0.036356046738878,9.719951119503824,-0.0730932265237679,0.0210843301341161,1.241001703457013,5.8476137377344335,-0.6439411052780944,0.7111558047672749,1118.7389661629932,1137.8382957686435,1121.9955281097125,1121.875739050742,65.53888057314902,-497.10152316629274,-936.3209289016589,-1065.385795991414,163.77536309271915
0.4849999999999999,-0.1483544060936838,-0.1068456596736273,0.3423939014967794,0.0393018499587882,-0.0204770623270421,0.0289430093492548,-0.005739151445059,0.0225447573891608,0.0201182362562465,0.9995254320213603,0.0464016524390101,0.0326474161993165,9.693290241498367,-0.0716460984698251,0.0214881322164941,1.2407853920096592,5.847578984364982,-0.6438520250996154,0.7142983025542012,1118.761472609826,1136.450146467726,1119.592810867485,1119.1665211489199,-57.825104038920415,-617.7053426846663,-942.697482523453,-1059.6553287760335,163.7814248926011
0.4874999999999999,-0.3187564002825547,-0.0371375155673214,0.3516812944223099,0.0377231081733846,-0.0203398919980723,0.0305777663811511,-0.0057512965627679,0.0224732468121942,0.0201569016750767,0.9995258742729493,0.0470967064731153,0.0290641525116486,9.667070209857181,-0.0702017806963698,0.0218728893515481,1.2404257184560687,5.8475474378279015,-0.6437616286263524,0.717441660631754,1118.4498406427983,1134.7497690552202,1117.2820406970952,1116.577462406862,-219.60133823263257,-766.7387379389759,-861.0671795575846,-961.2875508242713,163.78758951380297
0.4899999999999999,-0.4408611466799262,-0.0001079258395007,0.296178981402732,0.0360697374511594,-0.0202029087786517,0.0324514880740634,-0.0057640981303427,0.022385313725146,0.0201919101190946,0.999526752141314,0.0477352724030558,0.025626151464116,9.6415489730805,-0.0687370324844635,0.0222338369625529,1.239926996997596,5.847518321502392,-0.6436713408214104,0.7205840238361437,1117.6634659186627,1132.616452778031,1115.287474969697,1114.3600833947985,-460.7247638462464,-1040.3535027699027,-764.6006837954694,-839.8882963878797,163.79387736985467
0.4924999999999999,-0.5223545509150476,0.017143827116214,0.1665527370310141,0.0345815664447806,-0.0200876465361528,0.0340878614555899,-0.0057839534054666,0.0222807807351466,0.0202143512287497,0.9995282700773732,0.0483820744287294,0.022281149594083,9.616968835208048,-0.0672520529891983,0.0225591628541934,1.2392981550747155,5.847490978229208,-0.643582194106138,0.7237219335486909,1116.146216823567,1129.5480015413707,1113.4590372781179,1112.3780209249223,-646.5764707889315,-1197.4280252233243,-559.5648482989412,-589.3133493154431,163.80156388975115
0.4949999999999999,-0.5350083042421531,0.0183033579143078,0.0281482980957636,0.033538662535296,-0.0200452205798196,0.0342871069359505,-0.0058138289190466,0.0221646052482735,0.0202206976059479,0.999530455800048,0.0490070692858196,0.0190251848278703,9.593543527575328,-0.0657583809394183,0.0228466446555208,1.2385529685090853,5.847464389666912,-0.6434942352003442,0.7268504804443661,1114.4305835647183,1126.6293126519147,1112.4896507282024,1111.4135166482213,-765.3134082332592,-1208.0322295936628,-270.3107767717936,-236.44101209288215,163.8080857740808
0.4974999999999999,-0.4877928718924857,0.0175382629806326,-0.1090135523590793,0.0322497346037478,-0.020059984076779,0.0334355202234353,-0.0058454440364308,0.0220434541849061,0.0202161453745424,0.9995331736668543,0.0495535251153594,0.0160471582140081,9.571446827381775,-0.0642699740085079,0.0231226884505529,1.2377093980761986,5.847438579848338,-0.6434067583510459,0.7299651389946715,1112.319649782401,1123.5078403934024,1112.107483394259,1111.195815864458,-996.3903637602915,-1357.7308369795435,-52.3462085136543,49.98183877610241,163.81472745494534
0.5,-0.3575032662676568,0.0274136185460671,-0.2424026196487762,0.0305314813682996,-0.0201357386653093,0.0320236455485083,-0.0058681658287898,0.0219346521456338,0.0202094324182986,0.9995358552298008,0.0497599677950353,0.013562530188355,9.550807643286406,-0.0628263206904871,0.023419917104644,1.2367873544116903,5.847413699246508,-0.6433191966520376,0.7330637811167148,1109.4486317459168,1119.8406584670167,1112.227919685634,1111.6634258421016,-1089.3027609408234,-1278.4635789561282,112.94311527721995,251.19896563441824,163.82283520466964
0.5025,-0.1877098714217865,0.0529092721350089,-0.3163412249324387,0.0292333431755101,-0.0202333895910226,0.0308535780867243,-0.0058749569097768,0.0218555643147303,0.0202080880138622,0.9995379220855564,0.0493590807143578,0.0116985817373905,9.531704886136918,-0.0614668866567797,0.023761356205893,1.2358084731245231,5.847390251407513,-0.643231251519548,0.736146290443012,1106.8731359776968,1117.1155224986217,1112.672198970645,1112.4518106926303,-1043.3475386934779,-964.2663154454558,205.34451700032133,331.01979830062163,163.82970618489523
0.505,0.0367899518214919,0.1036254910354172,-0.3489163334964969,0.0283564675528415,-0.0203321227326318,0.0298001469144448,-0.005865919589334,0.0218127468316626,0.0202175321751314,0.9995390585967844,0.0482807967625183,0.010425239251372,9.514164716439575,-0.0602047028298075,0.0241510355845546,1.2347954939058783,5.847368954837017,-0.6431424408650896,0.7392144266790451,1104.2318940524494,1115.0193268897897,1113.2546422706357,1113.318524833605,-1146.1969603848493,-737.2254574243462,233.24134971253423,317.80674510209764,163.83669605953204
0.5075,0.3450757974642459,0.1970214391559702,-0.3451658230337779,0.0281357109775123,-0.0203716886383928,0.0286475816308217,-0.0058411946130023,0.0218047625666139,0.0202417058158461,0.9995391769217004,0.046598693458493,0.0096934420269948,9.498160676867943,-0.0590330910464583,0.0245917902813627,1.233769517969134,5.847350567873449,-0.6430522565813581,0.7422707852074365,1101.1421511757724,1113.4293952115,1113.8384057192077,1114.0408444181408,-1094.439469358348,-424.4078964014075,159.13514140715947,162.43777364284128,163.84522176456608
0.51,0.6071019889542386,0.2996732584841051,-0.3126461006245486,0.0288313745784937,-0.020243344913082,0.0277906339423033,-0.0058011969158307,0.0218296717116045,0.0202818569802824,0.9995382737401776,0.0443857540683623,0.009435958847039,9.483618492506528,-0.0579442968286573,0.0250850348695264,1.232747440444524,5.84733447288388,-0.6429611356831402,0.745318783848522,1098.7596967056577,1112.8972874077826,1114.0503179776715,1114.130713701819,-881.453354409287,-71.36275939538034,-2.173305920177928,-105.3370618967642,163.85244191322354
0.5124999999999998,0.833188594851226,0.418348586090063,-0.2586861630113076,0.0305611126516677,-0.0197869388820132,0.0271201039487275,-0.0057457182147555,0.0218808135991533,0.0203368794882293,0.99953651512224,0.0417946957289661,0.0095847043031967,9.470421804836276,-0.0569190493260313,0.025632844948655,1.2317412754930532,5.847319701876343,-0.6428691949692245,0.7483638306262897,1096.7348844037263,1113.072581414523,1113.8275391896068,1113.5141591086567,-728.9813087387748,154.20913774823916,-170.70786664430656,-367.437638805313,163.85978268348893
0.515,0.9956773089222672,0.5376012282527673,-0.1941221240292786,0.0331374219699474,-0.0189183262648981,0.0265568925728536,-0.0056726585497733,0.0219422829797212,0.0204038936878449,0.9995343230405732,0.039144084304669,0.0100949571803649,9.45841952633955,-0.0559155036728979,0.0262408927939619,1.2307581277273398,5.84730607610238,-0.6427761205925232,0.7514123655288436,1095.1147901619638,1113.6683330965238,1113.19677864445,1112.2935255077923,-532.1308978316206,289.77634157258734,-344.63054014113334,-611.4705515494728,163.86722426243819
0.5174999999999998,1.0436709299324605,0.637174253844652,-0.1255600780767949,0.0366044126570352,-0.0174182607361585,0.0260365396992777,-0.0055813184405774,0.0220037292542493,0.0204762528221356,0.9995320714246408,0.0366368254337963,0.0108922330626659,9.44743634360196,-0.0549062691317986,0.0269109650897089,1.2297990294985988,5.84729377696823,-0.6426816732192521,0.7544671714114318,1094.074229914568,1114.521463122386,1112.1043864889011,1110.4568063509096,-315.93267296102533,371.83105198778287,-558.3023775376655,-896.349859369183,163.87478850104213
0.52,0.9348902158131064,0.7064222326866453,-0.0516876168192333,0.041463986077328,-0.0149014659870811,0.0256692383992484,-0.0054684928645772,0.0220632919080557,0.020545250673725,0.9995300052920988,0.0343086709582648,0.0119492386252952,9.437280643266574,-0.0538855293341521,0.0276508728813201,1.228859563216835,5.847283874267094,-0.6425856671108165,0.7575290749349642,1093.5351267971587,1115.5274883564628,1110.4052667567616,1107.8117762109466,-86.91235134415356,329.5605383631934,-654.6229017254512,-995.675516360642,163.88400896342975
0.5224999999999999,0.6996917342473922,0.7062934394344669,-0.0083562183119626,0.0456198994334247,-0.0123181706688954,0.0257501399789673,-0.005341674567484,0.0221163958689325,0.0206049182862925,0.9995283116244692,0.0322377681992725,0.0130331829603345,9.42775349652901,-0.0528420064701873,0.0284417101537273,1.2279332692543736,5.847277191898324,-0.6424884999860454,0.7605999016085213,1093.6396681578472,1116.169265814202,1108.8312719802739,1105.4784287691064,132.07007196892835,191.3789952860496,-616.6497065091329,-907.9431138294686,163.89181339107793
0.525,0.339516053432375,0.6387726101858839,0.0032007687289984,0.048760111734312,-0.0094597799400042,0.0262989711177506,-0.0052152229571578,0.0221631400882092,0.0206553089376627,0.999526913905662,0.0304090001049187,0.0137833699662734,9.418655253276217,-0.0517767422598587,0.0292478574276602,1.2270123312385577,5.847274609006199,-0.6423909399332706,0.763678581853009,1094.195477157003,1116.484383332893,1107.322018224216,1103.2720606417993,303.9184763054888,60.528112135534634,-600.746786348372,-899.7682005441667,163.8997446426966
0.5274999999999999,-0.1652063321721003,0.4940163026308262,-0.0271170383623261,0.049871322112311,-0.0065721552684742,0.0270611514569773,-0.0050996583399552,0.022211329003979,0.0206993492360656,0.9995255292730176,0.0286622176909922,0.0139191889217155,9.409788953795552,-0.0507100609172142,0.0300431555734499,1.2260883685561859,5.847276163612947,-0.6422932666814999,0.7667611780238262,1095.1592605393748,1116.4719063748796,1105.827538048532,1100.9795877663855,363.9240925117061,-57.88907035866936,-471.0706854190444,-766.7329868686458,163.9094105791961
0.53,-0.5751283205950314,0.346937038298231,-0.0860860334953429,0.0479200196588931,-0.0052909054766522,0.0273377382194828,-0.0049959161295622,0.022271328413444,0.0207411827204259,0.9995238434355852,0.0267927922488106,0.0133498734811514,9.400962489557955,-0.0496685645091679,0.0308244180741033,1.2251539116873926,5.847281040675094,-0.6421951234545175,0.7698427115398726,1096.0150976195619,1116.1949379810997,1104.9666647971208,1099.438395707456,306.86791218604384,-144.6434394313654,-254.92796785656515,-539.3629297838737,163.9175905397947
0.5324999999999999,-0.8926166763847618,0.2151479108648648,-0.1674360796471049,0.0437181898031822,-0.0053867802029954,0.0270334580146671,-0.0049030282593763,0.0223434259403064,0.020782783513021,0.9995218205679776,0.024786462033465,0.0120294750877499,9.391991557142532,-0.0486546802281201,0.0315915585265357,1.2242046561036664,5.847290079587977,-0.6420958235302467,0.7729185707401449,1096.693600100305,1115.7486891777228,1104.5528982092492,1098.282773117466,212.80867721529808,-213.66301221673876,-92.77596872293535,-435.29335782714,163.92590177681566
0.535,-1.1094459171013389,0.1190616728074876,-0.2720411897335653,0.0380455486914847,-0.0064234092052612,0.0261284903723015,-0.0048139565082908,0.0224252802891902,0.0208242522394679,0.999519554318635,0.0226812336075134,0.0100406978068769,9.38270117487848,-0.047664576819757,0.0323580953312085,1.2232382575684388,5.847304157085306,-0.6419946466841321,0.7759861845400501,1097.0791410056383,1115.126622920016,1104.502784953506,1097.2619289183203,48.28168976982848,-234.401574976391,32.22351344620617,-332.6462031834123,163.9360284850744
0.5374999999999999,-1.1448423901373903,0.1088863416156251,-0.3528772764151709,0.0338210891391274,-0.0072743641523492,0.0250881951420142,-0.0047210798356061,0.0225205219712155,0.0208660444197974,0.999516998353326,0.0204047769248305,0.0074966256426615,9.372928314266543,-0.0467090440110026,0.0331382320123295,1.2222531582649283,5.8473229656091235,-0.6418905237459877,0.7790442878477114,1096.935008549154,1114.5766813028408,1104.7140157764802,1096.619542101549,-163.62375523417526,-227.78450952459917,99.9155690409224,-242.4618517478391,163.944595751553
0.54,-1.0515524862557208,0.1728447985795084,-0.4171978657816098,0.0307083732393555,-0.0077992894329704,0.0239167149741756,-0.0046269012696188,0.022619945261928,0.0209053315304524,0.9995144038768078,0.0181221735003265,0.0043370636636508,9.3625236791356,-0.0457680011199551,0.03391973287742,1.2212501687423905,5.847345265371769,-0.6417829712037957,0.7820949646943371,1096.2610222294675,1113.9877003723927,1105.0023627987107,1096.0496196595811,-352.3285731517259,-249.68968305952308,100.03880145081884,-238.68148660790192,163.95329644543003
0.5424999999999999,-0.8815445513605705,0.2868515858551594,-0.4639049677092641,0.0285769406063682,-0.0079458072525754,0.0226978314847723,-0.0045375642404671,0.0227085435209809,0.0209420469381443,0.9995120781444732,0.0161066838113044,0.0004524887705432,9.351352141432882,-0.0448067514553289,0.0346806982812262,1.2202305137161347,5.847369937636572,-0.641672685446496,0.7851415063082436,1095.1733656833956,1113.3282328875432,1105.2142097837343,1095.4261346685096,-517.951214602635,-294.7586205177683,39.01274004283546,-285.3430720184858,163.96210748854278
0.545,-0.6575314838316965,0.4357849116685053,-0.4877862758733188,0.0274913551240099,-0.0071444288115761,0.021579216976237,-0.0044544073730313,0.0227758183855034,0.0209780132294963,0.9995102126702092,0.0145487662547174,-0.0041521113474461,9.33929309770645,-0.043800714268126,0.0354109152388889,1.2191938055023992,5.847396741562747,-0.6415604560136969,0.7881855400348293,1093.6712661564543,1112.513907269804,1105.1974264989249,1094.6229042994887,-729.8966258299963,-414.19026533631006,-82.43176362670958,-410.53430109109246,163.97105065156154
0.5474999999999999,-0.3660239086518824,0.6155866465661758,-0.4892292923179568,0.0270577583370368,-0.0050193123529202,0.0204120725897018,-0.0043784165660188,0.0228165075342755,0.0210144809557702,0.9995088972249616,0.0135395562937903,-0.0094387870016611,9.326242428572229,-0.0427376320689323,0.0361010623907002,1.2181381398499913,5.84742539040551,-0.6414458257275796,0.7912270074179981,1091.5238825542456,1111.2572815608617,1104.8020509656008,1093.373463163054,-827.1188112862993,-521.0431141212662,-214.85365645071377,-503.1071484164836,163.98193317082615
0.55,-0.1218264365518954,0.740965809281455,-0.4655711966502225,0.0271695593642474,-0.002787517173183,0.019465215509441,-0.0043180299829274,0.0228285967609493,0.02105367293689,0.9995080925177872,0.0131045483620215,-0.0154837160795228,9.312114621472183,-0.0416130695842639,0.0367237887270618,1.21706087238144,5.847456599008449,-0.6413284294135863,0.7942659472853534,1089.5356721000228,1109.9086916991976,1104.1231582166713,1092.1073685574063,-821.8625764277015,-613.7100278978318,-345.0803674857522,-533.7012583438532,163.99112546303775
