t,ang_acc_x,ang_acc_y,ang_acc_z,a_vel_x,a_vel_y,a_vel_z,quat_x,quat_y,quat_z,quat_w,acc_x,acc_y,acc_z,l_vel_x,l_vel_y,l_vel_z,pos_x,pos_y,pos_z,mot_1,mot_2,mot_3,mot_4,dmot_1,dmot_2,dmot_3,dmot_4,vbat
1.8675,-0.4042754685693675,-0.2726683286497803,0.2497075791616699,-0.040364969559886,0.0090870438918202,0.0207347681526226,0.0095978422956712,0.0006470051573774,-0.722963270236634,0.6909125706505491,-0.1543531094959953,0.0406459979633192,9.73573066788262,-0.0079415031089415,-0.0248255010250289,-0.00091401126103,-2.087971070218163,1.3625033241794624,1.2483060745406083,1136.8749775279118,1135.92765691133,1129.0711946041126,1121.282211998062,-938.3389867414064,-187.92624945289865,-312.7508400800635,701.1360567150243,162.1794352006526
1.87,-0.2383311504526399,-0.387136845218408,0.2781340794550551,-0.0424969509778203,0.0089548258407386,0.0206955210724187,0.009528464441156,0.0006688814615718,-0.7229496536232178,0.6909320295225487,-0.1574552084734353,0.0401056377114031,9.731501532369363,-0.0078751857621326,-0.0247248447236323,-0.0011040953322199,-2.088030314398132,1.3625257401126392,1.2483028509665457,1134.4933574649178,1135.2843877478217,1128.2154676511764,1122.90780283851,-914.2733575605024,-317.3616159783177,-366.308540704668,567.4418325765015,162.17883965140183
1.8725,-0.0521883965284109,-0.5090972554317265,0.3335141371518403,-0.0432780423156273,0.0077326493878295,0.0210164374815097,0.0094569937858262,0.0006812825697491,-0.7229379220370432,0.6909508068780135,-0.1605130349701859,0.0395301235779749,9.727441711719267,-0.0078207109582123,-0.0246282465388213,-0.0013044548862527,-2.088088891448532,1.3625487367587867,1.2483005413799655,1132.3036107401092,1134.3408488314383,1127.2396519005893,1124.1194211609445,-853.0783857830284,-455.3132098655266,-427.67504637396087,433.26575389170114,162.1782041135834
1.875,0.1487716028807532,-0.6305130188673671,0.4101678803582006,-0.0420267673884484,0.0058346946387573,0.0219969864899021,0.0093853168917751,0.0006863712532665,-0.7229258429432414,0.6909690488840615,-0.1635390074991373,0.0389390417102553,9.723583284952642,-0.0077792071542778,-0.0245366888676263,-0.0015154162079483,-2.088147047717619,1.3625718649054503,1.2482982239380662,1130.2279655360028,1133.007821698494,1126.0770924193068,1125.0741316079686,-636.2136544970007,-506.1459820025556,-396.1804974641012,275.0354333774398,162.17739242527452
1.8775,0.2676710420640812,-0.6887329534133854,0.4637258770765629,-0.0396459551052713,0.0038911701524391,0.0233106005103909,0.0093153276338335,0.0006899713258407,-0.7229108770955768,0.6909870682428554,-0.1665902226071791,0.0383044634968324,9.719958039062842,-0.0077519175442309,-0.0244508054818506,-0.0017372844277365,-2.088205162936661,1.3625946527107382,1.2482947243551887,1129.1225424676243,1131.8101189214256,1125.2587494132688,1125.4945983278317,-301.44221971685727,-485.7462332148204,-259.9640870290326,103.63362991988411,162.17667354327838
1.88,0.324628481662321,-0.6808976896528564,0.4858480131634441,-0.0373438807706548,0.0013298314751383,0.0249212510499576,0.0092485646376133,0.0006957657279301,-0.7228943820773744,0.6910051829221028,-0.1696860660814819,0.037625899257931,9.716597276615015,-0.0077400635530111,-0.024370933394894,-0.0019700850301645,-2.0882632768844807,1.3626164200166067,1.248289801553855,1128.7207544374185,1130.57909053242,1124.7772719841616,1125.592299757568,-57.95110536459882,-493.9425965183431,-113.7080228995702,-6.166628705113766,162.17590914618472
1.8825,0.3440597007544319,-0.6100991220086022,0.470997713895317,-0.0361263350092401,-0.0014384647039319,0.0265577108192372,0.0091891525448959,0.0007068968863894,-0.7228775241037148,0.6910236420837428,-0.1728717663263767,0.036946883399318,9.713530374451206,-0.0077448747915208,-0.0242971017537174,-0.0022136614188289,-2.0883216341418125,1.3626368975556225,1.248284547067134,1128.8327869408013,1129.3404059388336,1124.6902092987707,1125.463765184306,131.25311973099366,-493.65921939994365,76.96496127000664,-99.13565123120163,162.17510629192725
1.885,0.3501599014530127,-0.469812916393249,0.4057153882127885,-0.0362453948263393,-0.0038261081945011,0.0280467271239442,0.0091384024300993,0.0007291155993066,-0.7228606319995526,0.6910419385905441,-0.1761859349328102,0.0362372802155478,9.710786620318752,-0.0077674217723261,-0.0242290523005178,-0.0024679769105756,-2.088380245840256,1.362656247718082,1.248279451325358,1129.3770200360734,1128.1107944354203,1125.1620967905117,1125.096621501412,279.99378063310047,-529.0458040352972,339.7967922998832,-210.68593334012343,162.17425667812543
1.8875,0.3762524278622852,-0.252128425292505,0.2706135362354588,-0.0365947037961068,-0.0053347356182222,0.0293945896616512,0.0090968442473694,0.0007589223738823,-0.7228417094395916,0.6910602930003757,-0.1795308259254008,0.0355864203148761,9.708393984605284,-0.0078085703268349,-0.0241663048370265,-0.0027324648875735,-2.088439026829532,1.3626744792284302,1.2482740064387747,1130.2327558439667,1126.6951769186571,1126.3891932602703,1124.4103355176055,306.77609794624203,-495.7845063112358,549.0488728209912,-289.4021106063452,162.17318325035288
1.89,0.4233295483573469,-0.0629102298428903,0.1171666127406901,-0.0362308199933282,-0.004998678158385,0.0300369252694265,0.0090641994393655,0.0007928776195472,-0.722818686817954,0.6910786137186828,-0.1827986811335275,0.0350704983668188,9.706378782257309,-0.0078686649952342,-0.0241082245119933,-0.0030063796165246,-2.0884982002636328,1.3626922265692565,1.2482679352151325,1130.9109005258047,1125.631871903864,1127.9073411546167,1123.6496109483803,227.66347615688048,-380.8788032263604,684.9162347889275,-339.75448189334327,162.17224455860352
1.8925,0.4932448890541557,0.0978600503356029,-0.0671510091456772,-0.0349352682290222,-0.0032013695255622,0.0301405036580112,0.0090408830169321,0.0008281624941116,-0.7227940139959833,0.6910967547230308,-0.1859018930334974,0.0347630249493473,9.704764475182264,-0.0079472440986621,-0.0240541297152782,-0.0032887500410233,-2.0885572075876264,1.362710225877476,1.2482613852244084,1131.3710732247512,1124.7907829025255,1129.813774434215,1122.7115631081388,129.44458319330172,-299.3796149272903,890.1113071987955,-446.50703329167334,162.17126184211716
1.895,0.5952419828234833,0.2420351783001894,-0.3083328654789967,-0.0325301185926472,-0.0008279522130081,0.0296100857077461,0.0090234441315452,0.0008612557224906,-0.7227702291479797,0.6911149125408579,-0.1886927307298711,0.0346922931141295,9.703573009813248,-0.008043177800711,-0.0240032598187525,-0.0035783909798813,-2.088615843721807,1.3627283502858756,1.2482546036786983,1131.5581234417712,1124.1349738292276,1132.3578976906103,1121.417075781922,2.8555129943015958,-176.49492855326037,944.636962542856,-493.8299041902715,162.17003503539968
1.8975,0.695794764136452,0.3338943603575724,-0.5140994026266532,-0.030439154558696,-3.5386077087087564e-05,0.0285931287342922,0.0090049037225896,0.0008926432722795,-0.7227494698023483,0.6911322808939827,-0.1910331894401536,0.0347791454731746,9.702824000689152,-0.0081546116898813,-0.0239547425159303,-0.0038740598662028,-2.088673975272701,1.3627468126309403,1.248247200982987,1131.3853507897227,1123.9083082597592,1134.5369592469292,1120.2424135871875,-133.57034590416933,-30.945158895882937,845.8701789800931,-475.2557414696074,162.1689763143156
1.9,0.8239288207639758,0.425561745195939,-0.7111192242157908,-0.0289044393007053,-0.0006901805609745,0.0269997902126522,0.0089830205536567,0.0009192139885001,-0.7227323198512376,0.69114825160116,-0.1928101480531392,0.0350541592924237,9.702530693249171,-0.0082790572620353,-0.0239076000981313,-0.0041738962524563,-2.0887315523096968,1.36276640996459,1.2482385893463475,1130.8902717122503,1123.9802480347482,1136.5872485855111,1119.040797074574,-244.59405416482127,66.46090387380201,770.6075806082757,-473.7719948951853,162.16788460955226
1.9025,0.9857778241255678,0.5306876599887134,-0.8916342786690225,-0.0277740672474437,-0.0012915445207371,0.0250140569526545,0.0089577019057536,0.0009419930029488,-0.7227177740453323,0.6911625726154286,-0.1940040798327386,0.0355138882565172,9.702700310782925,-0.008413448082866,-0.0238606483414758,-0.0044758653194101,-2.0887889281022147,1.362788412259864,1.2482284562186559,1130.1623805188983,1124.2406127791282,1138.3899971499707,1117.8735536127115,-336.48834903866174,133.02898701095103,629.8293458363012,-448.0688974858917,162.16676984322626
1.905,1.191310452519168,0.6434878921706201,-1.042475650331552,-0.0264367387649801,-0.0005380997751097,0.0226095631823813,0.0089309132717221,0.0009635958768738,-0.7227043525523675,0.6911742208712142,-0.1946550275724025,0.0361545857077325,9.703333706311351,-0.008554286148666,-0.0238125122523124,-0.0047777437064803,-2.088846416171235,1.3628128114843494,1.2482165151650895,1129.207829967057,1124.6453929698027,1139.7363953146923,1116.8004525871445,-456.1846621995398,194.62977002140596,454.8247285381064,-443.19044041277294,162.16563335702983
1.9075,1.4690856225071431,0.7539796926182007,-1.1779756474961975,-0.0235521719595364,0.0019427917917336,0.0193392895435538,0.0089046810354385,0.0009857581990026,-0.7226908184679508,0.6911824437976672,-0.1948020704037378,0.0369796303567554,9.704426091074016,-0.0086979704050346,-0.0237616555759217,-0.0050771954309753,-2.088904347725525,1.3628386958562186,1.2482026279208083,1127.881457207901,1125.2137616292353,1140.6641207926612,1115.6576014106477,-503.4732826912088,216.2344824810084,212.96561769222043,-393.703964345732,162.16425336925093
1.91,1.6974765753276386,0.7986504862121422,-1.245657689333216,-0.019676223518624,0.0048998072351907,0.0164379585405538,0.008878595829729,0.001009189008,-0.7226813473934137,0.6911868486574737,-0.1944469363310759,0.0379667923236048,9.705968138363824,-0.0088408810930366,-0.0237064956042879,-0.0053719877961919,-2.088962287992448,1.3628649125221708,1.2481869398080727,1126.6904635536007,1125.726565382208,1140.8012234031537,1114.8319327654156,-478.644318121076,215.02785932761483,-74.69494521837814,-305.34492104147125,162.16309660794727
1.9125,1.882287007523605,0.775023301365476,-1.258186691440768,-0.0144253256217159,0.0080028274437858,0.013223133999009,0.0088558547406564,0.0010320772331891,-0.7226793312505305,0.6911880259348521,-0.193618537386387,0.0391716311704894,9.707943457600296,-0.008979662085344,-0.0236454381773015,-0.0056599650060467,-2.089020142718408,1.362890962167966,1.2481703295570723,1125.4882356172955,1126.2889009258731,1140.2906460665693,1114.1308768054403,-515.3842861771519,271.55115746491566,-347.678244496463,-281.8461177293617,162.16194031087414
1.915,2.0178056950763144,0.6700640605668836,-1.2022799944423348,-0.0077574742212369,0.0105840386132248,0.0088933709594043,0.0088424210296488,0.0010518442356324,-0.7226832597383628,0.691186956431039,-0.1923845119315491,0.0406927154050508,9.710329164624705,-0.0091113061538279,-0.0235768487997558,-0.005939238540674,-2.089078063198873,1.3629178271119287,1.2481537950765988,1124.1135421227152,1127.0843211695324,1139.0628321806714,1113.422702176769,-482.3453543649169,326.5414021500943,-519.3299022116772,-237.4414173064502,162.16056111673066
1.9175,2.0457258932916385,0.5321009040257297,-1.0975202769812875,-0.0029218114192113,0.0113808518137601,0.0054042713939302,0.0088390199520905,0.0010663113094465,-0.7226889962387293,0.691184949427145,-0.190754123688443,0.0425476808975345,9.713099811131437,-0.0092331376806766,-0.023499034170448,-0.0062083702926739,-2.0891362659367307,1.3629456526965527,1.2481369345534719,1123.0765088454707,1127.9216079366236,1137.6939965555107,1112.943669718908,-380.27352316990704,390.58527979733213,-569.3170586366372,-165.92767051370527,162.15942389069937
1.92,1.977053051107364,0.3554665684399109,-0.945135726855002,0.0015370066293176,0.0116620576471703,0.0027637160798009,0.008842984438179,0.0010750742332801,-0.7226923608356156,0.6911831991450343,-0.1887219313640462,0.0446785751666359,9.716227031324353,-0.0093427626661034,-0.0234103368771475,-0.0064663309114231,-2.089195303980225,1.3629743047426683,1.2481189105936203,1122.2121745068655,1129.0372475685192,1136.2162468874883,1112.5930638242005,-307.0845078422664,502.4503232632808,-570.2764911729314,-117.05845537021288,162.15830464136053
1.9225,1.819604701239239,0.1479139951927439,-0.7689534051673764,0.0066198468826837,0.0123267423023648,0.0009426587063661,0.0088544445863624,0.0010765975453068,-0.7226927097151365,0.6911827639890668,-0.1863147568718005,0.0470757393797892,9.719677347362818,-0.0094380058945803,-0.0233093779280404,-0.0067122497298459,-2.089254957632043,1.3630035801263043,1.2480998627620603,1121.5410863062596,1130.4338595529402,1134.842614099646,1112.3583774420567,-207.66006157836705,624.569893699194,-483.17151804666327,-67.70462906892888,162.15720381310732
1.925,1.5461477706395832,-0.1009666965465608,-0.5826448268357463,0.0123616488407129,0.0133613364845479,-0.0001182500836104,0.0088759196962334,0.0010656009522827,-0.7226902404491578,0.6911843519016831,-0.1835496085832735,0.0498106679196419,9.723412797287423,-0.0095170841443871,-0.0231951977444484,-0.0069453460340429,-2.0893147963844174,1.3630334703334788,1.2480812574239468,1121.1738741989739,1132.1600970370152,1133.8003892972547,1112.2545406788558,-72.17033224437881,809.6142008956749,-344.66477725528244,-24.714800142510807,162.15612881087384
1.9275,1.0958749278643203,-0.4410471034165778,-0.3629991171474789,0.0184493276237948,0.0142925436916402,-0.0009655539564965,0.008905373958127,0.0010403478758222,-0.7226845103173276,0.691188321212044,-0.1804325914248118,0.052841745291703,9.727394468119073,-0.0095787166999817,-0.0230672066523466,-0.0071653389580445,-2.0893742722496356,1.3630644122690243,1.2480640935785074,1121.1802346450377,1134.4819305574183,1133.1192902133698,1112.2348034413444,88.5411286827112,858.1139285486826,-143.63134656260024,0.82066602431043,162.15487252680077
1.93,0.6535627651519648,-0.7369458880341409,-0.1876338194238625,0.0217000558725213,0.0141046163982836,-0.001636548233517,0.008935736110903,0.001001554544661,-0.7226751897438911,0.6911939387927702,-0.1769361494547022,0.0560239576854994,9.731583248559357,-0.0096221886395734,-0.0229252363665981,-0.0073721901291137,-2.089433152867571,1.3630958315877575,1.2480476794055972,1121.6165798423874,1136.4506666797583,1133.082232564442,1112.2586440089772,271.015991078678,742.6262825835522,86.3083478769093,8.83110385543639,162.15385598030187
1.9325,0.2083237907798337,-0.9972743850250954,-0.0218079700515822,0.0219989489914902,0.0118579703287646,-0.0024879774218428,0.0089599937335908,0.0009561296621585,-0.7226624719983202,0.6911998656217768,-0.173119353775698,0.0591258498250425,9.735938192515585,-0.0096473491064067,-0.0227695301536456,-0.0075659561520266,-2.0894916401494545,1.3631271353376817,1.2480305491203667,1122.535314600431,1138.1950619703364,1133.5508319527544,1112.2789589606216,445.7973881944678,624.2338441748273,248.69437219053327,4.972264396837885,162.15287304226285
1.935,-0.185547557110554,-1.1840666570008676,0.131469973354906,0.0197211018426316,0.0078476208374477,-0.0031813354471908,0.0089733691315987,0.0009124408951385,-0.7226499893474628,0.6912048352908696,-0.1690934455065279,0.0619260706350686,9.740416008155202,-0.009654573581578,-0.0226008186605963,-0.007746446328753,-2.0895493713728146,1.363157363259587,1.2480117182936887,1123.8455667833596,1139.5718359006328,1134.3257044253946,1112.2835053309616,608.4146197827652,435.6778220980324,343.33210070486354,0.0860025729252829,162.15191908290328
1.9375,-0.4758138560199492,-1.2406149375687652,0.2531218168593537,0.0160274346616268,0.0031580878727801,-0.0030482633514242,0.0089774229741465,0.000875639758053,-0.7226410183780297,0.6912083021570724,-0.1650149523846654,0.0643365189727408,9.744969436462656,-0.0096448044771996,-0.02242032468181,-0.0079130240494338,-2.0896062170809766,1.363185680447682,1.2479916905038912,1125.5773876993449,1140.3734510808265,1135.2674924562787,1112.2793889734862,837.5902443227183,219.44218730100613,396.90556898136424,1.529663263727376,162.15100080669507
1.94,-0.7030039192096227,-1.1362599237730653,0.3302260388887874,0.0124604076449592,-0.0017499627716947,-0.0018656417931281,0.0089734925108694,0.0008551863727631,-0.7226375313263786,0.6912102819139447,-0.1610934310774184,0.0662094363965601,9.74955091801872,-0.0096193443547939,-0.022229538130312,-0.0080652095007078,-2.08966199447041,1.3632124209089316,1.2479704177628863,1128.0335180049733,1140.6690468371376,1136.3102322703014,1112.2911536472802,941.1553711700672,20.734354119394517,333.34197604103025,9.234760284834705,162.1499403142934
1.9425,-0.8219220399541175,-0.9111225698106096,0.3129039612075967,0.0107365592525348,-0.0052089723669921,1.2820303964510005e-06,0.0089629844732577,0.0008523835780201,-0.722639223879683,0.6912119995060388,-0.1574262273441009,0.0675180750803325,9.75411225463606,-0.0095797976258269,-0.0220302491403044,-0.0082022423718041,-2.089716644362257,1.3632381094039336,1.2479472333852493,1130.2831645551953,1140.4771228514235,1136.9342023364838,1112.3255627749104,906.4691192672188,-122.38499455329192,174.12687986192904,16.418835254171047,162.149090689323
1.945,-0.91627733800961,-0.5674117626163223,0.1937329066355958,0.01003317722996,-0.0080032693263781,0.0025300763136404,0.0089480713768488,0.0008678711060424,-0.7226436364933594,0.6912143956474421,-0.154108639830308,0.0682613330782643,9.758605180963043,-0.0095277447761368,-0.0218244030398528,-0.0083236024397414,-2.089770447439088,1.3632638275217774,1.247922192111406,1132.5658636013095,1140.0571218643713,1137.180866669611,1112.373247823551,959.8414743854141,-181.25504415871023,17.236070540912262,17.216649896682068,162.14827533794815
1.9475,-1.0413983588490383,-0.0683691381382264,-0.0546651096899084,0.0093659270746125,-0.0098612998822861,0.0046875457244684,0.0089326359877773,0.0008994208898653,-0.7226489901701502,0.6912164945814028,-0.151217430562259,0.0685077619993098,9.7629815243374,-0.0094645558751625,-0.0216141259673488,-0.0084291145294574,-2.0898235819739734,1.36328991856508,1.2478965380971727,1135.0823719271223,1139.57084763063,1137.0203826891884,1112.4116460243938,842.9502400485669,-141.96144970215147,-124.01599294621784,7.549088125506548,162.1473344299681
1.95,-1.1618050235628803,0.3697263900523437,-0.3149398630098586,0.0078107168365105,-0.0094324587154635,0.0044863303328248,0.0089185340520127,0.0009411094464631,-0.7226536445218447,0.6912176716508497,-0.1487457022754892,0.0683574555259429,9.767195508569582,-0.0093915754089615,-0.0214016179069356,-0.0085191183069023,-2.0898762356634846,1.3633161959520996,1.2478711118956147,1136.7806148015522,1139.3473146158603,1136.56078670488,1112.4109932641786,547.6096513547292,-27.077652271690848,-228.88476394109077,-5.608442747143142,162.14657964698912
1.9525,-1.2815979734691831,0.7658845166386986,-0.5736692638343361,0.004797000568792,-0.0067375831237815,0.0021508442263932,0.0089068855477606,0.0009860481076473,-0.7226598019481191,0.6912172028223714,-0.1466578238515661,0.0679205688277827,9.771204212619962,-0.0093100158094458,-0.0211891780533778,-0.008594565743584,-2.089928286204871,1.3633422445882524,1.2478469750739765,1137.820420183896,1139.4354593692715,1135.8759588694827,1112.383603810658,278.7184190473389,93.42491508732348,-292.6596763904332,-10.608631966397052,162.1458526670507
1.955,-1.3805630302719467,1.0868981005082374,-0.794230316035381,0.0010357084658631,-0.0029600460888255,-0.0009250880191218,0.0088988614861678,0.0010237234222273,-0.7226705283130377,0.6912135811336331,-0.1448642328588293,0.0673659326431029,9.774967775646607,-0.0092210812302654,-0.0209792034698377,-0.008656748351227,-2.089979363888358,1.363367839675456,1.2478247202104515,1138.1742068967887,1139.8144391912972,1135.0974883229278,1112.3579501043466,-38.26867930811286,217.60669353812327,-315.13108119089094,-2.6148518067203086,162.1451466387076
1.9575,-1.434523605206574,1.2903251599668528,-0.9446006902956204,-0.0029962191433053,0.0008935747686638,-0.0038403406441557,0.008894258488133,0.001049428862195,-0.722686860476807,0.6912062950555548,-0.1433278227512244,0.0667686382547555,9.778451423351129,-0.0091260089699655,-0.0207739427015988,-0.0087074658778731,-2.0900289201207256,1.3633937183614655,1.2478046063034645,1137.6290767873554,1140.523492836962,1134.3003034635285,1112.3705295516245,-433.77172760921,372.6812541685911,-339.32898141584513,22.11390960469591,162.14446315666797
1.96,-1.4339588379805557,1.3884348590777025,-1.0345119371204627,-0.0078885194797242,0.0054165625971498,-0.006937940788887,0.0088914062306515,0.0010619534972326,-0.7227077271257278,0.6911953519802224,-0.1420314632311675,0.0661406574842729,9.78162574289389,-0.0090261185034038,-0.0205754102777753,-0.0087486065099098,-2.090076574913456,1.3634199936592712,1.2477852278334398,1136.0053482587427,1141.67784546214,1133.4008434158486,1112.46851965237,-723.2926700305885,457.5636274000211,-314.9372129986132,53.51067055821535,162.14366531542285
1.9625,-1.3784892530146673,1.3519046375104953,-1.0343576566918466,-0.0119024099742256,0.0092228164605489,-0.0091758402401384,0.0088870583137502,0.0010656737667865,-0.7227305854512591,0.691180813248549,-0.1410048634376445,0.0653987658883199,9.784467122619837,-0.0089228415382179,-0.0203852020842612,-0.0087820060032266,-2.090123003938256,1.3634464149326908,1.2477653114074703,1134.0126134372024,1142.8113109739622,1132.7256173985354,1112.6380829044156,-868.9986229651621,465.0232579687674,-252.50084435928656,88.66124120117797,162.14301619086632
1.965,-1.275944923007978,1.2053173132627608,-0.9562456025051854,-0.015402488047419,0.0128546542341314,-0.0114791764577513,0.0088782843105544,0.0010618898299933,-0.7227565801567946,0.6911625778918477,-0.1402345100266635,0.0645108808294014,9.786956264835448,-0.008817733396715,-0.0202045364664615,-0.0088090057503092,-2.0901684857408407,1.3634721105355747,1.2477444245582068,1131.660355143917,1144.002961751984,1132.138339194052,1112.911825858376,-948.361987311748,465.6966333428599,-218.73520113609183,127.57335510032406,162.14237981562644
1.9675,-1.1481663140545095,0.9837061437722042,-0.8111147254591023,-0.01820976475555,0.0160450747385219,-0.0142651692523158,0.008867233289316,0.0010490133198512,-0.7227867727612115,0.691140185945208,-0.1397333656696785,0.0635573675418064,9.789076241992369,-0.0087125121592573,-0.0200341615529347,-0.0088304784110033,-2.090213089532067,1.36349661991496,1.2477231190442228,1129.2708035006435,1145.1397941406765,1131.6319413928547,1113.2759496799172,-906.369336838744,415.5041140300543,-178.1069488709856,167.293209758558,162.14175120803102
1.97,-1.0081689164211352,0.6996119864856943,-0.5867180359277087,-0.0202645554001686,0.0182814741451281,-0.0170925845011527,0.0088523423307931,0.0010313048452522,-0.7228197741383213,0.6911140311288126,-0.1395343993624149,0.0624876448965136,9.79081674803456,-0.008609069445073,-0.0198740213085194,-0.0088474089105139,-2.090257301111429,1.3635200734409743,1.2477018813646183,1127.1285084597234,1146.0804823221342,1131.2478044496972,1113.7482919071688,-829.2393053394144,337.7152288954143,-130.03591104006472,232.20099142549236,162.14112854916647
1.9725,-0.842680643508116,0.3297913116152109,-0.2463264735456478,-0.0222496492304619,0.0196237620980767,-0.0192679604575366,0.0088316096986684,0.0010160366889464,-0.7228515675347844,0.6910853170235266,-0.1396987356239472,0.0612033706442916,9.792172402160828,-0.0085093368530825,-0.019723302688734,-0.0088607496290746,-2.090302025438437,1.3635422718850116,1.2476802362676715,1125.1246069739464,1146.8283702851536,1130.9817618376546,1114.4369546370447,-618.5007551246911,193.35889885255264,-55.97329421075172,273.7590905196549,162.1403843244322
1.975,-0.711175831361034,0.0299225814856397,0.0675808688099101,-0.0237528840622346,0.0196488184179014,-0.0197322947845941,0.0088038729293858,0.0010140762125484,-0.7228763854942324,0.6910565684191793,-0.1403419192385638,0.059566292893644,9.793142186832258,-0.008415114831241,-0.0195805217663703,-0.0088714514975633,-2.090348262984977,1.3635638311996663,1.247657575111231,1124.0360046841,1147.047276816397,1130.9679379786435,1115.117087359767,-312.54960962256274,-6.54340884780154,46.53151679313041,300.1907660323987,162.13976432234435
1.9775,-0.5833848155708984,-0.2275907647143562,0.3696911665657699,-0.0252433033976092,0.0186488324742285,-0.0188612774751713,0.0087725716329707,0.0010284712838586,-0.722892652398027,0.6910303800756874,-0.1415338110020033,0.0576091381387805,9.79372697836931,-0.0083278660201741,-0.0194440008396755,-0.0088800428973673,-2.090396041321757,1.3635854006674344,1.247634165244606,1123.5618589258338,1146.7956532409144,1131.2144194216203,1115.9379084672066,-87.96929585128241,-212.82822219518948,173.54982473312162,408.9187119502272,162.13914248345927
1.98,-0.4264029789047816,-0.4612773046032174,0.6695774764598845,-0.0270244792905792,0.0164920463778999,-0.016479934875539,0.0087396788272797,0.0010581940484708,-0.722900260790963,0.6910083332299329,-0.1432639626419376,0.0554003036380763,9.793932422817631,-0.0082487601575838,-0.0193120050639167,-0.0088869989940257,-2.0904452735831804,1.3636070100572515,1.247610400193786,1123.5961582048435,1145.983135705421,1131.835687102309,1117.161680919518,88.19735216907043,-364.661103723384,281.7649415523582,502.1933584405244,162.13839268505384
1.9825,-0.2884187458923788,-0.5862010291056983,0.8390166061741064,-0.0283017704954273,0.0142475119405822,-0.0136475313818993,0.0087059391687167,0.001101936261855,-0.7229025845029547,0.6909915815328689,-0.1454968468350542,0.0529926612153352,9.793769360133023,-0.0081786018411924,-0.0191829895885708,-0.0088929728450699,-2.090495300866403,1.363628294823409,1.247586517016542,1124.0028456866792,1144.9723477222976,1132.623244129382,1118.4488752594093,208.28064691176647,-438.9864037254837,367.21637607960537,580.7138558226463,162.137764376799
1.985,-0.1438962181381897,-0.6468973960844309,0.9064301382335628,-0.0290338351499606,0.0122566192927658,-0.0102643632895857,0.0086735463511206,0.0011544296043215,-0.7229030943140963,0.6909804917169458,-0.148160430121815,0.0505121999390465,9.793252787435236,-0.0081179175381056,-0.0190558607686763,-0.0088986494631697,-2.0905453884333864,1.3636487326084823,1.247562681801329,1124.6375614394024,1143.7882036867936,1133.6717689827071,1120.0652501986315,268.89024196230486,-472.332455634306,457.86634731385743,697.0983430687432,162.13713258503128
1.9875,0.001193473326041,-0.670418428896358,0.8900084806975433,-0.0291948739578828,0.0107253970197141,-0.0069008694602298,0.0086468313926108,0.0012168288649793,-0.7229017572233744,0.6909746581946584,-0.1512968645425534,0.0480208793815998,9.792402495090244,-0.0080668640510019,-0.0189299260257215,-0.0089051456052545,-2.090594906412039,1.3636696107650224,1.2475390311787076,1125.3472968964907,1142.610685444126,1134.912575865951,1121.9343669747527,279.48798581379066,-436.3598549357087,534.493926400603,783.7598939333643,162.13649851767974
1.99,0.1395637099742327,-0.6720223166347062,0.7923744153848639,-0.0286587555096698,0.0095123871153357,-0.0043653290385366,0.0086274401539374,0.0012870593570744,-0.7228987720066297,0.690971418770948,-0.1548646480027382,0.0455876728335529,9.791244528411116,-0.0080252837365207,-0.0188050265869832,-0.0089136896164707,-2.0906431637010265,1.3636917552339856,1.2475151885207332,1126.0350013684713,1141.6064044121151,1136.34423861471,1123.9840496682982,275.3514717360362,-372.3538722020828,659.9703173945868,888.7595476245413,162.13586278649805
1.9925,0.2925061210428018,-0.673134405183367,0.6231387499590443,-0.0273533629106225,0.0082047965218282,-0.0025964302921803,0.0086126235715419,0.0013609783084589,-0.7228933743531751,0.6909690272731889,-0.1587297875394829,0.0432494458748405,9.78981220685063,-0.0079929670692511,-0.0186813709109343,-0.0089257000668181,-2.090690238568799,1.363714755635358,1.2474909837272412,1126.7240542551708,1140.7489160831155,1138.2124274529242,1126.3781647128756,217.56936046417144,-248.15687743952705,696.673514190463,818.9634437482974,162.13509873457667
1.995,0.4118077328199065,-0.684590334941174,0.4711967745286204,-0.0259634047060794,0.0070589015363895,-0.0019119996832988,0.0085996412370523,0.0014340500267307,-0.7228876083078308,0.6909665811752647,-0.1627513778749677,0.0410465031060015,9.788144591446462,-0.0079696441345763,-0.0185594809444643,-0.0089428164818855,-2.090735891321573,1.3637378468841648,1.2474671106163973,1127.122848170792,1140.3656200249175,1139.8276061856625,1128.0788668870396,111.4612133263992,-91.7818319760933,636.9315800859875,569.1489265649448,162.13446076747755
1.9975,0.5356296365946103,-0.7117172050803655,0.3389879180811257,-0.0246018022384596,0.0055840735757811,-0.0016006015485637,0.0085893138058962,0.0014982506013689,-0.7228828629801073,0.6909642159388129,-0.1667900666768955,0.0391151420834587,9.786284907770032,-0.0079551711599485,-0.0184400842747379,-0.0089667150465999,-2.0907802827829305,1.3637608217283514,1.247444960275278,1127.2813603218028,1140.2900069232353,1141.3970853533542,1129.2239093457003,6.4987856697827295,10.517139640342288,646.2923755664771,346.29866190926634,162.1338201963714
2.0,0.7126747815537908,-0.7605247013757086,0.225214732138483,-0.0232662247912517,0.0034828787491537,-0.0015277156714364,0.0085805043625078,0.0015484705097782,-0.7228809385685684,0.6909608232676565,-0.1707173359822313,0.0375221849898601,9.784282609834868,-0.0079494646224886,-0.0183238430068547,-0.0089992642988828,-2.0908233715035878,1.3637839906424944,1.2474252838988755,1127.155342099141,1140.4182057231192,1143.0590680634948,1129.810360196586,-97.11727948811338,55.57292729158808,542.1019841180284,88.79796845631252,162.1330457901375
2.0025,0.8997050303150593,-0.8118995644479141,0.174839066647055,-0.0223764377411749,0.0017048983392286,-0.0015970916051238,0.0085714688416588,0.0015817179509455,-0.7228813243825487,0.6909569756453001,-0.1744231252793439,0.0362950662470484,9.782192152695053,-0.0079526656230143,-0.0182111573713505,-0.0090421705188547,-2.0908650776894926,1.3638071129328,1.2474070534509947,1126.7957739243623,1140.5678715596932,1144.1075952739443,1129.667899187982,-181.5833089754544,33.79319362075037,310.70176411418043,-153.2662471712716,162.1323928713335
2.005,1.1345368735393513,-0.8700942474659524,0.1691104786537384,-0.0212726328605082,-3.5549644449624804e-05,-0.0014764224716415,0.0085605409946424,0.001598866188159,-0.7228807686216134,0.6909554018625566,-0.1778490731637595,0.0354064454028178,9.780071808978247,-0.007965153684961,-0.018101981875624,-0.0090967482531078,-2.090905912472052,1.363830343916959,1.2473884279846892,1126.2474255542638,1140.5871716912227,1144.6125768840657,1129.0440289607295,-228.86684726727745,-35.53869817815288,86.76902429351868,-290.0051818685432,162.13172773067072
2.0075,1.399116811024666,-0.928419516836112,0.1937479150940163,-0.0194744573551147,-0.0018798563973447,-0.0010646854917541,0.0085489022132045,0.0016004280403227,-0.7228773632140018,0.6909567911243111,-0.1809716886243545,0.0348702968530174,9.777981417575033,-0.0079873673254649,-0.017995887666276,-0.0091636203663167,-2.090946731829854,1.3638538038556312,1.2473687453893212,1125.651439688026,1140.3901780688025,1144.5414403954119,1128.2178732786392,-213.30450916069287,-145.650061574169,-182.3721781472036,-330.97179602098134,162.13104846496051
2.01,1.6678626966891068,-0.9757395667463008,0.2445915128628931,-0.0163417614541545,-0.0040055461277852,-0.0004683965547997,0.0085356138524567,0.0015866974057806,-0.7228706891227127,0.6909607270856625,-0.1837338959150034,0.034672420104488,9.775983322175932,-0.0080199079834911,-0.017891969193482,-0.0092428609476864,-2.0909883971765315,1.3638772210465688,1.2473480015554748,1125.1809030084603,1139.858921383352,1143.7007159933296,1127.3891699806247,-125.5220913368618,-311.96763364662445,-534.7403133558239,-321.9108830679726,162.13034677034128
2.0125,1.9373866941729752,-1.0008597109573971,0.3231291671362318,-0.010702910087087,-0.0068693595271686,0.0002847480327354,0.0085202090935324,0.001556312240567,-0.722863590090978,0.6909667328607337,-0.1860623028018569,0.0348252217479345,9.774140142948898,-0.0080635027636347,-0.0177890035614284,-0.0093340333401502,-2.0910311530285814,1.3639000080922556,1.247326497634778,1125.0238292313416,1138.8303399005692,1141.8677388286324,1126.6083188632992,45.26577714023102,-430.54504195880327,-772.6945110422714,-241.7724520897588,162.12947244207106
2.015,2.0741666336319597,-0.980470313611148,0.3940125219023287,-0.0046235619366145,-0.0095652457095386,0.0008811502437501,0.0085024449242505,0.0015084717187279,-0.7228585461168727,0.6909746762376733,-0.187893849297585,0.0353335637602593,9.772513634096056,-0.0081189969221194,-0.0176855501822854,-0.0094363878012432,-2.091074756545366,1.3639211658813275,1.2473040680303247,1125.4072318941614,1137.706196173558,1139.8372434381183,1126.180307720176,287.9904019864232,-479.63223991324526,-846.5957426842758,-143.18258233834362,162.12871315897527
2.0175,2.0816777293691935,-0.9022429553623844,0.4570847354262056,0.0017944051941272,-0.0127385005646515,0.0016858730114808,0.0084831869184744,0.0014477744354591,-0.7228551481696869,0.690984516420376,-0.1892542051725848,0.0361389006720418,9.77116298996952,-0.0081871393831741,-0.0175800476909495,-0.0095491259725691,-2.091118814323828,1.363940961334206,1.2472805914556486,1126.4637812412736,1136.432178701003,1137.6347601152113,1125.8924059516075,539.0116107817108,-510.6194667734707,-849.1939985903354,-121.41538668288634,162.1279185750869
2.02,1.9706432663601972,-0.7723468744781128,0.500536160954518,0.0074932769935523,-0.0159218867660216,0.0031036792244742,0.0084653559669483,0.0013819450491256,-0.7228517329666536,0.6909962762647274,-0.1902412337963193,0.0371641470344399,9.770143325103568,-0.0082683198221922,-0.0174710065111714,-0.009671405431555,-2.091163102321763,1.3639605755122024,1.2472566805772527,1128.10228994807,1135.1530988396908,1135.5912734451667,1125.5732307867615,777.7777065987887,-483.83363546478114,-715.8122599256483,-176.7350890846084,162.12709297865624
2.0225,1.7200560276543575,-0.5914970466056687,0.5050373031216226,0.0121637628629657,-0.0182047971335066,0.0051797850575509,0.0084490599171875,0.0013176009338111,-0.7228463890064971,0.6910104446749723,-0.1909000087411088,0.0383079581003668,9.76950685203403,-0.0083625307449828,-0.0173571061922875,-0.0098023106269418,-2.0912079130715022,1.3639807629916691,1.247232526114122,1130.3526697742675,1134.0130105236792,1134.0556988155831,1125.0087305061843,1079.4826257264278,-437.9758050744024,-509.308728318876,-347.7906675284959,162.1262289599411
2.025,1.2722883463368273,-0.3476418452046504,0.4576381541726141,0.0169630450003731,-0.0193775879803046,0.0074278137555732,0.0084331079129756,0.0012607430482238,-0.7228401667712764,0.6910274266114271,-0.191252315111893,0.0394580395614549,9.769301267117088,-0.0084692289283368,-0.0172373567110102,-0.0099408543429547,-2.091253287035021,1.3640013173568346,1.2472087165907495,1133.499703076702,1132.9632198143188,1133.0447298035724,1123.834277449119,1174.5145732230208,-315.65969741400966,-225.83751550105745,-527.0675169752507,162.12514777264207
2.0275,0.7915918491240732,-0.1490578730232948,0.3798497856721173,0.0205043178401261,-0.0190757833416571,0.0083590529045241,0.0084195285504919,0.0012112698960989,-0.7228354042873915,0.6910464989705593,-0.1912879154615259,0.0406304694728382,9.769566879052832,-0.0085873819910481,-0.0171113550646002,-0.0100856564170127,-2.0912986454982048,1.3640216721373315,1.2471860968939017,1136.2252426403825,1132.4347120366092,1132.9265112380779,1122.3733929213083,1038.750352522923,-129.80674129361466,79.48875742503705,-673.5331858117206,162.12421083583595
2.03,0.2289798809448228,0.0218926945070053,0.2744838519251626,0.0234813738805043,-0.0177459977790403,0.008303369382856,0.0084069503031094,0.0011728944789815,-0.7228339357853476,0.6910664951402665,-0.1910061254578436,0.0417413450908672,9.770338396817264,-0.0087154627675967,-0.0169791070230168,-0.0102352207216563,-2.091343241224686,1.3640419573246652,1.247164486050553,1138.6934548393167,1132.3141861078507,1133.4421735906976,1120.4666115200603,946.8561391479212,39.734368482092634,322.9243149732393,-896.405502907313,162.12323860068713
2.0325,-0.4762873963495248,0.1941863252723173,0.1205967655919529,0.0249134523291593,-0.0161135487158108,0.0082198360841152,0.0083928244494002,0.0011432433294012,-0.722834185920794,0.6910877762601568,-0.1903142494339872,0.0427780825898705,9.771643220772113,-0.0088516248814218,-0.0168411233926626,-0.0103873473319718,-2.0913864004206655,1.3640624132136387,1.2471423231693979,1140.9595233361224,1132.6333838790197,1134.541132812944,1117.8913654067715,671.2168198083107,185.0807234507141,443.64409494788595,-942.5008991922114,162.12203335489303
2.035,-1.0181276680389433,0.3283079380300351,-0.0373699505849142,0.0228963682560237,-0.0156691101576175,0.009096194282984,0.0083750930694424,0.0011247082074799,-0.7228304994950301,0.6911112322837935,-0.1891990989981947,0.0436693044289971,9.773499720695376,-0.0089934838410118,-0.0166981782707604,-0.0105394351080188,-2.0914282555329944,1.3640837381805992,1.2471180724641884,1142.0495389383584,1133.2395897251042,1135.660394065437,1115.7541070240993,245.94743396833633,293.95375314603086,452.095574248288,-785.0759383820044,162.1209981091522
2.0375,-1.4172084288060796,0.4820729282814167,-0.2327311384156943,0.0176424838395518,-0.0160011855024179,0.0107056079268185,0.0083555363862269,0.001120638570044,-0.7228198179394268,0.6911372756531055,-0.1877245143858267,0.0443828017129647,9.775915206640848,-0.009137974600953,-0.0165513655218193,-0.0106884340190243,-2.0914692348875628,1.3641063685928123,1.2470920781800052,1142.189260505964,1134.1031526447496,1136.8016106841856,1113.9659857148615,-95.77228646540085,369.8802303084983,442.29532687323666,-608.4178718861169,162.11993181639173
2.04,-1.6417175451215276,0.665466752732878,-0.4475196622582814,0.0112452074514489,-0.0160981381046173,0.0118451635253164,0.0083362868566531,0.0011323956692415,-0.7228023864567545,0.6911644314739979,-0.1859436515558952,0.0449201437517705,9.778887125029497,-0.0092815156902987,-0.01640202661458,-0.0108309931198105,-2.0915097363504196,1.3641307767492967,1.24706493109108,1141.5706775060314,1135.0889908766467,1137.8718706998031,1112.7120176646688,-395.9394947216508,401.2116002818942,401.0438819851146,-327.027945357993,162.11884012996677
2.0425,-1.6259940267789,0.8795347366864374,-0.6421905443702324,0.0050942442712013,-0.0152773966223648,0.0111075138780365,0.0083167992435734,0.0011589589171282,-0.7227845951269897,0.6911908906212403,-0.1838511823106146,0.0452810113919209,9.782404282819245,-0.0094202164050143,-0.0162516843876455,-0.0109636471443374,-2.091549053563989,1.3641562269220255,1.2470368848413256,1140.2095630323558,1136.1092106461592,1138.806830094111,1112.3308459880716,-701.3130617675109,431.46557339788166,376.5935871554655,63.909520457947565,162.1177177738798
2.045,-1.3395293929204404,1.1409071480894564,-0.7730070715349344,-0.0010459919620016,-0.0128707237252417,0.0073963074633777,0.0082983038198354,0.0011909163970724,-0.7227714202345421,0.6912153547611135,-0.1813645260428933,0.0456099373921875,9.786444994621778,-0.0095502522005251,-0.0161020220471312,-0.0110826787987557,-2.0915861724638436,1.364182040589114,1.247007477339989,1138.064112197194,1137.246318743636,1139.7548386355804,1113.0315652669583,-812.7753423911773,387.54001579883067,318.6633466063608,445.4106181405773,162.11633482972928
2.0475,-0.9118951755110398,1.3291531991252308,-0.7440052320334148,-0.005080518018144,-0.0095845146015225,0.002555090031403,0.008283422052296,0.0012235093377101,-0.7227631578235484,0.6912368196291248,-0.1784944367090584,0.0460070550539218,9.790977723097791,-0.0096678167010324,-0.015954438213789,-0.0111847378842287,-2.091620652310359,1.3642087453812035,1.2469765487265765,1136.1456863204,1138.046910725153,1140.4001468271429,1114.5578990787744,-726.0610204333415,276.0455235995382,226.24239136899203,768.232868199464,162.1151513731547
2.05,-0.3524817721280133,1.4463282534544195,-0.5468257503339311,-0.0080327667230001,-0.0054024205786113,-0.0020831554207524,0.0082753063080075,0.0012524594047755,-0.7227562597056496,0.6912550090450825,-0.1752758178207431,0.0465746839948931,9.795962310743821,-0.009769260925798,-0.015809806392369,-0.0112668740691952,-2.091653185753914,1.3642369890126116,1.246944275793339,1134.4338070950273,1138.6265463616337,1140.8860505924251,1116.8727296079555,-608.7028622789193,188.94304993840336,162.54310408143095,1007.5360441866223,162.1139343120768
2.0525,0.2507270191762872,1.481520459785972,-0.2305353028028037,-0.009138751423944,-0.0007068408189558,-0.0049663720811662,0.0082733076922835,0.0012775487106721,-0.7227453946877782,0.6912700248498813,-0.1717540776951395,0.0473067130058809,9.801352983502465,-0.0098512019150616,-0.0156681131523139,-0.0113268862026288,-2.091685379414921,1.3642670551064606,1.246910732286443,1133.1021720090052,1138.9916259748454,1141.21286234755,1119.5955792997079,-408.59939624958287,95.49175365686362,81.18446630896321,1112.7341773799048,162.11268848381948
2.055,0.8098333088851704,1.40572203713266,0.1664593087386423,-0.0066120068758058,0.0043547831542497,-0.0050267866481745,0.0082779258935189,0.0012996192462834,-0.7227278786936776,0.69128192236073,-0.1680135233765446,0.048196261565058,9.807097518897681,-0.0099106020367821,-0.0155285458466638,-0.0113633394980822,-2.0917185803663227,1.364298883119274,1.2468766953929915,1132.3908101137793,1139.104005129918,1141.2919729239702,1122.4364004948557,-154.84653408630368,9.948728913559746,-35.968618328343695,1178.4758919802491,162.11140753502903
2.0575,1.3102078613894994,1.1987440349383671,0.6382063960638628,-0.0001034783472982,0.0094883780628781,-0.0025974791006317,0.0082941351676418,0.0013185527558475,-0.7227017822043577,0.6912903194880866,-0.1641954384163865,0.0493090164668377,9.81313726140109,-0.0099450263191509,-0.0153896741939512,-0.0113755703312601,-2.091753929500784,1.3643329130996267,1.2468436745582967,1132.3279393385735,1139.0413696194132,1141.0330192559084,1125.487958759609,100.56930952514664,-28.565925827798008,-156.31663636263843,997.5920414915648,162.10983018097522
2.06,1.5272249656464456,0.9582468018228308,0.9635234648741192,0.0063404231024364,0.0121999733697604,0.0007416856117033,0.0083210501601728,0.001330898290282,-0.7226716512649433,0.6912947887088435,-0.1603175323198858,0.0506753729471596,9.819412791914118,-0.0099530081395093,-0.0152496947720944,-0.0113636216723709,-2.091791296696582,1.3643683869327876,1.246812438426275,1132.8936566614047,1138.961175500779,1140.510389742157,1127.4243607023132,326.78653015814933,5.235507759562209,-260.2702458691566,598.7478491608399,162.10848317420752
2.0625,1.5184840887159743,0.691735188836494,1.163919569702753,0.0121533473541314,0.0132920813929814,0.0048260650998321,0.0083571282807601,0.0013338759154265,-0.7226413350651663,0.6912955937486998,-0.1563989292345565,0.0523050634876776,9.825863100040753,-0.0099343065206722,-0.0151067015936003,-0.0113281476990637,-2.0918299865530137,1.3644038571981256,1.2467829706209028,1133.9618719893645,1139.067547158211,1139.7316680265626,1128.4816980054131,539.6578061297192,139.10390310216212,-368.2231381780717,241.104476675269,162.10710435976023
2.065,1.2815375427699172,0.3853114702644182,1.2285464515291815,0.0173329036421836,0.0134854453049156,0.009792484783344,0.0084009216748869,0.0013308801404129,-0.7226121265988568,0.6912940719886427,-0.1525430627254146,0.0541192534298316,9.832426803740269,-0.0098899471583999,-0.0149588886781539,-0.0112703431035013,-2.0918694640749758,1.364438190939636,1.2467550953760587,1135.5919456920535,1139.6566950162899,1138.6692740512667,1128.6298830856897,618.1944629283539,316.95080381396787,-378.78824566429,-122.85937534589073,162.1054163394756
2.0675,0.9424725369230949,0.1583590679163858,1.1326925871013491,0.0201199463585697,0.0136630070230741,0.0134497412397198,0.008450750746094,0.0013259082809037,-0.7225876941762952,0.6912915767954791,-0.1488557654753265,0.0560243784760609,9.839043184166368,-0.0098221099215012,-0.0148049322335086,-0.0111914901969574,-2.09190885777588,1.364470253405124,1.2467287881635436,1137.052844304006,1140.6523011772808,1137.8377267982412,1127.8674011286837,562.7521215335612,506.56976685219144,-283.35359406915506,-452.1183052092607,162.10398490929595
2.07,0.5206985362160114,-0.0325988683167213,0.8950762386726075,0.0215928679081678,0.01433362644012,0.0164614632850453,0.0085015832805861,0.0013219045896274,-0.7225718627778163,0.6912886365182495,-0.1453763860848872,0.0578939461834038,9.845654135303215,-0.0097339864288194,-0.0146440486170914,-0.0110926956135467,-2.091947476716348,1.3644988661754307,1.246703501050737,1138.4057062997213,1142.1895438505508,1137.2525060809207,1126.3692915596434,496.36301524102527,685.6065262111306,-170.86132932130323,-680.1317625091083,162.1025322228652
2.0725,0.0773893005937786,-0.1892976629678334,0.5590986762838731,0.0218714525709823,0.0149717171348602,0.0187631738591482,0.0085477972463593,0.0013251652270239,-0.7225653491367634,0.691285535258859,-0.1421748866729461,0.0595443741228646,9.852203945195626,-0.0096293453970541,-0.0144758966908282,-0.0109748596547499,-2.0919849639192423,1.364524167661092,1.2466783183197148,1139.5346593802115,1144.0803338083367,1136.9834201516346,1124.466742316138,375.1912768811709,795.7913111379555,-16.86523399844077,-802.0276361289148,162.10106532942584
2.075,-0.3409728700427533,-0.2886052372606085,0.1361614069932838,0.0206885503836838,0.0146414566677384,0.0199226175250215,0.0085867546251273,0.0013361633716403,-0.7225671298054348,0.6912823850461923,-0.1392766249486652,0.0609146693106504,9.858637686409981,-0.0095121262446849,-0.0143006947001542,-0.0108382863186461,-2.092021030098728,1.3645466764301046,1.2466523559230345,1140.2816626841272,1146.1685004062408,1137.1681799109288,1122.3591533789984,225.99209710543187,890.6826801661017,187.2349072828496,-906.4846699204019,162.09958508936387
2.0775,-0.7620526469545553,-0.310041465751254,-0.422729547791687,0.0179540773025168,0.0125221516481341,0.0197810840347485,0.0086180428581239,0.0013565469167609,-0.7225737913612496,0.6912790839126832,-0.1367461086333697,0.0619574657756817,9.864902427243267,-0.009385940348745,-0.0141189401430675,-0.0106830211504264,-2.0920556253030105,1.364567730608196,1.246625258200179,1140.6646198657384,1148.5337472091671,1137.9195946880488,1119.934318966536,53.90168717149324,792.3580555271826,353.29059332940074,-832.3428597793913,162.09779773755295
2.08,-1.0201735094899471,-0.229108444758405,-0.8913086351724265,0.0147376293242868,0.0095401180775535,0.0182590673504837,0.0086425421207156,0.0013859744944871,-0.7225813185985942,0.6912749546829424,-0.1346305963316829,0.0626718819308603,9.870947811058654,-0.0092538200844388,-0.0139313112812078,-0.0105089408241953,-2.0920890517835895,1.3645884188362445,1.2465969185436805,1140.5511711199847,1150.1302906838766,1138.9346328775755,1118.1974390801015,-127.38767518972324,517.9093874933752,465.2896322856221,-605.4527399030251,162.0963018717898
2.0825,-1.1692251159333327,-0.0536090167713584,-1.31342862725465,0.0109869462950831,0.0065407498539697,0.0151725368622547,0.0086594915966465,0.0014226793692637,-0.7225856764613048,0.6912699762530224,-0.1329257120826573,0.0630560679971827,9.87672776039076,-0.0091181695331427,-0.0137384752103968,-0.0103160372299395,-2.0921220739569435,1.3646093054218806,1.2465671900353448,1140.02768148979,1151.123294146634,1140.246042849477,1116.9070552670207,-308.2512472218307,282.60293723697635,615.3672121383937,-449.2219114771256,162.09480229662358
2.085,-1.2306994629728767,0.2039083139508788,-1.71333464466508,0.0068702527574464,0.0053909592561746,0.0098521018888038,0.0086690605709567,0.0014632887636892,-0.7225872363538965,0.6912642436685058,-0.1316103659792674,0.0631449248639979,9.882200055332275,-0.0089806596389292,-0.0135411384252674,-0.0101046616152955,-2.0921548303301996,1.3646305373027907,1.246536880225371,1139.0099148838756,1151.5433053700615,1142.0114689382676,1115.951329522716,-422.7735303676217,38.59422381897357,655.7159114865184,-250.4044447296618,162.09300145569904
2.0875,-1.2021351003072565,0.3846056666952624,-1.927618155117777,0.004137047958405,0.0074699527791407,0.0046234326420867,0.0086749671130916,0.0015001353787729,-0.7225875946738941,0.6912573113346786,-0.1306478865737481,0.0630853247073237,9.887325738276951,-0.0088423687739234,-0.0133401016786047,-0.0098756393870921,-2.092187655012137,1.3646523472255723,1.2465074734814987,1137.913813837952,1151.3162652657288,1143.5246224069094,1115.6550330433727,-470.5877505561248,-173.53182194870357,583.3188505752456,-20.64773367696988,162.09150144768958
2.09,-1.1150845705742118,0.445148124066708,-1.996758115175285,0.0017227765069234,0.0113563207581615,-0.0008500511098512,0.0086777738887319,0.0015276696562068,-0.7225875026379419,0.6912490301611294,-0.1299780762893283,0.0629536562033233,9.892073057893247,-0.0087039750759733,-0.0131360936297793,-0.0096305742285303,-2.092220572199936,1.3646753365336828,1.2464800770711244,1136.656976131095,1150.675646260318,1144.9280631911436,1115.8480908543313,-515.8958300641297,-289.16094875519644,517.6352854300254,150.7807700443107,162.0900039876552
2.0925,-0.994220199983841,0.368706089409815,-1.9397300191220523,-0.0008607054709632,0.0152080183986425,-0.0064529647596896,0.0086766375222679,0.0015420948428748,-0.7225864822840016,0.691240063901361,-0.1295375572432676,0.0627851526150846,9.896417369884729,-0.0085659419581456,-0.0129298860535673,-0.0093717040254197,-2.092253597905079,1.3646996467110983,1.2464547424122856,1135.334334687631,1149.8704605219527,1146.1127988340595,1116.4089368935943,-531.4702473889705,-319.93504897229855,388.7644164480399,302.1549488845972,162.08850991024016
2.095,-0.8478852125772758,0.1260357331328555,-1.736135789459242,-0.0034349853636558,0.018078986812117,-0.0120174694900058,0.0086716516618523,0.0015441291754173,-0.7225849046463493,0.691230915987664,-0.1293319542427592,0.0625664204441424,9.900340948917005,-0.0084286445283229,-0.0127224269289359,-0.0091017643564835,-2.0922864135710983,1.36472563813031,1.2464311752675319,1133.99962489415,1149.0759710154564,1146.871885273384,1117.3588655987544,-576.945308898315,-305.49728431452166,199.8613248117678,491.7832676635148,162.08702147107323
2.0975,-0.6670018703713685,-0.3082950087250073,-1.3498880905775723,-0.0057677501696498,0.0194085606675937,-0.0177467902345652,0.0086660379546342,0.0015355012271212,-0.7225872495670974,0.6912219268606223,-0.1294199231278714,0.0623153873716605,9.903831988993362,-0.0082926170874845,-0.0125150217482113,-0.0088236673318799,-2.092318084305696,1.3647521084531369,1.2464094184589865,1132.4496081431396,1148.34297410038,1147.1121054581183,1118.8678532319116,-552.4561108296102,-214.25062772555523,-37.395475985477674,599.9128383474854,162.08524392883285
2.1,-0.5330461657998157,-0.7278029276487369,-0.9456902673386391,-0.0068743742343491,0.018284892299178,-0.0210685485956682,0.0086593254544369,0.0015171698398907,-0.7225980020414567,0.6912133578949775,-0.1297911322566533,0.0620140265909699,9.906886946490314,-0.0081589430760987,-0.012309198539293,-0.0085403124782521,-2.092348301172392,1.364776949221377,1.2463892857207979,1131.237344340002,1148.0047178768286,1146.6849078934567,1120.3584297904915,-460.5088527361757,-72.8799042904954,-293.4851095867606,621.6075453209347,162.083771347356
2.1025,-0.4397384240962952,-1.1219773701327715,-0.5121607171443581,-0.00703011293572,0.0148845893907822,-0.0224983886794707,0.0086487046409149,0.0014939605719417,-0.7226171983630965,0.691205305105068,-0.1304489917854472,0.0615609435886281,9.90951010157618,-0.00802923256164,-0.0121065093117198,-0.0082545611414808,-2.092376980736545,1.3647995650029878,1.246370261474595,1130.1470638794588,1147.9785745789277,1145.6446799101848,1121.9758909585164,-409.1098568495086,35.59384994773685,-491.64473196166136,647.7564003853923,162.08230970261732
2.105,-0.3893836325576489,-1.4375659598016375,-0.098313896011314,-0.0064536800349444,0.0099592198032874,-0.0224189898347242,0.0086336335421649,0.0014656405467527,-0.7226437073189736,0.6911971892941727,-0.1313548997886049,0.0609617495003126,9.911710268617911,-0.0079053935685158,-0.0119085749053591,-0.0079688462912623,-2.0924039006383626,1.364819731774732,1.246352168345392,1129.1917950557545,1148.182687126567,1144.2266842336485,1123.5972117924186,-338.98894869990534,120.7395257883971,-606.9063449012576,624.3153474028665,162.080858593534
2.1075,-0.3820482174697164,-1.6121456943669172,0.2473336961447368,-0.0057587418182416,0.0041941443040744,-0.0210616331027673,0.0086155595414167,0.0014332817780608,-0.7226738664570109,0.6911884773428819,-0.1325114996328547,0.0602340173975337,9.913500681985145,-0.0077893152051764,-0.0117167844768651,-0.007685307705243,-2.092429305909509,1.3648384894422976,1.246334879256659,1128.4521191359593,1148.5822722078697,1142.6101481856783,1125.0974676955307,-258.8848249356998,191.35720125628225,-681.5938886009608,603.5110720975482,162.07942202624923
2.11,-0.3799754623095762,-1.6385420852090447,0.5460384215300798,-0.0061670297496972,-0.002187565076096,-0.0187985488014396,0.0085986030333589,0.001397968298074,-0.7227015301711801,0.6911800034064413,-0.1339549240187365,0.0594346723311112,9.914897549087284,-0.0076826761358826,-0.0115321223047629,-0.0074057188972626,-2.0924538828989268,1.3648569556817436,1.24631874837467,1127.897370931076,1149.1394731328487,1140.8187147906435,1126.6147671529063,-134.61361056088495,192.38830996305705,-582.7118527749132,493.9460935847924,162.07771736119383
2.1125,-0.336723375817668,-1.5182031742871482,0.6857720898503828,-0.0080884954717116,-0.0065537395671576,-0.01658098860732,0.0085865762361203,0.0013633043310985,-0.7227212471585172,0.6911719070016868,-0.1357478349821808,0.0585822323956445,9.915920212457708,-0.007586783472106,-0.0113550596003919,-0.007131521784416,-2.0924785456705695,1.3648756689532868,1.24630399926198,1127.7790510831549,1149.5442137576847,1139.696588921804,1127.5671981634543,38.851876379564715,120.73286858007216,-332.5663841063263,307.45580807327053,162.0763144387226
2.115,-0.1984389301580214,-1.278952518007134,0.71149391245029,-0.0114191887804919,-0.0102196993192784,-0.013971020507527,0.0085818209785993,0.0013316265574825,-0.7227326449638137,0.6911638819340633,-0.1379117199577925,0.0576938582440309,9.916589958408473,-0.0075025908228834,-0.0111856328098071,-0.0068636418289082,-2.0925035330053543,1.3648944627281083,1.2462906583615627,1128.0916303129738,1149.743137475749,1139.155882870112,1128.1520461932728,249.09568779574465,15.724298906387803,-90.79941019844524,174.93121246560534,162.07493142782826
2.1175,0.0971145792187519,-0.8974147815036173,0.6278428970730922,-0.0153875456054265,-0.0137360597585787,-0.0107845859249644,0.0085843103634306,0.0013038165336225,-0.7227391276999101,0.6911556411329519,-0.1404119755227017,0.0567750892221155,9.916929074861002,-0.0074307876412891,-0.0110235037244831,-0.0066023856341713,-2.0925288952086425,1.3649128041309155,1.246278433928551,1129.0245295221337,1149.6228352522169,1139.2425918708116,1128.4418542257827,437.7310677170592,-109.9535332010442,143.3566066537909,46.366317508910555,162.0732962947994
2.12,0.4234274819115005,-0.536726451159325,0.4893546586515846,-0.0165843223600186,-0.0154211322232295,-0.0086661382059592,0.0085898446043669,0.0012865218200667,-0.722743760101569,0.6911469458729012,-0.1432316086677878,0.0556914139595811,9.916960888095536,-0.0073718164279873,-0.010867952120045,-0.0063475524198177,-2.0925547514423366,1.3649307554786971,1.2462667396438871,1130.280285651559,1149.193369809744,1139.8726659033807,1128.383877780817,595.4994740848306,-230.66874179171955,340.5710372688264,-70.66106706333963,162.0719549088776
2.1225,0.7571347502392826,-0.1763773019958484,0.3263412693291574,-0.0138381470867365,-0.0156084326098733,-0.0079074020184506,0.0085946720170373,0.0012792804591367,-0.7227485450421594,0.6911371778267364,-0.146261887482243,0.0544157278530807,9.916705854591822,-0.0073259162827294,-0.0107181637371667,-0.006098055460924,-2.092580724664099,1.364948279786891,1.2462545426089209,1132.0020268925575,1148.4694915432583,1140.945447057156,1128.088548890466,754.2060973532148,-320.65001584047195,480.0890707661085,-146.05397847240368,162.07063624133687
2.125,1.03514742023217,0.1545240138639449,0.1821825501216514,-0.0087610276990602,-0.0148798998918934,-0.0084883102001288,0.008598390714122,0.0012827057293349,-0.722753744898346,0.6911261598897221,-0.1494567773416404,0.0529504844087394,9.916180218535766,-0.0072930039307896,-0.0105732552115275,-0.0058522257241801,-2.0926063714519167,1.364965873493714,1.2462411866752243,1134.051316138325,1147.5901197305416,1142.2731112572114,1127.653607888455,877.4796297959443,-360.22861654087905,569.5705252361798,-194.87041965599437,162.06933669316712
2.1275,1.2033907872408949,0.4255295668267629,0.0971139158591428,-0.0034739696226579,-0.0135260657450324,-0.0100188113205695,0.008601603076478,0.0012956004374928,-0.7227587335243598,0.6911134069522888,-0.1527608728763635,0.0513365352171477,9.915396184642322,-0.0072726950393064,-0.0104323380387785,-0.005607966161378,-2.0926315335138534,1.364984135633735,1.24622641230327,1136.3894250415372,1146.668348460554,1143.7932996833367,1127.114196792186,1062.8818521711082,-376.1469691083301,687.8231897998977,-245.61015525778723,162.06806025947148
2.13,1.2780244102519327,0.6639282766729573,0.0789111539004654,0.0012255352224535,-0.0113220109927455,-0.0117473199207223,0.0086037998794832,0.0013144397513213,-0.7227617304002456,0.6910995556385862,-0.1560724346674277,0.0496314784038107,9.914362655733344,-0.0072644133856078,-0.0102944975971365,-0.0053630404203052,-2.0926569445461465,1.3650032297736707,1.246210176371012,1139.3657253991803,1145.709384885,1145.7122272062109,1126.4255571121664,1094.058643033646,-301.85897919319086,699.0930034715497,-247.4389762010158,162.06655502455527
2.1325,1.2589431725119808,0.7856700956634509,0.1199046304771565,0.0035614728675476,-0.0092659219107493,-0.0124580090741428,0.0086063294940444,0.0013349822537177,-0.7227639507018523,0.691085642583058,-0.1593091563995266,0.047926624768701,9.913084459702173,-0.0072673912499925,-0.0101588992943503,-0.0051154155588562,-2.092682906143696,1.3650228280335135,1.2461928984639992,1141.8597182567055,1145.159053564588,1147.2887647006944,1125.8770019111807,968.7713797249928,-147.09844117059137,594.5561136408795,-200.11587644824897,162.06532247994164
2.135,1.1866368034211805,0.8293372864722144,0.180891930637646,0.004929928933988,-0.0070344176807743,-0.0116674351256938,0.0086144263301458,0.0013483959312815,-0.7227674295817224,0.691072086569622,-0.1623849215538477,0.046430680720692,9.91156206460208,-0.0072807982792311,-0.0100249240896741,-0.0048634389119293,-2.092709262212933,1.36504264522993,1.246175720856382,1144.2095822978058,1144.9738926791467,1148.6850077744155,1125.424977729925,963.4682542046708,12.652122666894739,525.9362782042544,-163.8905980912003,162.06411237891362
2.1375,1.0503336418090967,0.8000759600272178,0.2275590647329675,0.0072389672229267,-0.0041704791398095,-0.0090259196567586,0.0086277554158287,0.001350249971931,-0.72277399027494,0.6910588663598037,-0.1651980182963105,0.0452117105684441,9.909796812361297,-0.0073038169034432,-0.0098921431647936,-0.0046062625927133,-2.0927356323410407,1.3650626288288499,1.2461592564024306,1146.6770595277292,1145.2223141779225,1149.9184460917159,1125.057548920725,820.150066643436,165.02751352505027,340.5683223597025,-101.51440418362868,162.0626861487281
2.14,0.8873283603655981,0.7189853672801823,0.2236566916665115,0.010288963806719,-0.0019960667711016,-0.0063885819666353,0.0086437101034842,0.001339573745543,-0.7227834612617198,0.6910475091223821,-0.1676654322555035,0.0442565727994093,9.907790712749188,-0.0073356986225668,-0.0097604018574159,-0.0043438561453639,-2.0927614806864216,1.365082312348885,1.2461431541020067,1148.310332631023,1145.799030246772,1150.387849386214,1124.9174057090067,539.8801256651155,287.7536862860841,29.311259845918077,-25.733325099463947,162.0615192886179
2.1425,0.66254853160711,0.5989880763362553,0.1832963472081633,0.013496518709802,-0.0003677623931217,-0.0048875445234686,0.0086595197402989,0.0013218935322495,-0.7227943775943341,0.6910404071025724,-0.1697952466171925,0.0434566424297831,9.905546968259971,-0.0073756990061554,-0.0096298523507835,-0.004077089706329,-2.0927866417919136,1.365101810540792,1.246127673908141,1149.3764601560547,1146.661082609353,1150.0650023909454,1124.9288822952276,320.7783977183294,367.24407441652926,-282.9043626550234,18.969382883097246,162.0603751834233
2.145,0.3913188643503584,0.4642930800303871,0.1393629040599853,0.0158234257777224,0.0007659632122085,-0.0047524135765444,0.0086741615904703,0.0012998777044493,-0.7228061076336609,0.6910386050951414,-0.1715868598792054,0.0427679385249147,9.90307038858882,-0.0074230315915148,-0.0095010285370918,-0.0038075105196933,-2.0928106883527486,1.365121191631888,1.2461136390131016,1149.9142246196143,1147.6352506188548,1148.9733275729388,1125.0122526234225,87.30121025892188,377.3963985256695,-626.72832218906,29.399589289733452,162.05925027154035
2.1475,0.0880114105095605,0.3322701441811996,0.129250616232341,0.0164969271091898,0.0013104697099337,-0.0058175506275075,0.0086872713048939,0.0012761733996785,-0.7228178099824617,0.6910428284857227,-0.1730542814698834,0.0421559987555096,9.900369331045,-0.007476850458857,-0.0093747068572554,-0.0035373611243026,-2.09283364631802,1.3651401400980383,1.2461013038278435,1149.8129662073493,1148.5480646019812,1146.9313607800002,1125.0758802416763,-172.58675704106648,334.17380739193305,-1083.8849908129537,-8.35941861987539,162.0581490507669
2.15,-0.2718389140240455,0.1973134335840139,0.1876265341034593,0.0154102090930789,0.0013190210505161,-0.0073974045852311,0.0086994157258025,0.0012538670620579,-0.7228302473278054,0.6910514153304674,-0.174237195224698,0.0415927197821133,9.89745679965781,-0.0075361422942209,-0.009251823392066,-0.0032694567275029,-2.09285536280866,1.3651583405488965,1.2460910334171529,1149.0512908344092,1149.3061196558144,1143.553902618874,1124.970455530323,-358.16001602721224,189.66553271539345,-1337.013562213161,-88.47185360823649,162.05685588261505
2.1525,-0.5422740731991829,0.1118709437807836,0.2958377747669955,0.0135432653927682,0.0011278768049159,-0.0081175674142648,0.0087124568735419,0.0012309400372592,-0.7228436400518585,0.6910623176363582,-0.1751300260495439,0.0411410553046503,9.894351171346381,-0.007599711054874,-0.009133312257236,-0.003006857651148,-2.092875620016834,1.3651757254823012,1.2460838009875668,1148.0221661272133,1149.496392265558,1140.2462929689343,1124.633520973635,-450.03345789779513,-35.40076258768511,-1331.512642622148,-197.17523804732568,162.05580262392468
2.155,-0.764947191134854,0.0531764330483827,0.4414563939942535,0.011509408345425,0.0012835827811659,-0.0073542912082964,0.0087246369261728,0.0012094706497437,-0.7228564223098795,0.6910741030518514,-0.1757375149630611,0.0407561759203643,9.891078911054237,-0.0076660626398057,-0.0090198469841398,-0.0027528102164764,-2.092894516608767,1.365192781101949,1.246079509900604,1146.80112354492,1149.129115842876,1136.896339405763,1123.9845793400864,-486.23086220033105,-236.67081422875748,-1270.1438016401933,-307.1954141670423,162.05477578740613
2.1575,-0.9441694967963312,0.0114663388193957,0.5899067537968525,0.0091880671345673,0.0016931453211842,-0.0053395918880339,0.0087323210290483,0.0011944669475433,-0.722864281507482,0.6910865698282291,-0.1760836434012675,0.0403260168672532,9.887673941219212,-0.0077333337588199,-0.0089116757077196,-0.0025103780792489,-2.0929126978337145,1.3652102871295717,1.2460768085032328,1145.5910118162114,1148.3130381944143,1133.8955739607331,1123.0975439027995,-447.42718721987376,-410.7137550014701,-1035.885377735098,-394.2581575127035,162.053771829059
2.16,-1.0722788719356469,-0.0138701977446217,0.7126644602146507,0.0061976788612781,0.0019792545978656,-0.0026420968028442,0.0087321241349202,0.0011945769442799,-0.7228623974904604,0.6910995412525281,-0.1762520525245537,0.0396893691326935,9.884176462064726,-0.0077992452942626,-0.0088085596788755,-0.0022822130030291,-2.0929311301715856,1.3652295933737155,1.2460746531633666,1144.5639876088208,1147.0755470678687,1131.7169125170876,1122.013288552523,-384.02603155196533,-591.4259553742921,-702.6384328315239,-490.15133505846416,162.05279680357532
2.1625,-1.1770603835496605,-0.0244095290503699,0.8122710207086897,0.0025969210771846,0.0019900216313684,0.0005023751454148,0.0087276187843984,0.0012105236717427,-0.7228497575299658,0.6911126587978306,-0.1763237588420548,0.0388914006794349,9.880629455775491,-0.0078612225546819,-0.0087098820262163,-0.0020701905173906,-2.09294986420806,1.36525149950177,1.2460730911633833,1143.6708816584517,1145.3559084175429,1130.3823817965756,1120.6467872275075,-268.52290569286765,-625.7179238143768,-262.6373420487254,-487.3851060425399,162.05166218684502
2.165,-1.2370917050391403,-0.0133719018575237,0.8560950783757971,-5.649019355515385e-06,0.0016551901219797,0.0026727551976597,0.0087202305842035,0.0012389584551038,-0.7228268978991456,0.6911251018013606,-0.1762992831747219,0.0380038622955022,9.877081633240032,-0.0079167275740631,-0.0086146603356491,-0.0018755056802519,-2.0929692830005417,1.3652755778205956,1.2460720560909837,1143.2213730803564,1143.9469574487969,1130.403725806844,1119.5763630223103,-133.7209249255949,-508.44279921844816,218.65138535300056,-390.3070708955139,162.0507477851637
2.1675,-1.2848440153262344,0.0202593474311581,0.8680452067021688,-0.002251018275953,0.0011647461716109,0.0041928309680224,0.0087076296396531,0.0012746863848551,-0.7227996693125519,0.6911360421552952,-0.1761054151682586,0.0370702086733337,9.873586965335987,-0.0079635292418193,-0.0085217013650782,-0.0016987254641978,-2.0929893214187985,1.3653004732165297,1.2460713493808169,1143.0022770338237,1142.8136944214507,1131.4756387233404,1118.69525187303,-75.92409008193661,-392.90340241264784,644.3148839394008,-328.2654334445012,162.04986778884728
2.17,-1.3348221684895405,0.0806856270344912,0.8517306046018909,-0.0046273358102227,0.0007954310818834,0.0059836508363415,0.0086898626043353,0.0013104064407844,-0.7227727131296822,0.6911454486850342,-0.1756778291383843,0.0361939395240791,9.87020077990066,-0.0079999773062609,-0.0084296789131846,-0.0015397946613561,-2.0930098092474263,1.3653254199279679,1.2460706864447773,1142.8417526299468,1141.9824404367337,1133.6253002265407,1117.9350358550876,-69.4510197803553,-204.33851137805027,865.1839854371431,-225.68218787710543,162.04885423105696
2.1725,-1.3611807307341728,0.1367014743194235,0.8088935930510956,-0.0069006933239008,0.0008531551474729,0.0080355152025687,0.0086694808803579,0.001344652769622,-0.7227473420450993,0.6911546406633282,-0.1750697499795758,0.0354272460749139,9.866978299430976,-0.0080250874828029,-0.0083372092350159,-0.0013982648063909,-2.093030800327499,1.3653508765046123,1.2460698468244635,1142.655021934922,1141.7920018645605,1135.8015586505262,1117.5668409336445,-115.55919405035768,15.450942893584264,867.3766188805398,-93.8039003613476,162.04804690387957
2.175,-1.3424657185189,0.1800919751216838,0.7267090359879956,-0.0101955726181558,0.0013890928129044,0.010592372248643,0.0086487521648939,0.0013781095164282,-0.7227238603664025,0.6911642079135982,-0.1743609044215595,0.0347851266896994,9.863974368643236,-0.0080385394247558,-0.0082430197749937,-0.0012732823268884,-2.0930522016645408,1.365376436959096,1.2460683996061248,1142.2639566596947,1142.0596951512016,1137.962183320944,1117.466016353281,-205.4729763021303,153.35151781886327,807.1566968817843,2.1134004082340136,162.0472804280476
2.1775,-1.2579372497930743,0.1986214958164562,0.6095912233470255,-0.0142513766884306,0.002298542378807,0.0129663794572902,0.0086275862925408,0.0014130255177626,-0.7227032037753535,0.6911735011117317,-0.1736186391198352,0.0342253712742028,9.861242913798243,-0.0080406809920979,-0.0081460788223987,-0.0011636886043809,-2.093073720202047,1.3654016969662797,1.2460661670087778,1141.6276570534112,1142.5587594536548,1139.8373421349352,1117.5774079356856,-318.47930965955806,203.24359812052967,634.6523615689101,96.23832105858332,162.04654925944632
2.18,-1.067020037635775,0.1744776818136704,0.4587449186968493,-0.0184143917106062,0.0034458946102715,0.0146497140825349,0.0086051324593136,0.0014484110757841,-0.7226884096551995,0.6911816190602817,-0.1728536117146003,0.0337389473644812,9.858834967303874,-0.0080325024120395,-0.0080456803977138,-0.0010680578997207,-2.0930945021297647,1.3654260059764871,1.2460633338841047,1140.6715601113972,1143.0759131418042,1141.1354451287884,1117.947207958574,-481.3987236988044,163.59092989173755,410.6569938617755,225.7088857743886,162.0458622056764
2.1825,-0.7036161443123088,0.0915035546815725,0.2607684394009335,-0.0226506392211053,0.004508470916166,0.0157462964887845,0.0085825001241939,0.0014798690380978,-0.7226797886972662,0.6911878993241835,-0.1720547694464223,0.0333907070162315,9.856796320994263,-0.0080155889250912,-0.007941373879494,-0.000984836674739,-2.0931143782749975,1.3654486729790187,1.2460606458314851,1139.2206634349172,1143.3767141031135,1141.8906271042442,1118.7059523645576,-560.4522104672589,20.649267230465274,149.70354850025024,330.64244625944207,162.04509048924467
2.185,-0.3004927378506444,-0.0169773920192915,0.1011026398311422,-0.025076119416852,0.004866445607248,0.0160386444080069,0.0085617809840192,0.0015055691493298,-0.7226749658335352,0.6911928000170798,-0.1712555177857091,0.0332213585556166,9.855166802695734,-0.0079919405268686,-0.0078328597766689,-0.0009125473203509,-2.093133536170539,1.3654701296842888,1.2460587396935725,1137.8692990590607,1143.1791594779563,1141.8839628712897,1119.600420189871,-534.0774915800125,-187.9016062383511,-97.62557629051325,403.2119263801264,162.0444924559355
2.1875,0.1710827096749937,-0.1525442106481301,-0.0308089278628436,-0.0258410961487475,0.0049019466141959,0.016017032589231,0.0085461849415869,0.0015199974154691,-0.7226704623919445,0.6911969493823085,-0.1704498705063028,0.0333385530067931,9.853979173482664,-0.0079637600156863,-0.007719940373278,-0.0008496069023559,-2.093152485095944,1.3654910816598664,1.246058349641301,1136.5502759770172,1142.4372060719215,1141.4024992227917,1120.722011996458,-492.8559198184408,-376.32642862923495,-227.97364846715513,471.5177586815672,162.04394234120315
2.19,0.6607539427445667,-0.2970430938084295,-0.1246747496151596,-0.0249857064042121,0.0046363376385957,0.0155254041829203,0.0085359918774103,0.001519709377694,-0.7226640587109994,0.6911999370946919,-0.169612981414709,0.0337798474659648,9.853259770312985,-0.0079332928853371,-0.0076025166811441,-0.0007943041049438,-2.09317186394819,1.3655121130861039,1.24605992768675,1135.4050194599688,1141.2975273348104,1140.744094628954,1121.958008983279,-383.2219778366461,-516.2971476490039,-248.2486693814788,496.76459120452057,162.04343271171743
2.1925,1.119812677438497,-0.4321257608534889,-0.1578495869171955,-0.0222653098647919,0.0037174152607608,0.0142684946888567,0.0085273292940984,0.0015023520823379,-0.7226574797535311,0.6912012110966578,-0.1686700372429472,0.0345101499187865,9.853028086932126,-0.0079027705796507,-0.0074806551371579,-0.0007445568344195,-2.0931913717817654,1.3655321234528932,1.2460617265615843,1134.634166087834,1139.8557203336768,1140.1612558758843,1123.2058349524807,-218.41974189651876,-642.5858422155807,-176.8828710618474,515.1937823904174,162.04297284434904
2.195,1.572981554318433,-0.5552981040373653,-0.1212615863470518,-0.0171493193151285,0.0020891236603155,0.0124222937797107,0.0085200846567558,0.0014683746557847,-0.7226521653259839,0.6912008562965352,-0.1676320034699367,0.0355063837115121,9.853292809099248,-0.0078743746254967,-0.0073546075186953,-0.0006978237258948,-2.0932104517538073,1.3655502318255948,1.2460627239098412,1134.3129207504862,1138.0845981237323,1139.8596802736447,1124.5339778952307,-0.539016744232831,-609.5781079265223,-18.21121398829623,432.3440961585383,162.04248000386826
2.1975,1.8348766269046708,-0.6064503448228301,-0.0376868494536386,-0.0116793238382253,0.0005183662756151,0.0111524987997716,0.0085130220337817,0.0014254053065649,-0.7226483832483326,0.6911993856269568,-0.1665861155899062,0.0366291948242458,9.854053255749289,-0.0078500441353317,-0.0072248057269656,-0.000651237333278,-2.0932284635230927,1.3655665083006807,1.2460622820793599,1134.6314710041129,1136.807829794044,1140.0701998059428,1125.3675554332735,256.6240703065259,-422.9844632418177,182.48404962695207,248.82847927895597,162.04211974719576
2.2,1.9563572016569248,-0.5844018100202057,0.0691449396002069,-0.0058032235752016,-0.0012820371791228,0.010890709535325,0.0085070690210351,0.0013834392375773,-0.7226454447627814,0.6911975978896423,-0.1656778769028351,0.0377365360623393,9.85529772544402,-0.0078312151099699,-0.0070918028136236,-0.0006016731000304,-2.0932453567049847,1.365581521439792,1.246060600643239,1135.5960411020187,1135.9696758075231,1140.7721005217795,1125.7781202916256,563.5525126415025,-236.01462796587433,392.7344076329147,59.00498382034255,162.0418136170027
2.2025,1.945244385139549,-0.456443203947911,0.1727862270048513,0.0007971785721849,-0.00379985874956,0.0121412438020051,0.0085045116137195,0.0013550418057191,-0.722641301699776,0.6911970849190481,-0.1651031921815851,0.0386701220384604,9.85700377277372,-0.0078186206554771,-0.0069561490364339,-0.0005459600733478,-2.0932616255340366,1.36559674887953,1.246058377127595,1137.4492335673203,1135.6277566542146,1142.0338718441071,1125.6625803523752,773.3373543142698,-10.912945598465972,496.6283514086732,-153.6082856951485,162.04151119619496
2.205,1.8241741415283763,-0.2615309729558484,0.204446317245155,0.0056749972057002,-0.0060916073050325,0.0138695845303821,0.0085054304475439,0.0013432242382562,-0.7226339471557526,0.6911989065542832,-0.1648938044625339,0.0393795092755746,9.859139645847431,-0.0078122132786882,-0.0068183468999022,-0.0004807858759447,-2.09327760754882,1.3656132735300308,1.2460554820639067,1139.4627278735902,1135.915111079531,1143.2552422788228,1125.01007886315,858.0790502506898,215.5171148086584,474.6364752999044,-377.6334916135137,162.04131521967585
2.2075,1.6190463619421749,0.0103452834742081,0.1559372267240952,0.0096860353904518,-0.0079515985169821,0.0153464043725329,0.0085094457331719,0.0013492489830754,-0.7226239989806185,0.6912019163579458,-0.165049968185148,0.039834367992001,9.861664218380577,-0.0078112310748719,-0.0066788726888156,-0.0004030009699844,-2.093293187305762,1.3656318632649531,1.246051535521979,1141.7396288185737,1136.705342228258,1144.4070542206068,1123.7744128943075,909.1635156231598,372.7608550686989,414.7276951265756,-581.7140383230832,162.04117995817663
2.21,1.3698339165028364,0.3161211178787354,0.0384313004397423,0.0128681243869729,-0.0085659266460473,0.0163472318546441,0.0085157675457226,0.0013683977339495,-0.7226147981853349,0.6912044738557355,-0.1654839320347115,0.0400856541618525,9.864527820345428,-0.0078144656783164,-0.0065381662891004,-0.0003096969686463,-2.093308274104606,1.3656520601594495,1.246046542178146,1144.008545451706,1137.7789153548745,1145.3288807544557,1122.1015086715347,843.3154068994733,458.9540312647939,282.25598353752196,-747.2112571520189,162.0410971059906
2.2125,1.0941512512062743,0.6072589258305823,-0.1514125637746829,0.0152192115771153,-0.0069507680885322,0.0165975591092985,0.008525431109705,0.0013921486327989,-0.7226070143492641,0.6912051595372894,-0.1660817409659735,0.0402661272100102,9.867672635438153,-0.0078205817215227,-0.0063965656926904,-0.0001984480223325,-2.0933232165447135,1.3656730697707515,1.2460410977224543,1145.9562058530707,1139.0001123845818,1145.8183341382944,1120.0383566085477,706.8007792317227,526.2151819667109,96.4259732886169,-940.489738421249,162.04107974953155
2.215,0.7568597886870914,0.8651342072536822,-0.4379366554269756,0.0175276108397523,-0.0025840664511402,0.0158982096437604,0.0085375406320734,0.0014178173984163,-0.7225995538178389,0.69120356788987,-0.1667815182910428,0.0404015707703942,9.87103594949221,-0.0078283027290625,-0.0062543227933999,-6.764558347252868e-05,-2.09333837983816,1.3656948657223489,1.2460358751368863,1147.5425493478645,1140.409991264708,1145.8110106208987,1117.3990599794283,415.8998938423512,484.60083694332207,-98.0526844345538,-940.8043440107396,162.0411365849651
2.2175,0.4816175258298673,0.9662955131214676,-0.7038498892187124,0.019177776160833,0.0021772226560347,0.0147024274274422,0.008551997810724,0.0014400025242855,-0.7225906269450854,0.6912000187556321,-0.1674960758560032,0.0405697747852594,9.874550596916313,-0.0078365367211028,-0.0061116884852409,8.360395215208846e-05,-2.093354080974227,1.3657178523140068,1.2460312713264683,1148.0357053222829,1141.4231165692984,1145.3280707161216,1115.3343348884937,7.5221733928623875,358.8753887316428,-268.72026847020607,-729.7325864947614,162.0412492106971
2.22,0.2243609638936442,0.9427559465174112,-0.9698623472196768,0.0202275218399128,0.0067152511529689,0.0130879032602675,0.0085693616689199,0.0014547617705742,-0.7225789657481417,0.691195793822663,-0.1681679843702401,0.0408388449518149,9.878146888286416,-0.0078445194946018,-0.0059690389934178,0.0002554034032379,-2.0933704909617203,1.365742421711904,1.2460276250611373,1147.5801602148288,1142.2043682083663,1144.4674092785476,1113.7503970469545,-394.12110894409966,291.53481787657876,-423.949619313189,-520.6439294059803,162.04142922589327
2.2225,-0.0459029109100285,0.8140513454768691,-1.25065011735086,0.0205423352435348,0.0102326432634257,0.0101599212255882,0.0085920769449562,0.0014589536895574,-0.7225696832602674,0.6911920044281458,-0.1687785916619176,0.0412922510952159,9.881753885560652,-0.0078519417351969,-0.0058270948460327,0.0004471362577371,-2.093386710755828,1.3657667741344064,1.2460252614288658,1146.0650997775624,1142.8807906586815,1143.2083226195557,1112.7311152414638,-671.8106534817849,212.69926616078465,-467.0803118793728,-200.25983694377345,162.04172150876468
2.225,-0.2241055381643574,0.6769522840619756,-1.419724831266419,0.0198964526234937,0.0109154007719724,0.0065253104026606,0.0086199217252919,0.0014513437736133,-0.7225701616257336,0.6911882979561138,-0.1692982191069188,0.0419512879860093,9.88530298055644,-0.0078590527890108,-0.0056869712923243,0.0006575665082888,-2.0934013336926327,1.3657890769992904,1.2460245032809267,1144.22110694742,1143.2678645391702,1142.1320077191508,1112.7490978622357,-788.1478608415533,131.99403928788624,-404.5188021888493,185.4074740189884,162.0420265689797
2.2275,-0.3380682293466188,0.5703110800940729,-1.4839242868906604,0.0182811160146081,0.010035747724392,0.0020645071634117,0.0086496009411023,0.0014352754060913,-0.7225832192941762,0.6911839695570947,-0.1697162249316016,0.0427321227161727,9.88872967557472,-0.007866574505473,-0.00555000988943,0.000884939654781,-2.093413550766076,1.3658089507304492,1.2460252773716056,1142.1243604733547,1143.5407608551209,1141.1857286086115,1113.6581526115588,-828.5290485290893,101.62698924155154,-342.1893588432413,484.0521269357499,162.0423919564094
2.23,-0.3948416776729284,0.5133720542494885,-1.441699622717552,0.0162762672302887,0.0091230817350311,-0.002636581444099,0.0086793465225059,0.0014097122083824,-0.722607881036992,0.6911783143816166,-0.1699841654285133,0.0436360554718827,9.891972912263748,-0.0078753753048158,-0.0054175159709627,0.0011272943426366,-2.093423302163403,1.3658261532919311,1.2460271165570396,1140.0784617047743,1143.775999485378,1140.4210609249346,1115.1693584969144,-755.9850451654872,99.2105797520729,-256.46757708332734,691.2932643836177,162.0428040075387
2.2325,-0.3935802256463376,0.510803089860791,-1.2641612424751258,0.0145588439212168,0.0091931651081406,-0.0072620410514872,0.0087086350195068,0.0013775858064726,-0.7226392610792004,0.6911709014449158,-0.1701259006136948,0.0446258100558941,9.894976440992536,-0.0078861179237965,-0.0052904365350924,0.0013824183677058,-2.0934312010334866,1.3658419008978206,1.2460298941397443,1138.3444352475271,1144.0368137538812,1139.903390723195,1117.1146189334768,-649.3087321606847,138.6812533664881,-177.0426890837863,865.4707785656867,162.04326782527826
2.235,-0.3573462027701447,0.5312377316432911,-0.911394235353048,0.0134631966529903,0.0109050242337305,-0.0120630779666318,0.0087384035717836,0.0013400432918945,-0.7226706627858829,0.6911623235241564,-0.1701621259316967,0.0457096074097728,9.897689509997017,-0.0078989633052089,-0.0051690786640868,0.0016480296815851,-2.0934382257854316,1.3658581192697656,1.2460339897090635,1136.8319180439712,1144.4694057522104,1139.5358474795155,1119.4967123897427,-446.2194243211951,190.26647356093767,-103.55943892099486,818.7562146236717,162.04387893391478
2.2375,-0.3273791246774875,0.5321327298539492,-0.5330082589993794,0.0133960660608411,0.0132958938226231,-0.0148903698923652,0.0087685604204235,0.0013017350139125,-0.7226965335578612,0.6911527894271791,-0.1701478107976124,0.0468300185121253,9.900068640070153,-0.0079134830517841,-0.0050530127364082,0.0019217646494754,-2.093445505474813,1.3658766370522673,1.2460393239372645,1136.1133381259212,1144.988146121686,1139.3855935285899,1121.2084000065954,-175.5059264028541,250.2874050605728,-42.650728183795614,574.51921829125,162.04443032233334
2.24,-0.3258924093879246,0.4848445573675764,-0.1257155654034705,0.0137379723950494,0.01558302190754,-0.0158876697472724,0.0087948680918396,0.0012685325872427,-0.7227141402845179,0.6911422795542553,-0.1700966351993674,0.0478527011658399,9.90207932184948,-0.0079288263049754,-0.0049411034922697,0.0022013112222365,-2.0934538354918164,1.365897151517104,1.2460448306103156,1135.9543884119569,1145.720842777513,1139.3225938385967,1122.3693084811991,18.896165825254172,330.7694792112741,-19.187452148390047,355.0078104925963,162.04502218331143
2.2425,-0.357349066135095,0.3880798370439194,0.2528295046450165,0.0140654718473103,0.0172684420938092,-0.0152124103482014,0.0088163288703637,0.0012455471452528,-0.7227227248604243,0.6911305452508417,-0.1700596438191445,0.048695175689815,9.90369303570344,-0.0079440376911249,-0.0048316329641586,0.0024844182800709,-2.093463890431233,1.3659190625026276,1.246050826049366,1136.2078189550475,1146.6419935177423,1139.289656267848,1122.9834390590584,179.76988292548796,406.81126043828914,-9.103406158146948,116.625039379144,162.0456456858777
2.245,-0.4223549814582778,0.2332318154325313,0.5355052286845418,0.0137756555472413,0.0181662204884546,-0.0127610543177276,0.0088305749907411,0.0012345301532386,-0.7227269024290564,0.6911176548207247,-0.1700237337240487,0.0492998438371345,9.904889083843582,-0.0079582570018908,-0.0047225851864234,0.0027689208336809,-2.093475155071032,1.3659412083156697,1.2460575999402823,1136.8532378265843,1147.7548990797047,1139.277076807806,1122.9524336780948,340.99101575007626,509.27494993467184,4.880739024338358,-137.9826567629636,162.04630563937872
2.2475,-0.5140045313621324,-0.0103949345530559,0.7064229863402884,0.0122720974840926,0.0186709917865613,-0.0082648509687228,0.0088364717929811,0.0012366197801307,-0.722729875155484,0.691105202364546,-0.1699858340394994,0.0496312777309867,9.905653304943467,-0.0079708968799465,-0.0046118154358869,0.0030526672584148,-2.0934870692931207,1.3659626637439424,1.2460656070908247,1137.9127740337979,1149.1883682674156,1139.3140599629696,1122.2935257752436,410.27347154905294,513.3427428217256,30.65027230163716,-318.7631795208813,162.0471383058471
2.25,-0.5797555582869188,-0.2525962277027617,0.6933364910716014,0.0102851499955016,0.0187909910617701,-0.0040357344277155,0.0088341978758211,0.0012558395888757,-0.7227312427035506,0.6910949627484406,-0.1700020423973724,0.049627600452923,9.905977720050007,-0.0079816341461008,-0.004497246476727,0.0033335060048501,-2.093499660813906,1.3659835625615242,1.2460752461002156,1138.9046051843295,1150.3216127938133,1139.430328169314,1121.3586177804905,391.9900201950978,399.9891962837495,73.12701888649983,-418.61252793692967,162.04786563973545
2.2525,-0.6153686808223098,-0.5201129743524121,0.5413341497413539,0.0079806334147849,0.0184485422939444,-0.0008322358614003,0.0088272630069725,0.0012883372866621,-0.7227303546980433,0.6910876800370184,-0.1700693736568391,0.0493819421586648,9.905858837875432,-0.0079902574291797,-0.0043770032785409,0.0036095724031993,-2.093512992782463,1.3660043010900764,1.2460864373858367,1139.8727241347733,1151.1883142488343,1139.679695057402,1120.2004631355587,397.3694596401031,277.56215098771145,143.21825127949828,-520.3236339510224,162.04862748770364
2.255,-0.6177081245938009,-0.8416461886742401,0.2698113208460357,0.0053728004230667,0.0173050731454598,0.0003293185294294,0.0088164716014417,0.0013306514810073,-0.7227278990899403,0.691082363348574,-0.170152534575769,0.0489417233985712,9.905299763713057,-0.0079965986313245,-0.0042496447953021,0.0038793019655461,-2.0935269127898266,1.3660254162583163,1.2460987258999559,1140.89145248253,1151.7094235487518,1140.1464194257117,1118.7569996107354,339.18081503175733,86.11120722648776,194.96498783792464,-512.1556477649501,162.04958132742303
2.2575,-0.5931945240152388,-1.079714081441324,0.0335827969789793,0.0037444677317866,0.0154309685055131,-0.0012023559718442,0.0088016293209192,0.0013761498179129,-0.7227257073026289,0.6910766016157242,-0.1701592694457765,0.0483839121591752,9.904308612502415,-0.0080005277048515,-0.0041142748517377,0.004141574298584,-2.093540948981617,1.3660466459715823,1.2461113396757664,1141.568628209932,1151.6188702849668,1140.6545199965915,1117.6396848967343,228.7518786414994,-145.98710447311456,217.92982569494035,-406.86120846341487,162.05040885168287
2.26,-0.5571776965821542,-1.2413684048642712,-0.1530513343326641,0.0027745699741503,0.0121092238050304,-0.0040750791039249,0.0087861810167165,0.0014182997919586,-0.7227238516064914,0.6910696621366619,-0.1700504445744808,0.047833297580894,9.90289580753114,-0.0080020535511106,-0.0039705655248896,0.0043956351932102,-2.093554717920709,1.3660675323915958,1.2461240495098556,1142.0352118757376,1150.9794880263862,1141.2360685541864,1116.7226935684182,150.15172253837483,-331.28041826678367,235.7597062932041,-324.61484795546846,162.05126963293023
2.2625,-0.5224730976447945,-1.305717761758639,-0.2829601512476154,0.0020268365247305,0.0076326041874697,-0.006524482175204,0.0087709107590217,0.0014537509895417,-0.72272244809849,0.6910608094237333,-0.1697923491415484,0.0473328520656195,9.901075992688954,-0.0080012725816004,-0.0038188920885223,0.0046410173726015,-2.0935676756386137,1.366088133463615,1.2461365819569494,1142.319386822624,1149.9624681936327,1141.8333185280578,1116.0166106569568,70.17231997906642,-464.4345125907975,232.71867546778185,-227.92937105960425,162.05215735261783
2.265,-0.4952749095783407,-1.2266493863156267,-0.3611101985188325,0.001052486608236,0.0025768548231779,-0.0075239847507693,0.008756904041519,0.0014778927034967,-0.7227212786410823,0.6910498136733312,-0.1693379725797727,0.0469491116334733,9.898865883335672,-0.0079983340225012,-0.003660258315357,0.0048774964807767,-2.093579868557309,1.366109093892367,1.2461489948879767,1142.3860734756329,1148.6573154634323,1142.399661931525,1115.5830467131202,-19.66213250634652,-588.755830626145,232.02454272755443,-128.28251695773633,162.0530765821945
2.2675,-0.4712512320049255,-0.96724806340805,-0.4357295590244278,-0.0001138432272137,-0.0029698093346826,-0.0072613689017088,0.0087454490969395,0.00148923658269,-0.7227199014821069,0.6910382510731091,-0.1686851254993801,0.0467091607865974,9.89628372497726,-0.0079934942834166,-0.0034962612034165,0.0051049074891266,-2.093591481931013,1.3661312073589675,1.2461617396839004,1142.2210761600923,1147.018689040502,1142.9934412416956,1115.375198072168,-101.71648137657247,-575.1673383241391,197.64689482649797,-27.297236658251354,162.05421456804586
2.27,-0.4553174322780645,-0.6434979156583434,-0.5046916690608348,-0.0007808744467027,-0.0064529018481232,-0.006471453242434,0.0087387411996796,0.0014875043554928,-0.7227227772753805,0.6910277722564628,-0.1678608684577891,0.046637603352173,9.89334838783251,-0.0079871792059681,-0.0033291007796101,0.0053230995848163,-2.0936015630726446,1.3661532284926428,1.2461751616303884,1141.87749106875,1145.7814787718116,1143.3878964056576,1115.4465605298287,-183.99585229517865,-431.32423007196854,129.97918703040617,72.21405213927181,162.05519067673143
2.2725,-0.4345001916102955,-0.2727811936216568,-0.581344199101977,-0.0012209575530121,-0.0078011374933969,-0.0065256711102523,0.0087373066128265,0.0014741925340921,-0.7227360884290456,0.6910185976441882,-0.1668926170217607,0.0467143812889049,9.890080006089649,-0.0079800476770291,-0.0031614706674395,0.0055319319638817,-2.093608950251553,1.366173655466922,1.246189593969939,1141.3010968986164,1144.8620678901423,1143.6433371768476,1115.7362683328645,-274.41442704485456,-297.9341559127597,72.62656472771751,144.9149628088011,162.05619370050087
2.275,-0.3960813789659374,0.0761655086096867,-0.64401968413228,-0.0017052995829292,-0.0070534893226376,-0.00808515245753,0.0087380221443189,0.0014531590962211,-0.7227614216032126,0.6910106024013952,-0.1657874378665246,0.0468407674228201,9.886500483817546,-0.0079729116881393,-0.0029962329566152,0.0057313149546917,-2.093612869559395,1.3661920012781383,1.2462043718035436,1140.5054189335256,1144.2918079922479,1143.7510292292964,1116.1711353438727,-377.6136902192856,-139.0612272676237,-1.5194584804249058,199.97437686275103,162.0572171648759
2.2775,-0.3114309615418759,0.331199421721627,-0.6563623249508386,-0.0028681532257393,-0.0045769906905263,-0.0110773381191645,0.0087380500581637,0.0014251580656017,-0.7227965836099329,0.6910036616934225,-0.164513810327648,0.0469711275910379,9.882631495684429,-0.0079664713398378,-0.0028359463978023,0.0059212835923576,-2.0936139585790166,1.3662080814314443,1.246219056125574,1139.41302844752,1144.166761753804,1143.6357398844455,1116.7361402171782,-551.0065580186248,35.48452287977613,-110.27827660690656,269.11763809419426,162.05826239754202
2.28,-0.1232664224120576,0.4721878812070214,-0.5865094772470416,-0.0052414271966056,-0.0010251133672521,-0.0147562100339735,0.0087369770886539,0.0013926192494726,-0.7228361113614955,0.69099767052471,-0.163097915402992,0.0470731990664829,9.878493642054831,-0.0079610725237291,-0.0026824756341346,0.0061018563911178,-2.0936134263870163,1.3662232393968494,1.2462336781994243,1137.7503861434325,1144.4692306066468,1143.1996378462616,1117.516723534344,-659.9944141444676,168.0382334522051,-208.14367022074708,298.5192618633645,162.05953734092896
2.2825,0.1170832919171139,0.4390834470010704,-0.4599210262961705,-0.0074282385619878,0.0017366950315122,-0.0169587586529187,0.0087376949445316,0.0013536630029834,-0.7228737108583626,0.6909924644197952,-0.1615549928073793,0.047224325986474,9.87410595264619,-0.0079564486841905,-0.0025366697337929,0.0062730414565685,-2.093612668302016,1.3662391019060696,1.246248762453422,1136.1130563767974,1145.0069529210652,1142.5950215333417,1118.2287365264951,-682.289949697557,248.60113753916795,-277.9282817165554,293.87369863735046,162.0606131637181
2.285,0.4269340929358817,0.2650334338053795,-0.2862817938857782,-0.0087266593375768,0.0036638681365256,-0.0178525341831012,0.0087406555514817,0.0013102294393712,-0.7229039583548834,0.6909873142099864,-0.1599190001351305,0.0474155851701582,9.869488651346042,-0.0079517254164101,-0.0023984263527705,0.0064347255737879,-2.0936133767699268,1.366257255019012,1.2462649447184924,1134.3389363949448,1145.7122362943423,1141.809996437679,1118.9860920275307,-765.9208211125296,320.3917130041259,-356.8773032761859,339.1188460512312,162.0616975968488
2.2875,0.8149170364710405,-0.0595362728883634,-0.0613541444605276,-0.0080612976445136,0.0044142878394462,-0.0175020341712836,0.0087433009106821,0.0012661593533224,-0.72292420776398,0.6909813297465778,-0.1582086768235729,0.0475702830100695,9.864663566415071,-0.0079456052040091,-0.0022668558565868,0.0065867477549112,-2.0936163050457206,1.3662774855696296,1.2462813667772699,1132.2834522712349,1146.6089114860858,1140.8106350169608,1119.9243307567513,-701.2723224109017,317.795445499139,-349.5360680489359,342.7094100203322,162.06300195086163
2.29,1.0837993214320745,-0.3816816851611004,0.1173601978220972,-0.0048207555614733,0.0038251556414392,-0.0163293764621525,0.0087456615632611,0.0012254717149577,-0.7229332200579672,0.6909736117454932,-0.1564841111072196,0.0476442689026278,9.859652093275528,-0.007936720128189,-0.0021405319519793,0.0067289048552409,-2.093621354700927,1.366299533118612,1.2462975505593563,1130.8325747828903,1147.3012135218382,1140.0623160974344,1120.6996390776324,-480.1112819220282,242.58339421885984,-253.4859588069648,295.76152137752337,162.0640859132986
2.2925,1.21570625033562,-0.702137861225338,0.2759732885490456,0.0009836247068747,0.002210739934704,-0.0149245294170437,0.0087438595813532,0.0011875212951607,-0.7229352581921129,0.6909635835801952,-0.1546883449843492,0.0476050273969263,9.854477981290463,-0.0079237931895321,-0.0020179211194908,0.0068610182853606,-2.093627360954753,1.366322160258464,1.2463129968542983,1129.8828958616248,1147.82182845718,1139.543205222926,1121.4031383636388,-270.9998695612343,162.6689206639674,-156.11919936446034,255.96187194124104,162.06515987123805
2.295,1.198110139973398,-0.982203150556322,0.422966185507034,0.0072079809861329,-0.0003725288489369,-0.0138624949997853,0.0087370078908423,0.0011537495025954,-0.7229329523755564,0.6909525155397669,-0.1528370874281292,0.0474300687616863,9.84916519089075,-0.0079059624405254,-0.0018975770880776,0.0069826590007401,-2.0936335096500165,1.3663443863949687,1.2463281661663919,1129.477575435084,1148.114558125158,1139.281720100612,1121.9794484373383,-16.650291900578296,44.33212553999605,-38.94423980646108,182.0666359442878,162.0662206187236
2.2975,1.0051183785729247,-1.173424755122655,0.5708268845712533,0.0117616013916397,-0.0041163394766771,-0.0133162802563088,0.0087259261722405,0.0011284449351275,-0.7229257517234257,0.690943329340923,-0.1510103954897461,0.0470785541727217,9.843738910175382,-0.0078828134672089,-0.0017782941290359,0.007093038055205,-2.0936395827617718,1.3663664768442183,1.2463440547522275,1129.7996444021219,1148.04348908488,1139.3484840238937,1122.3134715433603,303.8568612851372,-128.67617434425523,93.49170190361569,71.96324800651806,162.06726003151667
2.3,0.6272570420659673,-1.2661861019709135,0.7630723385556952,0.0143023185882907,-0.0092633591287831,-0.0127920616675503,0.0087123730863923,0.0011069806650026,-0.7229128442570507,0.6909378154637759,-0.1491821682356457,0.0466476905076223,9.838225683814992,-0.007854219701565,-0.0016591162552469,0.0071911642123319,-2.0936455807490675,1.3663885773466515,1.2463614460847767,1130.99685974151,1147.4711772534367,1139.7491786101302,1122.3392646773711,553.8772577227145,-290.2820013146342,182.02390943828183,-61.14506927910539,162.068476375554
2.3025,0.2463332807233462,-1.2225817587886263,0.9324908268175716,0.0143164444941105,-0.0133818339858537,-0.0119539850530115,0.0086967050938108,0.0010852981588065,-0.722895769064934,0.690934915053428,-0.1473162366611907,0.0462054325198055,9.832655038029626,-0.0078204011116651,-0.0015395329484861,0.0072758513981667,-2.093651106494951,1.3664110146957031,1.2463804299144707,1132.5690306907356,1146.5920790783068,1140.2586035710851,1122.0077461969647,710.2220542302954,-420.1695745654523,211.29982010270845,-206.8122839766191,162.069460112678
2.305,-0.1448462069417449,-1.0661503102008805,1.0877759028714968,0.013281803327213,-0.0166888943140515,-0.0099296593935425,0.0086773278013628,0.0010603174287156,-0.7228789226864134,0.6909332161118439,-0.145363272206794,0.0457774859147652,9.827059853373672,-0.0077819584412115,-0.0014194598426881,0.0073458997092439,-2.0936554070108966,1.3664326953281627,1.2464000105014723,1134.5479700126612,1145.3703293806095,1140.8056777106435,1121.305203257488,909.7374416651486,-585.0942744892689,214.4564076560573,-383.0814202344836,162.0704085159778
2.3075,-0.5819033859123112,-0.780698846311703,1.2134066598203233,0.0118646377990286,-0.0193962807248315,-0.0055954618795818,0.008652662268355,0.0010314905649291,-0.7228652474721781,0.6909325561102555,-0.1433090480691132,0.045352961716711,9.82147565307499,-0.0077398876061578,-0.0012990858114489,0.0074001856612667,-2.0936583535151727,1.3664520065749108,1.2464194548129475,1137.1177178990613,1143.6666077058603,1141.3308856093652,1120.0923390957923,930.4622882206528,-637.2063603226842,149.3566512956054,-487.68049366668623,162.07150142899152
2.31,-0.8970459318792577,-0.489383655884497,1.2382753579725718,0.0103046756123145,-0.0206766375190709,-0.0010337659997085,0.0086230658963177,0.0010055442611473,-0.7228543817221627,0.6909331721383944,-0.1412659806427772,0.044843716872109,9.81593998142743,-0.0076954437087723,-0.0011787479924917,0.0074376138771445,-2.0936605299154007,1.3664688900748232,1.2464389799504154,1139.2002814537643,1142.184297578996,1141.5524609671215,1118.8668007891547,767.0787232049571,-576.9974796569963,28.081492840875082,-500.09413230451327,162.07237185980097
2.3125,-1.13594292740024,-0.1736326123885179,1.1665370816326086,0.0076720321892583,-0.0211544631681783,0.003189278427705,0.0085900209482321,0.0009889374092296,-0.7228449635694979,0.6909356983433855,-0.1393591470463464,0.044180425827697,9.810491989814311,-0.0076497312051883,-0.0010587619757275,0.0074572193996786,-2.093662780873964,1.3664842258395409,1.2464591991188947,1140.953111515086,1140.7816203075756,1141.4712930735695,1117.5918684342698,609.9739279291173,-533.6882408303268,-85.32737728815118,-485.5334332622182,162.07319758054135
2.315,-1.2923736032673707,0.1428952230480002,1.0234663221864233,0.0041870175565754,-0.0210756731262064,0.006705374459804,0.0085539704253563,0.000987949651492,-0.7228364422439987,0.690940122310799,-0.1376973030861244,0.0432818586083827,9.805172708341006,-0.007603404353282,-0.0009394498223082,0.0074582348438431,-2.0936654372862407,1.366499457975085,1.246480204698741,1142.25015109341,1139.5158563748444,1141.125824080681,1116.4391336228437,376.9042925035672,-468.7979030782217,-194.53605531307815,-392.40050021945456,162.0739840383006
2.3175,-1.331673588214018,0.4402283960367334,0.8221452606349907,0.0003767445853057,-0.020321752605927,0.009320689056021,0.0085148290647779,0.0009984323921018,-0.7228309093608603,0.6909439819188382,-0.136242143975884,0.042206947566728,9.800023474336168,-0.0075564440018259,-0.0008211168336966,0.0074402948235896,-2.093667793876413,1.3665148852081443,1.2465010506541292,1142.8376329776036,1138.4376307921843,1140.4986127970044,1115.6298659331724,77.70689217841374,-440.7631598665924,-322.1332857597713,-240.21288672393493,162.07472023372537
2.32,-1.2328233934545207,0.7504548442685715,0.5611365002876954,-0.0040617201292688,-0.0184826356463172,0.0111518089819811,0.0084766914910226,0.0010154841588023,-0.7228301327742598,0.6909454928766279,-0.1350058040817379,0.0410815758938489,9.795083962866986,-0.0075083296564536,-0.0007040848980493,0.0074033143646405,-2.0936692261435192,1.3665308314822795,1.2465217608084271,1142.638685554302,1137.3120405755117,1139.515157651882,1115.238069189224,-214.82380789087443,-399.4767644459629,-382.51729793657586,-38.40446457938665,162.0755414324823
2.3225,-1.0298104135342787,0.9532050577040944,0.364463307979023,-0.0075920047523704,-0.0160405260253782,0.0113670359560161,0.0084422527091248,0.0010345650853964,-0.7228336398316839,0.6909449423598821,-0.1339866940721714,0.0400073745424152,9.790393416154906,-0.0074580713116068,-0.0005886869782794,0.0073475175787171,-2.093669292083282,1.366547612891794,1.2465418717964596,1141.7635139381491,1136.4402469699546,1138.5860263073212,1115.4378436102756,-462.9365691085837,-355.7212752870997,-376.6262924412077,174.30132098273776,162.07617063339123
2.325,-0.714557945124001,1.0822362616308967,0.2244209974827527,-0.0107792272774352,-0.0126971088172202,0.0103750340864134,0.0084163356337666,0.0010498355928003,-0.722838176295216,0.6909430321349601,-0.1331974432167505,0.0391329973208494,9.785988247177198,-0.0074043593593289,-0.0004751129602434,0.0072733720068562,-2.093668242590247,1.3665657008688503,1.2465611508244987,1140.324002708759,1135.533434199076,1137.632026189676,1116.1095757941375,-630.0867380062433,-382.3081284721492,-376.0167327590432,319.35587864250687,162.07673841801608
2.3275,-0.327788962997333,1.1462547115473352,0.1414032641945253,-0.0134273522916447,-0.0090255188344056,0.0089255945454064,0.00840329788822,0.0010597250368728,-0.7228410912387708,0.6909403923589866,-0.1327035913471535,0.0385396549264184,9.781902265619411,-0.0073457816646232,-0.0003634147037852,0.0071814750439421,-2.0936668503704574,1.366585435668181,1.2465803166044371,1138.613080248118,1134.528706327594,1136.7059426435262,1117.034623003488,-694.9858873729829,-435.8579269811436,-356.5091716544961,386.779325473125,162.0772519139831
2.33,0.1001647669302,1.1414781584296332,0.1118798338878331,-0.0146744994332147,-0.0058162755099369,0.0081037317063959,0.0084066621802671,0.0010604879375515,-0.7228438463850116,0.6909373244943143,-0.1325309390176741,0.0383267923955005,9.778165288365598,-0.0072809965706641,-0.0002534213719116,0.0070725982358032,-2.093665402187988,1.3666063365050167,1.2466003686082068,1136.8490732718942,1133.3541445641704,1135.8494803314036,1118.043472421503,-722.9469838580526,-558.3525530604339,-355.235505793424,407.59653737778495,162.0776955985903
2.3325,0.5802491522169705,1.0823651108688284,0.0896586063929896,-0.0135124706843388,-0.0029153769510073,0.0086672661273274,0.0084257697334642,0.001048606839549,-0.7228495996319891,0.690932674826463,-0.1326502711531176,0.038533055204935,9.774803329364026,-0.0072089582932746,-0.0001447956997063,0.0069477893080781,-2.0936639223881346,1.3666275746978207,1.2466221442445724,1134.998345328828,1131.7369435622916,1134.9297651145591,1119.072605690377,-600.0831041081384,-620.7419700847954,-315.76123092336945,316.6629982855806,162.07814160974357
2.335,0.887063235012935,1.0090188239017215,0.0403595292412566,-0.010104443599835,-0.0009686566986091,0.0102861409129774,0.008453466878937,0.0010220305310877,-0.7228583855796527,0.6909250864626433,-0.1329600650917411,0.0390881092116496,9.771838390873613,-0.0071290522577033,-3.703859506885645e-05,0.0068085977171666,-2.0936623967567556,1.3666481717800747,1.246644249918047,1133.8486577513536,1130.2504347137465,1134.2706741767868,1119.6267874129312,-362.61434908361343,-605.6120662496271,-234.31581103337112,140.4806620451866,162.07843758676967
2.3375,1.034839527154705,0.927738241842926,-0.0761228575437575,-0.0048218265522822,0.0009492780254433,0.012355518890705,0.0084842739092599,0.0009851326749372,-0.7228679806962823,0.690914889157708,-0.1334673113726114,0.0398528044177994,9.769284872049901,-0.007041236960101,7.052143273943208e-05,0.0066571277908769,-2.093660851780993,1.366667831374442,1.2466654812137348,1133.18527358341,1128.7088832310435,1133.7581860593923,1119.7750090006027,-193.83237466454787,-660.3575167346348,-175.49636867084166,-28.474009872889532,162.07865152836112
2.34,1.0058453063150423,0.8303957026311454,-0.2960929653160875,0.0017063990160936,0.0032546485946081,0.0138099713866925,0.0085149926625089,0.0009475816457021,-0.7228740251062211,0.6909049143404312,-0.1342791388104725,0.040643354541321,9.76714840241112,-0.0069459577852,0.0001787175669579,0.0064960732153722,-2.0936597428372425,1.3666872285192366,1.2466851542731627,1132.8794958780309,1126.9486471300731,1133.3931923334324,1119.4844173635668,-56.38704717288948,-604.6287445552072,-74.80160487243161,-175.67190986636612,162.07881057732624
2.3425,0.8359513167515056,0.7520280807323269,-0.5208568354113224,0.0057759473581201,0.005054517496585,0.0131440677230739,0.0085468136139283,0.0009160918016797,-0.7228733565660713,0.6908969850160542,-0.1355206498783304,0.0413759442569751,9.765423838624312,-0.0068440323607795,0.0002884991209092,0.0063286644636728,-2.0936594335530514,1.3667069691960507,1.2467032966577383,1132.9033383475455,1125.6857395082675,1133.38417803503,1118.896649451271,30.484116279328862,-432.95589793339593,79.7216574087034,-292.9144768588942,162.07886040504903
2.345,0.5869703094500753,0.6772398335473065,-0.7417840279468845,0.0074478252366186,0.006930860162065,0.0105521207550064,0.0085798707542409,0.000898603925481,-0.722866513767696,0.6908904040072511,-0.1373135094547139,0.0419339975877776,9.76409703358193,-0.0067366727649233,0.0004006652852771,0.0061585202285915,-2.093660129015586,1.3667275664777467,1.2467202191159568,1133.0319164594275,1124.7838676404062,1133.791800620476,1118.019844979272,45.23539101314879,-282.5761748674328,242.89735889138288,-388.90908924041383,162.0788237621503
2.3475,0.3393058769152999,0.6061345344059634,-0.9284286750118628,0.0073075752182178,0.009126833015806,0.007232210415709,0.0086095599576727,0.0008934776400134,-0.7228586389248655,0.6908841941629663,-0.1395762872688436,0.0422712345891102,9.7631455136234,-0.0066254725925373,0.0005157716426542,0.0059896211444853,-2.093661342048105,1.3667481168703357,1.2467352861459402,1133.1295153026113,1124.2728586339304,1134.598664829487,1116.952104005069,14.3290741544209,-95.95393808181348,415.96243411514456,-462.6346920083605,162.07871567031995
2.35,0.1641677682962013,0.5466637658935704,-1.0542194148641229,0.0057632334460561,0.010974412660377,0.0040091864797224,0.0086335755207833,0.0009001453168418,-0.722854264997171,0.6908784059529227,-0.1422657786336774,0.042357272222328,9.762537024918675,-0.0065126516546098,0.0006339972155292,0.0058259562212945,-2.0936623281351423,1.3667680966476063,1.2467483670807245,1133.1035618301996,1124.3040979499972,1135.8716127910518,1115.7066715192304,-47.898605701403646,145.8943936390855,636.6724799254051,-573.8086635998238,162.078522599582
2.3525,0.0942296130117561,0.5089206899812723,-1.1305501047142328,0.0032946552386732,0.0118455935527483,0.0006522194477528,0.0086509975451959,0.0009185882073756,-0.7228538280847162,0.6908731558324966,-0.1453559311712202,0.0421737577253765,9.762230685066145,-0.0064010436592326,0.0007550908834682,0.005671306295904,-2.0936626055778498,1.3667878546216023,1.246759033188996,1132.8900222741042,1125.0023306021255,1137.782027229114,1114.08306068707,-107.2957997533672,363.1460358939044,722.3993671918076,-601.6053667339421,162.0781950555299
2.355,0.161698983462861,0.519661002427927,-1.1359616350650508,0.0014310733168593,0.0116487630183916,-0.0018784942888584,0.0086634545974194,0.0009458172613396,-0.7228579550121783,0.6908680983956291,-0.1488061355717044,0.0417796948972653,9.762177699515014,-0.0062940587791611,0.0008783767469625,0.0055289839778609,-2.093662267355746,1.366806866088019,1.246767525398763,1132.5670828314328,1126.1198281294667,1139.4836096270108,1112.6986446855608,-153.3187669341747,545.5072818905708,638.1767119190181,-535.8647821296131,162.07784405940717
2.3575,0.3318755483155084,0.5743926766197766,-1.0853941525035973,0.000806190667855,0.0116727177959065,-0.0044490168112399,0.0086738769180173,0.0009808196777591,-0.7228678300146575,0.6908633689333796,-0.1526096107767649,0.0412252212285692,9.762323849625192,-0.0061956650571964,0.0010027568919849,0.0054015210288871,-2.0936611900577526,1.3668244590115495,1.2467744462876644,1132.1234284394332,1127.7298670115783,1140.9729107887088,1111.403736776422,-191.64373883227609,709.2931070381989,509.661591843962,-481.5312284617096,162.0774139793919
2.36,0.5440686084487198,0.6482951821272779,-0.9897794771597886,0.0018973430139149,0.0128117815145516,-0.0071201854812644,0.0086845492468058,0.0010189691497957,-0.722886819610218,0.6908579026429019,-0.1566908476753693,0.0406043116060791,9.762612130433855,-0.006110200632755,0.0011267837720724,0.0052905012339033,-2.093658827555834,1.3668394905426589,1.2467806859406168,1131.6088641372714,1129.6662936646576,1142.0319175862303,1110.2909885432523,-215.28127199443043,826.7599191127271,269.9747491476318,-374.5396207459382,162.0769195255209
2.3625,0.7459735967241825,0.712213270510202,-0.8419530071231875,0.0048432032572305,0.0152690857433124,-0.0095319064760426,0.0086971983249259,0.0010559231950915,-0.7229176678207775,0.6908508430143511,-0.1609594351014903,0.0400015175789963,9.762985325444498,-0.0060421297112518,0.0012487928470685,0.00519641247109,-2.093654716875591,1.3668509721635995,1.2467874948439572,1131.0470220794612,1131.8636666071425,1142.3227845344472,1109.531038672692,-247.83872454916636,991.1526018782538,-83.8778182192016,-223.58863807260917,162.07634860173337
2.365,0.913831773591145,0.7409654243637762,-0.610841988407326,0.0091916880201092,0.0184683246867645,-0.0117972181794195,0.0087127958363197,0.0010801856626555,-0.7229578964666897,0.690841850697338,-0.1652077466242642,0.0395950628530561,9.763388429451378,-0.0059955588425799,0.0013672058375991,0.0051187163299628,-2.0936484012691627,1.3668588772731936,1.2467943777224764,1130.3696705145255,1134.6220566740492,1141.6125284951345,1109.1730453528892,-240.951866031042,1009.6192736353928,-434.49303831676866,-25.589343560341696,162.07557618984313
2.3675,0.9676520185300052,0.7108449657611476,-0.3807477040255211,0.0127245878685917,0.0207450305059538,-0.0134827249682008,0.0087339745331734,0.0010853015517867,-0.7230025005154614,0.69083220986566,-0.1693110831755323,0.0395166653179503,9.763770483156186,-0.0059738541522115,0.0014807167894651,0.0050558197804133,-2.093640094634297,1.3668644642932408,1.246801525141978,1129.842262749306,1136.911762975319,1140.1503193428634,1109.4030919548904,-193.4995340566316,897.1564027749727,-729.5482222223355,203.60688188907693,162.07486028538804
2.37,0.9282693443575094,0.6201217603104491,-0.1254122568167069,0.0155000941874072,0.0224989196999181,-0.0148780205461256,0.008761961435876,0.0010714939247203,-0.7230456355778756,0.6908240126803868,-0.1732088845098401,0.0397862411294924,9.764087859279472,-0.0059792256716585,0.0015885258738456,0.0050051806782583,-2.0936306980740698,1.3668695877366697,1.2468095776815429,1129.4021728442424,1139.107838687924,1137.9647873840229,1110.1910797623343,-163.20848065229603,936.1846844775955,-1054.652631704016,457.31713454007206,162.07406970830422
2.3725,0.7878545000155119,0.4435339515799023,0.1806222668817032,0.0178396111666372,0.024058931200284,-0.0153558270516206,0.0087985625160897,0.0010392527505868,-0.7230830581655935,0.6908170132009032,-0.176849623428026,0.0404278821751962,9.764305166994056,-0.006012515606833,0.0016905549165401,0.0049634537918295,-2.0936212137127894,1.3668758142529562,1.2468192086017236,1129.0262203460445,1141.5926863977072,1134.8770561843435,1111.6896776275908,-107.44243735412284,883.5787826623078,-1145.9846935866397,614.9295904179002,162.0730347216902
2.375,0.6064325874819962,0.242849136498771,0.4045706119261495,0.0192814855025252,0.0250809832551292,-0.0142814518686149,0.0088422066656169,0.0009923282522537,-0.7231127474123002,0.6908089782545583,-0.1801781008887731,0.0413732070247254,9.764398422287776,-0.0060732388536334,0.0017874446193509,0.0049267302209239,-2.0936127361670422,1.3668841503863576,1.2468311243196204,1128.8649606574716,1143.5257326012354,1132.2348639160898,1113.265727714424,-31.94651147036961,740.5023546707683,-1001.929368237937,654.4264737007919,162.0721004441963
2.3775,0.3704148446616717,-0.0084741111533196,0.5590024739483312,0.0203558104011187,0.0258141214630778,-0.0117288570761588,0.0088833902510353,0.0009368285570271,-0.7231369263545203,0.6907976910750383,-0.1830614625547843,0.0424115143203582,9.764358083644574,-0.0061597544253568,0.0018804202850235,0.0048908960385226,-2.093605590761131,1.3668936484549943,1.2468445889390676,1128.8664877886927,1145.2951981710607,1129.867409343154,1114.9618099960946,23.756447178675952,673.4273682446799,-865.5341530235729,661.3022097369735,162.0710922731901
2.38,0.0959314495370295,-0.2942354660364083,0.6385307907627156,0.021023982182351,0.0259796311654861,-0.008578929963603,0.008916622887304,0.0008844099148079,-0.7231554152503028,0.6907828505240077,-0.185503074360584,0.0433066524470822,9.764184397886247,-0.0062695604880529,0.0019712061263199,0.0048517808221201,-2.093599936421342,1.366903778927064,1.2468592857867753,1128.9837428933652,1146.8928694424587,1127.907193150972,1116.5722387631088,65.15992161153147,581.8380240541625,-669.3898044911437,581.3883019743695,162.07002369931922
2.3825,-0.2168460594024536,-0.605054506596899,0.6304820698234654,0.0211053597137044,0.0251830215150887,-0.0058974077939529,0.0089387428705878,0.0008462403321963,-0.7231651798816208,0.6907659312889176,-0.1875399431897398,0.0438593775447428,9.763887837020963,-0.0063993525876554,0.0020617978595196,0.0048054434143568,-2.093596383749304,1.3669148916144895,1.2468749312960383,1129.1922873967503,1148.2043882913315,1126.5204603206982,1117.8687515059664,97.47545485474144,483.02508794919424,-489.3731647357196,455.84567207326126,162.0688838500984
2.385,-0.6224667677666622,-0.9778910221103568,0.5508786972006732,0.020590680712101,0.0232693739859918,-0.0040660192276843,0.0089527892093987,0.0008240299269266,-0.7231658009940172,0.6907486021827083,-0.1891792718033893,0.0440850001026928,9.763486650068096,-0.0065450918762434,0.0021541814670737,0.0047483648001806,-2.093594404784689,1.3669272916110766,1.2468916483661876,1129.471120167639,1149.3079948822049,1125.4603273272933,1118.8514671234752,97.260008702772,303.92897986446536,-313.48374850670257,246.6369990531636,162.0674362984088
2.3875,-0.9695760470644864,-1.262781336727871,0.4579961108488067,0.0196107341483582,0.0209961185811625,-0.0036421673452589,0.008961756133539,0.0008201895720192,-0.7231582959281857,0.6907314677442584,-0.1904495044197428,0.0439860428529571,9.76300828634186,-0.0067021529944349,0.0022499081755827,0.0046776416980539,-2.093592969810472,1.3669417408065359,1.2469096151966614,1129.6785874402642,1149.724033190654,1124.9530415781646,1119.1019365012323,72.65143260647318,39.563261693957365,-161.03365097647273,-23.98279678095656,162.0661659791927
2.39,-1.2943871602078,-1.4844019705870513,0.3692775928963532,0.0175841846253111,0.0178066723275807,-0.0037487806877262,0.0089617026605648,0.0008328224378105,-0.7231479457824386,0.6907151033567996,-0.1912367800387857,0.0435299909466202,9.762490851111725,-0.0068654407185589,0.0023498646305439,0.0045912992908746,-2.093590832166407,1.3669577833910995,1.2469280912379317,1129.8343773306713,1149.5058111906746,1124.6551590724107,1118.7315531395705,61.598176276721865,-252.813116997373,-113.75810010863704,-295.3308951901881,162.06483262806557
2.3925,-1.6044501444895802,-1.6294890047918935,0.2841886644915115,0.0131045813427713,0.0125481456314159,-0.0037042545265526,0.0089499708244645,0.0008619331537646,-0.723138305441671,0.6907014759154823,-0.1914850716363813,0.0426745052964064,9.761977314356733,-0.0070296815656624,0.0024543112743796,0.0044883100438857,-2.0935873326344727,1.3669753561015328,1.246946646571392,1129.9865783216478,1148.459967605667,1124.3842510776215,1117.6252820252814,59.72955190623124,-505.4650174344823,-91.84179286694611,-495.2326950607236,162.06316427356006
2.395,-1.7534701967823558,-1.6183527182401505,0.2299552806693831,0.0071409719063292,0.0070126101716531,-0.0032707306970193,0.0089271036913381,0.0009045868108945,-0.7231263716588712,0.6906925473776334,-0.1911584662577963,0.0414633896968287,9.76151235625613,-0.007189589633869,0.0025630575251217,0.0043686595695638,-2.093582484074691,1.366994827168416,1.2469638399611116,1130.1330250902024,1146.9784861035023,1124.1959501080762,1116.2553896642669,76.7349684049821,-687.3835109309003,-54.98964057287712,-600.2932194893348,162.06172057919056
2.3975,-1.7563535203013068,-1.4520068012094387,0.1836603470333848,-0.0001596796905416,0.0011896789241104,-0.0025422022699101,0.0088998415003882,0.0009543155701937,-0.7231084925372673,0.6906882553474799,-0.1902758707334908,0.0400747261515332,9.761138709693812,-0.0073401201112684,0.0026755476819751,0.0042332386917684,-2.093576595982462,1.3670163433007143,1.2469793885546117,1130.3702531636727,1145.023050051013,1124.109302874757,1114.6238159278348,118.12491319288053,-823.2393531491373,3.5477135154906887,-655.3310210549312,162.06022585022777
2.4,-1.6450344195612028,-1.1671237691391747,0.1369139064921861,-0.0065909482046284,-0.0038731600144403,-0.001877876178294,0.0088744203104943,0.001009076480241,-0.7230831954374988,0.6906873116111305,-0.1889227875830981,0.0386183106838858,9.760897772103538,-0.007476730147733,0.0027908653023228,0.0040837109025481,-2.0935698587292455,1.3670401238628571,1.2469937538700664,1130.7236496561668,1142.8622893377567,1124.2136886756537,1112.9787345589923,171.2539246127144,-859.9218207416199,119.93951905224348,-606.610434905828,162.05869219367787
2.4025,-1.445487594354586,-0.7825320873442622,0.0849416532863129,-0.0103766904138926,-0.0072789564694294,-0.0015190768120092,0.008850299188319,0.0010655835386083,-0.7230557439881566,0.6906887522096922,-0.1870847265875587,0.0371309354726611,9.76083027470922,-0.0075955881641799,0.0029077945550429,0.0039224701197244,-2.09356190086002,1.3670650810046547,1.247006750052248,1131.2265227867363,1140.7234409473049,1124.7090004700183,1111.5907637533055,244.00565952262863,-870.1061945716768,345.98522180101486,-487.3422202221844,162.0571158445574
2.405,-1.1888884493764351,-0.2899284111256415,0.0140112946114142,-0.0117432108162516,-0.0086101481747679,-0.0014290869163475,0.0088276967939329,0.0011248104981974,-0.7230304085568909,0.6906937429646781,-0.1848253788342446,0.0356025691597587,9.76097090776118,-0.007693826136805,0.003025033346174,0.0037523567531785,-2.0935529061728366,1.3670904645593436,1.247018999009535,1131.94367795378,1138.511758364898,1125.9436147846588,1110.5420234578812,263.26592376888624,-715.1370270402339,576.1198211645544,-249.63197679151696,162.05518054970537
2.4075,-1.0086726938979833,0.0784664218029314,-0.0536960061850023,-0.0112712496334916,-0.0073610670304393,-0.0014550742577043,0.0088044336474538,0.0011852538772324,-0.7230059696581448,0.6907036436705372,-0.1821494437523717,0.034029928572303,9.761348183125124,-0.0077695663648708,0.0031413532150721,0.0035766368492941,-2.0935437759510607,1.36711605561326,1.247030012284182,1132.5428524055808,1137.1477558121035,1127.5895995758412,1110.342603869348,210.56097142073207,-422.56855227916253,785.1089594180106,70.95904034258788,162.0535356904337
2.41,-0.8762665429812355,0.3368867006302229,-0.1323434520271234,-0.0114120293203814,-0.0046735705125728,-0.0014078080625232,0.0087823147186252,0.0012433880390528,-0.7229822741275798,0.690717805513173,-0.179097259029905,0.0324947529382044,9.761980518559673,-0.0078220161011185,0.0032555749542141,0.0033987978409765,-2.0935347470071024,1.3671416404681656,1.247039441601388,1132.9964828108837,1136.3989156035022,1129.8691595817488,1110.896818659594,135.23985808870123,-195.6403294280377,996.9096812129677,330.28922192434743,162.05186277193175
2.4125,-0.7588459610192753,0.4777961647039135,-0.2198704706894598,-0.0129939296148057,-0.0016403576390966,-0.0014649596718867,0.0087623517279145,0.0012967496582012,-0.722961227584193,0.6907347881880505,-0.1757163650452723,0.0310556981047613,9.762877514502962,-0.0078514375344126,0.0033664968425821,0.0032224547704007,-2.0935255057354105,1.36716666043797,1.2470473194621807,1133.2190516960243,1136.1695541649633,1132.574147981906,1111.9940499789695,14.289998094864435,19.659933615549072,1138.8672234803169,522.8009094815773,162.0501706348855
2.415,-0.6103479175274951,0.4777864403679946,-0.3130611856164178,-0.0157938891585453,0.0011789997516081,-0.0018811181390448,0.0087436679315386,0.0013404536411326,-0.7229474825419286,0.6907516948289221,-0.1719969526050612,0.029782438383522,9.764040091929532,-0.0078590538356925,0.0034728664524116,0.0030512167018607,-2.0935156365741503,1.3671897546741751,1.2470534856316653,1133.067932801358,1136.49721527158,1135.5634956991503,1113.510823207002,-158.7942821535341,240.18566770519607,1303.76901346388,683.038238151099,162.04846019447007
2.4175,-0.3425668560346164,0.3521571138623782,-0.4192156524442229,-0.0193164045858269,0.0032309122480457,-0.0028475554588783,0.008727264543995,0.0013714785411265,-0.7229453187905702,0.6907659430653271,-0.1679803780519394,0.0287462518119686,9.765459036260026,-0.0078468569874062,0.0035734606368513,0.0028884192808124,-2.0935048766777253,1.3672102335693783,1.2470582599340896,1132.4250802852566,1137.3704825034893,1139.0929930492252,1115.4092411697252,-300.0831127611555,369.4915387073785,1224.3238929867664,648.8508992751715,162.04639255840453
