t,ang_acc_x,ang_acc_y,ang_acc_z,a_vel_x,a_vel_y,a_vel_z,quat_x,quat_y,quat_z,quat_w,acc_x,acc_y,acc_z,l_vel_x,l_vel_y,l_vel_z,pos_x,pos_y,pos_z,mot_1,mot_2,mot_3,mot_4,dmot_1,dmot_2,dmot_3,dmot_4,vbat
14.8225,0.7189472655476721,-0.5773548413363033,-0.4698703255524074,-0.0563761583155319,0.0517165624131784,-0.0253198165236572,-0.0208719765758776,4.961756548956464e-05,-0.1000149269224976,-0.9947669215950744,0.0691572821895384,-0.0167601002940051,9.803504222972732,-0.0468241389885027,-0.0503967746864223,0.0004857691732164,3.471749402302686,5.08141005918156,2.1395440017030407,1108.7709889511743,1145.2587508371328,1130.9063943904016,1130.5845319563687,344.1907133534104,219.78533952902785,-1.7344753352060267,7.464299743559167,161.61060699676156
14.825,0.4870961148869978,-0.7742863983140209,-0.4038533006418907,-0.0532149554748298,0.0505777606551209,-0.0264570252111258,-0.0207988182180836,1.8892460129637e-05,-0.0999813322618781,-0.9947718427211588,0.0654005312872101,-0.0155924811945926,9.805712220747,-0.0467660564888447,-0.0512740370623604,0.0004720135005427,3.4716640682839923,5.081261180209037,2.1395382181838967,1109.8636603580123,1145.7780977566645,1130.8287341947519,1130.6254891414992,539.8958874747743,237.1931495744859,-69.29807819673269,27.16510723943914,161.61006767459637
14.8275,0.0895495044820262,-1.0001221071125723,-0.2984533025726664,-0.0496078953852958,0.0486424312216549,-0.0276809840401262,-0.0207224379678557,-1.1907913395439048e-05,-0.0999515528361584,-0.9947764364974832,0.0618520962785271,-0.014199350896957,9.807901550422793,-0.0467250343025816,-0.0521453616444,0.0004720730163705,3.471577852365232,5.081109959460136,2.1395319352382836,1111.4704683885486,1146.4447165850052,1130.5599039994179,1130.7203574925659,604.4390649123964,258.6801566112686,-126.29521381288907,40.39702924106572,161.60956444124344
14.83,-0.3191957008405305,-1.167022754950111,-0.1921028922228886,-0.0485536398128127,0.0462708793051598,-0.0285956696079135,-0.0206437263143651,-4.361245592625293e-05,-0.0999252816293458,-0.9947807148079888,0.0585675794270186,-0.0125623323624284,9.81002021196316,-0.046698885074758,-0.0530097188623273,0.0004858073897551,3.471490153907238,5.080957190914803,2.1395247570540454,1112.885855682574,1147.0714985397203,1130.1972581256875,1130.8274742877045,549.802634212274,259.77330798828626,-168.58333176136227,45.98575129335592,161.6092650255566
14.8325,-0.7521768713139858,-1.2910353837675803,-0.0745874973815092,-0.0506780628557585,0.0429543394726961,-0.0291735713426858,-0.0205614628080577,-7.601635442320405e-05,-0.0998988916150794,-0.9947850665477866,0.0556130105374106,-0.0107099163972713,9.812016779860276,-0.04668485219267,-0.053866599721469,0.0005126115647477,3.471401185773395,5.080803369997416,2.1395168420177275,1114.2194815596094,1147.7435831249463,1129.7169873406112,1130.9502862490326,544.948134499515,283.1653852879311,-227.70635462135112,54.22429022954992,161.60908962997223
14.835,-1.229806294587985,-1.3680734676629647,0.0638689623523491,-0.0556599117617408,0.0383047773026226,-0.0292647236609623,-0.020474990476291,-0.0001062924077507,-0.0998713410838141,-0.9947896090684812,0.0530984343659834,-0.008669059332498,9.81384125047413,-0.0466804767625619,-0.0547152957769826,0.0005517140593368,3.4713118545303754,5.0806483863463825,2.1395085831404894,1115.610596355072,1148.4873254661604,1129.0587263525806,1131.0985957388523,466.82921890907863,238.15727551674087,-243.7704592085612,52.14743068294505,161.6090213095584
14.8375,-1.5601964431678879,-1.3638480706743958,0.1634662429328849,-0.0602688614650227,0.0344189144705209,-0.0287809207968249,-0.0203834709322173,-0.0001327379413365,-0.0998426093536854,-0.9947943610709572,0.0511028734716307,-0.0064722562662614,9.815446886269278,-0.0466835961845326,-0.0555548828822392,0.0006017028270583,3.471223213393381,5.080491713064094,2.139500776674592,1116.5536276541552,1148.9343695025304,1128.4981350445682,1131.2110234024472,326.7791018464063,113.18588225524287,-209.2231468454845,41.293673990693634,161.60908132587448
14.84,-1.8075897947406645,-1.2895237520259748,0.2317747441352974,-0.064313923335639,0.0307511571547795,-0.0277560166313067,-0.0202853939738425,-0.0001566571251306,-0.0998123212738704,-0.9947993902983436,0.0496362332686183,-0.0041633589891467,9.816791615780922,-0.0466922241095402,-0.0563842490841711,0.0006603160825759,3.471135507368847,5.080332896878184,2.139494126344623,1117.2444918643037,1149.0532548774363,1128.0126106183532,1131.3050641088057,238.1653461451688,-47.00805625338209,-171.86400378552247,39.04763605509587,161.6092600680489
14.8425,-2.007507571326929,-1.1323700408345576,0.268410145951578,-0.0688326263651912,0.026834178219135,-0.0261739344392348,-0.0201814677883683,-0.0001782022836211,-0.0997798682252813,-0.9948047425522422,0.0487255791324636,-0.0017492704123553,9.817838101045687,-0.0467045099449115,-0.0572020527867946,0.0007252475710448,3.471048892270979,5.08017160141296,2.1394894122422925,1117.7444543848812,1148.6993292212635,1127.6388150256405,1131.406261582723,121.24271006621635,-214.7755807698223,-83.60562253486535,39.027718101709326,161.60960762445904
14.845,-2.0869148129555044,-0.9605250763229116,0.263372808768683,-0.073153692894421,0.0242655219993526,-0.0249866691821491,-0.0200713558802298,-0.0001977879536004,-0.0997469273906994,-0.9948102559754916,0.0483800956495132,0.0007390037369571,9.818555193535872,-0.0467189430660602,-0.0580065454468318,0.0007938501997028,3.470963383028299,5.080007363086622,2.13948610844124,1117.8507054146348,1147.9793769735873,1127.5945825056788,1131.5002026993143,-29.105744203576585,-358.01623654668066,56.80121706437824,45.6283444242308,161.61000435461725
14.8475,-2.0567852325088767,-0.7684997755016258,0.2346327704128874,-0.0787295036898879,0.0226301087977675,-0.0244105991066812,-0.0199564959305366,-0.0002160901506282,-0.0997179980959868,-0.9948154498659004,0.0485962080992403,0.0033016377567509,9.818917954345613,-0.0467343453636908,-0.0587956363398533,0.0008637117587985,3.4708790306226254,5.079839854434296,2.1394834657372424,1117.5989256638632,1146.9092480385304,1127.9228211109623,1131.634403304844,-160.54771521229225,-460.9433943579923,200.52654086757127,64.09971149956984,161.6105068665861
14.85,-1.921217170761028,-0.574456318207143,0.1998414348183773,-0.0847976201921189,0.0216032703414293,-0.0243153377501705,-0.0198389328876257,-0.0002318922375489,-0.0996955748488639,-0.9948200334821606,0.0493981974172476,0.0059437170439518,9.818907864946432,-0.0467492295640989,-0.0595675206395609,0.0009328572562916,3.4707957810723125,5.079669632157732,2.1394814091218968,1117.0479668385735,1145.6746600017975,1128.5972152100167,1131.820701256812,-283.12475235384346,-500.3400914402064,348.1918528944244,88.04049475118961,161.6110924309835
14.8525,-1.6551936305435535,-0.388321273799268,0.1709677739257485,-0.0903704570561522,0.0208872004463124,-0.0243350608043578,-0.0197224648350798,-0.0002458685040337,-0.0996806335954976,-0.994823833853844,0.0507660862993702,0.0087055813765786,9.818512955696448,-0.0467617547225169,-0.0603208102575481,0.0009996800838645,3.470713263797834,5.0794970111302,2.1394795293071542,1116.183301902094,1144.407547581329,1129.6637803754347,1132.0746057786,-426.9476187426122,-531.9865602874494,532.1667031830734,121.48351052390272,161.6117717182865
14.855,-1.2065029658644764,-0.1778618770854213,0.151539231169475,-0.0956203619487408,0.0201994874762279,-0.0240810739942502,-0.019610676129578,-0.0002614695849052,-0.099674710517168,-0.9948266264220236,0.0526138535922124,0.0116266845789216,9.8177280734526,-0.0467699041148024,-0.0610544639228169,0.0010626576213758,3.4706312818158236,5.079322285270302,2.13947715261308,1114.91322874486,1143.01472720036,1131.2580487259324,1132.4281188094317,-477.68981856648173,-476.05845901285113,603.8195172387369,127.35152761076992,161.6126862637561
14.8575,-0.7562707164816042,-0.012425005329512,0.1497818185606595,-0.098463518384962,0.0198395192718478,-0.0237088702852576,-0.0195045144870225,-0.0002809020314604,-0.0996776956795582,-0.9948284047934086,0.0548636588472607,0.0146914260410408,9.81655469523702,-0.0467711818433597,-0.0617680621858723,0.0011203168869459,3.47054957319002,5.079146127722408,2.1394740692108485,1113.794852809262,1142.0272552862652,1132.6828779616278,1132.7113634166535,-424.6514872061133,-354.4457688339458,543.7598757405967,91.94467004560477,161.61352490834415
14.86,-0.2760496096616779,0.1434603916102977,0.1638379527460804,-0.0996093739846159,0.0197802672697616,-0.0232980646509189,-0.0194010863553174,-0.0003072929319179,-0.0996858025510113,-0.9948296057862503,0.0574016383813981,0.017811091504481,9.815001080148098,-0.0467623369147988,-0.0624620089684193,0.0011707844765367,3.4704677820764,5.078968680266652,2.1394708569330585,1112.78997130883,1141.2424983561907,1133.9768481046349,1132.8878421596596,-379.86261743770655,-301.10531600239324,490.86197189823514,28.410882570137908,161.61443622340656
14.8625,0.2734372020564015,0.3166878892369073,0.2004811109447265,-0.0991599872632287,0.0201650717811716,-0.022743289890124,-0.0192979794413737,-0.0003374116207661,-0.0996937021092341,-0.9948308123585212,0.0602283762045172,0.0208949889140874,9.813080180023569,-0.046739638625289,-0.0631372542926791,0.0012128518578943,3.4703856846507595,5.078789869933606,2.1394680936043384,1111.8955397220732,1140.521728706253,1135.1371878211191,1132.8534178295045,-257.34267957487253,-230.1190902308103,335.9755895342844,-66.35673105883015,161.61560699269057
14.865,0.6670676117630224,0.4441812786432544,0.2491123903052488,-0.0974334226292647,0.0209618577444106,-0.0222132797178671,-0.0191944317691016,-0.0003684794163482,-0.0996982358853984,-0.9948323582245012,0.0633281074330147,0.0238872663058567,9.810809497850478,-0.0466994163251733,-0.0637948807648101,0.0012455856444872,3.4703030250013818,5.0786095466367485,2.139466156715831,1111.5032579109554,1140.0919029050365,1135.6567260523063,1132.5560585043654,-72.49732046381345,-136.75512394409444,104.07421790448348,-174.9971997620726,161.61664265198604
14.8675,0.9525029617538208,0.5450715119067319,0.3187499626367472,-0.0946069707783192,0.0223398738322646,-0.0216644944382869,-0.0190942306267423,-0.0004006996536312,-0.0997006263991747,-0.994834047011294,0.0666257539799515,0.0268290102446168,9.808210122269859,-0.0466384801904492,-0.0644358308522572,0.0012686068972712,3.4702197912672106,5.078427622636503,2.1394648653410253,1111.533053119754,1139.8379530865327,1135.6575589106417,1131.9784318306943,109.5772179891184,-67.4929905293433,-110.47789356119301,-295.72994168938675,161.61773625901895
14.87,1.137690906737832,0.6258248674886947,0.4277506568044435,-0.0903780436430725,0.0245812403205949,-0.0210557188854343,-0.0189997657042901,-0.000432449089609,-0.0997006629046114,-0.9948358531341652,0.0700716262984631,0.0297339930389887,9.805306873683811,-0.0465535375300678,-0.065061420816718,0.0012817806751234,3.4701359480554057,5.0782440238347,2.1394635631967183,1112.051144000901,1139.7544379523897,1135.1043365845003,1131.0774087959182,261.47428069830767,8.709896265371302,-278.540857696,-335.33369515343327,161.61911152649995
14.8725,1.1504487176968867,0.6571632180363453,0.5370283667420027,-0.0864027012105748,0.0266356898993116,-0.0205064132533592,-0.0189108558892312,-0.0004661428382199,-0.0996986391113118,-0.994837748251624,0.0735261784739084,0.03257772158319,9.802128846698142,-0.0464416131292402,-0.0656731499511378,0.00128461016247,3.470050861341768,5.078058705909094,2.13946176237112,1112.840424523246,1139.8815025678596,1134.2648546221615,1130.3017633549268,372.24106800534304,89.58985936457756,-390.0273834068096,-274.540032962168,161.62030771877383
14.875,1.0225999358232083,0.6566918909665953,0.6541060110988712,-0.0822637911477807,0.0284554324537638,-0.0196689970408845,-0.0188270627345853,-0.000503538645123,-0.0996966004751009,-0.9948395348738484,0.0768583615755432,0.0353337087934219,9.798707858777764,-0.046300448268536,-0.0662725520436121,0.0012768867618149,3.469964217619569,5.077872155305977,2.139459238303047,1113.9123493409274,1140.2023872492125,1133.1541996674669,1129.7047086311077,459.2542806024998,152.86280832704819,-472.234642857987,-183.22893928788295,161.62155369360852
14.8775,0.8001030471250468,0.639016605444274,0.7618006743184965,-0.0785363961862476,0.0299804052870197,-0.0183597659323066,-0.0187464686250757,-0.0005450349890599,-0.099694629866026,-0.9948412417789368,0.0799601207543047,0.0379490751995404,9.795078207873011,-0.0461283095251326,-0.0668614868915804,0.0012584867557913,3.4698757525581416,5.077684825292353,2.139455984628682,1115.136695926258,1140.6458166094947,1131.903681407872,1129.3856186584876,505.7317134257237,190.7680855321971,-517.4776593149645,-45.17266617043991,161.6228391689319
14.88,0.5130222587166712,0.6134515202070329,0.831874301766854,-0.0763381192901179,0.0312218659585226,-0.0162509144803968,-0.0186653039172795,-0.0005896123961904,-0.0996896309989224,-0.9948432515726204,0.0827498795362529,0.040337587145649,9.791276426129427,-0.0459241530972818,-0.0674421256058908,0.0012292081538145,3.469785523664859,5.077496995023864,2.139452250511244,1116.4410079080565,1141.1562276768736,1130.5668113708916,1129.4788453002554,567.1440294212994,216.7992315749532,-590.6805112511834,128.1790413436083,161.62416968029768
14.8825,0.1777883641593323,0.5872890163841735,0.837672448979863,-0.0761695319953233,0.0324834109497843,-0.0127997676296568,-0.018583560812409,-0.0006336966669569,-0.0996808083457527,-0.9948456457197232,0.0852081461930115,0.0424859711409863,9.787339394639202,-0.0456886979307652,-0.0680162504970268,0.001189556393289,3.4696950100351525,5.077308543763334,2.1394479883943975,1117.972416073365,1141.7298127673696,1128.9502788516156,1130.0265138652055,539.2554661929516,191.2226002121241,-581.8993533772093,247.2913100285078,161.62581441528815
14.885,-0.0328687306907009,0.5748079187488135,0.7594591703938667,-0.0778883076463308,0.033459114344692,-0.0095990527516944,-0.0185008454519126,-0.0006741175933221,-0.0996676273140279,-0.9948484866764792,0.0873153345390626,0.0443787479097547,9.783305693079216,-0.0454243910451205,-0.0685853029512027,0.0011398538881934,3.4696060429876487,5.077119245382406,2.1394431292743854,1119.1372852390207,1142.112340677934,1127.657314604006,1130.7153018503975,424.5276510430604,128.7520039663176,-487.3412606271961,275.91332968900366,161.62722182187585
14.8875,-0.1213252166431146,0.5721122558870296,0.5918624183277937,-0.0806072625903705,0.0347339019308988,-0.0069629839371788,-0.0184164428473651,-0.0007107376536508,-0.0996523987242329,-0.994851555865185,0.0890036958825872,0.0460037274505635,9.779216034551007,-0.0451357815518828,-0.0691500732582057,0.0010799684360168,3.4695205232435478,5.076928353299699,2.139437552672099,1120.0950543285803,1142.3735727872013,1126.5135725484793,1131.4060805136507,353.0567418823369,94.5736522639288,-442.6601385219091,245.42460038693008,161.62866295902333
14.89,-0.0736782955422331,0.5752137394885243,0.3080695745885763,-0.0834940225287384,0.0367224952658998,-0.0048237849473844,-0.0183311875888702,-0.0007446706321982,-0.0996371101582572,-0.9948546373607906,0.0901989680195891,0.0473848691709481,9.775112511373507,-0.0448288598399622,-0.0697110314089684,0.0010096646710564,3.4694395112694387,5.076735666170176,2.139431855012809,1120.9025689484326,1142.5852089392536,1125.4440139113963,1131.9424248523324,225.1228017106307,70.63090082739605,-321.9499136478775,116.57597121090976,161.63042548600887
14.8925,0.0704271947191135,0.5809560845429825,0.0298744694988685,-0.084542412818232,0.0383684718661006,-0.0039316792006557,-0.0182437411693392,-0.0007772433165683,-0.0996218472557345,-0.9948577455856876,0.0908357605923944,0.04850749461916,9.771039458843997,-0.0445104078210714,-0.0702686227952402,0.0009281181595888,3.4693630559767925,5.076541425739928,2.139426754237729,1121.2206683371335,1142.726727291338,1124.90382298024,1131.9889603697054,40.95030745534947,60.54700515452463,-124.31333420779735,-74.7050220899076,161.63191719745967
14.895,0.2681479195545655,0.5921421935078234,-0.2497107637267893,-0.0836449453405448,0.0393819912893578,-0.0043877060272984,-0.018153441043225,-0.0008116923121972,-0.0996060513922641,-0.9948609454478032,0.0908314958788216,0.0493762702859677,9.767042910865404,-0.044187664121365,-0.0708233080869485,0.0008342713234153,3.4692903199749203,5.076346204445043,2.1394224832743207,1121.1073204857091,1142.8879439650264,1124.8224472403574,1131.5688997418831,-154.73276418131118,82.45558775300726,77.52541662779247,-265.40245741412434,161.6334266957328
14.8975,0.4983914369458639,0.6129782828606253,-0.5354584241514391,-0.0806809395074435,0.0400114226762668,-0.0066556087750008,-0.0180583840287861,-0.0008488204168945,-0.099587357221446,-0.994864507457516,0.0901678933963452,0.0499690774091598,9.763170220455486,-0.0438676901574653,-0.0713757593066806,0.0007270148885096,3.4692208590336255,5.076150358835323,2.1394192195931168,1120.4470045162268,1143.1390052301033,1125.2914500633792,1130.6619480826344,-325.7082308826229,101.89771591975156,257.7113044137656,-359.0019166663645,161.63525185193353
14.9,0.6485481015945442,0.6281090235702785,-0.702544844730506,-0.0774578853731729,0.0408314822681581,-0.0095878481426657,-0.0179591805294035,-0.0008875069968659,-0.0995630485928928,-0.994868693261824,0.088887863330672,0.0503101281438869,9.759468783271165,-0.0435571769732857,-0.0719267358966184,0.0006058757950915,3.4691546419988706,5.075954216019263,2.139416531254012,1119.478779331296,1143.3974325446252,1126.1110037624264,1129.773890158551,-461.741441513278,109.60652121009296,390.48908400580825,-323.59286250086444,161.6367798583942
14.9025,0.741542294099438,0.6177551034157936,-0.7808970899448308,-0.0745290271353557,0.0426628245662849,-0.0126506260695487,-0.0178583705325433,-0.0009284552087966,-0.0995317611904742,-0.9948735930773138,0.0870202475987849,0.0504649224354155,9.75598638874652,-0.043262325454844,-0.0724768929877437,0.0004708112221215,3.469091211644176,5.075758510925349,2.1394133941265805,1118.1382973086609,1143.6870378361536,1127.2438954834079,1129.0439837701304,-584.2703846533819,116.57142952661158,477.9122102502405,-225.633900378408,161.6383106072792
14.905,0.7969064180662327,0.5663141659767663,-0.7918215030147387,-0.0722717585785907,0.0450458288290455,-0.0151784052398838,-0.0177580378586251,-0.0009741349903567,-0.0994932263585731,-0.994879195090564,0.0845744192431815,0.0504931989305757,9.752771277707453,-0.0429884789691802,-0.0730266863951051,0.0003219111917531,3.469029858448172,5.07556308519876,2.1394090892050324,1116.5574274080286,1143.9802896922583,1128.500564813678,1128.6457206566588,-670.011123482377,113.16332235076564,498.303502418334,-49.62922026901785,161.63984074364066
14.9075,0.8315182594859275,0.4508926872469748,-0.7433788627533237,-0.0708045650298641,0.0472510291921732,-0.0168908334914253,-0.0176604879299129,-0.0010248356149733,-0.0994500528395308,-0.9948851983050953,0.0816154413445922,0.0504535498603589,9.749870603910932,-0.0427401316306301,-0.0735760523199592,0.0001597104658943,3.468970278541693,5.075366820582796,2.1394031981119874,1114.7882416912485,1144.2528544479076,1129.7354129955,1128.7958376687855,-792.7395776782516,110.95704315277932,500.9229557826616,196.78625553296396,161.64136727915445
14.91,0.8791707022339275,0.2389752639647867,-0.6491236118233011,-0.0695745270232798,0.0490712880489225,-0.0183597108015399,-0.0175674790558813,-0.0010748434204667,-0.0994060991807644,-0.9948911915909208,0.0783335771520882,0.0503808649070136,9.747329348545172,-0.0425205238111668,-0.0741244557771993,-1.4811454538657136e-05,3.4689126608572782,5.075168854903827,2.139396249335093,1112.593729519638,1144.535074908022,1131.0051795925908,1129.6296519343234,-793.981755841945,95.72837115553824,410.995213222568,391.9018715263844,161.64319205483267
14.9125,0.9354420905606692,0.013428447709121,-0.5602579016737684,-0.0686230509171295,0.0497525890237819,-0.0192535879185256,-0.0174781286109283,-0.0011193475192139,-0.0993626235965228,-0.9948970692378494,0.0749028765913102,0.0502593032031069,9.745191167115353,-0.0423309043523092,-0.074671257026248,-0.0002011730918041,3.4688567814529008,5.074969367247572,2.139389251751672,1110.8183329120395,1144.7314963036852,1131.7903890616124,1130.7553470264168,-670.9382165245503,75.53207536683385,244.1164766883576,488.5400943117166,161.644705259056
14.915,1.0039233891819133,-0.2397391645554633,-0.4758229116999146,-0.0673574918155576,0.049543411704375,-0.0199002375678543,-0.0173903154415585,-0.0011599294334877,-0.0993196832497361,-0.9949028596690932,0.0713736491578583,0.0500594792372897,9.743497699415576,-0.0421705755383445,-0.0752156719717309,-0.0003995702788997,3.4688013705168266,5.074768162903753,2.1393829098550654,1109.2390384370149,1144.9127352848564,1132.2257619760328,1132.0723524058824,-615.1200451292373,90.63841160289888,104.15964347474264,549.7747591261536,161.64620947564262
14.9175,1.0706047372554957,-0.5439729348265782,-0.3851230975562969,-0.0652583527455834,0.0483109397669666,-0.0206040775426557,-0.0173033467869572,-0.0011990267135971,-0.0992764049898934,-0.9949086589105736,0.067781414673517,0.0497790479273011,9.742285796143449,-0.0420369112883713,-0.0757568056993684,-0.0006099440725213,3.468744607961693,5.0745651580393405,2.1393779337523737,1107.7427326863929,1145.1846883616995,1132.311187278986,1133.504220822048,-456.67792780268417,123.96810961429505,-42.6211942008734,449.1303494979077,161.6480029350148
14.92,1.0791060486355717,-0.7749632520693148,-0.3152152271748092,-0.0629811656931544,0.0465554037024941,-0.0212940436069676,-0.017217967266309,-0.0012383033488782,-0.0992337353658064,-0.9949143577835918,0.0641749575077524,0.0494391709026062,9.741586064362108,-0.041925958265264,-0.0762934578282279,-0.0008316318059248,3.4686854077548066,5.074360247378578,2.1393745220808644,1106.955648798002,1145.5325758329277,1132.0126560050285,1134.3180041533715,-192.04288783252375,183.03752793225613,-194.00229516308397,202.01489853674883,161.64948681401475
14.9225,0.9897074094563552,-0.9579051070497372,-0.2425144030225355,-0.0598283316274225,0.0440387431533495,-0.0222077726910479,-0.0171344645039042,-0.0012791624095889,-0.099194919554154,-0.9949196260921048,0.0605998720276194,0.0490488510240396,9.741422138001516,-0.0418329055916912,-0.0768241058347843,-0.0010634080227154,3.468622842929884,5.074152479895814,2.139371914584446,1106.7825182472304,1146.0998760013608,1131.3411758031707,1134.5142953147315,86.8193529361043,313.71803222018207,-372.94605771115664,-77.36507649432195,161.6509582229984
14.925,0.7169616821275079,-1.1002092519200872,-0.1431689721458553,-0.0549530362178866,0.0400918345442134,-0.0234690832981109,-0.0170518459255102,-0.0013234266976385,-0.0991609702351251,-0.9949243780317876,0.0570820189405008,0.0485912191590762,9.741809584965901,-0.0417519407115266,-0.0773473518217921,-0.0013034016718545,3.4685564439762198,5.073941440384722,2.1393690607841647,1107.3897455626825,1147.1011659940289,1130.1479257164724,1133.9311787708998,362.0134790351019,419.73335568771097,-489.3025124563936,-342.5026379982147,161.6527076223796
14.9275,0.3326716993887227,-1.147536580492836,-0.0498291934366676,-0.0509241955107569,0.0365179689719369,-0.0243381293446461,-0.016968126658374,-0.0013708141886064,-0.0991326114613324,-0.9949285766624926,0.053675647239784,0.0480244588686077,9.7427542496169,-0.0416772139339124,-0.0778618928105486,-0.001548755473567,3.4684867254045986,5.073727243032315,2.1393645707934734,1108.5925856424062,1148.1985427797997,1128.8946632408883,1132.8017821247404,611.1261222280824,478.739699266366,-530.3277982728705,-551.9430795690557,161.65415033540407
14.93,-0.1979103063595744,-1.1270669727178748,0.0448233541815274,-0.0488808741482308,0.033449129868346,-0.0244752710137223,-0.0168828210651957,-0.001418427007724,-0.0991095853992499,-0.9949322603275425,0.0504778197001061,0.0473299499590605,9.744250473851327,-0.041603393031555,-0.0783667559154558,-0.00179523745886,3.468414706129414,5.073510713615734,2.1393572474019615,1110.4453761738223,1149.4948644903602,1127.4962867251083,1131.171463373055,822.4077950598335,532.7227866741473,-558.963291853346,-698.0827461601439,161.65557529758308
14.9325,-0.8077504111084418,-1.063157243824556,0.1281834085793751,-0.049465962278428,0.030975225017022,-0.0239008890966239,-0.016796744884319,-0.0014652379345563,-0.0990909533857419,-0.9949355097485444,0.0475414753969048,0.0465180258243309,9.746280843748856,-0.0415262119011809,-0.0788614264223016,-0.002037813715682,3.468341921233527,5.073292422853354,2.1393461083595167,1112.704624617706,1150.8621567131709,1126.0998467816214,1129.3113683939391,953.7372129990543,537.4029005863191,-525.6880287589953,-749.7708457992494,161.65698383852757
14.935,-1.4438328640204587,-0.9639457320694712,0.1846691058097164,-0.0530363180377958,0.0290015490104285,-0.0228954992760662,-0.0167089294827103,-0.0015098958422048,-0.0990774964204251,-0.994938264523144,0.0449129539782201,0.0455647474178139,9.74881649727938,-0.041443170474465,-0.0793457344781968,-0.002271414144533,3.4682706292747265,5.073072432578489,2.139331221001082,1115.2140622388183,1152.1818789932922,1124.8678465813132,1127.4226091440582,1090.0520365171255,537.0659095046153,-464.80631092831726,-779.3359304189567,161.65837035094023
14.9375,-2.152659791456885,-0.8201044137853514,0.2142963411100273,-0.059825642819412,0.0267904699390667,-0.0218074915359998,-0.0166196135353152,-0.0015504904402012,-0.099068781550553,-0.994940565370871,0.0426440859990107,0.04447101785231,9.7518165574058,-0.0413531065481163,-0.0798202140314256,-0.0024908931592322,3.468202210766228,5.072851213342463,2.1393134181574345,1118.1548848002903,1153.5474862606934,1123.7758152269803,1125.414688741845,1015.884867437828,445.82254780425274,-312.2134159275613,-660.6632254003621,161.6600058365742
14.94,-2.651592173346319,-0.6861840771770379,0.2093609320511361,-0.0667175386072607,0.0248969255855067,-0.0211899894508758,-0.0165273084898605,-0.0015860740550677,-0.0990640378687508,-0.9949425137525184,0.0407586561748735,0.0432097000914336,9.755229870453075,-0.0412560788739946,-0.0802861214637426,-0.0026920354038768,3.4681371596882395,5.072629884421377,2.1392937570178807,1120.2934865760064,1154.410991732313,1123.3067795016757,1124.119293017057,743.3082122869766,276.4159902226333,-75.99086553230968,-417.2981728212819,161.66134317886105
14.9425,-3.0218626376954383,-0.5437973807652957,0.1807270040754039,-0.0742415707483893,0.0231145393005428,-0.0208432959961872,-0.016427206990744,-0.001618385822055,-0.0990616080909785,-0.994944349598933,0.0392175336074446,0.0416991643454946,9.758996872156729,-0.0411528608326719,-0.0807454907947704,-0.0028722320852645,3.4680747631376008,5.072409028903705,2.139273138158703,1121.871425861726,1154.9295662118068,1123.3958608993187,1123.3281978777384,535.4458246215089,148.78793093982898,177.83022463447145,-227.24250660986485,161.66265183141428
14.945,-3.299189150949258,-0.3744890272530863,0.1271382247872112,-0.0838094140129434,0.021576269214884,-0.0205228510463159,-0.0163141410475456,-0.0016460953353513,-0.099058773073921,-0.9949464290234518,0.0380376362521807,0.0398504416969542,9.76305020798688,-0.041044540763408,-0.0812010514723777,-0.0030297637369849,3.468014592520763,5.072188560622622,2.139252215769305,1122.9707156991144,1155.1549313870123,1124.195930624848,1122.9830804840076,268.27976664022447,24.245678915126796,404.8153130823617,-35.409694916241044,161.66418675859586
14.9475,-3.385791686815739,-0.2466273475741972,0.0708448326186956,-0.0921012197471279,0.0209632232395825,-0.0202518109595991,-0.0161849847602053,-0.0016665731335925,-0.0990541826018495,-0.9949489400734796,0.0372632838547016,0.037617729676705,9.767316444374654,-0.0409325512642335,-0.0816558831878102,-0.003163561892163,3.4679566804684216,5.071968874915808,2.139231067741238,1123.212824694927,1155.0507946063824,1125.41993746473,1123.1511494031572,-26.498858074724417,-89.72685393513036,586.6068755811276,139.53989860836012,161.66543478567098
14.95,-3.3221824705550818,-0.1471358462471895,0.0070394219232992,-0.1004522194823095,0.021014297192214,-0.0200494690352532,-0.0160401161391587,-0.0016804104989548,-0.099046415663392,-0.994952014625016,0.0368821230314207,0.0350360377488459,9.771718411793811,-0.040818088202184,-0.0821133533792166,-0.0032732353696838,3.4678998607083455,5.071750240654249,2.1392101641458785,1122.8382214087408,1154.7062971173364,1127.1289650027543,1123.6807799770495,-271.66330751988727,-196.616363536865,828.0502641675025,283.2535682695392,161.66664888178843
14.9525,-3.079126278355761,-0.0706925674727082,-0.0714570840436576,-0.1103337938113529,0.0216201205660048,-0.0199809658124427,-0.0158816923575534,-0.0016898764465709,-0.0990329734993949,-0.9949558603401032,0.0368522445910535,0.0321846807048949,9.776178046670692,-0.0407017237697493,-0.0825769257397432,-0.003359188304597,3.4678431967995498,5.071532523349105,2.13919087451656,1121.8545081573272,1154.067712788698,1129.5601887855682,1124.5674172445051,-418.92795942357367,-270.0760965618056,923.4462271422688,341.86656621834555,161.6680648205874
14.955,-2.74928366253366,-0.0412811903855792,-0.131801378490266,-0.1181083960588581,0.0222912772057199,-0.0201311481711804,-0.0157139093029824,-0.0016965683344068,-0.0990140748709021,-0.9949603819389782,0.0371482094107921,0.0291868190126345,9.780618657419687,-0.0405839655956123,-0.0830495439345068,-0.0034222440647575,3.467786341943908,5.071315122029056,2.1391737129690247,1120.7435816116233,1153.3559166345278,1131.7461961384647,1125.3901128081409,-468.87941845207257,-326.8837302410898,871.4048828107393,320.5980669800921,161.66920946784595
14.9575,-2.3125148739890373,-0.0326484153356409,-0.1770943578844272,-0.1247211059976848,0.0226141436045185,-0.0205687370148579,-0.0155378988173441,-0.0017020488379728,-0.0989893642839568,-0.994965590095236,0.0377389779388044,0.0261105096353412,9.784968427984328,-0.0404647315382952,-0.083533591720104,-0.0034642768728953,3.46772867398566,5.07109732797696,2.139157960124107,1119.5101110650671,1152.4332941374928,1133.917213199621,1126.1704075794053,-490.5019815987232,-409.55951698377214,844.8261335197501,291.75497804853865,161.67031623388368
14.96,-1.8147701808631476,-0.0222856186255093,-0.2023391356567172,-0.1299736105360949,0.0223450673141235,-0.0212819385546795,-0.0153571265119794,-0.0017058509173439,-0.0989588007780958,-0.9949714314059404,0.0386369426299178,0.0230681691749747,9.789160998592465,-0.0403436388944193,-0.0840306435056715,-0.0034868864373958,3.4676702998622955,5.07087887120373,2.139142415951088,1118.2910717036293,1151.3081190496086,1135.970326806064,1126.8488876983838,-462.72892953090417,-502.0108591499263,777.6437728431723,240.69302653084253,161.67139076107668
14.9625,-1.2836427286702177,0.0145778036606565,-0.1967948110217484,-0.1333675452034094,0.0215873023165741,-0.0222971499634408,-0.0151750867081644,-0.0017081585022438,-0.0989223962619276,-0.9949778472672148,0.0398410121268266,0.0201749912364981,9.793137899462984,-0.0402200963484386,-0.0845413328701097,-0.0034918296759495,3.4676116283721488,5.070659740153018,2.1391264929419225,1117.1964664174125,1149.9232398417428,1137.8054320638375,1127.3738727120597,-434.6483641401346,-662.7993791325433,747.2837253606608,201.08402618547552,161.67242553060015
14.965,-0.6591189977718707,0.1109695762615257,-0.1541534936170394,-0.135288192308956,0.0207014804731315,-0.0236058672366872,-0.0149959928951015,-0.0017098558609394,-0.0988807289805969,-0.994984712353166,0.0413365601552898,0.0175602552353716,9.796849809367698,-0.0400935313188984,-0.0850652059469108,-0.0034808980762618,3.4675530314318155,5.070439826842007,2.139110085255657,1116.117829882929,1147.9941221539464,1139.7067454328667,1127.8543078293108,-349.5720855300896,-737.7947980736493,642.2923143665136,163.43935087263336,161.67362029462873
14.9675,-0.1801179677547588,0.2390101796492084,-0.0968583831872779,-0.135528093777201,0.020299437052026,-0.024361288113199,-0.0148236047134239,-0.0017131363138355,-0.0988357751433461,-0.994991768653117,0.043080806441834,0.015343261018774,9.800257957995699,-0.0399636101849737,-0.085600562102471,-0.0034562263588051,3.467495320384555,5.070218890301321,2.139093081060412,1115.4486059897615,1146.234265851374,1141.0168936356706,1128.1910694664227,-218.5870487473607,-708.2918405406674,459.8546191301656,140.7227992024453,161.6745761714227
14.97,0.2320221477872691,0.4075723184911823,-0.0361139310180288,-0.1348517058936756,0.0205158718954065,-0.0243607317421133,-0.0146597458120198,-0.0017215087334774,-0.0987904359460288,-0.9949986945361182,0.0449994604638347,0.0136021941766285,9.80333520921864,-0.0398301629976867,-0.086144449011227,-0.0034206506211375,3.467439200206344,5.069995743577972,2.1390753967678315,1115.024894639192,1144.4526629512427,1142.0060185285179,1128.557921825323,-133.94524485750415,-747.7851904086616,350.4220577696984,188.42840661526793,161.6754901436445
14.9725,0.6360469757253612,0.631847514876466,0.0155510477829125,-0.1331241979363253,0.0217285680568424,-0.0236786364893564,-0.0145026593301193,-0.0017388131337845,-0.0987459251847714,-0.9950053890554676,0.0470026324341118,0.0123383368786773,9.806066738428795,-0.0396926622109042,-0.0866929532055846,-0.0033780410173603,3.46738479572685,5.069768953198005,2.1390582640037206,1114.7788797654744,1142.4953398993312,1142.7690039245188,1129.133211499499,-51.228526041369335,-655.3471541395023,202.95662441553247,242.39704150459423,161.67653786584268
14.975,0.8943216857725468,0.8133829665576866,0.0277744202575272,-0.1310249375799475,0.0236300320656722,-0.0228858922451211,-0.0143468226056917,-0.0017665312052905,-0.0986994169286191,-0.995012211000352,0.0490368821398582,0.0114658716189982,9.808449877346078,-0.0395497222004639,-0.0872416594354247,-0.0033331901123337,3.4673319292617695,5.069537806583148,2.139042740845711,1114.7687520089853,1141.1759271805458,1143.020801650595,1129.769907032846,30.69546716878424,-428.5925085122256,19.25765233240481,289.4985078546599,161.67736974814335
14.9775,1.073355348447748,0.9609739464858652,0.0035248458634101,-0.128384028125425,0.026340071639259,-0.0221909187090288,-0.0141889452774343,-0.0018074229880958,-0.0986483669149249,-0.9950194564330596,0.0510251461569935,0.0109344933061704,9.810492919117335,-0.0393997421429016,-0.0877857662535082,-0.0032908163286287,3.467279886239504,5.069302836683708,2.139029543572838,1114.9323571013183,1140.35237735677,1142.8652921861808,1130.5807040387726,105.2770901980074,-221.43603199602873,-156.9527549687546,389.61335334891646,161.67815852905727
14.98,1.2050263943314454,1.0741382554839127,-0.0582200255469877,-0.1247846040387898,0.0300494611503673,-0.0217770063567362,-0.0140300931877004,-0.0018603729493425,-0.0985926108925034,-0.9950271286231854,0.0529710167009759,0.0107602496968348,9.812213452230564,-0.0392413237105849,-0.0883203473276518,-0.0032545623742093,3.4672283971818185,5.069064662288441,2.1390188899798623,1115.2951374599754,1140.0687470205655,1142.2360378757514,1131.7179737995907,154.21100703032036,19.285132803592404,-297.3909550696272,433.03787979443285,161.6790549911304
14.9825,1.2553802801017848,1.1058440596586114,-0.1224291971478929,-0.1217054179566876,0.0332040038622723,-0.0219425309686053,-0.0138722274745529,-0.0019221525492165,-0.0985321631473166,-0.9950352046974096,0.0549177404434563,0.0109618626407749,9.813637896009823,-0.0390729199898851,-0.0888408543428234,-0.0032273732121491,3.4671773795828726,5.068823315478573,2.139010057386788,1115.7034121364695,1140.4488030207879,1141.3783374108327,1132.7458934377444,173.94242260924153,269.8946666724706,-403.6614812608953,406.77484010992794,161.67976021194903
14.985,1.2594076624924606,1.0716060225158954,-0.1789451411736145,-0.1188560997379601,0.036098398356129,-0.0226031431275572,-0.0137156334055804,-0.0019894837144315,-0.0984688583710347,-0.995043506213508,0.0569028142625509,0.0115150440261572,9.81480048086232,-0.0388931874572762,-0.089343265434892,-0.0032117851121056,3.467126504444105,5.068579376193824,2.1390021763003766,1116.1648495730215,1141.4182203539276,1140.2177304694471,1133.75184800014,182.1120012405742,467.2601836388546,-509.31554138102223,377.50193724972183,161.6804219804718
14.9875,1.2365772850095416,0.9875033344926312,-0.2147874657823638,-0.116303321831492,0.0385894434580325,-0.0234930586166236,-0.0135632200529056,-0.0020591857028115,-0.0984053133408181,-0.9950517416225444,0.0589637227803076,0.0124381585881878,9.815740316215388,-0.0387009144272886,-0.0898244282455818,-0.0032089387377863,3.4670755525057504,5.068333839280872,2.1389943270716927,1116.6139721426728,1142.7851039389825,1138.8317597039274,1134.6334031239933,161.56125304066535,612.4136709014645,-603.3652044659414,293.49346821022624,161.6810477547863
14.99,1.190822626937727,0.8515065822178975,-0.213863293633096,-0.1141951511864717,0.0405793394718597,-0.0245371752285391,-0.0134187733360109,-0.0021289083922118,-0.0983422525334507,-0.995059793583045,0.0611208301606821,0.0137616175506683,9.816499453022436,-0.0384946521687456,-0.090282381131474,-0.0032188669676618,3.4670244254105476,5.068087729070119,2.138985886409889,1116.972655838225,1144.4802887084354,1137.2009044471172,1135.2193153411915,119.58399381189896,778.2508611415961,-764.598487873279,157.44281698997332,161.68163024678142
14.9925,1.109335912116346,0.6369990479394357,-0.1644279690595795,-0.1119792549396713,0.0425387480444733,-0.0258436399309163,-0.0132824279829371,-0.0021951968782872,-0.0982779926939376,-0.9950678349959896,0.0634070383522724,0.0154377670915058,9.817121108408964,-0.0382727477961853,-0.090716344899926,-0.00324126682195,3.466972934257538,5.067841462736603,2.1389772569552656,1117.211892111732,1146.6763582446897,1135.0087672645618,1135.4206172089428,47.446802769165366,799.9153109659914,-830.4357022309498,-20.370497460222847,161.68227944856483
14.995,1.0073093302675906,0.4194240400303836,-0.0869302409888768,-0.109822005994628,0.0437756001992233,-0.0266981882293879,-0.0131509944902054,-0.0022580329221643,-0.0982091275772586,-0.9950762464046112,0.0657803844471814,0.0173580956584757,9.817647742111879,-0.038033549974605,-0.091126560157556,-0.0032757769158385,3.4669210605329566,5.067595070395122,2.1389688042167374,1117.2098898520708,1148.479865263266,1133.0487259359616,1135.1174628538904,-45.34789438352364,679.7849295804855,-785.8569873092301,-208.11041775747452,161.68277919107123
14.9975,0.845045417008376,0.164677303981324,0.0137240576140427,-0.1064694615559857,0.0448152293545771,-0.0269206681280587,-0.0130193751669672,-0.0023168522956344,-0.0981367374500531,-0.995084991811205,0.0682051690798561,0.0193742797831091,9.818118069651328,-0.0377767219500187,-0.0915136601572066,-0.0033215103136578,3.4668688750530086,5.0673486759569375,2.138959875951673,1116.9851526398145,1150.0752828925927,1131.079482328015,1134.3800651201555,-143.95090316737105,619.6478537740727,-824.1280758462202,-382.8114095272974,161.6832362848535
15.0,0.5604703110248836,-0.1768621328715701,0.1373032553577796,-0.1017115661297438,0.0459240272724902,-0.0263977844143798,-0.0128858019559408,-0.0023671170966243,-0.0980647699094469,-0.9950937162341668,0.070730364046024,0.0213960782159272,9.818563401879304,-0.0375031204559595,-0.0918786778305295,-0.0033759035087741,3.4668180544600857,5.067102307366494,2.138949859516836,1116.490135336234,1151.5781045321355,1128.9280855567315,1133.2034058062543,-209.01500914869368,465.5624977788664,-715.9339970848638,-437.36407123132784,161.68373531960833
15.0025,0.2581403464259553,-0.4768380601087152,0.2259607469463346,-0.0987356516023844,0.0460895483253397,-0.025512446899517,-0.0127507211372072,-0.0024065412721671,-0.0979961266899018,-0.9951021336395698,0.073367184655199,0.0233839958123343,9.81900689260008,-0.0372140293369235,-0.0922232251409435,-0.0034353884014914,3.466769367823918,5.066855870611185,2.138938140488011,1115.9400775940712,1152.4030953814863,1127.4998123425914,1132.1932447639992,-231.94137881460856,233.33914738237567,-454.8513157725864,-359.41531728875657,161.68410953240695
15.005,-0.0646464466225881,-0.7599853966842143,0.2860096667319341,-0.098144639858721,0.0447524251583298,-0.024350478346675,-0.0126151977891336,-0.0024374216529162,-0.0979349753619114,-0.9951098144704972,0.0760414108346714,0.0253236945241128,9.819463025376551,-0.0369114205944769,-0.0925492261559622,-0.0034960235178406,3.4667222566403564,5.066609765688144,2.1389240729678187,1115.3304284421608,1152.7448002690478,1126.6538289778682,1131.4063292198102,-258.47382019056164,46.59440649942734,-209.01846634984764,-253.27220789591271,161.68443966572727
15.0075,-0.3963879251177247,-1.0312017640723117,0.3197093473768351,-0.1003246477826065,0.0412689015611079,-0.0227914135229254,-0.0124798214463594,-0.0024628104707828,-0.0978865495053466,-0.9951162292241033,0.0786670958890517,0.0271984187404459,9.819936734794732,-0.0365977857403614,-0.0928588302016863,-0.0035537733323909,3.466676237128071,5.066364056787857,2.1389076691095483,1114.6477084931182,1152.6360674139837,1126.454720010842,1130.9268837245195,-223.169965146052,-109.43966177026044,64.93198320555548,-86.73392072529984,161.68478343778455
15.01,-0.5747879759909892,-1.1684358534365815,0.3198963346940568,-0.1038587788637948,0.0372545098149301,-0.0216443617819587,-0.0123447252505849,-0.0024846469668005,-0.0978551371677116,-0.9951209502404565,0.0811840159667211,0.0289870052701836,9.820423086335083,-0.0362756722715363,-0.0931544362520626,-0.003604742634103,3.4666311191315575,5.0661185558423565,2.138889073517065,1114.2145786164308,1152.1976019601966,1126.978488893896,1130.9726596161838,-122.58170184821113,-218.58650525938396,329.6566871830176,101.71754868450309,161.68502492153235
15.0125,-0.6203129928906685,-1.1939147898627007,0.3039963800686837,-0.1075767716661497,0.0330308609466084,-0.0208690017366311,-0.0122079059830976,-0.0025059336013824,-0.0978412351427398,-0.9951239467777095,0.0835125391689796,0.0306363376760355,9.82090856934287,-0.03594707707414,-0.0934387639847515,-0.0036459560612474,3.4665866401804446,5.065873056701167,2.138868609628544,1114.034799983877,1151.5431348876866,1128.1030034467572,1131.435471467942,-16.155130462172767,-275.0900198175284,515.2584013022638,234.06546317733932,161.68521775863107
15.015,-0.5617222361139057,-1.1295757247995903,0.2872284591822525,-0.1102712065553558,0.0292444251561981,-0.0203917642857504,-0.0120680135778477,-0.0025299666042623,-0.097841432013283,-0.9951255636671033,0.0855743162228471,0.0321146058565094,9.821371472058996,-0.0356134217146823,-0.0937147611776542,-0.0036750790328097,3.4665428564504723,5.06562783057245,2.1388470031954108,1114.13380296412,1150.8221518611088,1129.5547809004076,1132.1429869320707,115.3427786580098,-284.4200166655921,605.8440541709228,309.6023575805864,161.68536856963135
15.0175,-0.4115775901540103,-0.9784688055819956,0.2830199769249653,-0.1114408169118568,0.0263572863773423,-0.0201494370922429,-0.0119237309725869,-0.0025588233316791,-0.0978496326890709,-0.995126412579732,0.0873207225079863,0.0333957979799402,9.821783385185018,-0.0352757961714911,-0.0939853834940133,-0.0036906837278187,3.4665002985906526,5.06538330023348,2.138824889760064,1114.6115138771668,1150.1210348043587,1131.1322237176112,1132.9834832558447,294.36694993234084,-293.38128139658164,653.6046333178483,360.6564978872292,161.68546668644478
15.02,-0.1804935514696525,-0.7373057727296622,0.3033010886849182,-0.1119908579123259,0.0239940473815027,-0.0199057099891013,-0.0117765808620798,-0.0025909165300466,-0.0978600987928234,-0.995127045048343,0.088785945700181,0.0345085637149674,9.822110030958804,-0.0349355144473576,-0.0942532447208321,-0.0036917097114098,3.4664598643832587,5.0651392137632545,2.138803393215672,1115.605637713781,1149.355245454126,1132.8228040669962,1133.9462694215065,421.23441916212647,-271.704322165718,545.8971532150881,324.0664823965238,161.68552138728936
15.0225,0.0161465690956746,-0.518079109880731,0.3426691748360577,-0.1122810864856667,0.0228482078336213,-0.0195622156988384,-0.011629573953855,-0.0026237931013846,-0.0978691727094049,-0.9951277925067608,0.0900293699839091,0.0355137662179687,9.82231419622412,-0.0345942782370782,-0.0945203562839311,-0.0036778713746288,3.466421789224681,5.06489527858339,2.1387833139485304,1116.717685972978,1148.76251319353,1133.8617094836873,1134.6038156678276,476.8130190566063,-241.26571247757832,312.08313920355647,220.05636466452611,161.68551329990518
15.025,0.173119464792084,-0.3135804900594583,0.3993700498393156,-0.1118975143694636,0.0225183057162234,-0.0188730423071999,-0.0114851147631725,-0.0026569734470965,-0.0978751714671232,-0.99512879375187,0.0910754647487119,0.0364677207230289,9.822358996096707,-0.0342539384225521,-0.0947880386846088,-0.0036500684895833,3.466384978130028,5.064651140743749,2.138764979851255,1117.9897028090647,1148.148916891738,1134.3832197630143,1135.0465512448293,557.654864091839,-294.51216847752625,109.15281138243142,143.01245495115043,161.68544862911602
15.0275,0.2659803791579471,-0.1134241901666898,0.4740639539079233,-0.1099086846978614,0.0229743428774904,-0.0175025421919861,-0.0113440231198644,-0.0026852345111927,-0.0978790579555809,-0.9951299573442792,0.0920423821683948,0.0373884938237688,9.822209146503942,-0.0339165480861031,-0.0950568130403539,-0.0036100248144524,3.466349578323204,5.064406446218196,2.138748155317948,1119.5059602934366,1147.2899523511428,1134.4074735405993,1135.3188779425832,525.9952545011489,-346.6504696774704,-73.50716448039508,59.36575573631653,161.68530520684277
15.03,0.2365214778881081,0.0058435843039231,0.5314396852140284,-0.1072398885937309,0.0237566041396124,-0.0159448212973814,-0.0112054744808435,-0.0027045503867134,-0.0978808561251157,-0.995131299973509,0.0930245400107298,0.0382654362763419,9.82183394008646,-0.0335835446427845,-0.095326647574062,-0.00356037267656,3.4663160726973774,5.064161202756275,2.138732720271596,1120.619679081571,1146.4156645433504,1134.0156839406122,1135.3433800235107,388.12544576356527,-387.5563739689218,-204.58858318749196,-28.56287347567112,161.6851309529288
15.0325,0.0902806805198393,0.079143444818314,0.5752750072708859,-0.1046432150533138,0.0244616637692817,-0.0143171643736405,-0.011066169229381,-0.0027184253427388,-0.097880851229121,-0.9951328194072308,0.0939658888799121,0.0390533305599714,9.821210267116903,-0.0332558212962272,-0.0955968944946849,-0.0035049136856121,3.466284047552578,5.063915541934672,2.138718397530903,1121.4465875222547,1145.352170481298,1133.3845306246617,1135.1760635752048,283.8849755957764,-505.742162171428,-278.353556888679,-114.9474653675726,161.68490049974707
15.035,-0.1823418445753188,0.1337126404445339,0.6092745867361888,-0.1030825867437083,0.0249538455999839,-0.0127837409014354,-0.010923209133247,-0.0027350965861621,-0.0978785774747178,-0.9951345700585592,0.0947187216002046,0.0397220199116395,9.820322724629596,-0.0329334722556532,-0.0958663873286151,-0.0034477306130862,3.46625257496702,5.063669282690684,2.1387049297645326,1122.0391039595495,1143.8869537324936,1132.6239161561691,1134.7686426966732,153.4353514433256,-558.532689914202,-239.89001402651635,-180.51227871909717,161.68456030518814
15.0375,-0.4374233804970708,0.1709742916420128,0.621057102498873,-0.1038281236120828,0.0250346606916371,-0.0115999116284078,-0.0107753717089746,-0.0027606429057344,-0.0978746219847054,-0.9951364905031028,0.0951794742917487,0.040266321764539,9.819162965777636,-0.0326161943354797,-0.0961333272094107,-0.0033924741872998,3.466221288486621,5.063421816676065,2.138692298540809,1122.2137642794712,1142.5595070317274,1132.1850805545291,1134.2735021816095,18.564839932011463,-537.0844020413258,-98.60838076882197,-220.034020141122,161.68422513437352
15.04,-0.6469749046712427,0.2219413624487256,0.6108080964291097,-0.1066691148862968,0.0248421290265886,-0.01020404459089,-0.0106242003584078,-0.0027949294687794,-0.0978718842569358,-0.9951382774929112,0.0953687478462187,0.0407181476821632,9.817729161290751,-0.0323036479079549,-0.0963952543793957,-0.0033418597321498,3.4661907120501567,5.06317261546685,2.138680636625133,1122.1319281592096,1141.2015317222867,1132.1308742523247,1133.6684725959672,-60.57888189142393,-535.4352053337225,54.712590548106704,-245.066983328168,161.68383843595157
15.0425,-0.7718352211700243,0.2952244424362863,0.5763504378872136,-0.110444567348419,0.02468460012174,-0.0088579331294733,-0.0104699766313381,-0.0028343546565865,-0.0978711004569138,-0.9951398635500216,0.0953684303020778,0.0410734117630026,9.81602768114338,-0.0319946515832797,-0.0966494543470456,-0.0032984859176128,3.466161182250864,5.062921043881221,2.138669933625793,1121.910869870014,1139.8823310050584,1132.45864350727,1133.0481672649685,-107.54299459951974,-503.8380797399988,216.27453879477557,-225.73978029595247,161.68341094238892
15.045,-0.7649313081494397,0.3979350262410355,0.5043534190714415,-0.1141166232912354,0.0249981520494538,-0.0074874702260094,-0.0103088977844899,-0.0028749931459582,-0.0978723043678508,-0.995141295383386,0.0952537720169215,0.0412423013469076,9.81407424451812,-0.0316874911173814,-0.0968930734411491,-0.0032654346077013,3.4661321491236587,5.062666983375824,2.1386595038754788,1121.594213186212,1138.6823413235873,1133.2122469462984,1132.5397736944878,-153.43621471400508,-484.3757447470179,396.5459715970034,-163.53107045664345,161.6829370327234
15.0475,-0.6039385107728211,0.5462386975048962,0.3641561564426518,-0.1174060892919906,0.0261231273678226,-0.0055237531847098,-0.0101383724664125,-0.0029121071177531,-0.0978750083169855,-0.995142661996636,0.0951123043391202,0.0411519220718278,9.811891928378422,-0.0313800496166121,-0.0971234158695931,-0.003245129915462,3.4661030619263316,5.062410972571995,2.1386491108865173,1121.143688796444,1137.4604522813236,1134.4413733652543,1132.2305119126854,-179.53366260073304,-401.81303309112167,470.62897319330574,-46.129335837797115,161.68231882707596
15.05,-0.3627174345250965,0.6792390002945111,0.1997990672101992,-0.1190555875356609,0.0276044580324761,-0.003943726826858,-0.0099597351727714,-0.0029442778184871,-0.0978789264258795,-0.9951439832771334,0.0949679138925502,0.0408076154585798,9.809510417193769,-0.0310700628952072,-0.0973381623389635,-0.0032389544819088,3.466073937070256,5.062153520677302,2.138639040210587,1120.6965448732083,1136.673276158131,1135.5653918122655,1132.3091270152988,-203.93236471328683,-257.2647174061838,430.9260349067935,103.60882096745824,161.68176582351057
15.0525,-0.0473121833989323,0.8071736363785489,-0.0047298679931961,-0.119757049384906,0.0294774408987768,-0.0030693244380887,-0.0097802722676595,-0.0029735989228006,-0.0978861789235448,-0.9951449713833244,0.0947810417966777,0.0403332126809262,9.806964540012952,-0.03075572792006,-0.0975354167081566,-0.0032468245067629,3.466044716563664,5.061895088621118,2.1386290824159944,1120.1240269728776,1136.1741286942927,1136.5960035397889,1132.7485560175228,-295.8153332692879,-145.9947961293273,401.10347547096154,252.36536184698272,161.68117812360555
15.055,0.3666187861616823,0.9389550241870522,-0.269913122723044,-0.1195414586661823,0.032084602749908,-0.0033843653085368,-0.0096080207917057,-0.0030019817120973,-0.0978972059533445,-0.9951454978720397,0.0945109876990714,0.0398645889604028,9.804293885010157,-0.0304350970513451,-0.0977140288066139,-0.0032680381531175,3.4660154955895246,5.061636083906241,2.138619292063006,1119.217468206862,1135.9433021774848,1137.57090918962,1133.5709538245335,-377.99306558966697,-22.548637940914087,304.6667319732911,316.95949298127334,161.6804386738616
15.0575,0.7013035306672007,1.020328096099319,-0.4828446596856943,-0.1180866599248624,0.0345171869682147,-0.0048432625025447,-0.0094477888792111,-0.0030290737728646,-0.0979111365966093,-0.9951456026662278,0.094149528802298,0.0394695122560497,9.801542270404038,-0.03010630477376,-0.0978735855417748,-0.0033019722108385,3.465986903175428,5.061376803349211,2.138610102880795,1118.2340616449287,1136.061385504588,1138.1193371996555,1134.3333534824294,-444.89082121810816,105.33177321183928,166.31263367423472,270.08536174871875,161.67979856840938
15.06,0.9782464462223516,1.061496109977916,-0.6626322729128353,-0.1149528896261883,0.0371019804521069,-0.0071438947442359,-0.0093009647442342,-0.0030564207036944,-0.0979281384084668,-0.9951452516925444,0.0936404324198534,0.0391532203385002,9.79875727062379,-0.0297680858889145,-0.0980142832990874,-0.0033482571082183,3.4659590539605247,5.061116964643993,2.1386009510591655,1116.9930141007712,1136.469961043544,1138.4024723579912,1134.9213806332773,-598.3491542349665,229.58315577902812,73.3125881795477,162.18651659449776,161.67913930441162
15.0625,1.2033588453889563,1.0542869933286152,-0.8268891023527897,-0.109901652876537,0.0405339864259901,-0.0098204711098687,-0.0091662603311042,-0.0030849738595784,-0.0979505834298858,-0.9951442217961546,0.0929308941292522,0.0388698295935372,9.795988317007348,-0.0294200762113575,-0.0981368930544374,-0.0034065032816107,3.465931903247544,5.0608561428187775,2.1385902971878767,1115.2423158737547,1137.209301283483,1138.4859001405532,1135.1442860654015,-671.196891573797,294.74251272692027,-4.014248667318387,-26.734215114361948,161.67833267867167
15.065,1.2911633686510082,0.9966887151429032,-0.9208767531530756,-0.1056177774545831,0.0436497786063002,-0.0114946558014218,-0.0090404181996997,-0.0031162453047972,-0.0979766644358374,-0.9951427179176474,0.0919515023282985,0.0385418544670851,9.793285522196161,-0.0290615901873746,-0.0982432251155687,-0.0034763072328864,3.4659055832294627,5.060594660309737,2.1385776346384318,1113.6370296429027,1137.9436736071784,1138.3824011146546,1134.7877095577055,-645.9269920877332,295.08571181318007,-69.65299005240743,-263.78164711277776,161.67765246943716
15.0675,1.287367989027942,0.8884938728417922,-0.970861000755562,-0.1020778124793494,0.0463862058859771,-0.0131305624759729,-0.0089198942743745,-0.0031532708313249,-0.0979999778122521,-0.9951413953238284,0.0906023191706691,0.0380967310890872,9.790698345825204,-0.0286915682326476,-0.0983362367310742,-0.0035571738378812,3.4658800666452567,5.0603334501509485,2.1385640297513144,1112.0126809133155,1138.6847298425491,1138.1376351902911,1133.8253778298376,-628.217202924172,282.70432727672545,-117.87376566019678,-470.82610244366975,161.67696985658162
15.07,1.2282787252858072,0.7478929879585957,-0.9784710742908014,-0.09924353408829,0.048452544645223,-0.0153862729756526,-0.0088006559573418,-0.0031985019149345,-0.0980146612723958,-0.9951408625114092,0.0887956709496964,0.0374590354802304,9.788274374429808,-0.0283096309755361,-0.0984197216585865,-0.0036486728309847,3.465855108248811,5.060073625624674,2.138550310407525,1110.4959436282816,1139.3571952435623,1137.7930322863535,1132.4335790454868,-550.1231131749322,242.35855689817348,-160.6248330166046,-620.3774602708434,161.67628972937172
15.0725,1.1297367647891294,0.5842021452546399,-0.9228522755767048,-0.0970664738530936,0.0497058503084128,-0.0183724712986296,-0.0086814630267267,-0.0032528395456971,-0.0980194888319525,-0.995141250837935,0.0864833189105077,0.0366126344144437,9.78605756938605,-0.0279169230049382,-0.0984979623854311,-0.0037498237403474,3.465830556870792,5.059815932691963,2.138536568637024,1109.2620653474414,1139.8965226270395,1137.3345110252083,1130.723490528484,-445.01055462308017,207.08677107760596,-229.96900753706583,-758.5750658449066,161.67561808870127
15.075,0.9925945693467192,0.3790199328974204,-0.7746531949641464,-0.0948069856766467,0.0505104360328419,-0.0221276487293724,-0.0085639273301995,-0.0033152710946377,-0.0980147826105935,-0.9951425197355652,0.083665161418385,0.0356024389132488,9.784087624749619,-0.0275155265723336,-0.0985756449851867,-0.0038590742264436,3.4658067750075054,5.059560657283112,2.1385227094041186,1108.2708908551658,1140.3926290989505,1136.643187248668,1128.6407037162617,-267.4476643911058,167.14310236249847,-280.8487144070129,-719.7157497616683,161.67482910377015
15.0775,0.8730416541810099,0.2081995446029371,-0.589926174747424,-0.0930409725447001,0.0508097821098112,-0.0248312439984933,-0.0084483141094799,-0.0033846144187373,-0.0980021551688644,-0.9951445140933172,0.0803487480470244,0.0344560316968827,9.78240088395478,-0.0271083790037894,-0.0986574988918205,-0.0039752007914823,3.4657840979397654,5.059308007536349,2.1385088593839288,1107.9248270254857,1140.7322381388524,1135.9302674531727,1127.1249117796751,-34.64408432829039,142.32877620982535,-319.71412605623294,-516.1908205655099,161.67419097013916
15.08,0.7510612734075665,0.0388884687852645,-0.3674693152455356,-0.0914548568386676,0.0509183688035081,-0.0263054500579177,-0.0083356987471598,-0.0034572051128676,-0.0979866757317355,-0.9951467397031925,0.0765999404596636,0.0332201505499621,9.781029071508067,-0.026699666993061,-0.0987478062855855,-0.0040967819673575,3.465762631806164,5.0590585645151585,2.1384948391553156,1108.0976704335244,1141.1042729799995,1135.0446166183872,1126.0597496134346,186.13642076142304,202.47082486552637,-433.60571351913205,-341.37511351657366,161.67357887577603
15.0825,0.59677391174946,-0.1671423553752492,-0.1014344388225681,-0.089818291582513,0.0509221911936573,-0.026295658029709,-0.0082292584784839,-0.0035278396355,-0.0979721204280175,-0.9951488173834596,0.0725277497277202,0.0319874820360211,9.779998877647614,-0.0262937716009771,-0.0988502363484905,-0.0042219600933074,3.4657428668325667,5.058812606627581,2.138480541087705,1108.8555091292926,1141.7445922631798,1133.7622388855775,1125.4180362120926,355.43186939174933,288.9684817233959,-503.2256643709966,-132.9446051913939,161.67288095683045
15.085,0.4537599461547343,-0.3446626107150206,0.0886305249223589,-0.0886066904997974,0.050786089396598,-0.025338613207155,-0.0081316460526188,-0.0035929632623635,-0.0979588090164302,-0.9951507071238124,0.0682178030804567,0.0308501969328636,9.779332822387111,-0.025894632322262,-0.0989674517490963,-0.0043490765623002,3.4657254508589235,5.058569419590827,2.138466002346555,1109.8748297804834,1142.5491153886167,1132.5284882965318,1125.3950265874776,467.26276144106095,396.26782886051103,-513.0117678297319,71.82230257325287,161.67233431392273
15.0875,0.2839103840063273,-0.5272050001671587,0.2222207424097826,-0.0874798953697742,0.050343627789871,-0.0241219066018573,-0.0080437939720673,-0.0036512637323545,-0.0979456755423985,-0.9951525120197396,0.0637189395780646,0.0298749639385612,9.779049280879173,-0.0255059016349565,-0.0991005415181231,-0.004476925839192,3.465710823703085,5.058327667020812,2.1384514802433734,1111.1918229364983,1143.7259314074827,1131.1971800464287,1125.7771477249587,623.0854682170377,606.7737125212559,-580.9384760969143,215.7252402213064,161.6718289542713
15.09,0.0375715518564583,-0.7396164660681434,0.308919904913991,-0.0863753928793333,0.0491487914659839,-0.0226232612128429,-0.0079660283440848,-0.0037004109775699,-0.0979311175949938,-0.995154396661431,0.0591087005871048,0.0291155771877143,9.779161471960201,-0.0251308462193127,-0.0992487027648959,-0.004604395910288,3.4656996228535446,5.058085380739888,2.1384371978724883,1112.990257121568,1145.5829839512223,1129.6237959160478,1126.4736527885839,677.5614143417292,742.0605110859219,-551.1940598333288,258.52249312334203,161.67127564562847
15.0925,-0.2059216930528531,-0.894019436768371,0.323832395475519,-0.0860384791540949,0.0473501560977968,-0.0214827192704264,-0.0078931741112966,-0.0037407259829431,-0.097912354149836,-0.9951566746591504,0.0544118796576488,0.0285222063591898,9.779678738895901,-0.0247718456802182,-0.0994092228373723,-0.0047315084685861,3.465691426883593,5.057839507784665,2.138423173643539,1114.5796300082075,1147.4362339629129,1128.4412097472616,1127.0697601905758,632.0013317729639,773.005116123174,-424.50249824271583,205.4004455436049,161.6708624948525
15.095,-0.4836923866993858,-0.9992250579488448,0.292217812146438,-0.0866805771000154,0.0445404735784823,-0.0206496249372982,-0.0078178116767947,-0.0037737191155336,-0.0978861660614453,-0.9951597158114446,0.049634246437731,0.0279994240683863,9.78060521870038,-0.0244302949422664,-0.099577831115402,-0.0048586238666719,3.465685352281367,5.057586652781156,2.1384093466947034,1116.1502637804333,1149.4480095318388,1127.501283424834,1127.500655016302,658.2712660151119,872.1206266116867,-340.272294917599,129.39303749815582,161.67050316580392
15.0975,-0.8428724429617171,-1.0431730255482232,0.2205640768312788,-0.0883175622759149,0.0402683326559459,-0.0200320647203243,-0.0077332709903288,-0.0038004434949412,-0.0978512344032708,-0.9951636980567958,0.0447991711554304,0.0274590427702649,9.781938705504228,-0.0241070038550304,-0.0997493983049682,-0.0049856950031997,3.4656802677113405,5.057326443613082,2.1383955541060686,1117.8709863382824,1151.7968370959704,1126.739848272674,1127.7167253780665,581.718353214844,812.376637843479,-210.04017606350857,29.812138054200226,161.6701383121275
15.1,-1.1507490784668366,-1.0043677323721887,0.1473294320214695,-0.0902713451310493,0.0365831809703715,-0.0197812752498284,-0.0076365373291844,-0.0038217952245192,-0.0978120889792274,-0.9951681942420724,0.0399461291379271,0.0268755500049362,9.783669851158022,-0.0238030954008338,-0.0999187785116043,-0.0051116168566461,3.4656748948150846,5.05706219787244,2.138381205527249,1119.0588555465067,1153.5098927210552,1126.4510825445163,1127.649715706573,399.5079727897804,595.3743519576598,-37.23953892971949,-58.90029907763153,161.66989180479496
15.1025,-1.4470619907527227,-0.8988050389919267,0.0748632845706006,-0.0929094750417198,0.0335989441755955,-0.0197264359924652,-0.0075280917642071,-0.0038381628202432,-0.0977746169480316,-0.9951726182067284,0.0351354404982378,0.0262828286918065,9.785782113263588,-0.0235193451199968,-0.1000818195536016,-0.0052342301261755,3.4656686421438447,5.056796790562184,2.1383657737825006,1119.8685262022316,1154.7737088557592,1126.553650578025,1127.4222238826783,247.30581687300173,411.2810319502199,108.73065261042149,-93.73783429703859,161.669706581645
15.105,-1.7131296480978773,-0.7591290628827115,0.0115662926288028,-0.0962563668834558,0.0314901591452464,-0.0197931589279686,-0.0074078104507328,-0.0038502533036968,-0.0977418145289544,-0.995176671458523,0.030422606015493,0.0256966927437687,9.78825281566272,-0.0232555812196007,-0.1002358623849304,-0.0053512479196745,3.4656614410381885,5.056532306538709,2.1383491630140283,1120.295384630872,1155.5662978808068,1126.9947358075688,1127.1810265350875,71.64702008955435,196.07390258410567,257.4449766414603,-66.87445214721686,161.66957249292753
15.1075,-1.911228282396182,-0.6103446909442126,-0.0332574278888612,-0.1007078481251167,0.0303607713818941,-0.0199881638912365,-0.0072739629369194,-0.0038624386497028,-0.0977135596712489,-0.9951803601334868,0.0257897778550374,0.025102190748809,9.7910537426844,-0.0230108390871246,-0.1003796868820238,-0.0054606829852854,3.465653078731607,5.056270068842972,2.13833116562306,1120.2267613026793,1155.7540783686795,1127.8408754612324,1127.0878516219423,-137.7839606530689,-42.993174577313226,457.08837016504725,31.077734689285354,161.6694994121513
15.11,-2.027610976687217,-0.4581880140313474,-0.0594151124697747,-0.1073028216217768,0.0297960847191497,-0.0203738747821205,-0.0071263343924379,-0.0038796262700039,-0.0976872626913984,-0.995183920504437,0.0212114045780958,0.0245089506701757,9.794150640452408,-0.022783741532429,-0.1005131960685624,-0.0055602926647123,3.4656438849398055,5.056010267537085,2.1383117130198377,1119.6064648276067,1155.3513320079203,1129.2801776583935,1127.336415208534,-301.2487616165329,-227.44038678389273,584.9233020945571,170.55089250940972,161.66948008680987
15.1125,-1.9985785534935836,-0.3712567701251374,-0.0562056801509819,-0.1134170330030853,0.0296888438410577,-0.0208214359499272,-0.0069665849231068,-0.003903035447305,-0.0976594948609053,-0.9951876727486444,0.0167361720377703,0.0239506245732116,9.797503753854183,-0.02257303920563,-0.1006369206387526,-0.0056475914919858,3.4656350467961605,5.055752519942273,2.1382909451037992,1118.7205174945964,1154.61687643476,1130.7654919717056,1127.9406060844894,-403.0342579306132,-338.18009323794456,630.1643820825955,334.3932619545217,161.6695184371224
15.115,-1.826532895957493,-0.3328745324811839,-0.0289807905191542,-0.1193297088503906,0.0296254381813094,-0.0213501326434708,-0.0068016117708209,-0.0039284288829884,-0.0976292963311209,-0.9951916775378068,0.0125271449854376,0.0235474581351131,9.801068227398904,-0.0223783544443563,-0.1007515107225779,-0.0057193149941423,3.465627843420343,5.055496784018385,2.1382694865029057,1117.5912935379536,1153.6604315417303,1132.430999568807,1129.008381518307,-515.8393707648546,-429.636157327508,743.3410816946549,573.4109024341482,161.66960919045417
15.1175,-1.46862101879989,-0.3338416820849321,0.0214323909969481,-0.125506174755009,0.0292660953517589,-0.0218779278903447,-0.0066372041801895,-0.0039507985939987,-0.0975962048254695,-0.9951959582721546,0.0087570798097398,0.0233924320731757,9.80479693616992,-0.0221995828672813,-0.1008574361298576,-0.0057729748656413,3.465623191010116,5.055242839151411,2.13824777275361,1116.1413206407726,1152.4686956481228,1134.482197380178,1130.8076605966596,-521.1998099233009,-420.69646632524166,739.797912949937,735.1817132931715,161.66977288720213
15.12,-1.0722605832741372,-0.3583764637412725,0.064870587397814,-0.1294316845808339,0.0285350174198967,-0.0219388641133138,-0.006477187671317,-0.0039693544374143,-0.0975626105329164,-0.9952002558282944,0.0055083637062333,0.0235442270347843,9.808641966846077,-0.0220370160284719,-0.1009546137088931,-0.0058072279406457,3.4656211849807366,5.0549897510702575,2.138225739365077,1114.9852944883366,1151.5569492101035,1136.1299891335573,1132.6842900847735,-425.4284547721244,-329.8769375021432,627.8876174174385,808.2823068231492,161.66995078897102
15.1225,-0.6245766277147123,-0.3843987846159276,0.088995231340374,-0.1314901920502307,0.0272268203873901,-0.0212952508730504,-0.0063252601100911,-0.0039820202256211,-0.0975326455766917,-0.995204147553676,0.0028824642495035,0.0240528627288917,9.812555401411473,-0.0218908313230137,-0.1010423179284802,-0.0058213952682911,3.465621984095172,5.054736161652024,2.1382038884686305,1114.0141783669117,1150.8193109606118,1137.6216354672658,1134.849072130776,-365.36924754871507,-271.87237167637204,610.2016930448676,985.3312955494998,161.67016730675
15.125,-0.0961666182735646,-0.3941736128773035,0.0748295233968453,-0.1317598781227624,0.0251106076818274,-0.0198128030895228,-0.0061825347397745,-0.0039896537673636,-0.0975086799789262,-0.995207389377394,0.0009110927079596,0.0249202282521594,9.81649117592947,-0.0217599709077526,-0.1011193287552669,-0.005816057463113,3.465624795387524,5.054480934832507,2.138183209895492,1113.1584482505934,1150.197587351722,1139.180997598781,1137.61094656252,-257.54562282764374,-176.55759048751736,532.208059276278,1007.881199108097,161.670467321754
15.1275,0.2910412625657067,-0.3764530001908866,0.0224522150846915,-0.1305133213188806,0.0232596467428084,-0.0184107802217933,-0.0060453236725628,-0.0039969737492583,-0.0974895438452917,-0.995210098841227,-0.0004679443754451,0.0260587129869888,9.820406749652753,-0.0216415057614269,-0.101184166538815,-0.0057934181574523,3.465627682531509,5.054223438343904,2.138164613233703,1112.7264502527737,1149.9365230081744,1140.2826757636467,1139.8884781263155,-119.272138110618,-42.52201313119503,399.8781626327684,859.6355130410321,161.67074805055384
15.13,0.5827484735266547,-0.3372036374251364,-0.0582763899939813,-0.1282598795001786,0.021820837234953,-0.0177777378727618,-0.0059097602617078,-0.004007598359051,-0.0974722380442617,-0.9952125789879316,-0.0013063043627672,0.0273720609297497,9.82426325906066,-0.0215310205075368,-0.1012353413264676,-0.0057559968928492,3.465628485631291,5.053963498711183,2.1381487707009454,1112.5620875600403,1149.984977286066,1141.1803884119452,1141.9091241277258,-29.83700541430596,74.99640112677035,322.07342922574264,728.9596181066597,161.67105790161924
15.1325,0.7789669963986235,-0.2938825805545604,-0.1395198144872139,-0.1255365906853997,0.0208710185974459,-0.0184018619257982,-0.0057749284342612,-0.0040217123080577,-0.0974544531383905,-0.9952150608297214,-0.0015943096463694,0.0288124333039657,9.828025802115869,-0.0214234145941531,-0.1012715612184513,-0.0057056047231709,3.465626517973091,5.053701914668527,2.1381342963841177,1112.577265225702,1150.3115050138083,1141.8930429097757,1143.5332762168491,38.385869009478846,196.81162431242504,229.73232799645325,516.4028343497312,161.67139025429947
15.135,0.8576455825846743,-0.268307865318904,-0.1915718319422891,-0.1227095263181272,0.0204573907332147,-0.020148738672943,-0.0056380573129788,-0.0040368859278861,-0.0974347864207349,-0.995217707990186,-0.0012866868900147,0.0302887399808833,9.831665173929014,-0.0213133691353844,-0.1012918788849017,-0.0056440896715255,3.465622094235607,5.053439683950035,2.138119411217871,1112.7540169050876,1150.969035407628,1142.3290500519272,1144.491138299474,105.83593221070424,354.8031600951972,109.20177772835017,239.85052758940472,161.67174824647338
15.1375,0.8318684190703018,-0.2862597132643125,-0.1999261036658288,-0.1196173070283407,0.0203676846926355,-0.0221993403661731,-0.0054962894338463,-0.0040512121200461,-0.0974130898068185,-0.9952205601200949,-0.0003606073806665,0.031708010111523,9.835157910170537,-0.0211958496729384,-0.1012957887907912,-0.0055730026229431,3.4656152549704418,5.053177395405549,2.138102826860337,1113.1064448867555,1152.0855208142843,1142.4390517984175,1144.7325288547963,151.61566922649757,449.2718990086567,-39.56172964362232,-62.15650600933197,161.6722061820522
15.14,0.731471304834406,-0.3564689676661658,-0.1650684157491098,-0.1173895819935075,0.0204204979876254,-0.0232130613024851,-0.0053498469954605,-0.004063927825238,-0.097392072412432,-0.9952233549160094,0.0011787819536438,0.0330393564898239,9.838485852161288,-0.0210668503007844,-0.1012831822317117,-0.0054931416529298,3.4656069342105407,5.0529152143810245,2.1380844187558488,1113.5120952512202,1153.2153949026715,1142.131241403709,1144.1803557694273,190.86161084496027,469.8857955892916,-207.92200900531995,-350.0538314494193,161.6726109251518
15.1425,0.5818175280399898,-0.4899852214383546,-0.1058422704986274,-0.1156634476590163,0.0203028662094467,-0.0233280083177603,-0.0052011299779161,-0.004074220237422,-0.0973742201019859,-0.995225840463484,0.0033205384945548,0.0342952710045686,9.841636537249315,-0.0209231017493739,-0.101254412680164,-0.0054049940081267,3.4655986160630623,5.05265348747008,2.138065302355681,1114.0607529409804,1154.4349497922303,1141.399441753391,1142.9822596975498,283.4593249104382,524.9435726962155,-403.0363685134836,-616.8047462146068,161.67303962945311
15.145,0.3884655680797204,-0.7123680160984298,-0.0326341690305996,-0.1145537839418838,0.0195491615351277,-0.0228007807684045,-0.0050526214183572,-0.004081969938926,-0.0973596265214874,-0.9952279959854796,0.0060303371103532,0.0354931460731569,9.84460379623083,-0.0207617638764659,-0.1012103063841962,-0.0053094034653528,3.46559162876441,5.052392343087638,2.1380470361173565,1114.929391875772,1155.8401127661523,1140.116059561142,1141.0963320383548,356.357180505064,480.4684073705334,-514.6588800007171,-711.2041069128534,161.67358239845987
15.1475,0.2469033374302707,-0.9295453567932844,0.016890019054295,-0.1145066874776142,0.0180851182341521,-0.0221757498242226,-0.0049055131861608,-0.0040899800464335,-0.0973464845249409,-0.995229981242822,0.0092057009366174,0.036633421760551,9.847388143027656,-0.0205804575833464,-0.1011520772272496,-0.0052079431836918,3.465585804812652,5.052131862509463,2.1380302256632584,1115.842538843506,1156.8372918290836,1138.8261473533871,1139.4262391629848,397.8617492300433,335.08263762031896,-527.0472341232647,-621.3250945565899,161.6740592095662
15.15,0.1546271140631898,-1.145593247297117,0.0493079522369344,-0.1149387579292949,0.0154357898200154,-0.021544267825104,-0.0047597232994766,-0.004097919383695,-0.0973314024465618,-0.9952321304441498,0.0127964743680693,0.0376889909154617,9.849996642979937,-0.0203772796961737,-0.1010812569000802,-0.0051026615750821,3.465580470692632,5.051872068924324,2.1380154787496495,1116.9187006219227,1157.515525954254,1137.4808233905253,1137.9897065655712,488.7756491705267,200.73959773494053,-566.1755380360992,-514.2178351755888,161.6745630561994
15.1525,0.1174763408170785,-1.360844986066038,0.075108737120066,-0.1154513634723684,0.0108874298402967,-0.0209195361050447,-0.0046170310831639,-0.0041038182615946,-0.0973118935108913,-0.9952346874625712,0.0167837462932564,0.0386698164264082,9.852441732401356,-0.0201512221141848,-0.1009995625762413,-0.0049952596753969,3.465575316016942,5.051613163719881,2.1380029702848864,1118.286417089358,1157.840989817758,1135.9952696632072,1136.8551499871076,490.7162197384111,28.53964313403148,-502.3360811404143,-288.7866102320462,161.67520144861882
15.155,0.1484941375181,-1.4792010821821002,0.0970939375377158,-0.1155927232265231,0.006408489230956,-0.020617546562411,-0.0044803536373919,-0.0041062052118069,-0.0972851992358947,-0.9952379152335,0.0211382458522848,0.0396133464985069,9.854740754658957,-0.0199018981157095,-0.1009088512061655,-0.0048870229950903,3.465570719983761,5.051355443814615,2.1379918897669627,1119.372281720615,1157.6582241699243,1134.9691429848228,1136.5457735144107,393.3325392703704,-168.3134323625573,-354.5199316988956,17.34115975714032,161.6757638639591
15.1575,0.2347318432048889,-1.5212863882874177,0.1371086504379424,-0.1152513629687628,0.0018086201444673,-0.0205597007914335,-0.0043488699439357,-0.0041012600849805,-0.0972507150490886,-0.9952418922940872,0.0258689097799937,0.0404832238292411,9.856916205594922,-0.0196300421335939,-0.1008108558969556,-0.0047795414496118,3.4655674370110203,5.051099144811564,2.1379818817947855,1120.2530797857103,1156.9994226559452,1134.2226700047124,1136.9418557858933,300.00507702581274,-336.67343501112884,-252.747227287596,263.3222552925487,161.67636091370508
15.16,0.3561983842431817,-1.5038085515915143,0.2046528274964854,-0.1147383446089479,-0.0026818969252321,-0.0206487459290295,-0.0042211451809686,-0.0040868236496599,-0.0972127853415405,-0.995246208951876,0.0309522443454354,0.0412376084520658,9.858994014424526,-0.019337945053349,-0.1007069875509736,-0.0046740062143855,3.465566303079098,5.050844241232369,2.1379724418558155,1120.8723071057439,1155.974856994869,1133.705406848385,1137.8623847908734,173.32296752323407,-485.46254669800527,-159.20437574257886,460.9687988790036,161.67698867403408
15.1625,0.5049522685529422,-1.433319104385966,0.3151965676218849,-0.1142584752273909,-0.0064992407899488,-0.020776344322072,-0.0040970135918229,-0.0040601992319684,-0.0971775523233598,-0.995250276441257,0.0363799008903318,0.041861875122154,9.86100178987044,-0.0190286377428592,-0.100598363349729,-0.0045707054412233,3.4655679478698422,5.050590710975659,2.137962866361524,1121.1196946233263,1154.5721099224556,1133.4266481259997,1139.2466997802878,26.569891233334996,-684.3953757442545,-77.81631520086796,656.6381129204611,161.67765488885937
15.165,0.688012067865788,-1.322577070045777,0.49777475087922,-0.1130193739877218,-0.0096319017815847,-0.0206916321809777,-0.0039740441617256,-0.0040208860532823,-0.0971482533200533,-0.9952537902324124,0.0420984459935598,0.0423047448984847,9.862968619678025,-0.0187046176989078,-0.1004858717486127,-0.0044698033222793,3.465571802716609,5.050337746643044,2.13795293825174,1121.0051565619103,1152.5528801161472,1133.3163252723807,1141.1455753554762,-95.10377554205085,-781.4251100902454,-7.070719154033927,687.9160456812149,161.6784992803777
15.1675,0.8180006705367318,-1.231545122865296,0.6800959296487465,-0.1109461299296812,-0.0113163099263151,-0.0201323844170664,-0.0038481710797006,-0.0039715150017843,-0.0971248077532404,-0.9952567638291068,0.047992667069454,0.042492082589264,9.864923898072787,-0.0183674951174794,-0.1003701592500645,-0.0043712988392158,3.4655766119105555,5.050084859855321,2.1379422773824888,1120.644175745616,1150.6649843720038,1133.3912945302295,1142.6862800086944,-171.0124327369498,-783.4919522854957,64.05316061478881,555.6895784262192,161.67923975165004
15.17,0.8923747022048594,-1.1521195984917243,0.8658354603500169,-0.1079201416852104,-0.0130278217020255,-0.0186364249963949,-0.0037177343731033,-0.0039150141028461,-0.0971052061515739,-0.9952593887509136,0.0539494767037645,0.0424000940752203,9.866895067777053,-0.0180181832974602,-0.1002516360921344,-0.004274276255555,3.465581743133336,5.04983191456984,2.137930835233747,1120.150094398226,1148.6354203547205,1133.6365910754544,1143.9240232476068,-212.18867292345425,-914.59635518313,145.899578088376,432.2195983717343,161.68001651134563
15.1725,0.8933341971562334,-1.0563248223028308,1.0480456922138537,-0.1039379013544247,-0.0159416117513431,-0.0153698265605747,-0.0035851293723168,-0.0038546575139638,-0.0970883129368739,-0.9952617539573264,0.0598607035698062,0.0420867870380295,9.868906252943905,-0.0176574775114026,-0.1001304423539813,-0.0041767368266664,3.4655874257898778,5.049578921244932,2.137918533731216,1119.5832323809989,1146.092002596089,1134.1207924206713,1144.8473780005527,-181.59356279663257,-942.6053613378263,202.7024257875975,229.7276970005537,161.68098687096327
15.175,0.8182679281566495,-0.9567183663241065,1.133967372677172,-0.1009275061909033,-0.0189468707856469,-0.0115602888277182,-0.0034526241659348,-0.0037920447494662,-0.0970711592286545,-0.9952641347942836,0.0656542877436829,0.0416059506851323,9.870978384497613,-0.0172855791415016,-0.1000065645897312,-0.004076584872787,3.4655936398003906,5.049326640556617,2.137905908446088,1119.2421265842427,1143.9223935480306,1134.6501032043927,1145.0726617326095,-93.30781188226317,-862.1368725452629,220.66446540203475,-23.480862386846606,161.6818236960675
15.1775,0.6796584505092212,-0.8169157683659622,1.127115940366693,-0.0985677051705644,-0.0220260857392669,-0.0074658148276678,-0.0033229011242792,-0.0037294770486866,-0.097051915181612,-0.9952666923821833,0.0712490286757839,0.0410212632736549,9.873128784625864,-0.0169027209339404,-0.0998797495431041,-0.0039716927198737,3.465600526186685,5.049074886286258,2.137893465695709,1119.1166933215875,1141.781318233362,1135.2241147476816,1144.7299736886184,-2.2442101797882885,-902.4919760009628,234.2694500503069,-266.64966408544234,161.68268444383435
15.18,0.4737802175542549,-0.5963940987222038,1.0106470440321487,-0.0966828881144907,-0.025259193648067,-0.0034003140088831,-0.0031979389709592,-0.0036707280498403,-0.0970324779983276,-0.995269221899754,0.0765375646318064,0.0403847203679684,9.875371338860708,-0.0165097124884172,-0.0997493994119102,-0.0038602094939664,3.465608097751217,5.048823296656844,2.137880733784532,1119.2309055333435,1139.4099336680267,1135.821450454644,1143.7394134121828,79.03729628850344,-803.216374529631,182.51378353685925,-441.3524433185777,161.68373885055888
15.1825,0.2995002401627598,-0.3781015607560496,0.8382019202752456,-0.0960559201633083,-0.0270866184869238,-0.0010558809203964,-0.0030793548009053,-0.0036182219336071,-0.0970173876096655,-0.99527126711097,0.0814421167572629,0.0397377432032029,9.87771597306916,-0.01610777534845,-0.0996146411802836,-0.0037405154089603,3.4656166839838396,5.048571544318545,2.137867541416615,1119.51187980303,1137.7652363607133,1136.136683665366,1142.5232114720252,135.2905810333839,-544.332318273206,69.67727395871228,-539.8902524616526,161.68463165951133
15.185,0.1573655282486448,-0.1490130418916636,0.6129678097156215,-0.0963620359275689,-0.027639537942554,0.000303075613286,-0.0029635313727576,-0.0035725949106892,-0.0970090297928253,-0.9952726046259182,0.0859127864292158,0.0390154980956463,9.880169873545992,-0.0156975974381257,-0.09947453305057,-0.0036123020743463,3.4656262914630935,5.048319113251907,2.1378538107934446,1119.9073584385108,1136.6882720766603,1136.1698368244377,1141.039962149874,163.18018272494163,-306.2944616815612,-38.04892773001331,-614.7261387653857,161.68553554431622
15.1875,0.0611898360224427,0.0661133257102953,0.3618477439546598,-0.0972029997764811,-0.0271436911967805,0.0010573151283416,-0.0028458723248087,-0.0035344322416288,-0.0970053135047704,-0.995273450764166,0.0899010479337575,0.0381345821704296,9.88273681904513,-0.0152788871370292,-0.0993283070544002,-0.0034758539386442,3.4656363601243467,5.048065917438242,2.137840306392812,1120.3277807166546,1136.2337640523056,1135.946439026716,1139.4495807781989,158.88452564262,-8.643584185303453,-142.12369471718475,-635.7631652978754,161.6864466135517
15.19,0.0291072442063454,0.2417585761684758,0.0952387611675275,-0.0981869364549659,-0.0257027854539223,0.00131375710494,-0.0027250196644607,-0.0035029302220435,-0.097002506838872,-0.9952741769342788,0.0933946561141616,0.0370730625125353,9.8854161735548,-0.0148510302564408,-0.0991754727840677,-0.0033312559790083,3.4656466342481687,5.047812038504813,2.137828181146059,1120.7017810667237,1136.6450541557335,1135.4592183508519,1137.8611463233851,141.4684155326774,384.3951550319925,-245.3288655933719,-671.9518225739052,161.68736475480188
15.1925,0.0545928067475385,0.3944371928051244,-0.2289380490722209,-0.0990241913872748,-0.0236388403395264,0.0011873362125791,-0.0026023293923393,-0.0034796065993932,-0.096999063699175,-0.995274925364548,0.0963444466678982,0.0358667370556321,9.888204029325156,-0.0144139508996994,-0.0990158614151478,-0.0031784891352881,3.4656571402092453,5.047558247322637,2.1378178374914154,1121.035122794318,1138.155739827466,1134.7197946987487,1136.0898216653288,101.87359121808412,705.3358861305958,-265.45072001249935,-615.4313349294118,161.68847369344007
15.195,0.1086238557791253,0.4783253768255301,-0.4941475163940239,-0.0992566012759827,-0.0221223853024421,0.0006802892481496,-0.0024803852261591,-0.0034653980263214,-0.0969923559664016,-0.9952759425259162,0.0987182062939601,0.0345757110969138,9.891093435547504,-0.0139676128397052,-0.0988498085597044,-0.0030175278735763,3.46566821844938,5.047305738962102,2.13780935268745,1121.211149022814,1140.1717335863873,1134.1319647507892,1134.7839896487378,57.95204391894247,922.3126163178691,-188.37480379951668,-482.94480367440485,161.6894038003801
15.1975,0.1621785951696749,0.5353022565203235,-0.7409600198932814,-0.0989382865810689,-0.02097457234975,-0.0004449174834911,-0.002359830624374,-0.003458695510185,-0.0969789673667719,-0.9952775655971036,0.1005336604193599,0.0332187515943431,9.894075025729473,-0.0135121703037234,-0.0986780903656543,-0.0028487561558399,3.4656804047084435,5.04705515024734,2.1378023643718804,1121.3248830139128,1142.7673029090545,1133.7779206797516,1133.6750976469573,54.1712802734225,1213.766155098339,-60.91689661360718,-447.58553283079266,161.69034094678523
15.2,0.1813771144212908,0.5979348196987838,-0.9932222582327286,-0.0979799193997681,-0.0198319799249808,-0.0028356528426529,-0.0022418042524025,-0.0034576267681137,-0.0969569611576939,-0.9952799872065328,0.1018190239511145,0.0318254608570781,9.897136895416143,-0.0130484031582143,-0.0985017378521563,-0.0026723288752066,3.465694234850953,5.046806359111494,2.137796187251332,1121.4820054241811,1146.24056436188,1133.827380267721,1132.5460619845835,74.87650894507817,1284.967258982196,116.93252188463694,-387.7141504533332,161.69147511690915
15.2025,0.1299578551487637,0.6605645073307845,-1.1470969822003416,-0.0967714779108628,-0.0188299898604793,-0.0058555857839685,-0.002125704137143,-0.0034571373754925,-0.0969240350317484,-0.9952834499513976,0.1026662787928051,0.0303875557176989,9.900264592266229,-0.0125772769772667,-0.0983219081249784,-0.0024884924271421,3.465710049389713,5.046559295679021,2.137790553295132,1121.6992655586382,1149.1921392039665,1134.3625832891748,1131.7365268946903,114.80361006608756,1136.5758674327924,323.885926425938,-305.25714113420395,161.69242937949713
15.205,-0.0168307890676313,0.7447124911633404,-1.22231521512373,-0.0952115748643445,-0.0175000306288382,-0.0097541292314568,-0.0020085823390156,-0.0034564505297668,-0.0968791798725888,-0.9952880600755418,0.1030836869364562,0.028861035949911,9.90344264480403,-0.0121000914012357,-0.0981397060075809,-0.0022977186447313,3.4657273031355764,5.046313152934256,2.1377853111999667,1122.0560234745117,1151.9234436990428,1135.4468098998505,1131.0197762789128,187.80399137312187,1091.1791082808475,589.2545279005652,-298.70425593864206,161.69339448384363
15.2075,-0.3086925330848983,0.8741455334789259,-1.2144190208397627,-0.0934522708801042,-0.0154168384145174,-0.0144858128957687,-0.0018888629536686,-0.0034581133694231,-0.0968247548888047,-0.995293580282294,0.103022250552404,0.0272371594308158,9.906653382841213,-0.0116187954069057,-0.0979560825463938,-0.002099953644554,3.465745427672081,5.046067431599308,2.1377799887853737,1122.6382855155036,1154.6480347453696,1137.308855928677,1130.2430056149974,230.0992824165045,868.9471329587383,751.1971344818638,-268.0290530918264,161.69456677256207
15.21,-0.629251550791386,1.0045806393461976,-1.1354907124955387,-0.0928453606438358,-0.0134732336340018,-0.0177881302301905,-0.0017659848805422,-0.0034616837726429,-0.0967636714038905,-0.995299727816501,0.1024991652249492,0.0255241719474747,9.909875689085474,-0.0111354381071364,-0.0977719077060113,-0.0018947096164819,3.4657643714260007,5.045821697264328,2.1377745963190327,1123.2065198865944,1156.2681793638371,1139.2027955722604,1129.6796310134534,228.2091097022756,480.10500116844696,787.2704683108302,-195.68235049515928,161.69555669081873
15.2125,-0.9779108314320168,1.15322436873526,-1.0054120592589568,-0.0940208293428504,-0.011568731064812,-0.0202158474096665,-0.001640412855222,-0.0034655106962814,-0.0967008512679104,-0.9953060271321869,0.1015632041586094,0.0237504990862408,9.913085334386317,-0.0106524770634241,-0.0975880035611863,-0.0016811731369202,3.465784368347177,5.045575955073535,2.137769274755644,1123.7793310640152,1157.0485597512122,1141.2452082702318,1129.2645938625215,216.9208493330165,163.0903950499357,808.2234871660846,-127.3117906663882,161.6965615740398
15.215,-1.2948656889452532,1.3073527475622653,-0.853597824101814,-0.0970576889594701,-0.0094023204404227,-0.0220235117491993,-0.0015127079774027,-0.0034674937101942,-0.0966403017276545,-0.995312093507394,0.1002775413895346,0.0219485406961785,9.916255437712984,-0.0101722311781832,-0.0974052982538346,-0.001458487286589,3.465805549742775,5.045330880742134,2.137763692643963,1124.2911241332592,1157.0836313390867,1143.24391300809,1129.0430720601216,176.7549897816203,-153.26166379525023,753.8632715690894,-24.371468164004735,161.6975799682772
15.2175,-1.504214246937474,1.445966245355235,-0.6965519639223803,-0.1022720839488566,-0.0062406438083604,-0.0232940738135733,-0.0013797071989708,-0.0034667222011944,-0.096582326292747,-0.995317903658438,0.0986796036974334,0.0200828045875508,9.919357841442771,-0.0096963315796882,-0.0972249113758698,-0.0012266029141773,3.465827891024772,5.045087282645338,2.1377582568306295,1124.6631060129234,1156.2822514322359,1145.0145246280779,1129.1427365217014,120.41130733448816,-498.0841254656883,693.6080559131194,132.1906743569591,161.6986160100369
15.22,-1.5649484604362272,1.5579889076346891,-0.5193312635669256,-0.1099026338334963,-0.0012916147165951,-0.0245207066907947,-0.0012357210520664,-0.0034667179332084,-0.0965245799260936,-0.995323679024852,0.0967194060347902,0.0180787726462417,9.922363678749088,-0.0092259112645631,-0.0970480716932629,-0.0009861310431657,3.4658508891897086,5.04484560703739,2.137753011081283,1124.8931806699316,1154.5932107117578,1146.711953287656,1129.7040254319063,46.46407205419578,-687.86111665404,536.5955597180958,278.53689266986373,161.6998816154374
15.2225,-1.4405757470052603,1.5824874785545988,-0.3866818554475113,-0.116025365729932,0.0033747621434459,-0.0254442940737384,-0.0010793960302386,-0.0034687791930037,-0.0964657540831589,-0.995329542336958,0.0944045300654499,0.0159438502921947,9.925240940775423,-0.0087623511715848,-0.0968759013787629,-0.0007370687398328,3.4658743434011674,5.0446058308301565,2.137748308541395,1124.8954263731944,1152.8429458489663,1147.6975024266678,1130.5354209850505,-32.7205129448495,-699.0225659336857,296.97075119990126,391.8379457891076,161.70095664689765
15.225,-1.1587422231442535,1.5197191132792118,-0.2714447788029565,-0.1206483849539407,0.0081271387167865,-0.0262784373466058,-0.0009135051347503,-0.0034714094584499,-0.0964073762419684,-0.995335346547135,0.0918110522607598,0.0137608595833537,9.927955061512128,-0.0083076465838155,-0.096709185631269,-0.0004788989257954,3.465898859485123,5.044367687761671,2.1377449957393666,1124.7295781052076,1151.09809788209,1148.196807043655,1131.6632151608517,-97.69477073162597,-686.8892191585765,107.91535057522329,531.3358116881851,161.7020552900032
15.2275,-0.7091018175758105,1.3459599394122248,-0.1542378102386918,-0.1236933076051691,0.0130851312245595,-0.0269614789417551,-0.0007426659489867,-0.0034739189948867,-0.0963534171835571,-0.995340704364893,0.0890074934188953,0.0116489859759255,9.930470768338836,-0.0078643127815231,-0.0965481996797113,-0.0002110068817144,3.465924943273023,5.044131310332969,2.1377428527532865,1124.406952519536,1149.4084997531727,1148.237079179544,1133.1921000434916,-127.03883522115407,-505.78018656266346,-70.79229900394951,562.0043461769486,161.70340435048422
15.23,-0.3059752803899762,1.1333425513076676,-0.0757603752815251,-0.1239761943699961,0.0161923761664712,-0.0271375910368412,-0.0005719427250812,-0.0034769256142353,-0.0963075131465217,-0.9953452574979216,0.0860411080597508,0.0097366430166252,9.932753097496061,-0.0074347678805672,-0.0963925984006643,6.712503153206729e-05,3.46595305338856,5.043896402885737,2.137741418168904,1124.0943839291017,1148.5691969492764,1147.8428455486355,1134.4732368917369,-123.21848378658336,-183.6294929631005,-228.22470613355105,485.079729043042,161.70455695325722
15.2325,0.0556871202507872,0.8741975301535158,-0.0188395087773835,-0.1224674906491989,0.0183626722092295,-0.0268705074836005,-0.0004052259654506,-0.0034799519127967,-0.0962720565814621,-0.995348774105323,0.0829813185655509,0.0081237048877734,9.934767924680031,-0.0070210113175953,-0.0962413026387615,0.0003556328004063,3.4659833547895937,5.0436623295771055,2.1377405672181142,1123.7908601006031,1148.4903522883576,1147.0959556488765,1135.6174986887063,-127.96661580480576,147.6022044379827,-379.0012750753549,451.6200398701574,161.70574276941366
15.235,0.388232123150379,0.5364134394035129,0.0276239423499448,-0.1198382630136035,0.0200134889422896,-0.0263727376954905,-0.0002444661296241,-0.0034841495726224,-0.0962480535069914,-0.9953511525977752,0.0798633718181191,0.0068702043333046,9.936483170409444,-0.0066244203759366,-0.0960924506063302,0.000654127497225,3.466015282531154,5.043428178201533,2.13774048535017,1123.4545508500776,1149.307207971466,1145.9478391732591,1136.7313370910872,-122.99982088659712,432.30002516436406,-436.9589849773319,360.7454910891993,161.70720898833062
15.2375,0.5658309234942293,0.2486826886297182,0.0558534682573154,-0.1177490011897548,0.0206782787825169,-0.0262470047080456,-9.030003115608636e-05,-0.0034873155349542,-0.0962349633464855,-0.9953524532135472,0.0767869161048116,0.0059979601836076,9.93786846545596,-0.0062455819139158,-0.0959434582632915,0.0009617837708426,3.466048369263388,5.043193015453319,2.1377413898914703,1123.1758609961703,1150.6518524141795,1144.9111607239895,1137.4212261441528,-122.14268038276622,626.6084449070988,-402.06497456286417,230.625464626028,161.70847066969836
15.24,0.6442060589935664,-0.0315140291088334,0.0860056788228344,-0.1159799843526211,0.0207213792239712,-0.0265533996861685,5.61065780021897e-05,-0.0034886455112494,-0.0962282224308184,-0.9953531194976036,0.0738237796489944,0.0055357004034927,9.938896176101576,-0.0058837731036833,-0.0957912158153322,0.0012777306030659,3.466082223625728,5.04295664676722,2.137743638313544,1122.8438374481639,1152.440250196002,1143.9375143004445,1137.8844644142175,-151.68054879676055,737.7094091683024,-362.49598384541,154.4093966027356,161.70977804780875
15.2425,0.6518126284636822,-0.2981661364527024,0.1248374022323751,-0.1141315597137102,0.0202818196085848,-0.0268815545124127,0.0001976591787091,-0.0034863296844128,-0.096223513535585,-0.9953535747462036,0.0710560267615604,0.0054217793714415,9.939542490927629,-0.0055378105783296,-0.0956322866875464,0.001600198883768,3.4661166323618224,5.042718987311255,2.137746895904468,1122.4174582521866,1154.3403994600203,1143.0986808047628,1138.1932731271663,-204.6622629359397,718.0165611361887,-293.08631860089884,94.91185229638512,161.7111260124726
15.245,0.5929179559365667,-0.5416732547874065,0.1748770119194046,-0.112009010162539,0.0192212802918608,-0.0268716270226737,0.0003365679940626,-0.0034774944777331,-0.0962186508398183,-0.995354040540273,0.0685851423296289,0.0055977945100701,9.939787067680498,-0.0052064754638474,-0.0954631541655007,0.0019274735991489,3.466152180703715,5.042480184595741,2.137750612846028,1121.820526133484,1156.0303330016836,1142.4720827074395,1138.3590236756995,-313.0167107663021,613.859795723733,-226.76431916885213,50.34914960628279,161.7125253641996
15.2475,0.4790429045736097,-0.7993279025755721,0.2400763764722982,-0.1097681409783227,0.0171640674892214,-0.0263673904943526,0.0004735527829992,-0.0034606250026214,-0.0962138050164457,-0.9953545061012417,0.0664843074354388,0.0060292755451827,9.939613733384254,-0.0048885984698502,-0.0952804945733148,0.0022580356550247,3.4661889822038408,5.042240283225427,2.1377540382487616,1120.8523746983549,1157.4096984386397,1141.9648592089184,1138.4450188751975,-401.1961999327812,355.63416446878165,-151.63343923535027,20.989847907507816,161.7142661105932
15.25,0.3813830702151198,-0.98056359451482,0.2900061742320255,-0.1088276566881652,0.0148570463498998,-0.0255480415075335,0.0006106647364859,-0.0034353833866982,-0.0962077493709645,-0.995355091488469,0.0647946582304662,0.0066510946068528,9.939011416599614,-0.0045823323995191,-0.0950814949876453,0.0025899188404743,3.4662266254233582,5.041999877203281,2.1377578287163654,1119.8145451338205,1157.8085038240272,1141.7139155112632,1138.463972915237,-463.1883908540215,-15.375929189079544,-74.05181109167297,8.68599108385015,161.71576879151695
15.2525,0.3246499968973896,-1.1240239669439105,0.3260504216890441,-0.1087918000370928,0.0122910056650441,-0.0243729604861036,0.0007495355982965,-0.0034028006820627,-0.0961977444261559,-0.9953560590116152,0.0635236622082653,0.0074035948506871,9.937974203555875,-0.0042851330162834,-0.0948640603200733,0.0029209365579698,3.466264604706113,5.041759601153541,2.1377627282399243,1118.5364327440852,1157.3328187926943,1141.59460015346,1138.488448830617,-611.6519062893029,-391.66540579497695,-29.798870832514584,27.681496160808127,161.7173255477699
15.255,0.3454229375477683,-1.2514875911340737,0.3491035445943861,-0.1089060965011967,0.0090147108528051,-0.022813916945787,0.0008913273686456,-0.0033653672459882,-0.0961819095567586,-0.9953575840280654,0.0626429282094201,0.0082346655633187,9.936501613151453,-0.0039942631038059,-0.0946269136438002,0.0032486699592551,3.4663019140472575,5.041519796587307,2.1377695124911407,1116.7562856023735,1155.850176795052,1141.5649211571003,1138.602380396041,-685.14070459458,-659.3462747504751,4.474819117466932,65.48193462139238,161.71925507078276
15.2575,0.4554037084129404,-1.31911834736398,0.3550466579128148,-0.1089909694781939,0.0057977105619721,-0.0216968084905279,0.0010338007615756,-0.003325354630315,-0.0961590861232351,-0.9953597762559612,0.0621263194605683,0.0091561644821752,9.934597954459434,-0.0037068892970886,-0.0943696163046071,0.0035710982751612,3.4663382749292246,5.0412807992031405,2.137778919022617,1115.1107292211116,1154.0360874189414,1141.6169742490474,1138.815858503724,-677.1914637622541,-789.5701824874984,32.089215683169655,114.55421010607556,161.72091265503363
15.26,0.6679111507520114,-1.3454173505421498,0.3579537659873528,-0.1091506315078305,0.0022195472768986,-0.0209546580691425,0.0011711714601906,-0.0032872565388991,-0.0961287476565865,-0.9953626804592824,0.0619015323650019,0.0102530606136672,9.932272526436742,-0.0034202856100734,-0.0940925242249401,0.0038868367735997,3.466373804023364,5.041043431866044,2.137790373251611,1113.370328283563,1151.9023258826153,1141.7253672355164,1139.1751514465711,-765.6919929030375,-947.7979770539032,51.09202018287871,183.92360656395647,161.72261940549123
15.2625,1.02210885925474,-1.33345243112575,0.372148612653151,-0.1084393322509105,-0.0018402287560354,-0.0204233274335678,0.0012997468673226,-0.0032564686181621,-0.0960909447666213,-0.9953662799308632,0.0618653444835985,0.0115710194462938,9.929540290045471,-0.0031320174393147,-0.0937967180567369,0.0041942657598098,3.466409207139016,5.040807969899388,2.1378031076393564,1111.282269256596,1149.2970975336711,1141.8724343499618,1139.735476536544,-746.386593541885,-923.6828402982984,46.04005678942674,211.85537682992037,161.72472138829875
15.265,1.3652423766731576,-1.2944114566899911,0.3995212221253765,-0.106055305699212,-0.0046805619899393,-0.0201169268892948,0.0014200680452861,-0.0032318402843529,-0.0960488783833284,-0.995370268430264,0.0620274754035359,0.0130608420453379,9.92642096670168,-0.0028404845680424,-0.0934838616965124,0.0044911711491908,3.466445171252552,5.040574183770399,2.137816563369393,1109.638395315853,1147.283911681123,1141.9555675194636,1140.2344283307211,-611.5568970816037,-741.0569405106909,9.953377292597159,179.13751226318635,161.72651570975424
15.2675,1.7015863318386835,-1.2329662360254772,0.4422400949668729,-0.1015969901450613,-0.0072352414317975,-0.019695724152897,0.0015326521670218,-0.0032100019233605,-0.0960079243749532,-0.9953741374310126,0.0624333098474761,0.0146724265255116,9.922938075678152,-0.0025447785893818,-0.0931560364057071,0.0047756281256585,3.4664820456158463,5.040342203341366,2.1378308232591583,1108.2244847711884,1145.5918128311184,1141.9222012364248,1140.6311640978597,-506.5069136862901,-612.2043300655004,-42.57099460101864,118.15564531650656,161.72835156186636
15.27,1.9914608315457825,-1.1541667700129439,0.489596536795328,-0.0959755050575911,-0.0099904114369129,-0.0189760250603442,0.0016378109104877,-0.0031867181423545,-0.0959706146303477,-0.9953776564511276,0.0631369336193237,0.0163629390493349,9.91911822936123,-0.0022436940000707,-0.0928156346549421,0.0050460626505141,3.4665202793135967,5.040112633451681,2.137846582111401,1107.105860747422,1144.222890030796,1141.7427125464585,1140.8252065573035,-350.979885862707,-468.8648366067077,-113.42842179263288,3.324575547821431,161.73021971718492
15.2725,2.1910986108403665,-1.0518851238309008,0.5255042025513121,-0.0896513495699718,-0.0128322828698704,-0.0176945748690915,0.0017361603802079,-0.0031611783702837,-0.0959378627542215,-0.99538074002123,0.06411635999082,0.018095286690589,9.914990821374772,-0.0019358938735517,-0.0924651813746716,0.0053012815053289,3.4665596114487327,5.03988598720339,2.1378643483962727,1106.4695853418748,1143.2474886480843,1141.3550591274616,1140.6477869755988,-139.2049119402382,-349.06444237248246,-217.9501990657741,-182.53658399232208,161.7321241410584
15.275,2.3073874214117662,-0.9002835549792209,0.5309218818471131,-0.0819010716157981,-0.0158081330642003,-0.0154367765782388,0.0018291063554861,-0.0031347736714095,-0.0959111834909022,-0.9953832370000308,0.0652982337415417,0.0198260265082144,9.910587014880504,-0.0016201886452126,-0.0921070990416696,0.0055405180704693,3.4665992559063703,5.039661982796166,2.1378832970720536,1106.4098361877207,1142.4775678189335,1140.6529615511295,1139.9125236373416,111.39099829094845,-228.05531259591575,-290.3882202686086,-355.1350583781438,161.7344477731364
15.2775,2.3046613039591244,-0.7511814782473121,0.4910635591082478,-0.0758015987147798,-0.0178232900049409,-0.0131868988211054,0.0019170222889457,-0.0031091908283895,-0.0958928737982426,-0.995384922150886,0.0666000780397021,0.0215375909010731,9.905938147661576,-0.0012954881298021,-0.0917434414197406,0.0057638640696189,3.4666383834568886,5.039439697201907,2.1379018480311687,1107.0265403333294,1142.1072120851052,1139.9031180261188,1138.8721116837085,393.5126784285625,-106.9163799732738,-320.7521400133327,-484.0530262574401,161.73641333677415
15.28,2.216267614318319,-0.5814433192356854,0.403365426191436,-0.0704827877155058,-0.0192622250844163,-0.0113384984752345,0.0019996404441992,-0.0030864656844783,-0.0958824783953695,-0.9953858352654344,0.0679288641419909,0.023231027289131,9.901074906751875,-0.000960219767915,-0.0913757176495774,0.0059721628574983,3.4666765888907647,5.039218235465521,2.137919283934945,1108.3773995798635,1141.942985919067,1139.0492008510623,1137.4922585060542,755.3373894646666,-36.31398567726479,-379.15603060481294,-642.7649562077836,161.73840592450432
15.2825,2.037382681987165,-0.3562914504918902,0.2595909405245031,-0.0648065846138608,-0.0203738571963073,-0.0103389533673381,0.0020778479050082,-0.0030655294059009,-0.0958781705943881,-0.9953861555455144,0.0692473274289082,0.0248831748691624,9.896026532036007,-0.0006127293414711,-0.0910048302819214,0.0061664322517017,3.4667142679176193,5.038997089075436,2.137935356021598,1110.8032272806531,1141.9256421567188,1138.0073378730945,1135.658286902669,1002.6827583637162,21.256493188916146,-367.75275279067534,-665.2208478798416,161.74082468569844
15.285,1.843837145229408,-0.1501972060724035,0.1255937341654175,-0.0604730933100079,-0.0209060037781675,-0.0101907145001137,0.0021515721040981,-0.0030441652032842,-0.0958783920426768,-0.9953860421574132,0.070541265259934,0.0264910156375801,9.890820055777661,-0.0002518008135426,-0.0906310737502357,0.0063480046063761,3.4667528567017527,5.03877603903585,2.137950251180596,1113.3908133716811,1142.0492683850116,1137.2104370871095,1134.1661542666557,1110.5573009928712,81.9680620457056,-283.18111528261574,-547.5489872024534,161.74286097144156
15.2875,1.6178064801721823,0.0782010003631882,-0.004268369355884,-0.0565731305006448,-0.0211337356993665,-0.0101605314966503,0.0022198347615836,-0.0030212082771135,-0.0958817423443366,-0.9953856380247654,0.0717777873033917,0.0280739919552494,9.885480334568296,0.000123242533954,-0.0902542453656589,0.0065182716836811,3.466793008069726,5.038554979010288,2.137963960527067,1116.3560137856164,1142.3354824669473,1136.5914322966817,1132.9205419666573,1326.046161145152,170.0973873746268,-210.6364503877683,-454.81982945504734,161.7449160929581
15.29,1.3192785491842864,0.3809195962651181,-0.1379334188375986,-0.0527006500248765,-0.0210330530594687,-0.0105954556517287,0.0022825209621846,-0.0029980048386207,-0.0958858211562022,-0.9953851726595512,0.0728748648600346,0.0296414471353071,9.880030678969389,0.0005127555609381,-0.0898738362944078,0.0066781437131318,3.466834622599184,5.038333683704529,2.1379773124911114,1120.021044177408,1142.8997553218849,1136.1572548351703,1131.89205511938,1307.6688854236863,243.30116383080912,-98.19524523248504,-285.51793864221594,161.747401312749
15.2925,1.051861394532005,0.6547552058794839,-0.2201694596970722,-0.0501983923131236,-0.0204980492918089,-0.0115505572756114,0.0023418246609295,-0.0029804841061821,-0.0958872302523076,-0.9953849512952252,0.0736599035680497,0.0311675374424937,9.874493749259779,0.0009167915416522,-0.0894892506816332,0.0068276704281298,3.4668765301921094,5.038112098444185,2.1379916345850107,1122.894358212736,1143.5519882861015,1136.1004560705192,1131.492952273446,1050.0971589131311,285.7513311885782,42.596888733541455,-66.1449154266979,161.7494864529684
15.295,0.7647537485130524,0.9388312005810622,-0.2654532903527154,-0.048148725558893,-0.0191972015923297,-0.0127592238475387,0.0023997760666054,-0.0029709729324258,-0.0958823213248061,-0.9953853136557193,0.0740376322907995,0.032623745166625,9.868890196870435,0.0013350445155237,-0.0890999886706953,0.0069663270949,3.4669179932472316,5.037890549085088,2.1380078422426267,1125.2715299719728,1144.3285119778275,1136.370239278838,1131.5613305422467,831.4523587326964,311.8502477249587,155.80129909925208,89.80388404149348,161.75158436788615
15.2975,0.4581359673575747,1.214200559006524,-0.2822347475840413,-0.0462073551854285,-0.0169971885860168,-0.0139550134149086,0.002457031446587,-0.0029659875748012,-0.0958698579446592,-0.9953863861341432,0.0740381998356042,0.033997472028759,9.86323840529864,0.0017662563654287,-0.0887057983920793,0.0070933166171758,3.4669590505488985,5.037669977488603,2.138026370645066,1127.0516200063987,1145.111239524726,1136.8794625660153,1131.9419716936532,540.7257421270125,284.5011809730305,245.1538723692992,195.8874018366408,161.75369161985807
15.3,0.1270951672189209,1.4511380604742763,-0.2759298854403132,-0.0444998929142384,-0.0135110600220089,-0.0146950681213634,0.0025158519709383,-0.0029619282833245,-0.0958493463730302,-0.995388220043842,0.0737008489904401,0.0352443834994195,9.857556375768356,0.0022082456663438,-0.0883067700926946,0.0072073946040201,3.4670002374435995,5.037451351273523,2.1380468593429955,1127.9751586826083,1145.7510178826928,1137.5960086406849,1132.54076755143,200.7597264712472,213.0259261067416,334.64206612983844,265.04481426796195,161.75580848519843
15.3025,-0.2844022661554569,1.6552670161168432,-0.2616213534173778,-0.0438324776493658,-0.0081036766546205,-0.0148985311843232,0.0025796335227516,-0.0029556908408774,-0.0958214604072091,-0.9953907503734876,0.0730645702293777,0.0362985556562622,9.851862010476884,0.0026576930433003,-0.0879032662526076,0.00730723521848,3.467042701528953,5.037235572914376,2.13806841446512,1128.055418638755,1146.1763691552599,1138.5526728966647,1133.2671957649934,-125.89018543269732,84.15348564323578,344.8395693020988,233.53281563540904,161.75835675452913
15.305,-0.6163577844394232,1.740101170836142,-0.2557360094114412,-0.0448893360618939,-0.0032082758053182,-0.0148707763081472,0.0026522047632,-0.0029460863515631,-0.0957896656408487,-0.995393636353834,0.0721434317315257,0.0370884070559755,9.846173328511059,0.0031098512312617,-0.0874957490981155,0.0073917763307451,3.4670876404500746,5.037022738635595,2.138090246379756,1127.345707755445,1146.1717853109087,1139.320206487195,1133.7084316296068,-403.04846410320414,-73.7434350810757,279.32771037499333,111.58122957907,161.76048386952888
15.3075,-0.9035650502857252,1.7283340652992565,-0.2605589885417369,-0.0471363260927778,0.0015481050215549,-0.0150385402567513,0.0027348630269616,-0.0029345301220745,-0.0957564138212546,-0.9953966335615898,0.0709185845051864,0.0375967233579107,9.840507889641689,0.0035594016031221,-0.0870845054009448,0.0074608267493432,3.4671355906324175,5.036812520228439,2.13811155498468,1126.0401763182388,1145.8076519798544,1139.94931144854,1133.8251019128888,-645.5879688283758,-215.35081891403297,231.0884087001889,-41.11509137191472,161.7626098644861
15.31,-1.1619851125881082,1.6086678428123784,-0.2724449664187374,-0.0507022952993952,0.0069060429579716,-0.0156456598860956,0.0028259076654208,-0.0029221683302195,-0.0957239768915241,-0.9953995239717321,0.0693960417668664,0.0378638031518951,9.834882322342207,0.0040006657960452,-0.0866694699237704,0.0075150236230287,3.467187003415608,5.036603984438321,2.138131653191912,1124.1177679113025,1145.0950312163386,1140.475648530696,1133.5028561727472,-714.5324654199214,-275.95732380719744,152.47075983441695,-195.15541298955455,161.7651528157676
15.3125,-1.2865469483629224,1.433164187103194,-0.2787241012930808,-0.0543000827059797,0.0108352302349128,-0.0166474503260889,0.0029231785569855,-0.002912246120552,-0.095693583061892,-0.995402185785614,0.0675548996102623,0.0379420464930781,9.829313352558158,0.004428098188124,-0.086250183821771,0.0075552903430202,3.4672420412812204,5.036396234817703,2.138150445647451,1122.4675139911399,1144.4278653608187,1140.7116652477118,1132.8493248479413,-622.5089274311687,-242.24550286881183,54.37127769638381,-328.66500882675774,161.76725909296945
15.315,-1.3042123601708315,1.199733307540982,-0.2726142945008421,-0.058354284735073,0.0138669190020615,-0.0178395484739266,0.0030229693043917,-0.0029083489436893,-0.0956645304319808,-0.995404686551536,0.0653825495111319,0.0379138852269921,9.82381739987803,0.0048368653064443,-0.0858258353634038,0.0075827755110552,3.4673003350338374,5.036188967608656,2.138168320137576,1121.0052232741473,1143.8838037019948,1140.747504919178,1131.8595311286135,-570.2574365590425,-172.95956249092367,-28.977572242633887,-487.0567118237125,161.76934380895312
15.3175,-1.204458105044336,0.8786461690309381,-0.2501408166212612,-0.0630591264313467,0.0164936554257545,-0.01901932644191,0.0031204429620134,-0.0029089853800432,-0.0956375660980504,-0.9954069726957948,0.0629790294998948,0.0378726359941042,9.818410207022147,0.005222718425509,-0.0853954599617999,0.0075984442508769,3.467361299237657,5.035981937411869,2.1381858183555207,1119.6162268083442,1143.563067548364,1140.5667773864986,1130.4140412888223,-445.54931023783274,-44.34364561833934,-105.29450694760445,-549.1255289654924,161.77180965799795
15.32,-1.0356018184206888,0.5931843426403186,-0.2244734320308674,-0.0663313806847215,0.0180031192814179,-0.0196689949310794,0.0032108587037083,-0.0029104534246573,-0.0956127206904099,-0.9954090662096152,0.0604954490079094,0.0379044779669279,9.813107781010014,0.0055826310860209,-0.0849581331978527,0.0076028224059648,3.467424416951549,5.035774942164436,2.138204094946116,1118.7774767229575,1143.662085473903,1140.22103238444,1129.1139034837859,-284.1040569496837,123.10444922234356,-181.70575163834633,-509.37470007175887,161.7738261592034
15.3225,-0.808124529417978,0.3037394672288392,-0.202050346317535,-0.0685690002673567,0.0190116353161623,-0.0199704779640142,0.0032951581870261,-0.0029102256212319,-0.0955872080956464,-0.9954112382677078,0.0580538040555362,0.0379864141727442,9.80792837629645,0.0059153197936973,-0.0845132304186295,0.0075951733570889,3.467489040566933,5.035568670111408,2.1382236497116267,1118.195706523596,1144.1785897944756,1139.658248628307,1127.867167788464,-208.85157637918755,270.26766153572095,-259.8172867101815,-468.0649590255776,161.77579258971477
15.325,-0.5590561899279683,0.0197768337623917,-0.1895859095565239,-0.0699421401472958,0.0195329761921672,-0.0200254937882764,0.0033771505736299,-0.0029077069546895,-0.0955565693174868,-0.995413906564486,0.0557346881997202,0.0380430368411908,9.80289187524752,0.0062211742124593,-0.0840605435294939,0.007574159816872,3.4675539880800894,5.035363825794611,2.138244605717062,1117.7332188410617,1145.0134237815819,1138.9219459508888,1126.7735786886576,-180.32852171929244,390.75546058728173,-326.2766468124427,-378.55109589430407,161.77770994978957
15.3275,-0.3149350798448529,-0.2464658262636397,-0.1932171357694713,-0.0704551975863433,0.0192875463492281,-0.0198813589259398,0.0034593728486341,-0.0029032950431972,-0.0955206005725791,-0.9954170819569392,0.053601922624635,0.0380250029197645,9.79801851655882,0.0065013065363069,-0.0836003362951609,0.0075387071883786,3.4676180321858343,5.035160554630794,2.1382660718796185,1117.2940639149995,1146.1323670974123,1138.0268653942446,1125.9744123089922,-213.45297334150624,518.4967062307018,-407.3447392940026,-264.0210550526333,161.77955912689313
15.33,-0.0597082551909885,-0.529651113288141,-0.2114206318128926,-0.0703349657947678,0.017964804663656,-0.0199026211154159,0.0035419563207825,-0.0028959735323622,-0.095481405484827,-0.9954205665550216,0.0517477284902405,0.0379275321872603,9.79332811927078,0.0067578287460715,-0.0831332689066478,0.0074882629841885,3.4676810838790724,5.03495875581328,2.138287624419995,1116.6659539743544,1147.6059073127349,1136.8852222544192,1125.4534734133947,-258.8724590392818,527.3315822110957,-409.9372951512938,-111.55847023403513,161.7816878187415
15.3325,0.1055453467617664,-0.7246521585867483,-0.2271249700389358,-0.0697675434202124,0.0160027654235296,-0.0204765444524234,0.0036262648989779,-0.0028884466845015,-0.0954408067605337,-0.9954241749994897,0.0501818701450388,0.0377299761205668,9.788841102935047,0.0069940122778696,-0.0826603385002358,0.0074224114856232,3.467742768737252,5.03475827270528,2.1383093855801207,1115.999701619803,1148.7690250084672,1135.9771789184883,1125.416619957822,-300.3324001791483,410.76859428583646,-333.8780275919295,65.69386260324673,161.78337817350345
15.335,0.2114282260918783,-0.8698074519960703,-0.2267998711784461,-0.0688502549480794,0.013420473549033,-0.0215875092087563,0.0037129721634943,-0.0028880906085536,-0.0954014072915641,-0.99542763577239,0.0488144638789463,0.0374352512893687,9.784577513113245,0.0072138521946801,-0.0821827958364837,0.0073412646832542,3.467802073504125,5.034558885208333,2.138330975578579,1115.1642919734584,1149.6597502841644,1135.2158321164593,1125.7819427264108,-401.2973517232522,293.5279790162436,-288.3579567130259,240.5831604389356,161.78497202031264
15.3375,0.2691965633510806,-0.9898523677604654,-0.1951590118322329,-0.0675536633949362,0.0103175361542428,-0.0230040263725565,0.0037984207694572,-0.0028962395664669,-0.0953646493968616,-0.9954308205676335,0.0476687152888767,0.0371212533760041,9.78055453041772,0.0074222220323206,-0.0817020170785811,0.0072457465403074,3.4678587909532474,5.034361016911256,2.1383521473664224,1113.9932148611867,1150.2366649035487,1134.5353891349232,1126.619535760017,-449.8458240056592,118.71434337006208,-210.34892496872635,358.60321100824734,161.7867618556354
15.34,0.2662764882255946,-1.0545226955784013,-0.1422174959413288,-0.0665997360009222,0.00792383691515,-0.0238536893062606,0.003879274847422,-0.0029065123798356,-0.095330843538843,-0.9954337294677978,0.0469029065757625,0.0368470941529192,9.776786907519256,0.00762447932015,-0.0812194810847725,0.0071367438452583,3.4679137514671203,5.034165169257283,2.1383724922966465,1112.9150628534303,1150.2533220010143,1134.1640874916159,1127.5749587814519,-441.99804146371577,-82.14272724388672,-117.15707470842048,412.84296766892027,161.78814313221415
15.3425,0.2249705595641825,-1.0968119110789232,-0.0703626454250819,-0.0661533153315697,0.0055317325568758,-0.0240323162988488,0.0039550010673355,-0.0029126591405894,-0.0953007335048375,-0.9954363105760629,0.0466523520376341,0.0366190894081525,9.773287571332714,0.0078257322779268,-0.0807366694180823,0.0070148817479309,3.4679676518709,5.0339718002386205,2.1383919728783756,1111.7832246538678,1149.8259512673292,1133.949603761381,1128.683750598362,-497.4020318934113,-263.2650166356641,-77.47881967105667,491.84361010190094,161.78940142148073
15.345,0.1497393780908789,-1.1360489722666445,0.0238458504016645,-0.0658956854085315,0.0028191756691877,-0.0235104479689338,0.0040241608358553,-0.0029092846010352,-0.0952735744173923,-0.9954386566176184,0.0470213774322394,0.0364643040805949,9.770065980470353,0.0080309147119864,-0.0802547919386123,0.0068810723228205,3.468021253345129,5.033780695409002,2.1384114284290536,1110.428052693963,1148.936996917836,1133.7766933932603,1130.0341768319615,-485.466649725555,-364.7590130267234,-66.56067639120425,472.82227376204304,161.79076090682685
15.3475,0.0765947320473966,-1.1655693636724689,0.1028850948383413,-0.0655949813862204,0.0007380914883716,-0.0228230127588428,0.0040845739966737,-0.002893904628622,-0.0952507223244438,-0.9954406542071658,0.0480444897835794,0.0364299969394621,9.767127586564834,0.0082440563483255,-0.0797746663774407,0.0067365265639135,3.468074973218627,5.033590918321966,2.138431033563224,1109.3558914052403,1148.002156202196,1133.616800379425,1131.0478619671717,-400.8017618152623,-390.010456479454,-87.88200164023621,351.095525283178,161.79176350286545
15.35,0.0037425722861635,-1.1905777235887471,0.1839564567655425,-0.0653204503735177,-0.0014623738232918,-0.0222644824552874,0.0041358284091527,-0.0028678578017292,-0.09523252471016,-0.9954422684690362,0.0496639446537272,0.0365363534073906,9.764473855136867,0.0084687307640388,-0.0792966163760121,0.0065824435068309,3.468129121418059,5.0334019820368345,2.1384508820663086,1108.4240438848872,1146.9869446354392,1133.3372833850594,1131.7896544583773,-334.52592871330353,-407.3759113392316,-143.84992646589606,231.4912157530764,161.79262628407997
15.3525,-0.0593829734269522,-1.2029631941716779,0.2728059386810687,-0.065347972600004,-0.0040779517381093,-0.021849117571135,0.0041810201164087,-0.0028355493263833,-0.0952171983103268,-0.9954436450937112,0.051742231511998,0.0367407530314375,9.762102079920464,0.0087082310609319,-0.0788204911686722,0.0064198167627789,3.4681836938385446,5.033213636390721,2.138471195002469,1107.6832617616735,1145.9652766454994,1132.8975507470955,1132.2053180459372,-229.79198665212647,-402.1008239466763,-221.001257504724,73.0979969209215,161.7933706982319
15.355,-0.0977670129700998,-1.1831794834256948,0.3791363993376565,-0.0657431160505833,-0.0073876619633933,-0.0214736294905213,0.0042235809476872,-0.0028023826107307,-0.0952037252336682,-0.9954448525256014,0.0541107893752832,0.0369943825436117,9.760003978935655,0.0089651321308689,-0.0783457518988033,0.006249986211786,3.46823832296586,5.033025943122801,2.1384916535329688,1107.2750839516264,1144.9764405157055,1132.2322770975356,1132.155144442982,-77.60926587344963,-420.3340058726935,-339.55077368320804,-130.1513989625423,161.793970630154
15.3575,-0.1004090912169666,-1.1035363207833333,0.5318430696519282,-0.0665489234342249,-0.0117969245001832,-0.0209471745246991,0.0042673831617112,-0.0027697699399174,-0.0951928477840233,-0.9954457997159232,0.0566690119103609,0.0372300310786301,9.758164882163797,0.009241172436216,-0.0778715884133343,0.006074558246062,3.468293249941856,5.03283928804069,2.1385115650029127,1107.2952154323063,1143.8636066161364,1131.1997968786795,1131.5545610511247,105.321381162069,-389.7525636376806,-404.5691719102601,-296.1875824871775,161.7945227565969
15.36,-0.0599987324433915,-0.9869329729822351,0.6761813566533086,-0.0674541353009788,-0.0152015685152956,-0.0202868681148151,0.0043138714744456,-0.0027368468339999,-0.0951830680934563,-0.99544662567933,0.0593571107400629,0.0374211403184316,9.756562930163089,0.0095378226379868,-0.0773968734390779,0.0058959229418103,3.4683489485634817,5.032653730024319,2.1385300347707137,1107.8016908574364,1143.0276776975174,1130.2094312379847,1130.6742065305464,307.2489543685125,-306.01913473710493,-401.1806522584093,-399.990872112204,161.7948434551058
15.3625,0.0227361414908071,-0.829311154302313,0.8219146762894374,-0.068484137559651,-0.0177088577982109,-0.0190832240589346,0.0043646363547105,-0.0027051065889305,-0.0951744232962588,-0.9954473149716568,0.0620648429274143,0.0375392443949336,9.755170275212896,0.0098556297223056,-0.076920299005768,0.0057169120004373,3.4684051497547945,5.032469281970763,2.1385460710980566,1108.8314602041492,1142.3335109424506,1129.1938936173874,1129.554606690563,556.8513354918233,-261.8258857203318,-426.8419094380776,-502.7100464379724,161.79502067560327
15.365,0.1507919672751358,-0.618804433304785,0.9652676556415308,-0.0694632785406585,-0.0195685570665358,-0.0166195353641235,0.0044207654530075,-0.0026739305761026,-0.0951690507822677,-0.9954476591987668,0.0647221820201677,0.0375578601725626,9.753952865497446,0.0101942066308456,-0.07644042605947,0.0055405192536277,3.4684619763468394,5.032285712190255,2.138559220505565,1110.585947534896,1141.7185482689156,1128.075221690794,1128.160656298356,703.536300085674,-184.484252699522,-378.45962526369726,-488.02923987964886,161.7950694725704
15.3675,0.2525414060184274,-0.445856028902458,1.0294901353301231,-0.0696039398206133,-0.0203382773260212,-0.0135624240292449,0.0044833905824433,-0.0026419056284893,-0.095168519361307,-0.9954475067022353,0.0672743105508724,0.0374447854062422,9.752871510021489,0.0105526331612037,-0.0759556944294889,0.0053695299982944,3.468519834015052,5.032102677374448,2.138569892120764,1112.349141704577,1141.4110896789532,1127.3015954910693,1127.1144604911656,724.7822568041331,-81.31344968022498,-264.4542806120667,-367.07361311899774,161.79497541033575
15.37,0.3010452575466013,-0.2937659046059865,1.0069355590234554,-0.0685543310445396,-0.0205931761721816,-0.0097299849170757,0.004553562035051,-0.0026084757149295,-0.0951754527504037,-0.9954466032947448,0.0696527237832926,0.037167481607973,9.751883266019703,0.0109292070705845,-0.0754645567405632,0.0052062543146397,3.4685789094661734,5.031919820401818,2.138578444535957,1114.2098588189172,1141.3119810205144,1126.7529502877335,1126.3252882327608,785.5829413366473,-4.65833439643502,-181.31547031145493,-273.95350229944864,161.794744122351
15.3725,0.2398382494394334,-0.1447604870513118,0.8673007453955641,-0.0656765986754718,-0.0206059688803103,-0.0053547777769965,0.0046303340911891,-0.0025739100549004,-0.0951885545408821,-0.995445076157485,0.0717800993295022,0.0367317133012728,9.7509425595738,0.0113222458076039,-0.0749655077811278,0.0050525206275146,3.4686393832808142,5.0317374175787455,2.13858552218316,1116.277056411261,1141.387798006971,1126.3950181395119,1125.744692979668,692.2354036969876,49.32017137171969,-77.92963371568206,-152.90880489804607,161.7943115141882
