t,ang_acc_x,ang_acc_y,ang_acc_z,a_vel_x,a_vel_y,a_vel_z,quat_x,quat_y,quat_z,quat_w,acc_x,acc_y,acc_z,l_vel_x,l_vel_y,l_vel_z,pos_x,pos_y,pos_z,mot_1,mot_2,mot_3,mot_4,dmot_1,dmot_2,dmot_3,dmot_4,vbat
0.005,25.991960996273736,-12.459317135065776,-1.0888401607656963,-0.7117099790133778,0.5424107366024145,-0.0203764452360828,0.0291552129697613,-0.0263972704305075,-0.1017157859017596,0.9940352212349552,-0.2459511180098488,-0.3455052303043146,12.882633160361454,-0.0249685386644771,-0.0470029949197698,0.3407668264841023,-2.6015784908311343,1.2971671365840625,0.1135821272023269,1152.7480648807566,1219.0256929276256,1217.3536554066516,1274.9007004294767,1936.1155671247616,2651.2967317167754,-1374.7842443132868,-1001.7665391212176,162.73643245404992
0.0074999999999999,23.565489569596917,-12.533127943439768,-0.9777885566588072,-0.6519107258612654,0.5081314585374314,-0.0215887523440184,0.0285956602797858,-0.0257934170806055,-0.1018079400662779,0.994056878307908,-0.2484367837949386,-0.348698345929573,12.9380808134285,-0.0271442666328486,-0.0496873625540997,0.3483618537044441,-2.601711176674839,1.2970242455937713,0.1144535571216747,1157.5883537985685,1225.6539347569176,1213.9166947958684,1272.3962840816737,2528.8007260291574,2849.079449526198,-1522.9819151359152,-1371.7678657963006,162.76688193695097
0.01,20.32952479859931,-12.01014932646166,-0.926986564113634,-0.5872443026381581,0.4683205876048717,-0.0237386293814309,0.0280298501038426,-0.0252112270080741,-0.1019113248256725,0.9940768164295593,-0.2502850335451135,-0.352028226354781,12.993627259542365,-0.0293192502141671,-0.0523926101100563,0.3560082194957506,-2.6018501299297325,1.296877852833701,0.1153250282938952,1165.3920685109024,1233.2710901752566,1209.7387458309722,1268.0418611004952,3167.6644508253494,2684.817242843246,-1497.936492382632,-1775.417104545567,162.8040170377787
0.0125,17.422166330326192,-11.102369599343943,-0.9387441957986952,-0.5397989380680293,0.4373914370327807,-0.0259862102730173,0.0274646041967887,-0.0246668291251552,-0.1020265476388519,0.9940942972423404,-0.2509931448578406,-0.3552157696402977,13.049274257826028,-0.0314805342350396,-0.0551099246943237,0.3637363064209422,-2.601996983278588,1.296725931352944,0.1161998610116003,1173.4266760526953,1239.0780209711338,1206.4270123339554,1263.5191985589458,3454.073502555412,2179.6316540703638,-1238.9754637343233,-1920.189098221636,162.83539745539372
0.0149999999999999,14.398584856786064,-9.809098650407439,-0.985787670448877,-0.500077663554716,0.4100434477623989,-0.02832903995277,0.0269046472952666,-0.0241661232199904,-0.1021481529420806,0.9941095462523152,-0.2503087607084024,-0.3580489070685037,13.104977911405658,-0.0336220858812373,-0.05783051075962,0.3715754305697037,-2.602152154982747,1.2965664228537972,0.1170816766889903,1182.6624360236794,1244.1692484456084,1203.5438685123006,1258.440915609387,4204.167799230344,2081.8071149836665,-1113.9174981424271,-2257.697694154921,162.86715856056657
0.0175,10.800551326756416,-7.993800287773436,-1.0597002862275264,-0.4631176073504185,0.3831784168810485,-0.0312729331145794,0.0263578320685704,-0.0237050090168002,-0.1022629998127835,0.9941237659218938,-0.2482497375736427,-0.3602490399342017,13.16064559179466,-0.035746395767717,-0.0605418985281478,0.3795520512555518,-2.602315359943013,1.2963978815350468,0.117975785846856,1194.4475150488468,1249.487056546052,1200.8574248432433,1252.2307100881712,4318.067360375379,1842.9590803217247,-821.0813233883981,-2213.364403923605,162.9056347745287
0.02,7.968915923564995,-6.42064300780136,-1.119383272479032,-0.4415480687877151,0.3663644739527611,-0.034020790354823,0.0258296859702357,-0.0232714935614827,-0.1023575778540353,0.994138475864571,-0.2450336838617749,-0.3616197026836531,13.216132530267004,-0.0378625434329925,-0.0632328177543108,0.3876877134140273,-2.6024863451520175,1.2962189511336604,0.1188883489134572,1204.2527728255563,1253.384043847217,1199.4384618953586,1247.374093589769,3767.2437760088105,1482.5971292437323,-368.2651154075304,-1778.238963477589,162.93794715660317
0.0224999999999999,5.477451546971088,-4.979598064227073,-1.159058329216483,-0.4279888729047894,0.3547465639609233,-0.0371399349567064,0.0253238236505734,-0.0228602337987588,-0.1024245591872621,0.9941544639333406,-0.2406945567785589,-0.3620075269985548,13.271254218704057,-0.0399744899778923,-0.0658931764164337,0.3959995425554395,-2.6026633848512097,1.29603020232589,0.1198218881169834,1213.283733928891,1256.9000421922708,1199.0160992662056,1243.3395152707833,3376.233085277999,1360.383778994719,4.898411230669807,-1409.6666259699757,162.9704576455114
0.025,3.3741631894227218,-3.780189065486187,-1.1720877455484988,-0.4195391543866092,0.3469217121684664,-0.0403285708229268,0.0248398137811764,-0.022454587585906,-0.1024635451372258,0.9941721748173464,-0.2355521871315836,-0.3614108428084539,13.325777376162675,-0.0420943359663495,-0.0685182383812349,0.4044982411722783,-2.602845687793293,1.2958330363655994,0.1207776335834934,1221.1339382519463,1260.1859627421907,1199.462953951512,1240.3257604599191,2749.006466805849,1259.5149061421123,380.3170629415944,-889.9288609447464,163.00309051018957
0.0275,1.8343326441741952,-2.9976107346950265,-1.1469430803961107,-0.4163015171164187,0.3432000566271,-0.0433126733397195,0.024373705313981,-0.0220464614095685,-0.1024820132954399,0.9941911408079596,-0.2296950638657452,-0.3599147061727523,13.379441456024644,-0.0442264295372077,-0.0711076187649058,0.4131899730979946,-2.603031758130952,1.2956295975308598,0.1217551898384652,1227.0287662629203,1263.1976167229811,1200.9176845809136,1238.8898709660596,2056.2892247691716,1238.0166159039168,840.1420969231825,-203.06964358364905,163.03582396451236
0.0299999999999999,0.7125467053856293,-2.6334201355617513,-1.0706728615876595,-0.4170191729709295,0.3411777428463681,-0.0462719628683661,0.0239251294413428,-0.0216372539160926,-0.1024873163335792,0.9942106088742007,-0.2229855464394265,-0.3574903411904725,13.431971906799467,-0.0463671814088903,-0.0736589622515049,0.4220777009318021,-2.6032208657784968,1.2954222546885559,0.1227546404932678,1231.4153843757922,1266.3760458217102,1203.6636644361279,1239.310412242001,1144.8445773855835,1065.024670038292,1136.4571857538974,531.9643965194244,163.07516426804523
0.0325,0.3935980374598731,-2.8126831945550044,-0.9675505590441688,-0.4190279241114437,0.3390364070994415,-0.0481157997546279,0.0234916505771583,-0.0212339430471107,-0.1024890283853051,0.994229529866464,-0.2151462128825843,-0.3541574269508185,13.483083659779187,-0.0485062367864303,-0.0761728320718492,0.4311602903318079,-2.6034125847909526,1.2952132899789919,0.1237758595309006,1232.752989149848,1268.5227400731728,1206.599970509683,1241.5496929486567,91.27716040693475,720.0472799511765,1256.4074053165302,1274.046163650199,163.1079602040842
0.035,0.6706950397989807,-3.4208934442675902,-0.8154149615557539,-0.4198841001407835,0.3341252005536581,-0.0496732425318066,0.0230740043975412,-0.0208435408063387,-0.1024952680785742,0.9942469304621406,-0.2059305341975105,-0.3498548814918714,13.532490521296651,-0.0506313313452646,-0.0786479008596398,0.44043267691703,-2.6036077574381133,1.2950030798535244,0.1248210692681696,1231.8717701778269,1269.976282221466,1209.9457014627103,1245.680643060252,-797.6511143074282,448.7471479710623,1505.6629283147693,2189.279897795041,163.1407274932856
0.0374999999999999,1.5866350623492123,-4.492121240003809,-0.5550772270562235,-0.4180986685172978,0.3236618453248641,-0.0519567529701637,0.0226670492364877,-0.020465771655719,-0.1025121780912656,0.9942623359164376,-0.1953013308200495,-0.3447035627111982,13.579905684506821,-0.0527337350851196,-0.0810886668546511,0.4498837517512188,-2.6038085469026457,1.2947907386542856,0.1258939239757567,1228.764733578311,1270.766475813028,1214.1282851512567,1252.496092437632,-1377.953830553634,119.55212171601492,1522.5406646258311,2731.2520359876103,163.1799713922721
0.04,2.7373385871901887,-5.534665415198801,-0.2557596487390261,-0.4136050420206316,0.3104620572989537,-0.0546807722016546,0.0222620541269805,-0.0200991716168581,-0.1025449000228999,0.9942754898638873,-0.1832779902465427,-0.3389313011642041,13.625057105069263,-0.05480317076805,-0.0835028802628445,0.4594976058610409,-2.6040176401614046,1.2945749782514333,0.1269970135445016,1224.9820010250587,1270.5740428300462,1217.5584047858397,1259.33690324019,-1621.5424494188924,-250.1443783129614,1323.0833273111318,2856.935714675544,163.2125814361851
0.0425,4.160261139680961,-6.579434606521671,0.1334314925145337,-0.4050733855607926,0.2926259570865854,-0.0577769815089413,0.0218503331524495,-0.0197487725984383,-0.1025953674747009,0.9942863374555516,-0.1697441474616167,-0.3327518550698069,13.667702525193588,-0.0568216419679148,-0.0858970818435498,0.4692558348008969,-2.6042378676593967,1.2943542062657256,0.1281312463757868,1220.6570213312164,1269.515753921463,1220.7437017878124,1266.7807710110096,-1866.0666040913848,-639.996226843596,1310.6240594360777,3251.6473622715257,163.24506271929263
0.0449999999999999,6.029828401027629,-7.70825433797752,0.6604347483108519,-0.3898194697957547,0.2677136224040175,-0.0588059829697112,0.0214319232184055,-0.0194226932332607,-0.1026597709507826,0.9942951615437476,-0.1545671713381286,-0.3261356234585894,13.70763821125082,-0.0587679012990892,-0.0882681574848931,0.4791396976855848,-2.6044705548943368,1.294127038545562,0.129296076481551,1215.6516680046016,1267.3740616958282,1224.11152508302,1275.5951400515476,-1698.0885929413043,-899.9646933980334,1138.0486521179598,3089.7740692610128,163.28385709470444
0.0475,7.617781861092418,-8.501947500453994,1.0836495962847588,-0.3731508826376448,0.2458255796785484,-0.0552843307392373,0.0210178300810334,-0.0191389390632725,-0.1027380969529289,0.9943014143303363,-0.1374067604524749,-0.3187348923475035,13.744707155572817,-0.0606097663322274,-0.0906009831973809,0.4891327372405928,-2.604715366126105,1.2938938632543335,0.1304903204169318,1212.16657836651,1265.0159304544732,1226.4339450484024,1282.2296413573147,-1151.8817075972029,-1017.407777379184,808.7367752999846,2375.4211213630674,163.316009753967
0.05,9.122243237994905,-9.14585073653024,1.4086862226525727,-0.352745562489489,0.2242684262274779,-0.0488270820008525,0.0206206630136265,-0.0189132764308568,-0.1028333762972527,0.9943042458470231,-0.1180188766229406,-0.3101696290212596,13.778788803557324,-0.0623152240849569,-0.0928780697014479,0.4992187162534282,-2.6049718838608285,1.293654822750547,0.1317120190781975,1209.8922594666155,1262.2870228089323,1228.15520895952,1287.472245658363,-661.6233117004416,-1116.6688193965915,580.8371792033998,1793.8137166421263,163.34795372717065
0.0524999999999999,10.478072606563522,-9.689110783860563,1.6208164090757446,-0.3295079471413105,0.2033242262522603,-0.042683573810542,0.0202462086003148,-0.0187462326283054,-0.1029467089567859,0.9943034430878512,-0.0965940702848354,-0.3002915092099566,13.809789886703898,-0.0638667852275021,-0.0950889925084397,0.5093787762512779,-2.605239948598059,1.2934096127041514,0.1329613267007856,1208.8584618080079,1259.4325863574902,1229.3381309444192,1291.1987099405253,-94.51377294485614,-1126.7093409444446,345.4854938820974,1081.4827527224684,163.37970649181548
0.055,11.561525143763962,-10.132337894088346,1.703085130179852,-0.3030370297208411,0.1824986379037173,-0.0384125022852682,0.0198985332567875,-0.0186269436126426,-0.1030727386319975,0.9942997177377476,-0.0736708842792333,-0.2890322635070299,13.837650252286185,-0.0652613910418121,-0.0972252202903519,0.5195929480734706,-2.6055190948785447,1.2931580798814133,0.1342399117206616,1209.4196906018915,1256.65347610421,1229.8826364289305,1292.8796594219752,594.8685351240323,-1146.893437403286,110.38346461582468,271.31302308653153,163.41120813993777
0.0575,12.428004080913524,-10.532851663400068,1.68458534572274,-0.2675527441147449,0.1560180847400843,-0.0351547846453782,0.0195826215399291,-0.0185460239458955,-0.1032007905776445,0.9942942936600728,-0.0497823125595011,-0.2762967331340208,13.8623476222649,-0.0664990315956896,-0.0992766905960295,0.5298429367978184,-2.6058084828212476,1.292900590000721,0.1355491400122427,1211.832804483628,1253.6981191704735,1229.8900482674983,1292.555275055958,1131.0532700036224,-980.7691277402232,-82.9773288186971,-466.61926169904314,163.4486949026298
0.0599999999999999,12.709173017623476,-10.707641231909797,1.58798415476383,-0.2353586739479582,0.1313711762133386,-0.0324235829101228,0.019307072736102,-0.0184969709688486,-0.1033145506992438,0.9942888581269642,-0.0254146185316761,-0.2618843937413856,13.88389380793816,-0.0675823364108452,-0.1012289355366428,0.5401136340469485,-2.606106579814751,1.2926384506329747,0.1368891809820416,1215.0749569519096,1251.7496304655087,1229.4677497848368,1290.54656311348,1478.1208165827145,-636.2905316786513,-227.32208719266973,-1079.1763112920312,163.47965410268583
0.0625,12.464474588390644,-10.631765723586016,1.4055610769281444,-0.202170235563489,0.1034091108875988,-0.0277716881118903,0.0190849883515184,-0.0184755492227644,-0.1034044662395367,0.9942842658063024,-0.0010023597902283,-0.2454738051920695,13.902327184419187,-0.0685149954609023,-0.1030639317517282,0.5503941265214956,-2.606412960012828,1.2923736292105836,0.1382599077133134,1219.2234085665416,1250.5166665120803,1228.7534378315352,1287.1593934994978,1940.602520873288,-359.5778491335292,-347.0698894544964,-1686.4801509406318,163.51030384770235
0.065,11.540896304530811,-10.172056714499124,1.0852280248486768,-0.1637639148245332,0.0681043767423735,-0.0208531839032728,0.0189194743942851,-0.0184803791225306,-0.1034668897920644,0.9942808932182544,0.0231388838260381,-0.2270184976127245,13.917698239328011,-0.0692999509087408,-0.1047756514125643,0.5606758746317817,-2.6067253187411454,1.2921082304916005,0.1396592061985925,1224.777969556276,1249.951741219841,1227.7324003375645,1282.1141623587769,2073.6082536222493,-63.95516403517826,-377.9457184953568,-1922.4263112316276,163.54670571919402
0.0675,10.275894421883432,-9.474695795802033,0.7597512009708756,-0.1343650356718124,0.0399388344820778,-0.0162426990889461,0.0187991840649044,-0.0184987667226766,-0.1034983513642404,0.9942795748121513,0.0464383007413683,-0.2069078878996432,13.930059135642216,-0.0699562438918047,-0.1063766809174038,0.5709500049900689,-2.607039940426361,1.2918423153777907,0.1410834783172916,1229.5914498346528,1250.1968906919046,1226.8637092390584,1277.5472619433397,1919.0715446591623,207.7615879810308,-322.1586387570366,-1807.7969841571287,163.57671252914363
0.07,8.586625387433342,-8.520426033731022,0.4479210897520466,-0.1092254561192818,0.0162272344398722,-0.014678325502778,0.0187115391182322,-0.0185167585269467,-0.1034954996767928,0.9942811799546992,0.0683205261663606,-0.1855723409496829,13.939465388666871,-0.0705100969421567,-0.107882834995946,0.5812114791935126,-2.6073538095210886,1.291574436455276,0.1425300161848657,1234.3733272795719,1250.9905491597465,1226.121607143779,1273.0751774379912,2082.0185392909066,402.6831686039721,-260.1406284307819,-1869.6399272848373,163.6063645522183
0.0724999999999999,6.236831684753575,-7.2320478072121555,0.2018348275301103,-0.0860868995062162,-0.0048716264412652,-0.0167594113761995,0.0186548885341918,-0.0185211461069942,-0.1034540632804359,0.9942864521996616,0.0882357109235349,-0.1631385634142779,13.945972108785927,-0.0709940385415785,-0.109298122026398,0.5914615925174702,-2.6076638380539032,1.2913029133231693,0.1439949672044261,1240.0015425311071,1252.2103065349245,1225.5630060969045,1268.1990623069155,2052.5543041562782,429.69863958810566,-122.60680343606532,-1677.5116310430835,163.6415220616507
0.0749999999999999,4.163079386603785,-6.159369311381134,0.1691988824624497,-0.073621055425854,-0.0167123643916086,-0.0210004816012516,0.0186332710170841,-0.0185062221453415,-0.1033761581704168,0.9942952187110145,0.1058767748403159,-0.1395575049520405,13.949623749010426,-0.0714356702688785,-0.1106198637180139,0.6017073321276029,-2.607966203565235,1.2910266724060575,0.1454736713321332,1244.6360988003532,1253.139042357687,1225.508573126599,1264.6876192827758,1857.6805928313645,283.74950035217785,87.62507318901946,-1286.299533187456,163.67045618917882
0.0774999999999999,2.16365779122435,-5.185583935590567,0.3341107797454924,-0.0686037720827863,-0.0250719806304169,-0.0246063206219351,0.0186394736060333,-0.0184827515836381,-0.1032715241027962,0.9943064041227904,0.1214831755961582,-0.1150487866323657,13.950443136866973,-0.0718423495332812,-0.1118574791134503,0.611958003730744,-2.6082598521312224,1.2907456804484818,0.1469661245135726,1249.289945495264,1253.6290540366851,1226.0011314628496,1261.7675646409782,1870.7616720578228,83.71399248494518,294.12815458235826,-1085.2752520109325,163.69900223340397
0.08,0.3571852930149388,-4.309561690289577,0.620816014271223,-0.0695020068689643,-0.0326759588954322,-0.0249573905455882,0.0186557918366042,-0.0184693968677333,-0.1031549015315547,0.994318458675775,0.135600435442141,-0.09010453145658,13.948430233453564,-0.0722090792371553,-0.1130330749744063,0.6222221309430708,-2.6085463460952663,1.290461547721562,0.148476222402002,1253.9899071606424,1253.5576123201115,1226.9792138995108,1259.2612430227211,1880.3825983074585,-189.3216697354545,498.30146599660975,-934.4269832904947,163.7272193339394
0.0825,-1.106330703779642,-3.5042205388739087,0.9616769120049816,-0.0758458733977716,-0.0408833617446938,-0.0208277044350139,0.018663117377997,-0.0184799464565421,-0.1030373800618114,0.9943303294592942,0.1486924249287747,-0.0652726822426587,13.943566946438144,-0.0725353813817966,-0.1141710541391911,0.63250561639108,-2.6088265355000217,1.2901747657505622,0.1500067469291464,1258.6918584868015,1252.682445688008,1228.4926387928326,1257.0954297245255,2025.5596943542953,-573.6597504005199,756.202842712718,-919.9350958097048,163.755031930279
0.085,-2.415820706053068,-2.515817603315112,1.3257544719342167,-0.0860667345166249,-0.0518842627153597,-0.0134549221117925,0.0186460656761263,-0.0185133587061068,-0.1029232125406023,0.9943418735426576,0.1608465650911154,-0.0410448022357949,13.935823412911809,-0.0728386479990809,-0.1152922096720059,0.6428100300923723,-2.609101351014385,1.2898852949712,0.1515585324518846,1264.1177056324138,1250.6893135681091,1230.7602281130744,1254.6615675436726,1902.7143296174456,-871.8211680265533,871.8465517707947,-894.5060356634251,163.78793014133572
0.0875,-3.164972968883068,-1.6053045251998943,1.5530295949075292,-0.0948499847488209,-0.0610158158020939,-0.007717373435588,0.0185916106916579,-0.0185574138650531,-0.1028131463545252,0.9943534736188346,0.1718781146305067,-0.0178868706012283,13.92516350564652,-0.0731488240224146,-0.1164149442869751,0.6531321158250215,-2.6093733755367787,1.2895927702298036,0.1531326578846876,1268.2054301348887,1248.323339847875,1232.8518715516864,1252.6228995462086,1476.6664696222078,-1057.8370832210587,831.2979134377672,-842.8695702573366,163.81494166881143
0.0899999999999999,-3.648696151677472,-0.5743650541058611,1.7036925010360116,-0.1032910159179009,-0.0673028744013822,-0.003689141324489,0.0184951478158198,-0.0185984317535261,-0.1027100226345405,0.9943651648394088,0.1815796911753026,0.0039530248379751,13.911549399302547,-0.0734952302554029,-0.1175464992116129,0.6634661504088774,-2.609646036391304,1.2892957909882712,0.1547318645108727,1271.5010379805249,1245.4001281520038,1234.9167176802632,1250.447219692386,1204.6510696700827,-1359.864436862929,847.1632597286786,-1005.643650675349,163.84152729018825
0.0924999999999999,-4.051812154095035,0.7543775784022893,1.8246574196671683,-0.112918990457422,-0.0688000723818045,-0.000334705334,0.0183560732772308,-0.0186277058849037,-0.102616198102765,0.9943768659046368,0.1899021557372445,0.0243391261027,13.89494588264038,-0.0738977206494433,-0.1186866602877445,0.6738038261258595,-2.609921480624464,1.2889932068564507,0.1563566491961057,1274.2286854832391,1241.5240176635607,1237.08768785033,1247.5946812928319,778.442200909057,-1435.126339589486,707.6603028014225,-1093.4460505980032,163.87293008851555
0.095,-4.32778777997245,1.8664467451786688,1.887483420343176,-0.1206055198047026,-0.0648179303308745,0.0024652210198956,0.0181736181761521,-0.0186358186910782,-0.1025329996409971,0.994388620669657,0.1967991254743184,0.0431149527407918,13.875328698451897,-0.07437331491181,-0.1198339298744925,0.6841323247751884,-2.6102013577986334,1.2886834703949424,0.1580079577002076,1275.39324898507,1238.2244964540564,1238.4550191942703,1244.979989439396,260.00673560861264,-1274.2583142127376,418.2053444390472,-1102.3731039574147,163.89867716783877
0.0975,-4.617182061303463,2.894501891292037,1.899555541920034,-0.1288554729769683,-0.056562769070769,0.0068050419912503,0.0179511236519542,-0.0186180923764746,-0.1024624052863144,0.9944002417161842,0.2023558048655124,0.0602361080548071,13.852690010312674,-0.0749289416774908,-0.1209796818925349,0.6944363010813625,-2.610487530311065,1.2883658256673611,0.1596874020009285,1275.528719161282,1235.152726092497,1239.1787145725252,1242.0828157730448,-95.78519432229761,-1237.057500355921,142.021426682595,-1347.405104120979,163.92398012721208
0.1,-5.0179748217893465,3.9637389220860726,1.823675368000225,-0.1401164369767791,-0.0440253586174244,0.0136683617438038,0.0176958159709941,-0.0185684267222887,-0.1024022537420069,0.9944119244218061,0.2066071976405548,0.0757474863253125,13.827046065204511,-0.0755711148667192,-0.1221088398721573,0.7046971287036036,-2.6107810868090104,1.2880399877420643,0.1613970879914189,1274.9143230134587,1232.0392089522768,1239.1651263276833,1238.242963918791,-270.3427282769096,-1015.2251541182512,-158.4335165852734,-1470.2592985468968,163.95382311405322
0.1025,-5.392524710077892,4.702056332681538,1.669885483559591,-0.1508755299551523,-0.0331279904619925,0.019436794379948,0.0174173709155106,-0.0184895476700793,-0.1023502696091012,0.9944236664851536,0.2098162417121308,0.0897730758356576,13.798439634901964,-0.0762907231702776,-0.1232015731533774,0.7148950195423724,-2.611082864962964,1.2877071733648124,0.163140053035725,1274.1770055198976,1230.0766003219055,1238.3865469895989,1234.7315192803103,-236.1716919487667,-640.8217448891731,-460.2019143358584,-1461.900559369863,163.97825336967963
0.1049999999999999,-5.773927453885428,5.287600737568714,1.4279907262144502,-0.163905253672109,-0.0222577072876006,0.0240183294662187,0.0171262232056099,-0.018389875230607,-0.1023047921195645,0.994435285533574,0.2123818192714367,0.1024630147268752,13.766944466108123,-0.0770667739512818,-0.1242368614585221,0.7250091686710485,-2.6113943531299544,1.287369616994159,0.1649178890012992,1273.7334645537148,1228.8351002278307,1236.864116756004,1230.9334611219415,-65.09844839251868,-385.37560682662007,-711.3727952283639,-1551.7170982208456,164.00222242253528
0.1074999999999999,-6.121882321853934,5.749176303487732,1.1334885076202532,-0.1792139487485656,-0.0105645079143005,0.0272644381612958,0.0168331091036288,-0.0182746970069724,-0.1022624622530486,0.9944468305100168,0.214589088997272,0.1139607861737049,13.732669371130354,-0.0778800508279093,-0.1251946630826796,0.7350174784787664,-2.611717786554859,1.2870293613019992,0.166731782293737,1273.851513277935,1228.1497222877726,1234.829683013457,1226.972933789206,219.7863427798891,-166.7260790937688,-899.1643726916202,-1594.6661756662693,164.02580519820785
0.11,-6.388983055422947,6.046221797271273,0.8083769063577935,-0.1961339586113314,0.0033969187643994,0.0289352224737644,0.0165442971354678,-0.0181514118911813,-0.1022199219512088,0.9944583902780676,0.216762074142471,0.1242932639877681,13.695756851538857,-0.0787056123723316,-0.1260629426067437,0.7448979839649881,-2.6120549558632007,1.2866874644540447,0.1685823378881361,1274.8323962676143,1228.001469832362,1232.368294892546,1222.9601302436104,612.9857976769011,13.09114093814968,-1122.1160725176096,-1734.7470691501696,164.04891794147028
0.1125,-6.595729079008422,6.179591947636664,0.4197974061367538,-0.2161939615190598,0.0229716312806909,0.0295679812426066,0.0162590243240241,-0.0180276868689392,-0.1021825025131035,0.9944692705106855,0.2192182466619211,0.1333026508065264,13.65638079301885,-0.0795139015638333,-0.1268441883930384,0.7546296661880136,-2.612407407213676,1.2863443216110748,0.1704691992294389,1276.9164422663196,1228.2151779924632,1229.2191026508688,1218.2991984434552,855.023117359041,107.19026417527849,-1139.8662334058815,-1653.7467300816375,164.07610474014427
0.115,-6.681168461845537,6.092148990358369,0.113304209074176,-0.2319646358636382,0.0405250624212301,0.0294111190986644,0.0159695872779709,-0.017904539904799,-0.1021557482684099,0.9944789879063995,0.2220778393597088,0.1406414143200264,13.61474248267756,-0.0802852116123974,-0.1275558687990612,0.7641929910363018,-2.6127743729133286,1.2860006653152023,0.1723898180448226,1279.1075118544095,1228.5374211532385,1226.6689637255165,1214.691396593202,858.9158454745749,115.90774125938869,-947.4592132372429,-1357.5900581474787,164.0982998014534
0.1175,-6.696141064393041,5.822332597441124,-0.1708571419524928,-0.2467611173537473,0.0573575240625428,0.0290904229603164,0.0156665133371952,-0.0177848185994589,-0.102145099811673,0.994487064131764,0.2254832360997624,0.1459464609139473,13.571057588437975,-0.0809998871757437,-0.1282220320307168,0.7735742776036871,-2.613151490186265,1.2856581537666667,0.1743384600355985,1281.2110214936924,1228.7947166987603,1224.4818065846828,1211.5112481527178,761.2704091124684,52.103879245805835,-817.0962309685835,-1277.534877087376,164.12001267963677
0.1199999999999999,-6.643186342142709,5.373429855180057,-0.4917819224652876,-0.2636536911923175,0.0743848698669293,0.0288871136365968,0.015341756878073,-0.0176673103745256,-0.1021529020026652,0.9944933864267912,0.2294349957509994,0.1489173725122199,13.525546328540852,-0.0816500823666744,-0.1288688978711294,0.7827664244750319,-2.613531890244501,1.2853183531266748,0.1763090341260261,1282.9138638999718,1228.7979405494675,1222.5834825706736,1208.3037222077653,399.8694177105343,-78.54355886051977,-538.3062292358328,-1063.0581045082656,164.1455059839447
0.1224999999999999,-6.526880005115519,4.982302659834779,-0.7438172465696393,-0.2773608842287099,0.0851986355550138,0.0288405871420623,0.0149936534239609,-0.017554863840219,-0.102178879861972,0.9944979329115178,0.2340041321749704,0.1494773827243809,13.478417733603568,-0.0822287670601433,-0.1295153931655086,0.7917718373487541,-2.6139097333638754,1.284982993841116,0.1782957300652351,1283.210368582245,1228.4019989044575,1221.7902754385036,1206.1959576301765,-172.9611026691144,-264.8832290949483,-125.25041493340711,-716.4946663041512,164.16627862602232
0.125,-6.288242708211459,4.671479293454609,-0.9645283226052078,-0.2917176582006189,0.0934675511296086,0.028021738918363,0.0146191084709799,-0.0174469432967945,-0.1022240334140143,0.9945006295089592,0.2391597681183952,0.1475451444563649,13.429864095745495,-0.0827388045930357,-0.1301862461070642,0.8005984974737875,-2.6142795713215263,1.2846536913194047,0.1802940124245991,1282.0490583866263,1227.4735244039928,1221.9572304960063,1204.7212488762443,-843.9148874879257,-538.9204211316605,302.43673251525223,-499.1386094990044,164.18655808705984
0.1275,-5.775666642144698,4.455453996150994,-1.1481426642349408,-0.3105133326985837,0.10283855731697,0.0243828814300707,0.0142157980857728,-0.0173365557526354,-0.1022841528381844,0.9945020370615124,0.2446884291823672,0.1430890607333619,13.380052528087468,-0.0831994976479645,-0.1309068315704654,0.8092584445436932,-2.6146352951288048,1.284331365299353,0.1823003905244409,1278.9907941448055,1225.7073967987994,1223.3024591010799,1203.7002645826815,-1350.7036515525658,-744.8639166694186,669.5154959989388,-255.14307408047875,164.21031994009053
0.13,-5.100831760853759,4.409327506280593,-1.1953695351294729,-0.3270686918975859,0.1117782129040105,0.0189071179475743,0.0137925472159956,-0.0172178657441395,-0.1023561941473003,0.9945024070692376,0.2503766005109039,0.1364228602836225,13.329112579909316,-0.083632989922041,-0.1316848452447394,0.8177697206862221,-2.6149757070475625,1.284016904397588,0.1843125111960583,1275.2955401288634,1223.7492048206457,1225.3048079760013,1203.445533505842,-1619.7502686781247,-849.6128111705722,943.0394029435766,2.091285702272214,164.2296415376774
0.1325,-4.138395750018241,4.467224526816263,-1.1138617595835925,-0.3426613227938323,0.1227036448636845,0.012993109165348,0.01335788470827,-0.0170813409361443,-0.102435766180241,0.9945022013059918,0.2559168531372199,0.1278824252704238,13.277138686400004,-0.0840689860227906,-0.1325268910079646,0.8261502996251416,-2.6153040034368975,1.2837097081685587,0.1863319349334876,1270.8920428014148,1221.4593327429463,1228.0176561157975,1203.7107210111928,-1966.5764342407313,-1020.752437396094,1285.1793429515044,196.9866784520489,164.24846293051607
0.135,-2.7015024869334145,4.603518033112515,-0.9060709410190992,-0.3571875762900648,0.1373135123773319,0.0081028649405949,0.0129178492326981,-0.0169162593076868,-0.1025178729497891,0.9945020084540248,0.2609834998486352,0.1177705233089701,13.224189681813199,-0.0845383679946762,-0.133440316677168,0.8344156448743856,-2.615625522277451,1.2834073466839753,0.1883628290610132,1265.4626579576595,1218.6454426336652,1231.7307046907588,1204.4304668981024,-1920.553307942508,-987.3508761897474,1374.259757528033,294.11704184662966,164.27046834143172
0.1375,-1.366529438212979,4.74645334142419,-0.7033659627038032,-0.3638713415253891,0.1495154408245034,0.0066477634554743,0.0124750298942262,-0.0167182103133173,-0.1026019287296531,0.994501910895033,0.2654328310454971,0.1063466350997395,13.170288364156564,-0.0850576736297559,-0.1344334470779083,0.8425780220543523,-2.6159457971398927,1.28310644019667,0.1904093653592785,1261.2892762617023,1216.5225783619978,1234.888954903438,1205.181306220426,-1508.300592709564,-737.7484344096948,1198.9341227843383,287.35393791393994,164.28832137489235
0.14,-0.0516648276189625,4.9095851102488925,-0.5536202169697819,-0.36399391321443,0.1606920892285459,0.0076734357304607,0.0120363880664977,-0.0164835743440813,-0.1026830566556575,0.9945023799583677,0.2691324970043708,0.0940101477809556,13.115426505960276,-0.0856410317669067,-0.1355011401760934,0.8506462048265666,-2.616269477944188,1.282803895702639,0.1924751421196416,1257.921154994112,1214.9567004616167,1237.7253753046805,1205.867236587672,-1175.4369829479845,-494.9278751139896,1028.1694691026123,237.20337700979124,164.30566983882824
0.1425,1.1209051893141007,5.0877736054292635,-0.4930608379825777,-0.359316918182533,0.1712136331515754,0.0098586411071376,0.0116132224580795,-0.016216124114866,-0.102758299208992,0.9945035318462406,0.272131168264683,0.0813054281706893,13.059569612742171,-0.086287001441877,-0.1366243833245135,0.8586263347412728,-2.6166003504227335,1.2824969378598143,0.1945646554731139,1255.4120913469624,1214.0479389864279,1240.029802248951,1206.3673231054747,-788.2516818274815,-181.15497968497124,740.7125892837972,138.88725636024967,164.32259908608543
0.1449999999999999,2.007147449051387,5.269775697235335,-0.5501332106830951,-0.3510323250070445,0.1821968912900793,0.0115995954932797,0.0112122774709452,-0.015919613154765,-0.1028210572194828,0.9945059443264608,0.2744833992543764,0.0686597598566313,13.002670089089635,-0.0869913562270085,-0.1377858183231903,0.8665184554852933,-2.6169404375799425,1.2821834538978811,0.1966797493817527,1253.9798965849743,1214.0509255631919,1241.4289382510995,1206.561672869473,-414.96074845477057,202.9888682261126,355.4431488302287,14.400685366399625,164.3390224476891
0.1474999999999999,2.669983414624232,5.44781779956363,-0.7059084857579339,-0.3402081092493678,0.1972468321782124,0.0110641748231575,0.0108338813758423,-0.0155895920999296,-0.102857914873918,0.9945111453884872,0.276040315992407,0.0563066966057489,12.944678831593219,-0.0877627313711487,-0.1389749829315899,0.8743150362847706,-2.617289661527721,1.2818621086014312,0.1988206406266267,1253.3372876046883,1215.0628833275584,1241.807017993102,1206.4393265323067,-104.57342858353503,502.6325811504189,-102.19278451199888,-95.81029917121661,164.3581460215343
0.1499999999999999,2.8926187510199286,5.51888823789735,-0.8447202504492586,-0.3321028455454321,0.2113980493089862,0.0081020174654368,0.0104795320450326,-0.0152217655065162,-0.1028551658639813,0.9945207258599525,0.2766467117523427,0.0444986493503968,12.885548121629999,-0.0886088858887908,-0.1401764219257359,0.8820054405073731,-2.617646691445908,1.2815325260974495,0.200987590418932,1253.4570294420569,1216.564088468944,1240.9179743285395,1206.0826213736173,114.12781378257922,665.6007202222094,-617.7884215286207,-188.4011060273677,164.37359613323963
0.1524999999999999,2.8184299665868595,5.465134891089111,-0.917825425094485,-0.325435154837242,0.2263577203177858,0.0036016911604737,0.0101447929262105,-0.0148117476832841,-0.1028081252024486,0.9945353863622584,0.2761539698539696,0.0333181530473524,12.825239602467297,-0.089533808203,-0.1413852743434763,0.8895750281773888,-2.6180107670950603,1.281194924659107,0.2031817841832659,1253.9079266736014,1218.3908869286695,1238.718075885459,1205.49732100217,199.14063944465835,780.6033864982502,-1262.5789709547903,-319.4402267446091,164.38854319303996
0.1549999999999999,2.452709314496035,5.235979028298337,-0.879434685412061,-0.3189391635188963,0.2440376051001784,-0.0019145510782644,0.0098229325312725,-0.014357859185139,-0.1027268908496122,0.9945540571851456,0.2744825987704669,0.0227771474755533,12.763727981410485,-0.0905321040913196,-0.1426031143484538,0.8970077733154668,-2.618380472207072,1.280850425170008,0.2054028096668443,1254.45273263928,1220.4671054014352,1234.6050794737655,1204.4854202398942,157.8898214461786,676.9115611437877,-1731.7139821393523,-443.5916288431595,164.4059006229039
0.1575,1.9581016018817063,4.920103014590576,-0.7397611097653106,-0.3146509796596506,0.2578294085849585,-0.0056802427515849,0.0095115211826738,-0.0138717575859274,-0.1026264245851049,0.9945749057236948,0.2718713223506256,0.0130092770265112,12.701000598877815,-0.0915742805079437,-0.1438233038290998,0.9042914958349652,-2.618753702925229,1.2805011090519118,0.2076479231085155,1254.6973757808323,1221.7754447343884,1230.0595059747623,1203.2793628579543,22.75782755127691,384.9564237695628,-2006.9084055728108,-592.5690374421259,164.41988484673578
0.16,1.2983279092428663,4.519589670037456,-0.5208584061405672,-0.31109080289289,0.2697622495733589,-0.0078202411351918,0.0092022522298038,-0.0133724135982691,-0.1025261917076616,0.9945956261292628,0.2687452342429024,0.0039928986063499,12.637063915615531,-0.0926152468969405,-0.145050828658613,0.9114150410162452,-2.619128916078764,1.28014935158746,0.209914379779232,1254.5665217770363,1222.391887520283,1224.5705374459014,1201.5225750526836,-160.00204543993263,97.1166638490103,-2564.7898081928793,-933.6031752288355,164.4333735861249
0.1625,0.3386612835768413,4.0184682180800255,-0.230219914900377,-0.3078879235924648,0.281554255105914,-0.0081491921957863,0.0088852842277316,-0.0128731290516316,-0.1024390685887864,0.9946147226162996,0.2653743353944575,-0.0043718101898686,12.571949642281156,-0.0936218930516939,-0.1462952680467236,0.9183673913602916,-2.619507570665905,1.2797958018123468,0.2122033636366684,1253.8973655536327,1222.2610280536335,1217.2355569337979,1198.61134698181,-333.16335879640036,-176.72511608834594,-2754.1625568393533,-1207.0030917848715,164.44899120435835
0.165,-0.5813426093831223,3.642989645827576,-0.0113266697661866,-0.3069701357030584,0.2895334630999596,-0.0068821685725384,0.0085500106908353,-0.0123853403390936,-0.1023749173369789,0.994631074098646,0.261972443019239,-0.0122316238840011,12.505712979863153,-0.0945658269933418,-0.1475696021269419,0.925139195403936,-2.6198888248195265,1.2794412330472087,0.2145125122899997,1252.9007049830543,1221.5082619398413,1210.7997246617047,1195.4875595937592,-488.4952360075199,-396.1720834985496,-2560.1208811635815,-1369.7397839442588,164.4615349404502
0.1675,-1.5879786053259908,3.3689758235874527,0.1463207840006634,-0.3088540887114615,0.2959543731446423,-0.0051335817376267,0.008193876204329,-0.0119167331402673,-0.1023376031600681,0.9946441724769832,0.2586315100961014,-0.0195648627886053,12.438432142790813,-0.0954299213157857,-0.1488736070867408,0.9317252184512556,-2.620271270854943,1.2790880636868287,0.216837058978724,1251.454889373595,1220.2801676361407,1204.43495252798,1191.7626480620888,-650.7386862398101,-537.0445221779842,-2470.607974193124,-1548.8825341404195,164.47359376558103
0.17,-2.626036676173407,3.203629454764737,0.2452092512248952,-0.3134088758818958,0.3014733497541282,-0.003726413408298,0.0078206193594486,-0.011471387744489,-0.102331842248088,0.9946534213206596,0.255337452365453,-0.0262266878460682,12.370206765665287,-0.0962061320567594,-0.1501977312093532,0.938123953782427,-2.6206534051407937,1.2787381589863849,0.2191736797271787,1249.6470115518555,1218.8230393289512,1198.446684790739,1187.743146923057,-805.1713407940035,-602.5643365222544,-2235.8405699545965,-1612.723604568872,164.4852535110873
0.1725,-3.6445473084052487,3.167264973527213,0.2825029344616903,-0.3210640261454261,0.3069501618717735,-0.0030346253711589,0.0074295104320461,-0.0110427494944005,-0.1023629270863268,0.9946583280567884,0.2518316529604988,-0.0322319421962472,12.30115799421944,-0.09690709680435,-0.1515436717520826,0.9443325849511026,-2.621033255799433,1.2783898754138272,0.2215214578864005,1247.429032669625,1217.2673459535295,1193.2557496782067,1183.6990300392445,-1057.0452274178467,-671.7370607838342,-2038.6463942856133,-1697.2541410675587,164.49643578271477
0.175,-4.7680619196815455,3.227732390327431,0.2765639563026032,-0.3334491850241857,0.3147770565436107,-0.0028298615870449,0.0070177980217905,-0.0106190179085222,-0.1024338347885537,0.9946587139958932,0.247746014001096,-0.0376762907424024,12.23142371853266,-0.0975578083798392,-0.152917821955555,0.9503480155931952,-2.621409436430459,1.2780410480292004,0.2238802343794872,1244.3617854147662,1215.4643540250322,1188.2534528193107,1179.2568762177193,-1177.197282333378,-632.3886065996733,-1613.8054493980765,-1506.008507342092,164.50930742453693
0.1774999999999999,-5.569140290290922,3.3099159422554885,0.2411074037305789,-0.3461853635170802,0.3227462189901961,-0.0026971406223603,0.0065805866275891,-0.0101869257473783,-0.1025416669930247,0.994655032586976,0.2427008881753721,-0.042726136003708,12.161154841344167,-0.0981894207539553,-0.1543297280416963,0.9561668464040924,-2.621782172454624,1.2776903059035771,0.2262491278786824,1241.543046257958,1214.105402920531,1185.1867224312164,1176.168987502534,-1160.430065041788,-502.4907328288032,-1015.9173915365548,-1063.873964673899,164.51958147939916
0.1799999999999999,-6.1734936885024325,3.3525090681991543,0.1795353027073591,-0.3610558030302443,0.3319931101574553,-0.0021164447872654,0.0061156403746155,-0.0097370668916315,-0.1026780023987447,0.9946482391539758,0.2364252127935336,-0.0474859207956348,12.090511786446,-0.0988293949649937,-0.1557818773832396,0.9617871577690612,-2.622152331036372,1.2773368180800815,0.2286284319333071,1238.559635089557,1212.9519003608882,1183.1738658616282,1173.9375063943498,-1325.3601221127144,-462.0786001970369,-698.9324979469524,-763.0821484628078,164.52939028158153
0.1824999999999999,-6.619774718526221,3.2897762434403526,0.0775907647455245,-0.3807325813726238,0.3438359022075548,-0.0012449805074369,0.0056204898967553,-0.0092662718697862,-0.1028280459556244,0.9946398765513358,0.2288199259295495,-0.0520611451510559,12.019662357420732,-0.0994959306851771,-0.1572744417728166,0.9672075523319684,-2.6225208883466284,1.2769800782059708,0.2310203226449491,1234.9162456473944,1211.795009919546,1181.6920599414818,1172.35357676022,-1330.211149315072,-398.1124530960184,-438.43143682843174,-401.7987230426567,164.5406279297281
0.1849999999999999,-6.735172500833116,3.1159887850444647,-0.0257102440249154,-0.3978861674244187,0.35358835123734,-0.0007433383583274,0.0050958811627861,-0.0087759711913885,-0.1029755334596388,0.9946315702493608,0.2199084587414586,-0.0564773464014141,11.948781623936936,-0.1001994530236023,-0.1588001369589735,0.97242736689131,-2.622887637969504,1.2766192966488112,0.2334274065375911,1231.908579342982,1210.961338095408,1180.981708677486,1171.9285127791363,-1182.4689361048956,-330.47281746357805,-225.65357558637493,-5.5553327434154145,164.54955250703017
0.1875,-6.57536016197983,2.8182971685647127,-0.1350042257647201,-0.4148831476393678,0.3622117442478979,-0.0007475773455295,0.0045438752757558,-0.0082642546337068,-0.1031039753881853,0.994624991913954,0.2096513311163675,-0.0607439879635106,11.878053245037968,-0.1009566559526303,-0.1603498829338532,0.977444293286562,-2.623253167952039,1.2762542963341463,0.2358524359902413,1229.00390096687,1210.142645832228,1180.56379206355,1172.3258000965027,-1244.828069419144,-391.0559130120415,-142.67117930685333,326.6963454933827,164.55802560710492
0.19,-6.07996856687741,2.359128316312664,-0.2514612158392965,-0.4342145448722197,0.3704254661989872,-0.0015076881433045,0.0039670416676757,-0.0077288041712337,-0.1032063276988923,0.994620839526882,0.1980207331256283,-0.064863338125489,11.807667020333188,-0.1017812009125524,-0.1619162262124048,0.9822552171231492,-2.6236192014412767,1.275885953382684,0.2382956475777417,1225.6844389958862,1209.006058530348,1180.2683527809515,1173.5619945066035,-1189.1480375768867,-465.3345805380464,-68.76938244490697,549.6770474892396,164.56767837930775
0.1925,-5.439663657850605,1.9374826639400713,-0.3202901734483636,-0.4487589431569183,0.3753601299181457,-0.0027964373494147,0.0033742265276247,-0.0071680473805611,-0.1032767788426736,0.9946196600312968,0.1850110262529268,-0.0686914565269022,11.73781730582482,-0.102685116651569,-0.1634803614062703,0.9868589544025548,-2.62398674151773,1.2755162586385371,0.2407553147427925,1223.0581607789857,1207.8159729295376,1180.2199451513254,1175.0741853339491,-1031.1266227550723,-542.2393447404825,47.270241714068064,673.7449653730431,164.57529882579993
0.195,-4.6079631055077455,1.5336282068125768,-0.3474096013436634,-0.4610029848596967,0.3784445012012741,-0.0045887792941799,0.0027791019579587,-0.0065866664806273,-0.1033105620487242,0.9946218404488903,0.1707683337406842,-0.0719603945532757,11.668699683317836,-0.1036677247269059,-0.1650137727388447,0.9912579203276962,-2.624355502040909,1.275146395321798,0.2432303421146926,1220.5288058821109,1206.2948618066455,1180.504703989522,1176.9307193334687,-1010.8589113324788,-661.7292720962718,189.74127081528405,783.0243942812097,164.5824868680714
0.1975,-3.6579085395555655,1.1809219282847356,-0.340449840714722,-0.4708857808672261,0.3803160232093518,-0.0064000021701802,0.0021955586523297,-0.0059971086024514,-0.1033040018210439,0.994627614687906,0.155630590548352,-0.0743821781506726,11.600508219265611,-0.1047115677302644,-0.1664868976897023,0.9954577954986438,-2.624724393529848,1.2747772026165156,0.2457209658014311,1218.0038662223233,1204.5073265690564,1181.1686515054018,1178.9893073053552,-1034.4756784787014,-759.958871366279,365.15604348037374,859.7035068477901,164.5893220928583
0.2,-2.6158076378914874,0.9157802290992152,-0.3078124123707682,-0.4776985517988246,0.3813053931987827,-0.007518499339474,0.0016333719956313,-0.005407754104408,-0.1032590987495967,0.9946366814662944,0.1398598743715472,-0.075774987528527,11.53343404305985,-0.1058032403742023,-0.1678811091386601,0.9994639323591284,-2.625092354473354,1.2744100596297168,0.2482262792869923,1215.3564274897171,1202.495067449814,1182.330484206924,1181.2292368677076,-1227.6779163294111,-896.8844847090614,599.6265942033,1016.5848213624477,164.59573925274552
0.2025,-1.3174235952949387,0.7042984220596743,-0.2708516901362766,-0.4826646538764644,0.3821799451686797,-0.0072983111160948,0.0010958188239684,-0.0048145191371888,-0.1031854545030479,0.9946480552131244,0.1234569325160215,-0.0761332902031463,11.467661132882892,-0.1069491452774933,-0.1691956140529029,1.0032790077756735,-2.6254622289170784,1.2740460756292515,0.2507462207122685,1211.8654766406762,1200.0229041455111,1184.1667844764183,1184.0722314121674,-1351.5969141149967,-883.441466589101,699.1417287017606,1059.889474023793,164.602966239438
0.205,-0.2303929022471043,0.6023040497536741,-0.2613854663742256,-0.4845304391185702,0.3830141039261889,-0.0058476619965579,0.0005830511648597,-0.004215577365618,-0.1030933905498136,0.9946606927218136,0.1064915677167372,-0.0755111963407079,11.403359535554255,-0.1081496411262994,-0.1704360180294742,1.0069081160988076,-2.625834387413837,1.273686037342703,0.2532776696226353,1208.5984429191424,1198.0778601168684,1185.8261928504328,1186.5286842378266,-1388.7450931686988,-723.5794734424863,609.4122947981754,985.3340982883301,164.60860056428552
0.2075,0.8258431999513589,0.5439904898022822,-0.2724507585343421,-0.4842228151737407,0.3841533399531485,-0.0041532602781222,8.72114978019889e-05,-0.00361318271878,-0.1029925067591023,0.994673638973918,0.0891511553996725,-0.0741266247608221,11.34068120842808,-0.1093951253362603,-0.1716230448060624,1.0103580398274528,-2.6262076359286604,1.2733296427269312,0.2558160831763943,1204.9217511748327,1196.4050067782987,1187.2138459504092,1188.998901903609,-1697.2399383581512,-659.6042982021603,445.59526829093767,1062.7420111652605,164.6138384982735
0.2099999999999999,2.0115420139847338,0.4760585321361167,-0.2615741174644782,-0.4808867741089392,0.3861166930927678,-0.0040539300707542,-0.0004025161694307,-0.0030176270732919,-0.1028946447819939,0.9946857000584,0.0718129802710463,-0.0722352197597827,11.279757831288173,-0.110658245763717,-0.1727819188435963,1.013639750156483,-2.626580519217793,1.2729765722973219,0.2583572926822294,1200.1122432273517,1194.7798386258576,1188.0541691918875,1191.842394293653,-1804.6661914926144,-538.6227940693541,107.58164043168156,997.4907785654113,164.6196716420868
0.2124999999999999,2.8896590240082007,0.3872818638300083,-0.1758365888342139,-0.4751128160788463,0.3883277320452331,-0.0065125077490452,-0.0008955809723335,-0.0024406127376512,-0.1028114120259839,0.9946957027202382,0.054879455336391,-0.0700497284205195,11.220699644241336,-0.111908947693811,-0.1739339800338871,1.0167675157988836,-2.626952311520473,1.2726254023456829,0.2608992450678242,1195.8984202173697,1193.711892807952,1187.7517541525676,1193.986355796436,-1689.261927373944,-387.6975145482444,-374.26473865775694,779.6289474878897,164.62415878961647
0.2149999999999999,3.598670748425396,0.238164143404121,0.047025719353878,-0.4664126592796654,0.3906255805284385,-0.0103214052574947,-0.0014027958422373,-0.0018915334608662,-0.1027614724676941,0.9947016740043056,0.0387002336192127,-0.0678132712128858,11.163593735475015,-0.1131188329192515,-0.175104183422067,1.0197559726378485,-2.6273223344677263,1.2722752006211568,0.2634391755035115,1191.665933590482,1192.8413510531163,1186.1828454985987,1195.7405390310923,-1820.3595281650887,-360.23716372687846,-986.3819533128653,652.0968405444813,164.62826037369214
0.2174999999999999,4.1996531989670896,-0.0130602121083844,0.4813452479377283,-0.4536005596791924,0.3923704163693758,-0.0134764573996297,-0.0019268142907155,-0.0013703574462902,-0.1027550516564924,0.9947025334864298,0.0233924264591674,-0.0656053751221108,11.108503377158774,-0.1142829159830475,-0.1762993940994192,1.0226199177543331,-2.6276915249526853,1.27192457993988,0.265976757755043,1186.7966225765442,1191.9107069893175,1182.8198443860033,1197.2468399991585,-1720.7432620575203,-329.7958696841758,-1449.984428534343,440.8522741612156,164.63273762126525
0.22,4.468228701451047,-0.2651336144819376,0.9399805119664786,-0.4417571038613221,0.3922274476679048,-0.0135566092666745,-0.0024630189228901,-0.0008719227739553,-0.1027926082429579,0.9946982487240864,0.0089421591724423,-0.0633571296479756,11.055468432548045,-0.115411256949367,-0.1775086017845959,1.0253735810867552,-2.6280612469941325,1.2715716277479308,0.2685153825030321,1183.0622172801943,1191.1923717046957,1178.9329233559267,1197.9448004018984,-1398.4627860298576,-270.41430040212595,-1716.0687120393488,166.1551916270126,164.63609775519512
0.2225,4.491184154026483,-0.5295400333389396,1.4071606304261823,-0.4294268612086004,0.3903519103857559,-0.010383922810732,-0.0029998334809456,-0.0003912089898638,-0.1028646798935509,0.9946898399059114,-0.0046770891396053,-0.0608508441031421,11.004508383144774,-0.116518236271868,-0.1787023426290577,1.028030679239904,-2.6284332244742563,1.2712151442327075,0.2710590570455928,1179.8043086463947,1190.558635487307,1174.2395008258063,1198.0776159572936,-1210.4237450497735,-227.7687279251948,-1952.650305001633,-25.87908661212166,164.63907127457708
0.225,4.326729904940938,-0.7841812929268003,1.802572883070949,-0.4172295178659248,0.3876021318487046,-0.0047641676643239,-0.0035266215840306,7.921708077325095e-05,-0.1029552783683581,0.994679014780252,-0.0175432247061416,-0.0579027679006307,10.9556257131343,-0.1176249981719023,-0.1798504712934805,1.0306004640795867,-2.628808439157009,1.2708537827296351,0.2736122155028617,1177.0100985549454,1190.0535280650697,1169.1696718309188,1197.8154049688378,-1002.5662834513232,-153.6025990821598,-2047.7593312999013,-170.83458594665885,164.64172284091103
0.2275,3.9808502536330126,-1.0186590947204053,2.0323401676656614,-0.4061289665308413,0.3846067411426549,0.0025018239777144,-0.0040359225995757,0.0005451418113405,-0.1030470456669582,0.9946676265181482,-0.0296928566309807,-0.0544032394080612,10.90881141964888,-0.1187490229901881,-0.1809278511388046,1.0330880028953355,-2.629187228638433,1.2704865914536108,0.276178066968467,1174.7914772291383,1189.790622491896,1164.000704169307,1197.2234430275603,-861.8241714966636,-39.852822577404325,-2217.201256803535,-293.27521833520194,164.64398538662783
0.23,3.440826461828532,-1.285331220034268,2.059251159891571,-0.3953715752275318,0.3811506886480697,0.0110796953316012,-0.0045230999095699,0.0010061067051163,-0.1031239379275969,0.9946573905654642,-0.0410254800685489,-0.0502979262618365,10.864051474314572,-0.1198938909433862,-0.1819142721113985,1.0354960978976897,-2.6295681802625657,1.2701149056644292,0.2787572112471334,1172.700977697462,1189.8542639521827,1158.083665546901,1196.3490288771616,-702.4516150651374,96.19255007955863,-2076.6322836531326,-319.5377901992285,164.64625094867569
0.2325,2.957854747351897,-1.508348221139948,1.8669146626480833,-0.3886600556550736,0.3782237369909473,0.0171939168179402,-0.0049838352685596,0.0014635032907775,-0.1031745555899627,0.994649543348314,-0.0514882404754853,-0.0455511172319348,10.821330159700484,-0.1210652675692189,-0.1827927489430395,1.0378247926784139,-2.6299485756398244,1.2697400320552168,0.2813484541995087,1171.2792191538126,1190.271585242294,1153.6175427510411,1195.625754076564,-554.9064774904305,245.08223883517508,-1653.6179907220217,-266.7060249168569,164.6477654267206
0.235,2.518250742188708,-1.7457349443297951,1.4732092697357484,-0.383528217682388,0.3748712885355489,0.0220119480980234,-0.0054142368497061,0.0019163652299076,-0.1031987062263,0.9946441593279594,-0.0609873607927576,-0.0401389234636252,10.780634808439382,-0.1222596942138974,-0.1835511485657799,1.0400733743138455,-2.630327347929701,1.2693645193636607,0.2839510515352262,1169.92644531001,1191.0796751463583,1149.8155755932908,1195.0154987525775,-645.4358377790408,432.0839364298077,-1497.4235803272663,-238.5676851460628,164.64889458948306
0.2375,2.1067035397996907,-2.0534076878493206,0.8170832681579974,-0.3786406822458536,0.3699671573065584,0.0265253729857884,-0.005811940834319,0.0023621848321833,-0.1032002097307048,0.9946408904493766,-0.0694058445555263,-0.0340711637937012,10.741958548114049,-0.1234681971349258,-0.1841833151306276,1.042240595418698,-2.630704729123499,1.2689913920090543,0.2865641759460128,1168.0520399649174,1192.4320049244427,1146.130424849405,1194.4329156508338,-770.0438771481948,535.6997022088333,-1199.2141405630775,-198.09960979141673,164.64980819012112
0.2399999999999999,1.8890927102447543,-2.326464298346225,0.1661714350524861,-0.375179174407618,0.3648223399746091,0.0291568113782008,-0.0061817829091095,0.0028009887880074,-0.1031872375644121,0.9946388896267488,-0.0766803167503591,-0.0275183090882884,10.7053010443314,-0.1246830589149142,-0.1847018343725116,1.0443222886524592,-2.6310820418603087,1.2686220242665198,0.2891867659286066,1166.076225924269,1193.7581736574027,1143.8195048904756,1194.0250007036204,-906.6435199575196,528.5332823002161,-768.3450964358635,-164.14540858272707,164.65020553872924
0.2424999999999999,1.8131660543786907,-2.6101593665729728,-0.5148241570754601,-0.3716970274932235,0.3584868414405557,0.0297458164213242,-0.0065343500142486,0.003233844607794,-0.1031708320503626,0.9946369734425476,-0.0827734162117338,-0.0207719486807384,10.670669550906004,-0.1258954634360215,-0.1851342007433344,1.0463128482022068,-2.6314615097767224,1.2682570451128488,0.291817746732337,1163.5188223651298,1195.074671335944,1142.2886993672255,1193.61218860792,-1265.3681125195803,518.1534877004647,-505.84471152706055,-195.30861725352207,164.65023063333763
0.2449999999999999,1.8762144029626084,-2.959398523859469,-1.2510914459620617,-0.3669948644575308,0.3499155162280955,0.026697005964221,-0.0068785517267171,0.0036664719473485,-0.103159598194535,0.9946342050761664,-0.0877667657039867,-0.0140900161880925,10.638076810927966,-0.1271067322846554,-0.1855064803210097,1.0482071851036177,-2.631845061185932,1.267896802394307,0.2944548397976422,1159.749385361671,1196.348941095905,1141.2902813328403,1193.0484576173528,-1481.9245652784489,376.9369645033745,-244.3578607261768,-214.89092859396783,164.6498375761346
0.2474999999999999,2.0409178383216053,-3.2619676272076057,-1.7083130693765771,-0.3625728002213797,0.3421326120104183,0.0211456205950926,-0.0072173926505091,0.0041064464113141,-0.1031534026471717,0.9946305803565852,-0.0918088309419139,-0.0075986078412253,10.607539592615135,-0.1283262017425916,-0.1858317876518461,1.0500032170946034,-2.6322317767020165,1.26754251359217,0.297096113626118,1156.1091995387376,1196.9593561584609,1141.0669100635948,1192.5377339649503,-1515.849623492521,118.00501016050464,3.5231560541433247,-192.17204599176492,164.64916283599837
0.25,2.297447577447834,-3.589386792086389,-1.9182137402938024,-0.3574565488939669,0.3338484017384187,0.0137684927866452,-0.0075533065063541,0.0045515141219706,-0.103150876855818,0.9946262589734374,-0.0948580059231143,-0.0013815895608239,10.57908022396111,-0.1295434655199003,-0.1861201220203995,1.0517034818730513,-2.6326195546173867,1.2671943764718059,0.2997410060731326,1152.1701372442085,1196.9389661467076,1141.307897113111,1192.087597387394,-1578.7212003012414,-121.76133268972067,140.88224328188505,-145.21238147781318,164.6481344112372
0.2525,2.610092855976865,-3.950603316634119,-1.8904760375552068,-0.3515839434978103,0.325438249228954,0.0058112792487566,-0.0078896011611562,0.0049918057144025,-0.1031516833181813,0.994621317979729,-0.0967291075613317,0.0044833824070348,10.55272320714262,-0.1307320842911166,-0.1863817746206962,1.0533139509174003,-2.6330067307244462,1.266851910149794,0.3023897504268655,1148.2155935372311,1196.3505494950123,1141.7713212800043,1191.8116720575613,-1522.1758736195156,-364.0115728986981,196.54640641456336,-36.02310784167454,164.6468178291892
0.255,2.9664575792878423,-4.3651241120324125,-1.585371027531828,-0.3447713624374293,0.3169826518735788,-0.0015896705279839,-0.0082284064519962,0.0054195356286464,-0.1031572454166803,0.9946156535290764,-0.0973024532478245,0.0099461370290569,10.528488390118603,-0.1318701530614194,-0.1866246536753302,1.0548417537809356,-2.633393009183875,1.2665132224925544,0.3050427402612623,1144.559257876111,1195.118908282214,1142.2906291451839,1191.9074818481856,-1464.4641071246483,-659.2760882675515,192.53876759535143,157.50159771273488,164.64516016286044
0.2575,3.41611289835392,-4.919796761285417,-0.9748981647353452,-0.3356309408106752,0.3059855271215854,-0.007817023717946,-0.008569729553553,0.0058329537474528,-0.1031629031963654,0.9946097815218284,-0.096604509869823,0.0149957764686082,10.506385867114528,-0.1329516105304834,-0.1868506375625783,1.0562942013859271,-2.633778956139161,1.2661758564732593,0.3077002417018913,1140.893273001608,1193.0541690536745,1142.734015117981,1192.5991800461247,-1183.2479466482243,-820.8462915050396,106.4515892154758,352.81518823303446,164.64278513867328
0.26,3.7896417145698726,-5.402825453002122,-0.3559926228506042,-0.3271856506642084,0.2949568952666471,-0.0095897489658413,-0.0089138665537886,0.0062340221508592,-0.1031634116190176,0.9946042615671822,-0.0947526307240977,0.0196119009906657,10.486413646084744,-0.1339788303032245,-0.1870613334894893,1.0576785815559229,-2.6341651859313955,1.2658378042837475,0.3103618394989106,1138.6430181428696,1191.0146768246889,1142.8228870912612,1193.6715577893508,-709.7924625636545,-834.0290219276985,-38.857831922041406,507.2591716914753,164.64049080908262
0.2625,4.1381345443007405,-5.849676814916347,0.2476545028135516,-0.3180006001475285,0.2810779658426089,-0.0075431609010982,-0.0092532730102112,0.0066170286578043,-0.1031490222890365,0.9946002334836692,-0.0917320888556439,0.0239575379951615,10.468557212978382,-0.1349417278056211,-0.187237632785986,1.0590084206625128,-2.634551002843517,1.2654983450492667,0.3130266570126809,1137.3443106887898,1188.884023944036,1142.5397259583708,1195.1354759045823,-358.8527020821399,-903.0317706045472,-208.164982871858,673.3679104503148,164.63787722859297
0.265,4.49574499838714,-6.269242346881556,0.825380141581004,-0.3063284804881482,0.2618955710553004,-0.0021517140096814,-0.0095795972225138,0.0069738596136536,-0.103115249172862,0.9945983177674949,-0.087493202167933,0.0282158656068201,10.452785919535353,-0.1358236214994737,-0.1873584853087718,1.0602994261247445,-2.634935503894204,1.265158155573174,0.315693338984937,1136.848754632459,1186.499517971666,1141.782062176902,1197.0383973416024,-28.75545890165083,-811.9841153861664,-331.52948569982044,664.2713261769126,164.63438152960583
0.2675,4.714176345271857,-6.481173913135257,1.128050624836758,-0.2959436769760513,0.2451342964869563,0.0030664838847164,-0.0098874239717812,0.0072960559469345,-0.103068272828958,0.9945980086953066,-0.0819867856829333,0.0325057659589178,10.43905093330016,-0.1366025953392851,-0.1874110640490293,1.0615673257353984,-2.635319668486612,1.264819067085088,0.3183594401872135,1137.2005333942816,1184.8241033671052,1140.8820785298717,1198.456832535467,258.264863552449,-580.3796418770611,-382.049277213218,462.6299901900889,164.63117653829397
0.27,4.805966437357812,-6.528449175829434,1.2291352645844535,-0.2844864066789969,0.2285339794355019,0.0078458502017935,-0.0101766934783727,0.0075766536003893,-0.1030210852700519,0.9945980355973498,-0.0751944664457349,0.0368284989936574,10.427284139031954,-0.1372560826568875,-0.1873955555402214,1.0628259514799057,-2.635704715821235,1.2644827629132385,0.3210234607867484,1138.140078950221,1183.5976197622808,1139.8718157908359,1199.3515472925528,498.740253999676,-430.2457629577016,-418.5901514153553,208.18273811187265,164.62767827825203
0.2725,4.714013578010214,-6.3980745289578795,1.1500333709453077,-0.2696389221601055,0.2091892599979389,0.0125423813619263,-0.0104539376197468,0.0078171233270409,-0.1029861762249657,0.9945970526667488,-0.0672650788274266,0.0410287379315455,10.41739670649838,-0.1377779761535355,-0.1873274386930956,1.0640838889527668,-2.636092644454098,1.2641487094213053,0.323686812068916,1139.69423466428,1182.6728745523167,1138.7891277727947,1199.4977462260263,608.354918552822,-258.4396088300307,-336.4277455094904,-127.71821179835558,164.62315345992644
0.275,4.436117990947366,-6.148617400127381,0.9620119898412818,-0.2568397490931789,0.1938888261368693,0.0152924304896531,-0.0107238663519142,0.008024431747206,-0.102968648722708,0.9945944561970288,-0.0584658164323761,0.0449760472776618,10.40928017428847,-0.1381771030834454,-0.1872172203595394,1.0653475210501635,-2.636485004600108,1.2638153036275295,0.3263514384416925,1141.1818535429854,1182.3054217181307,1138.1896770632884,1198.712956233561,604.9325024625881,-87.2192149453894,-138.64306664368075,-504.79981005200847,164.61911979484512
0.2775,3.934154831161252,-5.779512734629365,0.7109950762037321,-0.2444815163337071,0.1798428686541753,0.0166876054515199,-0.010983938634536,0.0082054606959497,-0.1029649561603862,0.994590610902995,-0.0490743407434802,0.0486880640506635,10.40280914690502,-0.1384676029500397,-0.1870574661216299,1.0666241206093792,-2.6368812109259245,1.2634817827761955,0.3290188624492728,1142.7188971765927,1182.2367784775895,1138.0959124395763,1196.9737471757662,665.1444095474739,6.5425864310327535,98.6758167768584,-953.0740177671752,164.6148251270086
0.28,3.1002897517344055,-5.23101483145552,0.4066305766779148,-0.2315553429675361,0.1646142589913022,0.0167738040956319,-0.0112308651419551,0.0083671020721348,-0.1029669935357028,0.9945863580359366,-0.0393653218901321,0.0521942082197558,10.397845116571922,-0.1386668025514653,-0.1868379780529039,1.0679193296383835,-2.63727889126481,1.2631474998675598,0.331690212919329,1144.5075755907228,1182.3381346502858,1138.6830561471727,1193.9475861447252,637.7657268865272,46.616675891118525,329.9433464322189,-1223.0235325743695,164.6093845775559
0.2825,2.266300918178627,-4.705833301498996,0.1881235440503871,-0.2233988003650472,0.1531159659958383,0.0157967545743006,-0.0114640337755553,0.0085092180940423,-0.1029666084445226,0.994582566556581,-0.0294564816753937,0.055479968093052,10.394241740478275,-0.1387782313948962,-0.1865531771359266,1.0692381559235733,-2.6376750361925123,1.2628126880170891,0.3343663819061019,1145.9077258110256,1182.469861857045,1139.7456291717376,1190.8586295128944,539.28290266881,43.971902684143025,519.4022015136848,-1287.9832713425446,164.604623039525
0.285,1.3856105288399885,-4.12663474001944,0.0261225633498507,-0.2189608112248093,0.1427307123942667,0.0144966487695713,-0.0116892827119179,0.0086326119811939,-0.1029574842513506,0.99457982636466,-0.0194635275974687,0.0583932567375758,10.39184713784645,-0.13880704923323,-0.1862128134005765,1.0705813120489418,-2.638067737523328,1.2624783053072537,0.3370485935706829,1147.2039901040669,1182.5579941637063,1141.2800671547411,1187.5076697880124,505.53706010200534,19.630585752884127,661.079510240051,-1331.4526185337388,164.59963894383088
0.2875,0.5517952746890817,-3.511926771749383,-0.094563648776634,-0.2179677303221843,0.1333274322504676,0.0137266807573835,-0.0119156403969394,0.0087474375444204,-0.1029436627196314,0.9945775256426868,-0.0096821840209514,0.0606958422887785,10.3905056989989,-0.1387755322598818,-0.1858394459114577,1.0719440030432232,-2.6384577737053547,1.2621446005712655,0.339738828817733,1148.4354111115356,1182.5680147858095,1143.0510267229379,1184.2013664202257,486.74210319500656,-20.20401595632413,722.37865763628,-1253.5086010129487,164.59448039392782
0.2899999999999999,-0.1315466084534656,-2.866935046033098,-0.1886994160363525,-0.2207138482437879,0.125254188070888,0.0141374417059925,-0.0121527226198201,0.0088672075925699,-0.1029321489272505,0.9945747030140464,-0.0004645413109134,0.0621331010596355,10.390062677942437,-0.1387132404141092,-0.1854598504880247,1.0733192243185035,-2.6388448063777816,1.2618122103889675,0.3424351655909308,1149.6377006200419,1182.4569740839247,1144.8919604429225,1181.2401267829475,534.9675947797605,-80.8833302095999,776.6243576217755,-1167.045415418591,164.58912328065338
0.2924999999999999,-0.7028972640930095,-2.0820994990982613,-0.2985637092194684,-0.2263103280620386,0.1177911689493628,0.0152523244021109,-0.0124094626620388,0.0090082647774928,-0.1029236976961306,0.9945710197349003,0.0077951613495286,0.0624635298357126,10.390367272869412,-0.1386590786869132,-0.1850998727019138,1.074698859343905,-2.6392268682327487,1.261482886015558,0.3451348820750977,1151.1102490854344,1182.1635981347615,1146.9341485110467,1178.3661393431328,549.2695278111108,-136.77318233480935,695.5221524140137,-920.6229165570211,164.58247993249
0.2949999999999999,-0.9652311969493612,-1.4428978062015243,-0.3915048781835985,-0.2308012904171289,0.1137586233081788,0.0156172847238791,-0.0126871498397377,0.0091801656971951,-0.102919607271171,0.9945662271793352,0.0148424183904294,0.061624937031959,10.391274807508175,-0.1386394962761755,-0.1847690877289914,1.0760792342855183,-2.6396037411284112,1.261158152513105,0.3478367167408116,1152.3840482590974,1181.7731081722509,1148.3695712049923,1176.6370122001626,513.3318675893402,-189.6861903521765,504.89251581334383,-558.5161413698638,164.57677521020807
0.2974999999999999,-1.0492428049369713,-0.8483864256149216,-0.4679757626353159,-0.233620628867597,0.1118206849214765,0.0146403509651924,-0.0129829350515921,0.009385838250625,-0.1029200150879974,0.9945603057807572,0.0205678886969936,0.0596634799260936,10.39264921024465,-0.1386680182685046,-0.18446743744401,1.0774597243230535,-2.639974588326032,1.2608393559707487,0.3505392357091195,1153.676908423381,1181.2151671830009,1149.4586110901134,1175.5735586362835,550.2655275435241,-285.6845335726118,403.1805137964508,-351.1569655450782,164.57090752215373
0.2999999999999999,-1.0250030968655843,-0.2107014690826338,-0.5069432908633215,-0.235651185994486,0.1114033425696983,0.0122366420202495,-0.0132937621453459,0.0096215115655893,-0.1029251934030457,0.9945532867512868,0.0250163929275914,0.0566540485662518,10.394365593523556,-0.138743122528072,-0.18419336247449,1.0788411103944267,-2.640340240780062,1.2605262457169046,0.3532435742348587,1155.135375896815,1180.3446855043878,1150.3854737739748,1174.8812273724373,493.94308754035546,-348.6466828194804,289.978895943386,-196.02653274141613,164.56369139860945
0.3024999999999999,-0.9567573492746628,0.2514160608341074,-0.4762465703178285,-0.2368694584283245,0.1119767412442597,0.0096046289091197,-0.0136185194119234,0.0098794929927948,-0.1029348337191527,0.9945452764096082,0.0283335893088462,0.0526507147482926,10.39631212799624,-0.1388533806746002,-0.1839482102118038,1.0802236701054029,-2.640703212756862,1.2602171556397133,0.3559527795582416,1156.1466238610828,1179.4719337689035,1150.9085055698304,1174.5934259725764,327.71182966166606,-364.5963084066804,179.5214440982816,-105.10933192540496,164.5575417882743
0.3049999999999999,-0.8889091149268957,0.6464448732085636,-0.3762786590738209,-0.2378756812808972,0.1127805304370603,0.0069596180378135,-0.0139521446265949,0.010147733840567,-0.1029460082931006,0.9945367510781804,0.0307619500823201,0.0478097060465,10.398390488503972,-0.1389781997262234,-0.1837224699259624,1.0816092734149196,-2.6410660256534846,1.2599113618962787,0.3586689819029471,1156.7739350451232,1178.5217039623544,1151.2830809944662,1174.3556807128102,150.72476053219347,-405.3698451423312,154.2053086189297,-141.76399459397533,164.5512619508795
0.3074999999999999,-0.8412566337093694,1.0509413226033175,-0.20432251528416,-0.238993140319006,0.1141967509702728,0.0049990724019139,-0.0142900283582045,0.0104141259424409,-0.1029541891601831,0.9945283527654606,0.0325590158546899,0.0422889699182344,10.400517534485395,-0.1390957278583861,-0.1835062140082883,1.082998854559242,-2.641429840468766,1.2596084728288297,0.3613928392941179,1156.9002476637438,1177.4450845431916,1151.679532112925,1173.8846059996065,-77.1785438318147,-357.6413701210182,147.58987050704476,-226.25446348465607,164.5435881387813
0.3099999999999999,-0.837582546398322,1.3274999131408816,-0.0562679346407877,-0.2399754497172028,0.1164336076245651,0.0048483527577145,-0.0146244912546073,0.0106713624637623,-0.1029570170450476,0.99452049926765,0.0338854947690644,0.0363103955977136,10.402624887788749,-0.1391931943437841,-0.1832834953430211,1.0843925846159876,-2.641795089010268,1.2593081665557344,0.3641245839791033,1156.3880423259643,1176.733497111749,1152.0210303470014,1173.2244083953867,-340.9908348690803,-219.59783195716207,142.78775251600553,-325.48929094164095,164.5370872358077
0.3125,-0.8627073256856392,1.5260294004730357,0.0444597737300353,-0.2410273735905996,0.1201223808187413,0.0060967238936066,-0.0149509568919028,0.0109177363164306,-0.1029544055270144,0.9945132753342673,0.0347999051384042,0.0300295471786736,10.404659607004854,-0.139267706144488,-0.1830459138248217,1.0857881309948851,-2.6421612856200407,1.2590096203326704,0.3668640216119183,1155.1952934893984,1176.347095383406,1152.393470875505,1172.2571595448983,-581.2369472570475,-92.25762733508408,151.56973751654715,-425.0147922244647,164.53048670151944
0.315,-0.8927363644126042,1.6458810370600607,0.0750016485857672,-0.2422492933023411,0.124721654807688,0.0079587200606731,-0.0152704799547489,0.0111589102158678,-0.1029498554861327,0.994506237011978,0.0352250094322565,0.0234785625735824,10.406583048275431,-0.1393295626550778,-0.1827990085013309,1.0871798384426203,-2.6425271767015985,1.2587120958809013,0.369609781330169,1153.481857589679,1176.272208975074,1152.778879034584,1171.0993344342646,-780.755703619706,35.47473878452362,151.7330009528449,-475.43764546353447,164.5238112118442
0.3175,-0.8918922358272185,1.6620106162181836,0.0058079525232536,-0.2442120167903196,0.1297310990360505,0.0096934387299146,-0.0155861538370481,0.0114004403505567,-0.1029477304736408,0.9944988286873157,0.0350947661689508,0.0166550396632078,10.408368764561985,-0.1393881400996745,-0.1825524170167101,1.0885627599206968,-2.642892778549363,1.258414839598608,0.3723599052339772,1151.2915149712999,1176.5244690773286,1153.1521358802693,1169.8799713175806,-1014.4139475402872,152.03751270296365,155.9507753539036,-492.7585687440565,164.51705446210508
0.32,-0.7987104160683551,1.5684918702447403,-0.1794807563230829,-0.2479355756305708,0.135086287464027,0.0107444837807215,-0.0158987745544393,0.0116457287356159,-0.1029483480761203,0.9944909784668142,0.0343886409310056,0.0096144294883115,10.409999814105324,-0.1394502271426358,-0.1823090767212357,1.0899349827688307,-2.6432593133423694,1.2581173913135668,0.3751128184289606,1148.4097878519776,1177.0323965385887,1153.5586329113537,1168.6355415905443,-1047.6198049675522,188.0605364221536,140.97410319754988,-374.2868882151012,164.50886405828703
0.3225,-0.6094811369555012,1.4132213780417135,-0.390616909887658,-0.2520413128371252,0.1385719200753401,0.010551780159731,-0.0162065677204883,0.011890060084715,-0.1029532699986055,0.9944826218898176,0.0332513012905345,0.0024880456601399,10.411466931245236,-0.1395055429908022,-0.1820650375738036,1.0912995585536036,-2.6436265550717524,1.2578211267658397,0.3778683916942374,1146.053415946462,1177.4647717594391,1153.857006396257,1168.008536876505,-874.8637588641022,142.7374729132224,112.49835196467745,-117.5852563126681,164.501978542204
0.325,-0.292081620626082,1.2017901794299983,-0.6140959041595255,-0.2559824533529123,0.1411848504194234,0.0090912696481388,-0.0165050621073372,0.0121287680213028,-0.1029616084318697,0.9944739941662044,0.0318243601837315,-0.0045333197484688,10.412765906198729,-0.1395459286337262,-0.1818103046263024,1.0926617891662496,-2.6439915795020603,1.2575278554729394,0.380625030605785,1144.035469057657,1177.7460839031548,1154.121124671177,1168.0476153089808,-759.9602356431653,74.44912726959949,111.97187489424311,206.1196601165646,164.4950405212905
0.3275,0.1961197180621434,0.9051648510054348,-0.8405382529357515,-0.2578942301022423,0.1437502394930313,0.0057022010050017,-0.0167930739785474,0.0123593327504245,-0.1029684875456377,0.9944656676721062,0.0302157810449091,-0.0113291945229302,10.41389596742203,-0.1395691295255316,-0.1815419697830979,1.0940262446726798,-2.6443521568858914,1.2572385752171806,0.3833808254574428,1142.2536147682463,1177.8370173957871,1154.4168657707282,1169.039135177088,-529.0583407828303,-0.4755723513881089,108.03064230735788,525.5828096381715,164.486665699802
0.33,0.6319172274970566,0.6321661383587182,-0.9630092601562676,-0.2560100200985858,0.1455898385356263,0.0019188424747662,-0.0170688502099242,0.0125711837021829,-0.1029681859537319,0.9944584109393956,0.028700910224659,-0.0177485164762676,10.414858748984608,-0.1395561698976569,-0.1812541676595906,1.0954007331082218,-2.6447074228148195,1.2569528519385607,0.3861364648389963,1141.3901773537427,1177.743706041398,1154.6612778827139,1170.6755293571719,-219.73184795956493,-48.13806342126549,100.90498387021388,800.233295420866,164.4796540707687
0.3325,1.0213727647351971,0.3407341104698518,-1.00199630194418,-0.2515181172887874,0.1468619927462169,-0.0014387295041193,-0.0173298428325275,0.012758610341883,-0.1029572320171022,0.994452711887134,0.0274526722513358,-0.0236337953887829,10.415656365907092,-0.1394980812706065,-0.1809408710831325,1.0967916936327975,-2.6450565711296146,1.2566713793400524,0.3888927360890652,1141.1549555284485,1177.596327078681,1154.9213906900793,1173.0403016541923,11.578914324536516,-42.04279112364016,120.372687719282,1152.1550306450524,164.47261861993653
0.335,1.382236679067716,-0.0196666036342294,-0.9628042583821732,-0.2453523756774516,0.1470723389421088,-0.0043515862070515,-0.0175773794280212,0.012927635683515,-0.1029397956965545,0.99444804675922,0.0264061974413037,-0.0289337938465116,10.416290483556423,-0.1394076704624108,-0.180608592864694,1.0981999604858963,-2.645400977805344,1.2563944404417295,0.391650242865646,1141.4480719253656,1177.5334920857797,1155.2631413213103,1176.4363045103971,170.8187336193076,17.904765530965946,128.9228679512688,1284.4232590352008,164.4641602397905
0.3375,1.588958672389232,-0.321712457494056,-0.8735975011367481,-0.2405859817982914,0.1462299941575522,-0.0062688355271597,-0.0178118703669666,0.0130840114689744,-0.1029208942664869,0.994443823938712,0.0254992119872848,-0.0335814458273057,10.41676338866442,-0.1392961896555319,-0.180261063980662,1.099625752707587,-2.645742611423626,1.2561215710512548,0.394410288432855,1142.0090491965448,1177.6858509063359,1155.5660050298357,1179.4624179493683,248.80982140125505,117.82899882809932,117.80454358113263,1184.012882731439,164.45710699857077
0.34,1.7212020197323654,-0.6226239819065454,-0.7417181667506993,-0.2366631612281234,0.1449846314903143,-0.0078934154864806,-0.018034615018215,0.0132353980165274,-0.1029009189510398,0.9944398896905658,0.0246318611394339,-0.0375390557084662,10.417078681817456,-0.1391791863200013,-0.17990187387202,1.1010671383670507,-2.646083333917292,1.2558517727752379,0.3971736176380579,1142.692121032372,1178.12263707992,1155.852164039216,1182.3563689240543,267.1338167845531,221.937219822348,102.02410397187114,1089.9409516804087,164.45005937851414
0.3425,1.8175164530392152,-0.9241614115807004,-0.5828185830785153,-0.2333825959907121,0.1436740819156307,-0.0093486965334338,-0.0182494888251398,0.0133889177994708,-0.1028836452400655,0.9944357002553688,0.0237167427386626,-0.0408293893973287,10.417242608651337,-0.1390681875978149,-0.1795394702490684,1.102520118764944,-2.646425519349874,1.2555834421249004,0.3999411006426462,1143.3447182804675,1178.7955370054476,1156.076125549695,1184.9121227077703,233.5056281860032,314.81059054731276,59.24624499693886,895.4961250199623,164.44302428300125
0.345,1.8944992654765116,-1.2251665822267244,-0.398201166008586,-0.2303573476563533,0.1420337312473503,-0.0107635355915415,-0.018459678562184,0.0135447972617413,-0.1028705353627751,0.994431052010088,0.0228051962371901,-0.0434574618355957,10.41726596300057,-0.13895956056647,-0.1791771694745629,1.10398171180969,-2.646771562020338,1.2553153780086197,0.4027149576095998,1143.859649173302,1179.6966900326568,1156.1483952642006,1186.833849549154,187.030205175415,425.9916665973829,-23.614421961838136,656.4163636143796,164.43601387519192
0.3475,1.9721148629635223,-1.569488614330052,-0.1574992117637497,-0.2261664503864944,0.138868676581254,-0.0123287662774676,-0.0186716885678333,0.013704507418057,-0.1028635402114072,0.9944256111832136,0.0219256290518438,-0.045512703220258,10.417164425154194,-0.1388511252902384,-0.1788248141402349,1.1054462999002828,-2.647122354523953,1.25504614535805,0.4054975785355031,1144.2798693063448,1180.9254953384343,1155.9580534398858,1188.1942045258422,128.0783350540786,456.0456899841934,-128.04101413412343,324.2368280822572,164.42764217454723
0.35,2.012194811494009,-1.8188627424468011,0.0450038161058684,-0.2216316243391996,0.1347768332688129,-0.0131731332750286,-0.0188858778681156,0.0138680023491313,-0.1028621071687734,0.9944194373838326,0.0211217239709179,-0.0469688314673983,10.416959771558751,-0.1387399998785821,-0.1784771335405984,1.106910126931218,-2.6474767663122094,1.2547753507846635,0.408289647869218,1144.5000408485723,1181.9769184825775,1155.50819019353,1188.4550336895654,80.15244840621645,404.7994672570481,-247.9243429520036,-76.22600294066693,164.4207085347532
0.3524999999999999,2.0009779893410764,-1.996126644897808,0.221679647904716,-0.215945839817655,0.1292672933295897,-0.0127770857644336,-0.0190972520123437,0.0140290483545449,-0.1028628864166744,0.994413064494342,0.0205515211002752,-0.0476912232888216,10.41668087041662,-0.1386129050580577,-0.1781149852949547,1.1083732065728056,-2.647832465726289,1.2545034819775867,0.4110898698784078,1144.680631548376,1182.9494926747195,1154.7184317251258,1187.813074511139,97.51313524861969,388.8772339864812,-422.888168283366,-461.33720948724226,164.41382962943055
0.3549999999999999,1.9056376333155625,-2.097834364375616,0.3652195696896668,-0.2087121880137552,0.1217606116315745,-0.0107572673344261,-0.0193024353010239,0.0141788114615463,-0.1028625826229838,0.9944070269838142,0.0204276331103507,-0.0475890324483594,10.416363039276384,-0.1384519980368211,-0.1777228629291882,1.1098365875950462,-2.6481860978354668,1.2542319654918852,0.4138952116066063,1144.9876065248154,1183.92130465251,1153.3937493521132,1186.1483476421292,144.3649540998193,312.2852353122195,-537.3049862595958,-720.3071473000357,164.40565005679915
0.3574999999999999,1.75749304538457,-2.0861706381340626,0.4069145869225326,-0.2031896692941925,0.1154918575982534,-0.0083472384240748,-0.0195015796414725,0.0143113223779342,-0.1028594495101451,0.9944015921928664,0.0209083275044495,-0.0466659606139539,10.416046664141051,-0.1382461530931236,-0.1772951584467897,1.1113004276912068,-2.6485344807782303,1.2539621238020768,0.4167035400254161,1145.402456318875,1184.5109188512808,1152.0319067938278,1184.2115387746387,209.007546184648,182.7700027507488,-574.8692519282025,-829.6143585871952,164.3989049013613
0.3599999999999999,1.5585768668219395,-1.991882180189856,0.3634993042200674,-0.1987564002783765,0.109999620717308,-0.0061140772056988,-0.0196961305028691,0.0144213470544718,-0.1028555289358686,0.9943965996368376,0.0221365431224504,-0.0449682538182531,10.415776421769364,-0.1379858005649716,-0.1768314460756952,1.1127654568046184,-2.648876037215516,1.2536953895135192,0.4195143075706608,1146.0326442557387,1184.8351546662639,1150.5194030924722,1182.0002758491933,322.0810697925569,84.1215229545923,-664.0104459631397,-965.6946146625603,164.3922437586334
0.3624999999999999,1.3023475574892562,-1.8235171559350452,0.2373395629989213,-0.1946716404790032,0.1047157763060029,-0.0046134191550111,-0.0198887118049585,0.0145144009496397,-0.1028516005685634,0.9943918374481194,0.0240343496588461,-0.0426034424172622,10.415599096646009,-0.1376861770220237,-0.1763370505858757,1.1142297772576737,-2.649210297827792,1.253432750032553,0.4223261927205604,1147.0128616678376,1184.9315264660538,1148.711854564012,1179.383065701326,382.2249557733809,-3.0238477091643263,-633.0221568128758,-908.2524872009792,164.38435924998623
0.3649999999999999,1.107840901177936,-1.6700119924070396,0.1011181716625182,-0.1923206219551504,0.1011637925750833,-0.0046136467088648,-0.0200802870158716,0.0146027686912329,-0.1028448145270123,0.9943874005846944,0.0263799599400708,-0.0396721552597339,10.415563140839103,-0.1373792266146445,-0.1758148997787021,1.1156907621789927,-2.6495360723503247,1.25317426087094,0.4251374449502042,1147.9437690346056,1184.820035427718,1147.3542923084078,1177.4590134131884,369.73474170526936,-65.07460257098495,-482.2549160653575,-674.5132353736601,164.37788801338516
0.3674999999999999,0.9686186218920948,-1.5353201811850627,-0.0301070381726758,-0.190907050300632,0.0980818217832354,-0.0055875978301463,-0.0202741727553856,0.0146949988815795,-0.1028366450936769,0.9943829411050908,0.0290293063996791,-0.0363262919234396,10.4157189403993,-0.1370860241546202,-0.1752735888076198,1.1171465393621458,-2.6498545162864007,1.252918484264384,0.4279486145515363,1148.861535376364,1184.6061534531989,1146.300579983685,1176.0104995244576,343.30858180801414,-87.47635926783907,-356.27208973774,-479.70644862029945,164.37152953283703
0.3699999999999999,0.8922901123464059,-1.4321963823500088,-0.1380863266257402,-0.1899129570176757,0.0952371621758042,-0.0066637474199046,-0.0204728386642597,0.0147983903646947,-0.1028298510720992,0.9943780136057596,0.031856894459265,-0.0327072248286656,10.416117850017432,-0.136823099155769,-0.1747196926619236,1.118595692748058,-2.650168527507567,1.252664296254291,0.4307612485072145,1149.6603119436456,1184.3826536313788,1145.5729318597191,1175.0604811700869,269.62528171216013,-79.49389798563963,-207.2924741651148,-247.68017400742767,164.36527161177023
0.3724999999999999,0.8953770027289065,-1.3756379001064372,-0.2091299733390594,-0.1888734255503006,0.0926395004914036,-0.0068999335343536,-0.0206771704427721,0.0149157862204343,-0.1028305591291457,0.9943719211101414,0.0348170857645919,-0.0289219857087117,10.416811819498719,-0.1365941928674023,-0.1741557577589348,1.1200380426794543,-2.650481293509892,1.2524114021780943,0.4335778126500822,1150.2096617849247,1184.2086839632707,1145.2641176128595,1174.7720986544205,170.94947348000443,-63.48101254461648,-48.568493168931994,24.70696878685883,164.3591431866753
0.375,0.9733726101993152,-1.3586258377314746,-0.2456622467227293,-0.1868909282299239,0.089621885480403,-0.0063570898336366,-0.0208878998432455,0.0150448548633717,-0.1028393552363246,0.994364617864648,0.0379634910368339,-0.0250716261357738,10.4178528130905,-0.1363907264655535,-0.1735811931589369,1.1214742510638622,-2.6507945491525686,1.2521603197880529,0.4364000598372669,1150.5150593110457,1184.0652485686555,1145.3300893938745,1175.1840160140212,56.58478471837038,-52.46701370388104,81.34159839132728,265.09083265109416,164.35194907244238
0.3775,1.0759929947458775,-1.3743145574808675,-0.2225165786908404,-0.1842769245271413,0.0868374455722349,-0.0064891434504258,-0.0211044265892396,0.0151827572269318,-0.1028547042508199,0.9943563139751382,0.0413458556564319,-0.0212348906441102,10.419291719867596,-0.1362015648620366,-0.1729917173514584,1.1229048884788873,-2.6511099824027777,1.2519111401405352,0.4392290821396528,1150.4925857085168,1183.9463488947513,1145.6708256048164,1176.097552817676,-46.93227416414625,-71.71986930466113,172.3768871708215,459.04467359509863,164.34609458044625
0.38,1.1857697334545856,-1.3961706096358346,-0.1161467238839575,-0.1806678923405957,0.083387600293685,-0.0083449253165646,-0.021326462466578,0.0153287443729493,-0.1028724150926674,0.9943474581559534,0.0449581345694881,-0.0175064249179783,10.42117747974281,-0.1360190464629715,-0.1723837128152471,1.1243294744488617,-2.651429235070399,1.2516640565343855,0.4420653605077544,1150.2803979402247,1183.7066492221325,1146.1919738297283,1177.4792393819966,-99.55608026380096,-165.1976583012582,245.16099933539385,679.3888039534517,164.340394461721
0.3825,1.300369087175872,-1.3976169347931116,0.128775444436643,-0.175962060681825,0.0785829981886504,-0.011172289220837,-0.0215520811172039,0.0154828442015405,-0.1028901579537655,0.9943383324477436,0.0487581300309644,-0.0139507592041789,10.423556154727997,-0.1358358979516246,-0.1717509272996594,1.1257479723637418,-2.651753756882953,1.2514198248250699,0.4449092387997826,1149.9948053071976,1183.1203606032448,1146.8966306014931,1179.4944968374432,-76.70406339861977,-280.3444717224463,257.20100869143585,769.3609327970073,164.33374228732183
0.385,1.3763329104806623,-1.3608170556240868,0.4190678546878506,-0.1723130932354326,0.0746066256209788,-0.0124206674122645,-0.0217762823944453,0.0156427134491934,-0.1029039189418628,0.9943294978920436,0.0527313504608188,-0.0105643199377329,10.426469709564795,-0.1356405105498592,-0.17107989771529,1.127162726427238,-2.652082920192544,1.2511791006370463,0.4477596508420615,1149.8968776232318,1182.3049268635202,1147.4779788731855,1181.3260440459817,29.876335977451134,-393.4773079730345,222.24981298913897,731.3610347456681,164.32836212727452
0.3875,1.4378669089357532,-1.275389219131388,0.7497059754339878,-0.1690209975918113,0.0711971138178736,-0.0115560870905075,-0.0219950444150413,0.0158043420078895,-0.102915904899323,0.9943208771609569,0.0568819448906078,-0.0073567281152784,10.429954551816307,-0.1354162621806655,-0.1703612849052253,1.1285774058587477,-2.6524150864443894,1.2509418863283603,0.4506144375201704,1150.144186987085,1181.1529740633798,1148.007879666439,1183.1513020111715,226.1182930783432,-556.9379984939128,221.0903279087686,772.2513004171097,164.32315877244315
0.39,1.5062535098819418,-1.116134991653787,1.1107561920201048,-0.1651660728435687,0.0677288997422266,-0.0081545276002483,-0.0222110057541358,0.0159652646422309,-0.1029297867783543,0.9943120732637444,0.0611828348160493,-0.0044740544772155,10.434040225000064,-0.1351497202150323,-0.1696023655515901,1.1299945276034624,-2.65274947159678,1.2507078446232065,0.4534729292406357,1151.0274690886235,1179.5202368710507,1148.5834305127296,1185.1873005480672,436.8714922374689,-607.7820529709692,205.7984969709649,708.0949285849322,164.31712640556543
0.3925,1.56442007087563,-0.9379312367690056,1.3221587149955163,-0.1618897442872108,0.0652122574101366,-0.0038666107219876,-0.0224248573868713,0.0161213663649607,-0.1029499166029226,0.9943026929964112,0.0656272476500698,-0.0020110322873494,10.438747601796187,-0.1348264589187876,-0.1688068734907999,1.1314191645281533,-2.65308382433099,1.2504771774895032,0.4563330873190584,1152.3285444482724,1178.1140637985247,1149.036872151294,1186.6917766540962,636.1696689618377,-530.3478796316081,184.55825984519817,557.0243854839185,164.31228030565987
0.395,1.6250605601977477,-0.7152770808118132,1.3865565590840905,-0.1584550678862877,0.0630142139382407,0.0011402726680919,-0.0226303759630642,0.0162669853467647,-0.1029779740433132,0.9942928026904883,0.0702219394856944,9.35153256884716e-05,10.4440872048432,-0.1344338855433248,-0.167963006974199,1.1328602268623527,-2.653414229293938,1.2502502336658394,0.4591924853722754,1154.2083174334327,1176.8684974728926,1149.5062218119556,1187.9724224754868,830.9150671840137,-446.7921668081995,197.45516517200468,476.3708891202892,164.30762637444715
0.3975,1.6840327415868623,-0.4595132628577094,1.308170289195633,-0.1547423844803758,0.0610642213709731,0.0063175636716167,-0.0228170598967827,0.0163965555353502,-0.1030097277261252,0.9942831784654284,0.0749651237188157,0.0019997933977778,10.450058542165753,-0.1339652305654396,-0.1670488127701449,1.1343286097136311,-2.653736799690088,1.2500275091265247,0.4620500247949806,1156.4831197841925,1175.880102964484,1150.024147977154,1189.0736310996976,968.8435469443891,-318.14259779112007,227.16285701294487,397.97205264972,164.30313442958783
0.4,1.7320801206877143,-0.1741530366743986,1.0605549339806777,-0.1507017336943274,0.0597984823705026,0.0110520050286126,-0.022974418889734,0.0165082493462722,-0.1030370006521278,0.9942749450050838,0.0797831893977478,0.0038723263805005,10.456650420979164,-0.1334256731883468,-0.166042893852439,1.1358340131158335,-2.65404955411531,1.2498098072883497,0.4649050408801489,1159.0525351681547,1175.277784483937,1150.6420360970203,1189.9622827387354,1141.4361919732064,-176.02698653336103,304.32247306389365,333.4934109890125,164.29884019431472
0.4025,1.7633455740217256,0.1789149100551984,0.6090391380992488,-0.1457758829987063,0.0596997186147744,0.0149509367330883,-0.0231012275114458,0.0166018470820755,-0.1030556892518982,0.9942685639934696,0.0845937121268383,0.0056956721246524,10.463842473028487,-0.1328221966257772,-0.1649463745794568,1.1373819345327167,-2.65435287071136,1.2495968317777468,0.4677585696078208,1162.1903007440585,1174.9999680318172,1151.5457603424732,1190.7410981546427,1118.1885117302943,-37.592481235969856,363.57338179795954,222.98526750314505,164.29391775276184
0.405,1.7566712625463232,0.4604573912097549,0.1564438962562261,-0.1415580998569784,0.0608404180295458,0.0160774464399112,-0.0232069301006679,0.0166816756901479,-0.1030651771208719,0.9942638114691515,0.089250409006944,0.0072390835497231,10.471606854150467,-0.1321691500554199,-0.1637862582341073,1.1389716771932568,-2.6546483971092742,1.2493873727833595,0.4706136104324463,1164.643477726806,1175.0898220777572,1152.45990300601,1191.0772090762512,906.8470217474888,89.05170613293186,402.8243424900662,47.11192630752517,164.2900088114486
0.4075,1.7029614775312023,0.7059290281032516,-0.3015326779670287,-0.1370364740944895,0.0629463694011334,0.0149276023183487,-0.0233046372182792,0.0167549228567307,-0.1030689313168944,0.9942599076948064,0.0935645695382783,0.0082060236043138,10.47990958578208,-0.1314851684259534,-0.1625990647729175,1.1405985592872991,-2.654937838148837,1.2491798561252292,0.4734731945293461,1166.724535852796,1175.4452265624818,1153.5598820549235,1190.9766577861803,798.7423222167757,210.5513927856917,528.0166088115943,-163.34475863391148,164.28630106022547
0.41,1.5736068739840796,0.9436301266278592,-0.7799119224822619,-0.1315530600428724,0.0658799324928163,0.0115696921191883,-0.0234076697839481,0.0168267078996432,-0.1030729020852991,0.99425584504407,0.0974023403519973,0.0083160693451768,10.488711873447956,-0.1307826610899733,-0.1614214248859591,1.1422563471764065,-2.6552233133383654,1.2489735515057074,0.4763400723349943,1168.63718933789,1176.1425790416856,1155.099986050068,1190.2604852830816,594.0118368149336,304.19911366807327,599.573332018735,-360.8506700939412,164.282085243999
0.4125,1.411625386738563,1.0914315352524087,-1.0799644777457256,-0.1273629719140978,0.0683016137959414,0.0079488709378832,-0.0235256315941356,0.0169011029934747,-0.1030772516628025,0.9942513179282652,0.1006607023386723,0.0073812703379657,10.497971229807176,-0.1300729255834099,-0.1602796326503362,1.1439384283723488,-2.6555073207593782,1.2487688123596123,0.4792177682081644,1169.6945950368706,1176.966222130822,1156.5577487150172,1189.1724044357106,315.7284011979752,390.1526449732952,612.5415860829884,-515.2203660634764,164.2787673310635
0.415,1.2039235934969508,1.1876183516362553,-1.2554908536953446,-0.1239153179028271,0.0707878332908218,0.0042612129025825,-0.0236604911358566,0.0169825855291778,-0.103083797351458,0.9942460190288828,0.1032241287279352,0.005386836497966,10.507642270066995,-0.1293683759129473,-0.1591830059064428,1.1456392176933763,-2.655791597648838,1.248567023642975,0.4821078628122921,1170.21583134388,1178.093342266552,1158.162693980483,1187.6843834527642,129.81391977218797,573.8283650763665,723.7336108502022,-702.36812599356,164.2756530027439
0.4174999999999999,0.9241474075689052,1.2417390563962951,-1.3206979474710399,-0.120922705101468,0.0742349347483548,0.0001167052427408,-0.0238064478101015,0.0170778438061133,-0.1030884192920102,0.9942403981006857,0.1049306136641152,0.0024869784938944,10.517677416353415,-0.1286890496311249,-0.1581224131227617,1.1473546910797134,-2.656076055090084,1.2483693617197,0.4850084253190156,1170.3436646357316,1179.835363956204,1160.1764167692684,1185.6605638057429,-6.895025093581423,696.9262167804188,734.3000038215071,-745.6262906990181,164.27215232804457
0.4199999999999999,0.6839580793905213,1.232608548631528,-1.261408209035586,-0.1192736999243686,0.0776618330529107,-0.0032085583721835,-0.0239582798229919,0.0171885382069177,-0.1030862554468978,0.9942350530515928,0.1057370535440796,-0.0011528178903779,10.528026980795326,-0.1280431275363219,-0.1570889047324583,1.1490830605312303,-2.656359390593661,1.248176881396225,0.4879162816475507,1170.181356218412,1181.577973350454,1161.8341939995903,1183.9562519992692,-76.06851191712842,727.380526255228,630.6850041120009,-649.5860951353728,164.26943312545998
0.4224999999999999,0.4555492936880122,1.1670909200723076,-1.0980517584472491,-0.1182128951402058,0.0813707510091029,-0.006573423852114,-0.0241111849432232,0.0173093911971669,-0.1030748096315115,0.9942304458368756,0.1057567639267296,-0.0053485307660907,10.53863819522384,-0.1274221513840371,-0.1560735001594463,1.1508260335412794,-2.656641108278349,1.247990316609167,0.490828317355231,1169.963322076146,1183.47226658748,1163.3298417898284,1182.412633330066,-51.37517931948418,808.9575057816539,587.3979120673533,-617.9379474117007,164.26692068757987
0.4249999999999999,0.2113922819770428,1.0369997331869527,-0.8062458766294404,-0.1173883944858473,0.0853080485532968,-0.0103223713833666,-0.0242632471157836,0.0174354662313746,-0.1030554256933181,0.9942265661959646,0.1051112126666756,-0.0099664209261623,10.549454650985812,-0.1268170368722097,-0.1550745762418925,1.1525862436549148,-2.656920281028995,1.2478093708730058,0.4937420268171476,1169.9244803218144,1185.6227608793624,1164.7711835599273,1180.8665622622107,62.06994983617727,718.8878089713392,451.1503080719645,-510.0477456048334,164.26414637314886
0.4274999999999999,0.0421958990959941,0.9062818355649958,-0.5110550248203277,-0.1170915470747433,0.0876981423849696,-0.012484728700864,-0.0244116535815715,0.0175618793951062,-0.1030313012926139,0.9942232356866458,0.1039283424042265,-0.0148461399771443,10.56041472959954,-0.1262190764267872,-0.1540883194338069,1.1543682517359106,-2.657195490690557,1.2476332285954297,0.4966561904049078,1170.2736718253268,1187.0667056323368,1165.5855933301882,1179.8623946020418,252.44939111348663,457.3858017431117,236.66693284631015,-344.4922975021197,164.26203621335029
0.4299999999999999,-0.0812547522857112,0.7828811676745441,-0.2066955172336294,-0.1172107979308552,0.0891235320210269,-0.0131025488140755,-0.0245511929810034,0.0176837465152902,-0.1030072342613557,0.9942201713184096,0.1023396525842865,-0.0197715926822003,10.571450421468684,-0.1256202773503593,-0.1531048209713137,1.1561784962573178,-2.657465582657061,1.2474609663594765,0.4995697006294659,1171.186727277382,1187.909689888078,1165.9545182241588,1179.1441007747,467.28724702570577,218.8582779054284,79.12095643878267,-242.5268104293534,164.2601371323908
0.4324999999999999,-0.1595945549799748,0.685586651161952,0.0691107171927953,-0.1175579321018346,0.0899814524272626,-0.0125468133243576,-0.024675645004149,0.0177984054980496,-0.1029897400758327,0.9942168984276056,0.1004351616525419,-0.0245076171381741,10.582486758148088,-0.125017934387084,-0.1521114948736765,1.1580235951644744,-2.6577294692586793,1.2472917952187068,0.5024823303118038,1172.610108060455,1188.160997021864,1165.981198112382,1178.649760549895,677.4856493691,-39.94328188036885,-51.75651973536328,-142.15446751518343,164.2584144379334
0.4349999999999999,-0.1757294127796482,0.632919618466364,0.2739453799160926,-0.1182059303508818,0.0905543789381726,-0.0109830176491722,-0.0247841886821997,0.0179056757421268,-0.1029806537889706,0.9942132481955378,0.0982737445496509,-0.0289409389941072,10.593441550318882,-0.124414856194124,-0.1511063601959886,1.1599077762761782,-2.657986442134314,1.2471247423444118,0.505396124712458,1174.5741555242275,1187.709973478676,1165.695735625482,1178.433328437124,938.1316795607736,-329.75106053927414,-161.07214573316907,-19.485188931048448,164.25690621978367
0.4375,-0.1161695528223,0.619818740691111,0.4092370212117499,-0.1191705176843066,0.0914293539023904,-0.0086758708614796,-0.0248807788612242,0.0180103526031759,-0.1029818002039766,0.9942088444664224,0.0958241456256384,-0.0330743634424875,10.604225486962529,-0.1238236031611751,-0.1500982252164848,1.1618317745326447,-2.658237958446914,1.2469589974183035,0.508312756127199,1177.3007664582592,1186.5122417191676,1165.1758373837163,1178.5523346052398,1006.828988347842,-510.4706329005234,-192.1354094571141,120.27826717412596,164.25534680293177
0.44,-0.0004487462309577,0.6372990972254041,0.4246977845605365,-0.1198385196987238,0.0926212616735689,-0.0067055043276589,-0.024970050655546,0.018117220118375,-0.1029943632797496,0.994203361245572,0.0930589199461732,-0.0369329563841528,10.61474254912474,-0.1232556232200789,-0.1490960379914937,1.1637949882858087,-2.65848603116114,1.2467940201579215,0.5112329666080795,1179.6083004659667,1185.1576203141735,1164.7350585781965,1179.0347197729948,858.5686621909181,-559.5724991981565,-151.63270900357003,288.5861222001492,164.2542579557501
0.4425,0.1763321362055039,0.6595842924544633,0.3502571870369309,-0.1200914422608452,0.0944641657928878,-0.0048344259287029,-0.0250570648439969,0.0182268590488447,-0.1030192979317719,0.9941965604780508,0.0900397165193001,-0.0405518234089232,10.624891248630176,-0.1227111519934701,-0.1481076213380754,1.165796456106543,-2.658732491038347,1.2466299220390584,0.5141574723598104,1181.5936097692136,1183.7143792231768,1164.4176738386984,1179.9952652162403,728.6887225867296,-586.5436444697019,-97.67867633286177,542.208622222824,164.25339029672796
0.445,0.4400346025000104,0.6633182329533042,0.1900511517426848,-0.1196408701033652,0.0971923823566523,-0.0032611193506981,-0.0251488325703562,0.018341940304346,-0.1030524436449048,0.9941886452380758,0.0867880690227968,-0.0440258969515631,10.634566557523632,-0.1221945141769578,-0.147143983442171,1.167832579896496,-2.658978780365821,1.2464675659797106,0.5170882708686033,1183.2517440789004,1182.224902091825,1164.246665196532,1181.745762884109,456.26532063515657,-460.3466202406249,-30.17511927600933,736.6470039265542,164.2526079787093
0.4475,0.6831142492031743,0.6334826044899656,0.0329156589691504,-0.1184381621329804,0.099513449532919,-0.0029619831613836,-0.0252519137364774,0.0184653592927462,-0.1030878792729979,0.994180008264884,0.0833151081655013,-0.0474551494318632,10.643661642308023,-0.1217097747732655,-0.1462143439133909,1.169898355535872,-2.6592248006710726,1.2463067829026535,0.5200277444894637,1183.8749363723896,1181.4126461219737,1164.2667982423184,1183.6785002358731,84.69440007170297,-197.25964068143168,28.87264072815012,850.4233830165495,164.25217423541804
0.45,0.9232933469223225,0.5654149351749131,-0.1010012260957453,-0.1161992849665207,0.10156072018042,-0.0038391202595289,-0.0253725470814967,0.0186006801006066,-0.1031242745313592,0.9941705620596683,0.07960685353363,-0.0509465373853853,10.652069607530056,-0.1212606244333464,-0.1453281586823698,1.1719875536723403,-2.659471663896068,1.2461462552113205,0.5229772063329198,1183.6752160792587,1181.2386038884179,1164.391028400173,1185.9978797991917,-253.4582480822789,87.06066075787923,60.03078836693015,1069.6467184694475,164.25197009178248
0.4525,1.178939567445812,0.4495780338366607,-0.1877029109845397,-0.1124125153188215,0.1034158701447355,-0.0058505142565966,-0.0255113309541538,0.0187476252046126,-0.103162003744557,0.9941602567437255,0.0757082727725862,-0.0544920179750155,10.659685164320402,-0.1208422642644453,-0.1444813917723557,1.1740959391791244,-2.6597199152874937,1.2459855779947684,0.5259368324123737,1182.607645131978,1181.847949425763,1164.566952184153,1189.0267338282204,-497.4839840658656,350.8528169225425,57.98506406313204,1115.6381509892517,164.25199442647548
0.455,1.3502807647360056,0.3386978473048432,-0.1787366533202225,-0.1087807275798213,0.1042668375319089,-0.007670904767632,-0.0256681750234747,0.018902244023878,-0.1032031893803188,0.9941489495911274,0.0717298269175796,-0.058072558754976,10.666405873468076,-0.120441005889886,-0.1436685974165817,1.1762205639031296,-2.6599690415930257,1.24582501302079,0.5289058982008898,1181.1877961589296,1182.9928679730303,1164.6809537204883,1191.576070554138,-632.3932370728465,557.7018583732747,32.01901026982338,979.028033857593,164.25224210997166
0.4575,1.4718426320452933,0.2316246623075544,-0.0848309730404782,-0.1050804509678145,0.1043585633062773,-0.0089636411946503,-0.0258374122134762,0.0190607533160554,-0.1032489363942553,0.9941367462355136,0.0677565686845527,-0.06156209996479,10.6721332914218,-0.1200455528230742,-0.142872323381617,1.178360625129064,-2.660217948973901,1.245665949763002,0.5318820165308163,1179.445678946614,1184.6364587176295,1164.727047235502,1193.9218739975083,-714.3132850138948,703.4998357562921,7.396888982020749,870.7170898700942,164.25272958167912
0.46,1.5534869108464242,0.1377859301145621,0.0649412536086177,-0.1011998633676511,0.1039601297174561,-0.0095605973169415,-0.026007775444534,0.0192234964200266,-0.1032940811093026,0.9941244713094356,0.0637668762766096,-0.0647351423866717,10.676773575758128,-0.1196578714304188,-0.1420632506491397,1.18051677932136,-2.660464792802687,1.2455097370810035,0.5348620522187822,1177.61622973386,1186.510367151812,1164.7179381653987,1195.9296560034884,-709.8164251113751,754.1131132586991,-11.084908855218588,685.7847347613637,164.25341884258629
0.4625,1.5933736640399103,0.0613935794844305,0.2527371317658761,-0.097208031712396,0.1035430994366077,-0.009433107175288,-0.0261624541921597,0.0193879014651741,-0.1033287717802969,0.9941136361070022,0.0597816838088879,-0.067249214873602,10.68023819866542,-0.1192764372451971,-0.1411990302370236,1.1826929719208836,-2.6607066376133144,1.2453585009588628,0.5378426634679969,1175.896596821057,1188.4070242839227,1164.671622691226,1197.3507976713151,-680.6331514329935,777.9483558937038,-17.72448623992203,458.4294890324141,164.25435516364237
0.465,1.606105804851047,-0.0224268975486713,0.4767250440368695,-0.092781877713014,0.1036130260859296,-0.0083972338070884,-0.0262935494872961,0.0195523678284036,-0.103347421257646,0.9941050560590832,0.0558099949626191,-0.0689554407732406,10.682443634721025,-0.1188996687846858,-0.1402608567699698,1.184891190775284,-2.660942546828879,1.2452134150106409,0.540823137030326,1174.2130639766951,1190.4001089312803,1164.629315734199,1198.2218034486505,-524.4957842816798,648.0171428341686,-5.567033965280638,174.91522503851215,164.25576928162064
0.4675,1.5977463676486776,-0.0991354651018957,0.6271418198418681,-0.0894095107559602,0.1041955797752357,-0.0064542436725599,-0.0264027661166226,0.0197131273798834,-0.1033499772530689,0.9940987616342892,0.0519177307981217,-0.0699043182868976,10.683312164323665,-0.1185177499019818,-0.1392542816464795,1.1871114747757667,-2.661172236107491,1.2450746899130372,0.543804836752873,1173.2741178996487,1191.6471099980938,1164.6437875213996,1198.225373796508,-257.9575321212358,385.60720602213195,21.522722754798437,-128.48074861963127,164.2571930417483
0.47,1.5772028475751778,-0.1927767422198719,0.7034227144338742,-0.0859971192222944,0.1048884296980109,-0.0035990790265798,-0.0264917790808395,0.0198685907537283,-0.1033368374269574,0.9940946984198428,0.0481182126585728,-0.0701507348192348,10.682773625720577,-0.1181259989818482,-0.1381859759059828,1.1893525933729296,-2.6613966719441358,1.2449418251935431,0.5467902424227195,1172.9232763160887,1192.3281449613912,1164.736929347973,1197.5793997055523,-15.4732073784089,156.67489566776553,59.62138101726845,-379.377430582144,164.25887429855436
0.4725,1.538797284102543,-0.3177068936829557,0.6869797954091663,-0.0815316010515381,0.1048192931174028,0.0001746831531565,-0.0265623930451772,0.0200187615681758,-0.1033123984793062,0.9940923650771812,0.0443842818735677,-0.0697537526874049,10.68076719929868,-0.1177223993272497,-0.1370640968909951,1.191611745280284,-2.6616176656114456,1.2448140314053688,0.54978108781399,1173.1967518627566,1192.4304844764326,1164.941894426486,1196.3284866435972,202.71255627408192,-77.91075344503035,88.38799653467494,-484.555848159152,164.2611914292857
0.475,1.4931070960887387,-0.415870370353776,0.5862308338163927,-0.0776526727866667,0.1034690286091936,0.0031505499827922,-0.0266155415326227,0.020166917721468,-0.10328086868557,0.9940912408651538,0.0406139951149446,-0.0687597660183941,10.67724341004196,-0.1173126252218198,-0.1358950602736421,1.1938842469459332,-2.661836267873124,1.2446908283996154,0.5527779606927449,1173.9368390974591,1191.938591194166,1165.1788693306464,1195.1566204647563,369.8387068471672,-297.570215826681,103.97923766618068,-431.5718226772329,164.2633725473844
0.4775,1.4329040723490172,-0.4876806703569238,0.4228287062366722,-0.0739567085533539,0.1012514641539317,0.0049726872724453,-0.0266516547188089,0.0203097909484018,-0.1032462484236806,0.9940909742182212,0.0368415545974014,-0.0671884846092534,10.67216705112042,-0.1168866116338771,-0.1346817417947895,1.196166029608721,-2.6620527115674104,1.2445720769766215,0.5557802402330048,1175.0459453969925,1190.9426333972992,1165.461790614817,1194.170627530211,521.0655454045135,-517.9880534437469,126.5711780084088,-336.49749876313194,164.26581282818748
0.4799999999999999,1.3485213523753132,-0.5367389457893065,0.2078553167299898,-0.0699177476177512,0.0988531998908946,0.0049290566897383,-0.0266710056758134,0.0204405722931719,-0.1032166119363746,0.9940908669937956,0.0331732690255228,-0.0650461515646733,10.665519316023262,-0.1164247669109947,-0.1334256361402754,1.1984527464046655,-2.6622675255617096,1.24445724789896,0.5587872859520564,1176.542166824482,1189.3486509269471,1165.8117252206885,1193.474132970941,534.8564577712805,-619.2449625435138,120.76756225069526,-157.9413647718882,164.26903878945149
0.4824999999999999,1.2733920827158531,-0.5552141589156808,0.0507231052153612,-0.0668083370331296,0.0974438717566112,0.0036322163722221,-0.0266790239905417,0.0205601022469438,-0.1032017646623572,0.9940897444530788,0.0295646934027501,-0.0624645088966698,10.657298564596555,-0.1159240579703463,-0.1321416990695773,1.200735549847534,-2.662482615411607,1.244345440006284,0.5618005434138998,1177.7202276858488,1187.8464085845817,1166.0656284260704,1193.3809207063516,412.2344219632392,-599.5332699326804,80.25997869767701,50.81477595545034,164.2719727232169
0.4849999999999999,1.1998844912239188,-0.5680747456510333,-0.058915861690177,-0.0638606513440953,0.0962759772526503,0.0023021170417052,-0.0266864446158644,0.0206694605950336,-0.103202701978496,0.9940871974673862,0.0259864673038556,-0.0596909443668329,10.647522587335335,-0.1153827769415891,-0.1308550489817205,1.2030031205108749,-2.662699500190226,1.2442359679353079,0.5648233655194153,1178.603338934298,1186.350984577284,1166.2130251141768,1193.728206850718,279.3473211537728,-572.0764238557872,31.79674899547533,180.4420897135968,164.27515768935965
0.4874999999999999,1.132634696504755,-0.589363509300943,-0.1292675872023938,-0.0611673078413108,0.094999690239077,0.0013678407618374,-0.0267022315487274,0.0207665261515685,-0.1032128186889191,0.99408371640784,0.0224836784006605,-0.0569307377262186,10.636230401828314,-0.1147942750903088,-0.1295837265418369,1.2052446172873603,-2.662917820459055,1.2441283966990209,0.5678578782287405,1179.1169642916177,1184.9860264653028,1166.2246121710475,1194.2831311549196,100.79956939316608,-489.594484499366,-35.84787883651185,218.5404927106445,164.27854721368456
0.4899999999999999,1.0782575947121136,-0.6346831669305458,-0.1676877770256201,-0.0587632342035545,0.0936236486709765,0.0010295115124917,-0.0267323039079891,0.0208597196483112,-0.1032282166901744,0.9940793664611184,0.0188793153565778,-0.0543481190154711,10.62348095731793,-0.1141789232216718,-0.1283412410606825,1.2074471192275928,-2.663136577473261,1.2440225775649412,0.5709024191442014,1179.107336781264,1183.9030121547871,1166.0337857199943,1194.8209093142711,-125.11604861820148,-386.5247356556207,-134.65749513429716,163.57383430495233,164.2821783594285
0.4924999999999999,1.031639892351652,-0.7329519033699026,-0.2025482153894231,-0.0559457799070321,0.0921020969932799,0.0012405803643649,-0.0267781723034135,0.0209588910480656,-0.1032435228132655,0.9940744543728814,0.0149701790836751,-0.0520191907562645,10.60935320087272,-0.1135640834186498,-0.1271305628418046,1.2095990396367875,-2.663353759446885,1.2439187353070245,0.5739544726362849,1178.4913840485267,1183.0534027870247,1165.5513246953763,1195.1010003264444,-313.8278854061352,-224.03619344527195,-218.7399430233652,3.477884601079492,164.28680769272643
0.4949999999999999,1.0084781525710675,-0.8600794394207283,-0.2364139686442633,-0.0536421284402738,0.0908841645068904,0.0017534215545876,-0.0268366890072007,0.021068540611643,-0.1032501491574127,0.9940698587431738,0.0106732512972675,-0.0499129014302654,10.593945272265564,-0.1129684292586531,-0.1259417399678554,1.2116923529490653,-2.6635651006916987,1.2438167909829845,0.5770117858530336,1177.5381973542333,1182.7828311875608,1164.9400860048775,1194.8382987372768,-446.76200571057007,-9.898409368997807,-286.77644280469366,-228.82354383400505,164.29088609191896
0.4974999999999999,0.9994507892692002,-1.0360621018723712,-0.278247830124954,-0.0513759819233119,0.0893584437473646,0.002235092055836,-0.0269057221570285,0.0211872191528853,-0.1032410330931237,0.9940663986309278,0.0060492638843371,-0.048008607505204,10.577372331980754,-0.1123978853792106,-0.1247664287752257,1.21372156662849,-2.6637673294104465,1.243716448424386,0.5800733110147487,1176.2575740199738,1183.0039107401797,1164.1174424813528,1193.9568826072743,-601.2493334650111,208.54815805128035,-412.4664103660504,-518.1371589055739,164.2951855590488
0.5,0.9998616772633429,-1.291277569997486,-0.3186994445330956,-0.0487473241276687,0.0866165775055742,0.0020531294696199,-0.0269843400592166,0.0213117583327973,-0.1032111017323069,0.9940646926122496,0.0012139455249172,-0.0463088394326881,10.559763364134298,-0.1118549472449226,-0.1235995358684711,1.2156826045759748,-2.663958123195496,1.2436177669994808,0.5831394711741841,1174.5319506869082,1183.8255719778172,1162.8777539530472,1192.247612942749,-634.5134590887408,383.4021689217433,-500.46583734724067,-703.8519534486029,164.30059031113151
0.5025,1.0036832153624482,-1.52300040332119,-0.3186550760331489,-0.0466133247806154,0.0832677025470642,0.0007155212171119,-0.027074993436824,0.0214364627509463,-0.1031623805829228,0.994064585008238,-0.0036440341627181,-0.0448815708541688,10.541258100922004,-0.1113341570211999,-0.1224452396007528,1.217572500390572,-2.664138611278211,1.243520706931506,0.5862106423062313,1173.08500672453,1184.9209215847884,1161.6151132946163,1190.4376228400313,-547.6304334347328,499.2293002456786,-557.791551776972,-749.3409420067104,164.30529066779923
0.505,1.0004409934297083,-1.7497182821607167,-0.2531511921953333,-0.0444835235146817,0.0788892659957524,-0.0017844588908669,-0.0271783106549587,0.0215542892671273,-0.1031014351637918,0.9940655294854928,-0.0082998089073674,-0.0437534837408963,10.522003402383795,-0.1108255863852705,-0.1213041785629421,1.2193903223551863,-2.664310303061918,1.2434252835906727,0.5892865674749362,1171.7937985197343,1186.3217184790456,1160.0887961941623,1188.5009082327151,-503.9126207634122,645.0556141732699,-732.2433151498436,-812.7059728891246,164.31018448998444
0.5075,0.9707433287634188,-1.9923129251748624,-0.0887568098201398,-0.0416913440290959,0.0730832703765583,-0.0046640732846677,-0.0272892332244465,0.0216588672110351,-0.1030353682872485,0.9940670659995304,-0.0125437310182423,-0.0428342736092363,10.502149137480664,-0.1103204265296239,-0.1201638140678691,1.2211375714875263,-2.664475683196428,1.2433315039581785,0.5923665042113768,1170.565443620713,1188.1461996556548,1157.953896718867,1186.3740929755857,-386.43708995887175,654.9872844209852,-824.2641762440591,-704.1561624317176,164.31626823301903
0.51,0.9096537164780564,-2.15855633646639,0.1002441716024838,-0.039057472243359,0.0679781063475572,-0.0055246141791579,-0.0274028742517279,0.0217484394165092,-0.1029714838159331,0.9940686106841886,-0.0162546423775087,-0.0420477677859427,10.48184357165478,-0.1098184321523904,-0.1190136292355934,1.2228159322132053,-2.664637406196623,1.2432405179997672,0.5954497182807081,1169.86161306994,1189.5966549011505,1155.967475312942,1184.9801274205568,-216.278588442724,516.394995057328,-813.2247125825132,-446.20737722253614,164.3215048121156
0.5124999999999998,0.7962121222438138,-2.2787396637283734,0.29625731482941,-0.03621474401098,0.062425889069326,-0.0041313444890474,-0.0275097969048942,0.0218223727032628,-0.1029125072020037,0.994070156510088,-0.0193385237107749,-0.0412260701754653,10.46123020269568,-0.1093210871820054,-0.1178319963402311,1.2244290896191177,-2.6647963666644534,1.2431539455475906,0.5985359186882007,1169.4840506784994,1190.728174630941,1153.8877731559548,1184.143056089473,-107.83389386397164,364.6848056415816,-819.6636992523955,-234.6204985584334,164.32690354456508
0.515,0.6356686170827535,-2.356887071615551,0.4620827677874983,-0.033594278854924,0.0565275800588275,-0.0014943958258174,-0.0276009550975152,0.0218794384204058,-0.1028574591714056,0.9940720848482654,-0.0216878237315857,-0.0402083001922015,10.44044473437306,-0.1088258472979194,-0.1165978839452199,1.2259819336548488,-2.6649532193985057,1.243072872812682,0.6016247720485423,1169.3224436006203,1191.4200789293584,1151.86915681668,1183.8070249277644,-36.72824153695725,137.62029686813537,-752.0197834403908,-23.30122126336389,164.33242850962176
0.5174999999999998,0.4267562339072596,-2.3845263976533295,0.5677785746981575,-0.0316589750317246,0.0505634648971099,0.0015589251663397,-0.0276741216640538,0.0219189509672973,-0.1028079462130797,0.9940743092158584,-0.0232008770007146,-0.0389742956738026,10.419612037038531,-0.1083263027284792,-0.1153077697596963,1.2274787780619791,-2.6651106857895694,1.2429976233853228,0.6047154920871115,1169.3004094708147,1191.416276115282,1150.127674238753,1184.0265499831562,-18.65996167812225,-185.53156572975223,-649.3220302003914,194.0345017960224,164.33809566163268
0.52,0.1462464923262535,-2.366288493929868,0.6292053112196274,-0.0301769157914111,0.0434933527889774,0.0044451963362677,-0.0277295046526309,0.0219472818252007,-0.1027682596303624,0.9940762424601076,-0.0239313167523038,-0.037565990622253,10.398842569580134,-0.1078296408733723,-0.1139663633946016,1.2289225634362975,-2.665271922721581,1.2429273602332036,0.6078074026920647,1169.2291437922297,1190.4924211007096,1148.622546665678,1184.7771974367447,-66.46949364658207,-491.29656468089667,-422.65584178926434,325.76844272853094,164.34504754260325
0.5224999999999999,-0.0845759294998642,-2.3171371670483847,0.6485545033739105,-0.0295080635438262,0.0377782333678988,0.0054025911269694,-0.0277690776098796,0.0219695258201461,-0.1027425013360769,0.9940772976897232,-0.0239187413400374,-0.0360553741373848,10.378232484774085,-0.1073376740415084,-0.1125822725458889,1.2303167194983085,-2.665438188123572,1.2428616140610143,0.6108999620106422,1168.9680620025815,1188.9597932918775,1148.0143950298063,1185.6553921967989,-181.5113200816084,-749.7534503534091,-87.72683943629993,364.8313648459404,164.35095720784636
0.525,-0.2699122676837535,-2.246282711629689,0.6652689731047132,-0.0295809492803583,0.0325702964239139,0.0050369729040182,-0.0277959550822725,0.021986861150856,-0.1027269035544411,0.9940777563849282,-0.0231345112610164,-0.0345271230767884,10.357863462087176,-0.1068426282807167,-0.1111645161769832,1.2316655223947244,-2.665607851925879,1.242800868144182,0.6139923873384286,1168.3215871918217,1186.7436538489424,1148.1839124684966,1186.6013542609744,-399.9437246703106,-1087.16741001408,250.9075495962404,392.75994605550255,164.35697612187343
0.5274999999999999,-0.3807958269438443,-2.150892371522137,0.6915052767678797,-0.0312721997884972,0.0267901062042219,0.0050221292584466,-0.0278162596516355,0.0220018847359904,-0.102714918008762,0.9940780734895548,-0.0215935169890032,-0.0331275046354104,10.337801644200653,-0.1063398314698274,-0.1097293073546017,1.2329719765092224,-2.665778955049824,1.2427457101863328,0.6170855424103768,1166.96834337923,1183.5239562418071,1149.2689327777875,1187.6191919270764,-597.0252125983728,-1233.538617083558,521.826274999466,333.22546822050725,164.36431238477684
0.53,-0.3389192725642032,-2.068976918046337,0.7000667311738938,-0.0341120060432892,0.0220449271327479,0.0066149932268963,-0.0278385269335899,0.0220242051987529,-0.1027029528500679,0.9940781728156228,-0.0194743410433772,-0.0320628185361612,10.318097225169955,-0.1058415322061607,-0.108300846262291,1.2342362212243823,-2.6659503907811186,1.2426959248480376,0.6201798471939222,1165.3364611288296,1180.5759607635248,1150.793043843494,1188.2674816020767,-742.2836061987703,-1187.615582482066,689.588130682568,203.3721991789205,164.37051262135097
0.5324999999999999,-0.1298581213588494,-1.9860106782675817,0.658452725996806,-0.037269282233282,0.0172514372826778,0.0096477997305233,-0.0278681670537111,0.022053919757968,-0.1026907456297677,0.9940779276756138,-0.0167908759121252,-0.0314507481346642,10.298788713265214,-0.1053382335984185,-0.1068934265011534,1.2354601647261647,-2.666120933389307,1.242650600785892,0.6232762714052541,1163.2569253482363,1177.5858783293968,1152.7168734312006,1188.6360529229707,-975.5753565008025,-1281.558749706072,863.8645537448148,87.60567839731257,164.37679519876073
0.535,0.2988496919487174,-1.88364433339817,0.5222718585824951,-0.0392595107614771,0.0116853170397562,0.0134352543436671,-0.0279044454024936,0.0220867940430452,-0.1026781910970814,0.9940774647770882,-0.0135027362994232,-0.0312717057859993,10.279903267266093,-0.1048129448618404,-0.1055045384780517,1.236646571541928,-2.666289013765196,1.2426087934122627,0.6263760902861496,1160.4585843463256,1174.1681670149944,1155.112366612218,1188.7055099940635,-1031.9487822152487,-1201.1012374081008,833.799005333639,-44.532664454618455,164.38442294172327
0.5374999999999999,0.7619254652867294,-1.794939640055281,0.3384371096941998,-0.0385471647919851,0.007491755344177,0.0159622161724667,-0.0279413160047625,0.0221165289841627,-0.1026658940270658,0.994077034751185,-0.0095582275768426,-0.0313924313837725,10.261457931691202,-0.1042465641565193,-0.1041174479683789,1.2377982664448879,-2.666454067551376,1.2425696461027471,0.629480265567991,1158.09718143716,1171.5803721423563,1156.8858684578688,1188.4133896006979,-889.5363999239171,-962.3015794924858,599.744388147746,-202.8977806825877,164.3908500014819
0.54,1.2650083351128083,-1.7001340830667897,0.1103041244782152,-0.0355340782573709,0.0038301676795368,0.0172965668078407,-0.0279671974999878,0.0221385768046201,-0.1026498524518359,0.9940774787387407,-0.004966215974071,-0.0315722092459568,10.243460719804323,-0.1036280009510226,-0.1027007335604608,1.2389174111688903,-2.666615232608289,1.242532718203048,0.632589932846066,1156.010902346706,1169.356659117532,1158.1110885529567,1187.6910210906503,-744.3235492727118,-822.1267047794747,365.81557493800534,-371.90638547303894,164.39734820872837
0.5424999999999999,1.748734486392107,-1.594283959410039,-0.118153092761696,-0.031048537940779,0.0003590035997082,0.0173916985865491,-0.0279750236602803,0.0221487405065453,-0.1026330776567847,0.9940787762711591,0.0002501616683971,-0.0316630408079037,10.225912612271836,-0.1029464305638944,-0.1012347549717068,1.2400042724709868,-2.6667733880829623,1.2424975786426655,0.6357062924340982,1154.3755636907963,1167.469738618459,1158.7149463325588,1186.5538576733327,-502.35058734215227,-673.5847230590474,76.407464411568,-565.0213959379921,164.40390511130673
0.545,2.1568936833159023,-1.4609050221622053,-0.2962180922475748,-0.0253181063557266,-0.0033722973199149,0.0160192511990243,-0.0279635064531082,0.0221448075932115,-0.1026153440500314,0.9940810356852195,0.0060332812935468,-0.0316401086213347,10.2088085284706,-0.1021962518217065,-0.0997138017106603,1.2410572403095075,-2.666928831032343,1.2424638262801515,0.6388289796314279,1153.4991494099954,1165.9887355022368,1158.4931258750144,1184.8659141109606,-177.68800154622096,-567.3518881165814,-275.46841108255626,-868.3492559770903,164.4105339035189
0.5474999999999999,2.5114419556327885,-1.2479400769827307,-0.394881198385434,-0.0174883401703486,-0.0081179779747034,0.0131690563628073,-0.0279378512351273,0.0221312507014498,-0.1025926729526297,0.994084420780426,0.0122016654317277,-0.0316250166454513,10.192137495926191,-0.1013884836910253,-0.0981493648455853,1.2420723456549605,-2.6670812427675905,1.2424303972380644,0.6419567790515849,1153.4871236830654,1164.632979177876,1157.337604277146,1182.2121113934472,172.94260049297904,-439.0708068743602,-544.019767569534,-1061.043278230226,164.41857397975758
0.55,2.673178249111022,-1.0168915185326435,-0.3566896286502599,-0.0103242607945307,-0.0117542459315364,0.0105281925666319,-0.0279052355567191,0.022115258559081,-0.1025681626798742,0.9940882474224404,0.018518878188661,-0.0317811822722835,10.175883575055773,-0.1005407228554924,-0.0965601165175795,1.2430455322614065,-2.667230606934905,1.242396990730369,0.6450874198113499,1154.3638624124603,1163.7933814678647,1155.773027037167,1179.5606977198095,516.7527213254284,-293.68951485648694,-706.5186902242197,-1113.4375789260039,164.4253469289312
