t,ang_acc_x,ang_acc_y,ang_acc_z,a_vel_x,a_vel_y,a_vel_z,quat_x,quat_y,quat_z,quat_w,acc_x,acc_y,acc_z,l_vel_x,l_vel_y,l_vel_z,pos_x,pos_y,pos_z,mot_1,mot_2,mot_3,mot_4,dmot_1,dmot_2,dmot_3,dmot_4,vbat
3.4225,0.1743770042014541,-0.2802713444237929,1.0103534241314975,0.0297998911477621,0.0026831410550472,0.0024977771546167,0.00401739356686,-0.0066801873368833,-0.9952441995278593,-0.0970975927423612,-0.0886322964554007,-0.0031008881722628,9.707456062416947,0.019307674909987,0.0008001976094246,-0.0073728469182838,3.66767963319512,4.862825553169532,1.188522862292417,1115.4678303795406,1111.114628619122,1128.5389224304395,1126.18573463557,176.75168762906367,554.9836319275153,-648.2125687532533,-486.5177182322567,150.75959889697188
3.425,-0.0847324234118888,-0.4378457659625597,0.7812049579854937,0.0290776995084597,0.0014314046089545,0.0052784797213125,0.0040146739825405,-0.0067044513340817,-0.9952438235664908,-0.0970998435510883,-0.0881119723211279,-0.0026004972520561,9.708441630568304,0.0191328105803674,0.000614734512156,-0.0076570010206156,3.667631525910176,4.862833785721003,1.188495112710109,1115.9837819752363,1112.5963752352554,1127.1962866805452,1125.1044190801674,230.057137271372,607.1526105579824,-429.4215581782447,-385.529008801242,150.75978308773358
3.4275,-0.3192994565302662,-0.5331873829658491,0.5018518680507221,0.0281543117389273,6.16833284150575e-05,0.0080281754906392,0.0040097142454153,-0.0067313645089398,-0.99524292294111,-0.0971073964294452,-0.0876238595171841,-0.0021025959442123,9.709666636012145,0.0189582014180363,0.000431293891959,-0.0079214462463401,3.667583166222167,4.862840280182888,1.1884674255941707,1116.6181160658975,1114.1503916719123,1126.391814639548,1124.2580895915637,284.8515852410007,614.3020977646432,-195.76961081657336,-284.4352402046358,150.75994677672142
3.43,-0.5263558354811466,-0.5473991600330985,0.1843581989329743,0.0271633062833973,-0.0015116139080288,0.0100260535976816,0.0040062231764959,-0.0067559256155894,-0.9952414387896648,-0.0971210559936884,-0.0872334608873752,-0.0017166853709808,9.711093932387753,0.0187832396492348,0.0002478660419622,-0.0081655882944174,3.667534834051166,4.862845958323648,1.1884401183078823,1117.4080399014415,1115.6678857240784,1126.2174386264624,1123.6822428791443,388.0151662220297,626.221142897443,42.150205043390976,-197.68732970706387,150.76008613311822
3.4325,-0.7492668754014145,-0.4676648753893306,-0.1887420669557756,0.0255479280539885,-0.003699870775802,0.0099824981304553,0.0040029521860051,-0.0067770807799197,-0.995239608492117,-0.0971385088670097,-0.0869176326334835,-0.0014632664548073,9.71268646085968,0.0186074818877344,6.254376751102987e-05,-0.0083901491896992,3.667486315542968,4.8628513931373964,1.1884131399846232,1118.5581918970076,1117.2814973863995,1126.602565664765,1123.2696529430284,455.54649529941406,536.5813460076084,211.88995257553407,-109.43389705066924,150.7602264165834
3.435,-0.9167660329676812,-0.3244988032806599,-0.4468405823658352,0.0237213217188547,-0.0056330652413333,0.0075703677733899,0.0039986008206259,-0.0067962185393825,-0.9952376498602872,-0.0971574765360182,-0.0866566555309513,-0.0013130220755409,9.714408395146044,0.0184307739044487,-0.0001261658035671,-0.0085968350100895,3.6674381118159185,4.86285671069816,1.1883863118798923,1119.6857723779383,1118.3507924541163,1127.27688838934,1123.1350733938907,477.42893819960153,356.2749668581167,307.4679919293041,-11.60542652492065,150.7603222225945
3.4375,-1.0661781810848123,-0.1193741923038921,-0.6092077978186303,0.0215826636874182,-0.0070392818857281,0.0040684288259345,0.0039962449156926,-0.0068104459363218,-0.9952354735823258,-0.0971789271917442,-0.0865073162558779,-0.0013262943509178,9.716226851895396,0.0182533612471294,-0.0003190033912287,-0.0087880656022293,3.667390829250615,4.862862380015881,1.1883603308579835,1120.9453365880056,1119.06287222069,1128.1399056244115,1123.2116258104038,560.6998069007324,231.9151050639497,388.5319048147804,87.5725430000803,150.76039833060227
3.44,-1.2213989433440366,0.1587323920225975,-0.6865727297214763,0.0187551755360821,-0.0069517877062976,0.0003477589041085,0.0039984660343436,-0.006819257046718,-0.9952330462665504,-0.0972031112098393,-0.0865216977002208,-0.0015145333184347,9.71811451921644,0.0180758023750546,-0.0005161939527286,-0.0089669633857176,3.6673449110318894,4.862868892985489,1.1883359805271558,1122.489271412442,1119.5103679794363,1129.2195479134139,1123.572936108891,546.4013154613556,108.56007367783836,386.1056872922828,182.98858422086076,150.76047017320968
3.4425,-1.3239984238246527,0.3821788178235064,-0.674512616522704,0.0161158377832402,-0.005219921945305,-0.0017627813139339,0.0040077770527575,-0.0068223976669112,-0.9952307022013048,-0.0972265092508931,-0.0867516143884841,-0.0018822264009418,9.720051192565277,0.0178988751331106,-0.0007175734440129,-0.0091370834859486,3.6673011513032714,4.862877126447684,1.1883132619585752,1123.6773431653123,1119.6056725890792,1130.070434060873,1124.126568731508,421.6331633812103,3.187382950090763,321.81276012627325,277.55321142374606,150.76051668477277
3.445,-1.3844852979099356,0.5649280968946496,-0.6252202148722628,0.0131123110007079,-0.0027468773322493,-0.0024910720146947,0.0040241296543555,-0.006821031706352,-0.995228979764086,-0.0972435295547526,-0.0872025315571857,-0.0024005264982767,9.722025286641278,0.0177233627154071,-0.000922712088796,-0.0093021825956132,3.6672599548537663,4.862887101020396,1.1882919084820422,1124.5974372293483,1119.5263048941868,1130.828611714045,1124.96070216601,310.65033177426534,-49.193352731341605,316.1081187842015,426.3395905533511,150.76055322131288
3.4475,-1.3853402715345395,0.7253190007720965,-0.5683249020520813,0.0088593656283818,-5.895172204456678e-05,-0.0023142747275825,0.0040471902616641,-0.0068176827870576,-0.9952282732174358,-0.0972499820848724,-0.0878771920979879,-0.0030138964354226,9.724033433179342,0.0175498654024379,-0.0011310208997453,-0.0094658358721025,3.667220898621719,4.862898448123604,1.1882715508236084,1125.2305948241835,1119.3597058254225,1131.650974654794,1126.2582666842748,140.92202743259196,-59.65673742116578,295.24849834579703,512.8437508484803,150.7605896938556
3.45,-1.3094211853913944,0.8153777285099598,-0.538871319497772,0.0047321230413585,0.0018131651713414,-0.0020693282551054,0.0040764723745989,-0.0068122363213769,-0.995228578434126,-0.0972459440149936,-0.0887701999446735,-0.0037187259798218,9.726080624590248,0.0173785797066773,-0.0013417980465358,-0.0096312155593486,3.667182739496196,4.86291086606248,1.1882509840479134,1125.3020473665113,1119.2280212070807,1132.3048542057743,1127.5249209202525,-63.81470493779624,-44.73950372471431,264.69098668476926,521.5605439544672,150.76061614898663
3.4525,-1.1432090619934214,0.8728500661806209,-0.5208229826897466,0.0007999435476059,0.0035350990018638,-0.0024130104349767,0.0041098971470458,-0.0068066741819021,-0.9952298767865978,-0.0972315651703426,-0.0898488555581621,-0.0044681923779906,9.728179289036701,0.0172091564708595,-0.0015546206320904,-0.0098009816396794,3.6671442792333178,4.862923915586446,1.1882301819707723,1124.9115212994948,1119.1360083067989,1132.9744295882178,1128.8660694040473,-218.25233150926132,-31.901098992694408,272.3825417739648,526.6341005162416,150.76064004502967
3.455,-0.9060378409867877,0.911469361796341,-0.4907116766354726,-0.0023148125869543,0.0051775134326412,-0.0035391126277818,0.0041463923372572,-0.0068028350858691,-0.995231894501646,-0.0972095832126964,-0.0910986909698387,-0.005221217041667,9.730347458941969,0.017040799490994,-0.0017692691476768,-0.0099771465527362,3.6671044584119334,4.862937227437001,1.1882098522815,1124.2107857089647,1119.0685157121175,1133.666766914644,1130.1580914228336,-326.64762821660366,-28.47007138179894,272.84701431981955,476.06668159920554,150.76066213740026
3.4575,-0.6005942950563643,0.9312834264868776,-0.4125498978098132,-0.0045783799613987,0.006798977543899,-0.0056520045588242,0.0041823517204551,-0.0068036405630804,-0.995234240731226,-0.0971839667943627,-0.0924568746666881,-0.0059117466297466,9.732608107025086,0.0168723931983549,-0.0019857634155222,-0.0101611020968192,3.667062888058392,4.8629496563535755,1.188189716310748,1123.2782831584116,1118.99365794989,1134.338664659817,1131.2464028120432,-422.6755268563556,-46.966241259634536,261.1181390659623,397.2013621326908,150.760681441385
3.46,-0.1883394736951721,0.9280351603277202,-0.2307789061171384,-0.0064399400100677,0.0092790310721605,-0.0087813171436689,0.0042154174113269,-0.0068064865674148,-0.9952362749507816,-0.0971615482255692,-0.093872569868538,-0.0065843850223764,9.734986739507677,0.0167028431539477,-0.0022039947487937,-0.0103534312637591,3.6670203960388688,4.862960943209566,1.1881693766442083,1122.0974080746832,1118.8336845058193,1134.9723576099739,1132.144098233497,-416.0291144659912,-78.42028514628677,172.12411825972052,241.77628770562993,150.7606993189706
3.4625,0.1612557183400503,0.8938094524485428,-0.0026037972136616,-0.006921269999547,0.0118319038118139,-0.0108924335833912,0.0042475126801645,-0.0068097673041598,-0.9952378114937084,-0.0971442315430586,-0.0953782663969068,-0.0072719543130998,9.737507503234962,0.016531348577055,-0.002423862601918,-0.0105536932018489,3.6669782139223495,4.862972227363262,1.1881489376867531,1121.1981375860819,1118.6015565241585,1135.1992852511155,1132.4552842505711,-318.35604118428586,-117.88712449515766,-11.871249982960103,22.628115308316893,150.76070739009907
3.465,0.470511032325483,0.8179956876431886,0.2788457428863401,-0.0057162551259298,0.0143968378301782,-0.0111567495887356,0.0042806388190979,-0.0068137968203524,-0.995238889545687,-0.0971314926358162,-0.0970099813215034,-0.0079702323473459,9.740192259737517,0.016357422572996,-0.0026450503293976,-0.0107605039728863,3.666937313352928,4.862984561670042,1.1881281344126684,1120.5056278687618,1118.2442488833435,1134.913001360059,1132.2572388100386,-243.41666155508568,-180.77408115290072,-278.48756094020183,-197.14406135816293,150.76070443551325
3.4675,0.741199042791897,0.6780827303233457,0.6225117957354515,-0.0025820763658828,0.0171032760699029,-0.0089292429048942,0.0043124300328199,-0.0068204268488337,-0.9952395258158984,-0.0971231279811722,-0.0987202110456108,-0.0086375315655676,9.743060042264439,0.0161807783156952,-0.0028669407780721,-0.0109716514696478,3.6668977753122567,4.862998024446574,1.188105798115468,1119.9810542783064,1117.697686118394,1133.8068474464144,1131.4695639437805,-140.4199754731413,-208.24517362537748,-538.8477323088955,-358.7495122783124,150.76068286176633
3.47,0.854978285437742,0.5270420705774193,0.8744964013476769,0.0007018839730711,0.0189567964057689,-0.0056180807615221,0.0043427122110653,-0.0068293457220378,-0.9952398093126088,-0.0971182564572696,-0.1004981120001977,-0.0092785169717551,9.746123416283309,0.0160013571783041,-0.0030886624142088,-0.0111839843477171,3.6668600230733626,4.863012631717379,1.188081254525737,1119.803527991396,1117.2030230152163,1132.2187626985144,1130.4634912486467,-24.320480963115703,-185.59662070670524,-752.3883736353287,-430.763806036348,150.76064625964943
3.4725,0.8404907093004464,0.3550091935210972,1.0635622908245013,0.0039190869843956,0.0201879453676554,-0.002086310991805,0.0043744460872272,-0.0068362393684717,-0.9952399417580264,-0.0971149878074203,-0.1023844060488736,-0.009981418005848,9.749386768862594,0.0158192126178891,-0.0033091950263876,-0.011393614333662,3.666824156502969,4.863028990870302,1.1880536135403712,1119.8594518734908,1116.7697030148604,1130.0449055782378,1129.3157449135988,64.1741998040302,-153.02768066203825,-1033.248218304174,-470.8924728546763,150.7605866213778
3.475,0.6876355187654057,0.1476432261370049,1.2147865481427655,0.0070164788820126,0.0207983768838165,0.0013880962209402,0.0044075123345185,-0.0068405772945084,-0.995240088001744,-0.0971116774496407,-0.1043654857606313,-0.0107551468826056,9.752846519338505,0.0156342468879845,-0.0035277115901489,-0.0115963653506905,3.6667895094158687,4.8630473063816835,1.188022687578182,1120.1243989904162,1116.4378846119064,1127.0525216069937,1128.1090288843736,118.67126829361293,-79.05433811684075,-1102.3790043601143,-363.67979376760417,150.76048488079084
3.4775,0.4701976972944915,-0.0081416137375887,1.2852694559269644,0.0085543511158867,0.0206187576844161,0.0033615487688099,0.0044411779826498,-0.0068433861812719,-0.9952403755848525,-0.0971069920466571,-0.1064169525961893,-0.0115765720459777,9.756490030789408,0.015446157427477,-0.0037437634635993,-0.0117880958518034,3.6667556712301392,4.8630671829305845,1.1879896828396683,1120.4528082149588,1116.3744313242762,1124.5330105564371,1127.4973459447608,142.28559510516183,21.24926150154397,-936.4672061249366,-113.41377593398887,150.76037286680065
3.48,0.1935815514878007,-0.1288550238407759,1.3001841756105907,0.0087960429724712,0.019928758713832,0.0052429795471926,0.0044732903034416,-0.006845329354965,-0.995240607093078,-0.0971030212318698,-0.108484065325676,-0.0124264344997361,9.760296164177324,0.0152544069003763,-0.0039573517390772,-0.0119650639058139,3.6667221335824576,4.863087735623713,1.1879553961442664,1120.835826965942,1116.544130919414,1122.370185576369,1127.5419600047037,157.37193100135636,99.98088973943808,-753.5372779286877,147.96474211675874,150.76023069523632
3.4825,-0.1086321604869586,-0.2128241482338443,1.2568435604493375,0.0084449785537636,0.0189545493883556,0.008133649862583,0.0045051297367052,-0.0068464627022874,-0.9952407729182152,-0.0970998033878979,-0.1105758318704899,-0.0133012040786002,9.7642341502517,0.015058326885175,-0.0041691839762537,-0.0121239746355663,3.6666883362423546,4.863108350381328,1.1879207403058507,1121.2396678699656,1116.8743357729732,1120.765324166794,1128.2371696553444,166.31823113130295,156.0128215840483,-461.54235761192547,435.3102471630884,150.76006254496332
3.485,-0.4207920477840828,-0.2514525763285077,1.1185507620321096,0.0078174609974463,0.017819900954652,0.0122328772165648,0.0045322100549605,-0.0068473731472479,-0.9952409561668976,-0.0970966379868315,-0.1125884160444225,-0.0141731996531848,9.768267840888738,0.0148569973871049,-0.0043806607157262,-0.0122623101084203,3.666653476137949,4.863128488028148,1.1878856500629675,1121.6674181215983,1117.3241950273343,1120.0624737883095,1129.718511240519,198.42819282233475,204.11610243412252,-73.52067206797486,800.7622634839578,150.75986242330976
3.4875,-0.7838592929668242,-0.2551463551532733,0.8233200453032671,0.0063020699879508,0.0166791631439205,0.0169246195064087,0.0045485509120934,-0.0068490664107978,-0.995241065389802,-0.0970946599717916,-0.1143878159716798,-0.0150010741537416,9.772355742978736,0.0146495338424246,-0.0045936498340231,-0.0123782170748582,3.6666174072674256,4.863147264797011,1.1878494664414003,1122.2318088340771,1117.894916285144,1120.397720806454,1132.2409809727646,218.514978225752,200.70623160566817,314.5073057600045,1004.9924013825832,150.7595850050654
3.49,-1.0585485294661698,-0.236255207986323,0.475329564842096,0.0041377224321228,0.0162303144520789,0.0197067822041854,0.0045510706120219,-0.0068526578664379,-0.9952410058837546,-0.0970949118731921,-0.1158950928581348,-0.0157434166895975,9.776451220564688,0.0144353878963382,-0.0048102769161484,-0.0124704509652041,3.6665810014426783,4.863164313328957,1.1878120013674305,1122.7599930127271,1118.3277261853627,1121.6350103171096,1134.7434732474323,220.24304165602655,153.4638815416234,662.4598271674272,1016.563808918612,150.75932274122556
3.4925,-1.2810050713157164,-0.2125023378589694,0.0515755915394467,0.001306606363525,0.0160614570429903,0.0210547760777943,0.0045416070013265,-0.0068596222217767,-0.9952407681474102,-0.0970973178122996,-0.1171267597452333,-0.0163575257648787,9.780503675921752,0.014214531772872,-0.0050326341466599,-0.0125384432963764,3.666545662823778,4.863180091740124,1.1877743123488755,1123.3330240423575,1118.662235692852,1123.7100199422912,1137.3238000173576,244.78230690811483,120.57520024582377,1047.2929150960904,1070.304330128306,150.7590283605575
3.495,-1.4606042811824,-0.1939951890742973,-0.4889854423279514,-0.0027572126899523,0.015723297922398,0.0209824006332819,0.0045270196059353,-0.0068688164791703,-0.9952405192837022,-0.0970999327740164,-0.1181918096292883,-0.0168577767230186,9.784460891896511,0.0139874324768436,-0.0052624389968735,-0.0125824173592507,3.666512406891417,4.863195623687909,1.1877374945596095,1123.983904547268,1118.9306021865918,1126.87147489259,1140.0949948980735,209.8951013077157,78.37033958094419,1219.141334355871,908.5871511623475,150.75863835800516
3.4975,-1.5185952835765664,-0.1943741320592785,-0.9170599897637955,-0.006732267043891,0.0153906522909484,0.0193938841561455,0.0045107220681617,-0.0068774125351271,-0.9952401631436592,-0.0971037785460501,-0.1191287958332075,-0.0172835421788798,9.788274316087817,0.0137547325463874,-0.0055007830531545,-0.0126035561898524,3.666480950551591,4.86321150043696,1.1877016486444287,1124.382499548896,1119.0540873907569,1129.8057266140704,1141.8667357731692,96.39183354611511,34.45818402078731,1171.220545558142,553.7643891137241,150.7582831586557
3.5,-1.463286006848337,-0.2173037141915998,-1.2593326667147051,-0.0110638530239738,0.0151888873597049,0.0159975794392301,0.0044944226524709,-0.0068837803759142,-0.9952397414556224,-0.0971084652346843,-0.1199457762237773,-0.0176460730116505,9.791900273223279,0.013517063681082,-0.0057482835789172,-0.0126037738979427,3.6664507086222144,4.863227695771175,1.1876663090814672,1124.4658637149985,1119.1028931066955,1132.7275776203803,1142.8638168436423,-70.05640217057739,11.489014207427562,1213.3743218720867,244.78262087096093,150.75789729339147
3.5025,-1.2575164575280127,-0.2736150465633352,-1.5061195547059465,-0.016129147762903,0.014740900810985,0.0101663830624664,0.0044807828392288,-0.0068878898503069,-0.9952395835414796,-0.0971105031399507,-0.1206733202505304,-0.0179262979928933,9.795300853413202,0.0132749579535464,-0.006005128087054,-0.0125855183794105,3.666421385662445,4.863244574949877,1.187631204045268,1124.0322175380431,1119.111532461794,1135.8725982234307,1143.090648877524,-260.03355763510274,-1.195350906482443,1052.0371608311275,-64.22537306139156,150.7573998077837
3.505,-0.9758397835731412,-0.3430699453973569,-1.544196183679744,-0.0198181172937048,0.0141163645225252,0.0047851247530695,0.0044752816355837,-0.0068877649948091,-0.9952398556742844,-0.09710807473304,-0.1213941204858127,-0.0181500908769018,9.798445186280953,0.013028874638727,-0.0062708591185363,-0.012551702182604,3.6663927535138545,4.863261973414152,1.1875972738186833,1123.1656959268228,1119.0969163521631,1137.987763424536,1142.5426899783351,-442.1433886114457,-7.674981794252226,709.5070718740748,-329.9610646960677,150.75695738693165
3.5075,-0.6030141746296322,-0.4315834034013599,-1.398927054555546,-0.0221950091905445,0.0134599204915707,-0.0001829217321803,0.0044785989799417,-0.0068845683596078,-0.9952406039969848,-0.0971005791948428,-0.122104445225143,-0.0182757545601507,9.801313200693215,0.0127790041342069,-0.0065445517047897,-0.0125056983717184,3.666364654484588,4.863280170868438,1.187565679392875,1121.8215005949855,1119.0731575528227,1139.420133582801,1141.4408435540436,-590.3247011401219,-9.868879759778126,450.81960885887986,-488.2032884425951,150.75648694218708
3.51,-0.1817209011281677,-0.5304531245044307,-1.114745632907412,-0.0232435431058022,0.0126404716342328,-0.0045102774502259,0.0044884670728211,-0.0068793123619033,-0.9952416645599288,-0.0970897144319036,-0.1227440839276889,-0.0182631691802723,9.80389616713452,0.0125253484049218,-0.0068247217041225,-0.0124510905997231,3.6663367470627786,4.863299674879168,1.187535528149518,1120.214072421122,1119.0475719533645,1140.2418614688306,1140.1016735361222,-655.3616281750832,-9.020118163243943,187.61844792139016,-534.3542992701373,150.755993517448
3.5125,0.260700819288134,-0.6309770729208615,-0.6998574880316092,-0.0230281179584613,0.011143956903052,-0.0077438053805721,0.0045051012260239,-0.0068720731069064,-0.9952428384737528,-0.0970774919272069,-0.1233012886288642,-0.0181000137874501,9.806195158523677,0.0122678998302527,-0.0071094113590233,-0.0123912968526192,3.666309345558695,4.863320908600256,1.1875061600908134,1118.5446924541104,1119.0280569620063,1140.3582258224083,1138.7690720576927,-672.8448215851273,-3.687927035935069,-85.89824022924587,-519.0564621965788,150.7554720975
3.515,0.7682188527090543,-0.7379547460133317,-0.1212959053195931,-0.0216571506381889,0.0087609286489845,-0.0098062692607936,0.0045275742788778,-0.0068624647721705,-0.9952438464630616,-0.0970668366212033,-0.1237433530920219,-0.0177866993330322,9.808222460136674,0.0120066471355062,-0.0073963212262286,-0.0123294961965293,3.666282351854469,4.8633437174783,1.1874766888488495,1116.8498483131966,1119.0291323181848,1139.8123702676844,1137.5063912251392,-518.5515485762263,7.806892128383135,-285.9454110653648,-375.65079230222074,150.75481289999402
3.5175,1.1366552609719704,-0.807709931636058,0.3638451527974936,-0.0195400133499129,0.0068819537921787,-0.009524280750324,0.004554677011106,-0.0068519248848559,-0.9952446477304524,-0.0970581131953749,-0.1240385195987968,-0.0172930166683312,9.810000671837798,0.0117416449837491,-0.007683093761807,-0.0122685239121809,3.6662549919459,4.863367983837682,1.1874472259588793,1115.9519347112291,1119.0670914226484,1138.9284987670815,1136.8908180961819,-208.37526811642863,26.153755830183048,-403.45030261115375,-145.33427215997415,150.75423428860387
3.52,1.4051452774250248,-0.8512270730705204,0.7699662854962926,-0.0161383102448222,0.0052770760613676,-0.0068902058814545,0.004582553721227,-0.0068408429327847,-0.9952453005569822,-0.0970508690432534,-0.124104809944063,-0.0166105811037755,9.811563190556825,0.0114731147318267,-0.0079673224066189,-0.0122109844404626,3.6662271732666394,4.863393545278357,1.187417772552526,1115.8079719726145,1119.1599010973357,1137.7951187546287,1136.7797198643395,129.14916017025735,53.63866787661323,-512.4785646926848,46.228270687653165,150.75362300786205
3.5225,1.5641171849422943,-0.8625523193743916,1.0844478327618348,-0.0103812174524317,0.0032592096468055,-0.0016913054042662,0.0046073754740358,-0.0068293298874976,-0.9952457921279634,-0.0970454045199527,-0.1238642284346989,-0.0157434763421578,9.812952063662333,0.0112017213947415,-0.0082466204725568,-0.0121591901738844,3.6661999668978855,4.863420493442433,1.1873888169880251,1116.5976805120806,1119.3352847620315,1136.366105943618,1137.12195944962,438.54169099091473,72.24743336391992,-508.3004296356757,173.31445965142308,150.75284824969123
3.525,1.5368408017401007,-0.8249586310582553,1.166439262227969,-0.0045278021712656,0.0010741632934713,0.0036182227773636,0.0046277828570323,-0.0068169451571442,-0.9952462150920312,-0.0970408671931578,-0.123290769158135,-0.0147174880882289,9.814215728950336,0.0109287147288571,-0.0085187514420737,-0.0121150908477768,3.666174829647544,4.8634485815908475,1.187360886367273,1118.000680427569,1119.5211382641553,1135.2536166064504,1137.6462921625966,675.3705395439881,79.05140599882712,-403.5717007122088,215.9847194988789,150.75216524980377
3.5275,1.3436665386620072,-0.7214373849322492,1.058031082425435,0.0012293773130009,-0.0018858650747501,0.0087086288178184,0.0046426063472836,-0.0068033130427618,-0.995246746674214,-0.0970355281846736,-0.1223676544587546,-0.0135633210300578,9.815408265460324,0.0106558283769558,-0.0087817621641738,-0.0120802231968161,3.6661516510588648,4.8634779404746205,1.1873337836398257,1119.9745332098005,1119.7305417920256,1134.348247440057,1138.2018830471145,929.7255465866609,99.71103902534433,-329.4098697193709,211.4724045322276,150.7514397075361
3.53,0.9666958966334824,-0.5148782644665395,0.7567546886357007,0.0061145485214412,-0.0055918566111779,0.0127733029759631,0.0046482990389466,-0.0067913953343994,-0.995247228810172,-0.0970309716677499,-0.121043604016698,-0.0122482208462636,9.816588250211105,0.0103851528311974,-0.0090341076699449,-0.0120555797930101,3.66613011850442,4.863507989238966,1.1873070290343717,1122.6493081605026,1120.019693459282,1133.6065672578532,1138.7036541852578,974.1753046698958,121.19596077117512,-203.4324963410517,142.74713708890832,150.7505160973872
3.5325,0.5911607959384397,-0.2889291199147196,0.4242533959656535,0.0075397778438065,-0.0078305995540379,0.0136731352630462,0.0046421811617862,-0.0067858716056145,-0.9952474877021292,-0.0970287899556569,-0.1192935955577092,-0.0107118165125688,9.817815650444553,0.0101190114150178,-0.0092747683874591,-0.0120414895333086,3.666110285611547,4.8635379062542015,1.1872805052856574,1124.8454097331503,1120.3365215958815,1133.3310849583515,1138.915618732559,808.8124544100255,160.8191813312749,-31.074758981549827,47.36236135877435,150.74970006448856
3.535,0.2297268571266833,-0.0486845957091599,0.0854068307643003,0.0066537584936843,-0.0082730912866774,0.012271345440838,0.0046240147470125,-0.0067901516242166,-0.9952473785951562,-0.0970302618216491,-0.1171439563580709,-0.008926254190027,9.819149473506112,0.0098598302069735,-0.0095031770079543,-0.0120376042414494,3.6660926902701214,4.863567080540672,1.1872548174211484,1126.6933704325527,1120.8237893659384,1133.4511934629456,1138.9404659920517,646.9031061629404,238.83420275779423,114.65360306279096,-4.1571317820854325,150.74883389372349
3.5375,-0.0753403957321684,0.1632654352591995,-0.2151557755417961,0.0049168072182621,-0.007203881289763,0.0099349624843601,0.0045959252223862,-0.0068033995890108,-0.9952467748743496,-0.0970366719395942,-0.1146648596741971,-0.006953065888907,9.820646118195892,0.0096099275326551,-0.0097190531474514,-0.0120429015585066,3.6660772102803634,4.863595895784589,1.1872297102905438,1128.0799252639647,1121.5306926096705,1133.9043529736657,1138.8948330736487,423.0987095021737,349.56731771277026,255.33273580090824,-8.380477460241488,150.7479251143261
3.54,-0.2867049876710677,0.299157632407086,-0.4483491884299628,0.0031014345898439,-0.0050821137736172,0.0076387357173571,0.0045657211919334,-0.0068230633256028,-0.9952457497754916,-0.0970471035357645,-0.1120395881853235,-0.0048981954039953,9.82235600077168,0.0093713224844726,-0.0099224048419539,-0.0120555003314072,3.666063411492024,4.86362527590163,1.1872045635415835,1128.8088639800635,1122.5716259545022,1134.72785714195,1138.8985636047505,171.3332134285374,537.6219758810408,429.5522185035316,44.65430635268699,150.74696428936454
3.5425,-0.430257401015617,0.3452729865985949,-0.6580062007955231,0.0013197778429571,-0.002549614502715,0.0055557157393863,0.0045409970595898,-0.0068476868554321,-0.9952445658822204,-0.0970586278799416,-0.1094537835641131,-0.0028445625726529,9.824323685568746,0.009145415557935,-0.0101135872299453,-0.0120726733677143,3.6660506348589785,4.863655532853511,1.187178780937016,1128.9365913311076,1124.2188024890756,1136.052114066183,1139.118104605412,-58.161887072266246,657.9265399606041,520.9660818051927,132.81477263854242,150.74575101740163
3.545,-0.4706991426889675,0.285214175769304,-0.7931854984222944,0.0001764209506539,-0.0009340310424585,0.0044552292116207,0.004524546584836,-0.0068698588328172,-0.9952432670170042,-0.0970711738824668,-0.1069910646447178,-0.0009812609735418,9.826588771452176,0.0089328711365225,-0.0102931042482213,-0.0120911281611104,3.6660378454751017,4.863686090843043,1.18715109841425,1128.518054544702,1125.8612586543052,1137.332687550976,1139.5626374679432,-240.40890096708208,683.1465171191358,518.3598395358896,241.80380377184125,150.7446901788505
3.5475,-0.4494916888686684,0.1398495750636205,-0.9081077677097172,-0.0007956865186107,-3.717027839001812e-05,0.0035192586689123,0.0045160778233343,-0.0068857259168772,-0.995241792451101,-0.0970856282429483,-0.1046836040943498,0.0005809815988815,9.829182796428112,0.0087336810896074,-0.0104618981856295,-0.0121069566538347,3.666023897612452,4.863716740604386,1.1871206281143587,1127.7345468262722,1127.6345350746712,1138.6439132638627,1140.3271236242713,-383.79290077257014,764.3959673932324,546.7905170571697,408.49344574168725,150.74357877824073
3.55,-0.3760415279132615,-0.1004120340523082,-1.028719859777859,-0.0020122090955593,0.0001564710893338,0.0017395524530003,0.0045156298695145,-0.0068907289530302,-0.9952402060706332,-0.09710164199828,-0.1025696919553119,0.0017216274913647,9.832127669354115,0.0085473597960744,-0.0106212380683213,-0.0121160086246579,3.6660090556281775,4.863747669224193,1.1870874304881185,1126.5990900408392,1129.6832384912716,1140.066640136262,1141.6051046966516,-420.19691148508974,702.9155243116273,472.5115739435432,518.7631458224691,150.74218836826464
3.5525,-0.2910155891360738,-0.3280769216589461,-1.1056910207977215,-0.0031503031592623,-0.00044220711344,-0.0003724626430808,0.0045191116057441,-0.0068842487600856,-0.995238335688456,-0.0971211924436129,-0.1006139908343741,0.0024098981174844,9.835436289968705,0.0083731468595109,-0.0107727245037982,-0.0121142559464932,3.6659936651720497,4.8637787995559245,1.1870520062644359,1125.6335622688466,1131.1491126962296,1141.0064711335804,1142.9209393533838,-365.1076575308785,499.3077534813544,303.5927326242082,556.96509014598,150.74098387903322
3.555,-0.2034805944739841,-0.5518139932057043,-1.1368433631270989,-0.004252131255562,-0.001866150873229,-0.0029562205227607,0.0045236839432049,-0.0068705718772925,-0.9952362120431518,-0.0971437711646183,-0.0988137224513939,0.0027156359576845,9.839110721762083,0.0082102232529741,-0.0109183405063847,-0.0120980588244046,3.6659787397181782,4.863810124157278,1.1870147616208888,1124.7735517531848,1132.1797772586783,1141.584603799383,1144.3899301473816,-336.77980036878387,321.84447025866353,156.8575849900332,646.645934623407,150.7397338146505
3.5575,-0.1300955865532715,-0.7832729553055829,-1.0909010075540166,-0.0048561920563299,-0.0044659058491032,-0.0065993014050002,0.0045275802886329,-0.0068551544934854,-0.9952338762799954,-0.0971686479663914,-0.097186946278284,0.0027367322458174,9.843143468653054,0.0080578237940964,-0.0110602966849694,-0.0120645662268876,3.665965068253741,4.8638416685394175,1.186976508967978,1123.9496632670027,1132.758335047523,1141.7907590585307,1146.1541690265008,-261.3743210411541,89.5140742282384,-8.460973651426865,617.440384910255,150.73818364957253
3.56,-0.1250602915560462,-0.9281670253777606,-0.9628555277989712,-0.0041910598101374,-0.0071561792141449,-0.0101942508903511,0.0045300768429055,-0.0068418001400717,-0.995231539019421,-0.0971934410937666,-0.0957656907811629,0.0025447646461596,9.84751894158744,0.0079151519141706,-0.0112009821312165,-0.0120119984112916,3.6659525966351154,4.863873230705312,1.1869387729700922,1123.466680147979,1132.6273476298195,1141.542298931126,1147.4771320719328,-148.48832321263532,-182.21452307271127,-179.49122676582576,464.802783555352,150.73685221043127
3.5625,-0.206610650239158,-1.0132198090003353,-0.7298698543262049,-0.0024762684917139,-0.0100407631515895,-0.0138638320632326,0.0045270899689262,-0.0068315076185987,-0.9952293956322656,-0.0972162876110342,-0.0945064524100083,0.0021705173761479,9.85221632996394,0.0077812155060671,-0.0113429000772911,-0.011939785567542,3.6659403501641887,4.863904335057905,1.1869027133866583,1123.2072216509396,1131.8472624321591,1140.8933029247016,1148.4781829442775,-66.02166087218534,-411.0097648568258,-310.15758339813806,329.1845649769654,150.735482393815
3.565,-0.3626748100740678,-1.0489024379560363,-0.4181917603583868,-0.0008374100123928,-0.0126938673899283,-0.0167846748905451,0.0045117788124484,-0.0068262984895505,-0.9952277008909736,-0.0972347723489156,-0.0933083228522972,0.0016780913907891,9.85721017505085,0.0076547677325546,-0.011488699929489,-0.0118483222097943,3.6659281975363687,4.863934373601976,1.1868694120715355,1123.136571843618,1130.5722988055354,1139.9915110141353,1149.1230548968176,18.582429183516464,-605.7825244536291,-387.2632148151379,166.84570679481467,150.73408300695775
3.5675,-0.5788380477305825,-1.0309604470000264,-0.0455656932718625,-0.0004210481202968,-0.0149015539986115,-0.0181376677113965,0.0044843400371127,-0.0068222164792036,-0.9952266337160752,-0.0972473128772975,-0.0921908133101701,0.0010081091516049,9.862469275644122,0.0075345434988584,-0.0116408094913796,-0.0117387126916354,3.6659165730815353,4.863963749659109,1.186838573424644,1123.3001337968572,1128.8183498098913,1138.956986850626,1149.3124114782515,127.27899404520988,-838.5897494131202,-427.2253035493744,-5.415340145964,150.73265092803325
3.57,-0.8327675541631113,-0.95367355994768,0.406304512236765,-0.0019853764175051,-0.0173123244161875,-0.0176043904822096,0.0044499813905408,-0.0068151880352558,-0.995226045222542,-0.0972554515494137,-0.0912647598345147,9.525292946076237e-05,9.867957627207058,0.0074192442684565,-0.0118013836214047,-0.0116123129076792,3.6659057105162303,4.863993228177946,1.186810156281145,1123.7729668138443,1126.3793500584695,1137.8553844963883,1149.0959781960876,217.8621480898836,-912.7177508993392,-337.2006505772106,-129.3827227338537,150.73089878058175
3.5725,-0.971484778914336,-0.8428303446108968,0.7330480166987932,-0.0051625882365148,-0.0193263531411858,-0.0153503710342723,0.0044156803262316,-0.0068048200364771,-0.9952255763741708,-0.0972625516528292,-0.0906755296991963,-0.0010514778707183,9.873635712286916,0.00730737774241,-0.0119723391234577,-0.0114703372565773,3.665895784879192,4.864023546320444,1.1867843416734931,1124.3894445373066,1124.2547610553943,1137.2709835977398,1148.6654978645822,286.09773906651446,-825.7025287233495,-126.99703568564745,-193.72052087183377,150.72941386441855
3.575,-0.958811504199322,-0.679471847374783,0.9520478580976668,-0.0101710549618764,-0.0213423196815134,-0.0115503161902455,0.0043855363778517,-0.00679064523181,-0.9952248451598564,-0.0972723584583087,-0.0905040096702605,-0.0024142943001756,9.879462849928736,0.0071970385909444,-0.0121553142385344,-0.0113136727781559,3.6658863972157696,4.864054428852617,1.1867604008786068,1125.2034555091768,1122.2508374148529,1137.22039931796,1148.1273755917287,390.2866031475779,-814.2662989822556,113.17408977438632,-238.2478360153578,150.72790736920734
3.5775,-0.720496435472438,-0.4184777930701153,1.0536975624679927,-0.017231420346492,-0.0235832401511669,-0.0062296870485178,0.0043607618970198,-0.0067741286527736,-0.9952236740707479,-0.0972865310714249,-0.0907698152509214,-0.0039279204461588,9.88539709310739,0.0070858110877585,-0.0123517870361173,-0.0111425427844739,3.6658769193835057,4.864085205416119,1.1867374674657087,1126.3408775530445,1120.183429560483,1137.8368540466115,1147.4742586845055,431.0902870406245,-683.4966541152571,324.4327483139456,-235.331926177701,150.726079807055
3.58,-0.3471534480556441,-0.1490871671718606,1.004074902803738,-0.0222614750067205,-0.0250087387076852,-0.0020611784940311,0.0043398716259188,-0.0067565269177125,-0.9952221089950568,-0.0973045864294471,-0.0914305961526589,-0.0055235324519118,9.891395456187821,0.0069707884571781,-0.0125629882479307,-0.010956402874478,3.6658664075772487,4.8641155302374885,1.186713823619934,1127.35890694438,1118.8333541442767,1138.8425630595295,1146.95071596084,404.22802861590714,-452.39872405587505,465.10077878170785,-208.8576632014837,150.72454438703423
3.5825,0.1311625162010809,0.1609749835238564,0.8460216134739598,-0.0238693940824701,-0.0254401625675483,0.0008479613135682,0.0043249286779346,-0.0067375481282963,-0.9952206403312496,-0.0973214392647396,-0.0925025994940625,-0.0071683262045551,9.897412060989069,0.0068487625065014,-0.0127897653870652,-0.0107539432337455,3.6658545299480303,4.864145665966366,1.1866889439309227,1128.362017696124,1117.9214359402035,1140.1623579405202,1146.429970368498,415.2861449030386,-297.7933516885578,593.6313070095492,-235.30821959416744,150.72300113583793
3.585,0.6850974785761339,0.5523580189509839,0.5921168836700598,-0.0204594390418912,-0.0245905685127781,0.0023370885584283,0.0043174494717829,-0.0067154032134532,-0.9952196582440332,-0.0973331641170329,-0.0939804617119654,-0.0088598857023285,9.903399541587444,0.0067164857766208,-0.0130323575734566,-0.0105333541938664,3.665840789321908,4.8641760023944975,1.1866618907156012,1129.435337668895,1117.344387385834,1141.8107195945774,1145.7741748628691,354.7341288030641,-127.7816583713984,572.3997108222313,-245.98941411555256,150.72114646661464
3.5875,1.0304567356505447,0.870130265349415,0.3730431108726215,-0.014437169956867,-0.0229742761612568,0.0023405447444693,0.0043137525890712,-0.0066912298466014,-0.9952191376717202,-0.0973401057008596,-0.0957545806790803,-0.0105326935073335,9.909310470379348,0.0065709569112906,-0.0132903123505364,-0.0102925982659347,3.6658253884382126,4.864205609560531,1.1866322649691756,1130.1356883401393,1117.2825276483468,1143.024356494631,1145.2000232979203,221.88361858807653,55.46935157162925,411.1748993492344,-227.5361852257041,150.7196033658486
3.59,1.1859577007700803,1.148578394828057,0.1870149042020859,-0.0079479069934231,-0.0206258024533733,0.0018053706811671,0.0043102512328855,-0.0066657448484273,-0.9952189800251618,-0.0973434021489068,-0.0977101247828611,-0.01213534923517,9.915096723335882,0.0064097488332259,-0.0135622655081185,-0.0100298765059566,3.665809179003501,4.864234624032941,1.1866002621102376,1130.5447557618354,1117.621734143692,1143.8665940913236,1144.6364939367409,106.93525392816088,194.53892456220777,255.2422402959392,-213.53578065898924,150.7180683121078
3.5925,1.1814244455305478,1.3707080895108916,0.0441331912099962,-0.0025560766142385,-0.0175802357143743,0.0011793068417326,0.0043082852773992,-0.0066396055892355,-0.9952192178095316,-0.0973426550018813,-0.0998247804579238,-0.0136340318924703,9.920708786290135,0.0062312655861495,-0.0138457675240019,-0.0097440285284236,3.6657934185083505,4.864264515098934,1.1865672727785834,1130.67036460978,1118.255222271158,1144.300567696111,1144.1323443946253,-18.597423474146687,312.82134274986385,65.3023734171667,-176.20853595361672,150.71654368079604
3.595,1.0289070675998175,1.4962545217149823,-0.0435876209875458,0.0006826489355503,-0.0135232182342028,0.0006532665577488,0.0043170102021801,-0.0066125615951102,-0.9952201287806636,-0.0973346664245685,-0.1022262975744938,-0.0150360597425892,9.926095976402175,0.0060348351919005,-0.0141372159310794,-0.0094348783713097,3.665779696019309,4.86429742151836,1.1865355483856599,1130.4517686444647,1119.1858408574415,1144.1931059584094,1143.7554512569727,-163.4424018216158,461.4066241092231,-166.29836768502528,-130.31105565842432,150.7150356870642
3.5975,0.7610571552502132,1.50561818577117,-0.0944050961592049,0.0019208181367168,-0.0077067353945641,0.0002265544613783,0.0043398644858159,-0.0065851477957291,-0.995221808160172,-0.0973182965486789,-0.1049302183919142,-0.0163326115443688,9.93121222902846,0.0058205236589114,-0.0144320769274895,-0.0091034195747013,3.665768105339876,4.864334896656563,1.1865058355808435,1129.853152600672,1120.562255391704,1143.469075857686,1143.4807891163332,-259.6062295823286,535.2014282720688,-347.3001617531355,-73.1802175801947,150.71325000041483
3.6,0.5263685822167676,1.3872590199899395,-0.1030590172867669,0.0014917221283843,-0.002751653053312,3.251150391980855e-05,0.0043727631234646,-0.0065649324483007,-0.9952240674510044,-0.0972951225083054,-0.1078177254729526,-0.0173723283338934,9.9360177412636,0.0055890457447564,-0.0147254804763175,-0.0087515115813584,3.665758102816523,4.864376626239849,1.1864783693182488,1129.153737496553,1121.8618479988015,1142.4566051496436,1143.3895501690715,-299.50434147427313,537.4361479168898,-457.45872995727115,-13.887090060098059,150.7117848415137
3.6025,0.3240358837777513,1.1508534303890214,-0.09173717772,0.0007090600261901,0.0014982784666757,-4.0521077817633766e-05,0.0044136774643554,-0.0065550290285231,-0.9952263245880372,-0.0972709386662049,-0.1108043190673251,-0.0181071880989893,9.94047809840329,0.0053419097553971,-0.0150125604284205,-0.0083819209649264,3.66574987983646,4.864422083885572,1.1864532347603969,1128.3556308933007,1123.2494361312883,1141.1817822078997,1143.4113536660327,-351.945078811794,618.1292847036862,-577.2778123875137,30.57007366956051,150.71034654905972
3.605,0.1303910156466185,0.7742806985388391,-0.0702640763882289,0.0001693595244444,0.0051662755427903,-5.2192555584653056e-05,0.0044586472651227,-0.0065559873431033,-0.9952279135261722,-0.0972526748095904,-0.1137664848965773,-0.0185460001533544,9.944566512359785,0.0050812056698506,-0.0152890796229144,-0.0079980828805525,3.6657436885748473,4.864469712081046,1.18643052998681,1127.394012102494,1124.95249442232,1139.5702160877063,1143.5424005374196,-342.1529241504304,623.7093320875507,-574.2355536418595,64.14693120837137,150.70865463012817
3.6075,-0.0008791125536508,0.4288961694650261,-0.0544274347311264,8.891294900563306e-05,0.0064857638081529,-4.142719363735837e-05,0.0045051299244192,-0.0065637917915217,-0.9952286939393996,-0.0972421344343827,-0.1166059578012454,-0.0187974106537549,9.948263471323068,0.0048093588084397,-0.01555185148243,-0.0076039054580399,3.665739664337501,4.864518223454729,1.1864108849755,1126.6448662725484,1126.367982791726,1138.3106044396905,1143.7320883220743,-280.89108207646547,557.2903674220588,-458.958468241063,91.32967735581782,150.70727487045352
3.61,-0.1240951317355124,0.1102356567530638,-0.0480922029604609,0.0002301985586745,0.0057462146544553,-5.3609615406185336e-05,0.0045524712026655,-0.0065744520464814,-0.995228992930248,-0.09723626785451,-0.1192691507571295,-0.0189779480352633,9.95155638522923,0.0045289613511872,-0.0157990062374774,-0.0072033535973725,3.6657377849107906,4.864567089817629,1.186394303625572,1125.9895566921118,1127.7389462594303,1137.275423746501,1143.9990489241986,-259.42281500545573,581.2707628695597,-386.04527807426285,129.21785270122237,150.7059283795689
3.6125,-0.288995172849728,-0.1881603839311193,-0.057156854513627,0.0004399248439683,0.0035471028629407,-0.0001379792834565,0.0045955832489413,-0.0065856208569684,-0.9952293562527254,-0.0972298894745106,-0.1216257297660993,-0.0191659778064554,9.954441674678582,0.0042425600103037,-0.0160300506903014,-0.0068001229130531,3.6657372279395344,4.864616180091708,1.18638040960391,1125.3477521975212,1129.274336606074,1136.380378049319,1144.3781775855807,-203.8690741351592,534.8883832724462,-266.7836191376229,138.83827651528887,150.70435324247325
3.615,-0.4530028170512516,-0.3497764047948845,-0.0816192768169907,0.0004628220931424,0.0015335696774104,-0.0002905346156451,0.0046281621891444,-0.0065923497203069,-0.9952298082045784,-0.0972233783995131,-0.1235240029951693,-0.0194916527105116,9.956923431065096,0.0039528129348951,-0.0162457185116319,-0.0063974698146699,3.665737212239803,4.864664258652124,1.1863680132626366,1124.970211321436,1130.4133881757928,1135.9415056508128,1144.6932403067751,-105.75959867860772,415.3127872442926,-115.69416720767796,108.00368103741904,150.70307607694963
3.6175,-0.6463321993232045,-0.4267790352084634,-0.1267528441993921,5.303940180544961e-05,-8.694104489531646e-06,-0.0005378281631767,0.0046473319782067,-0.006593787835326,-0.9952301149994536,-0.0972193144472368,-0.1248963153211162,-0.0200096961901287,9.959010019948382,0.0036623990758768,-0.0164479609365826,-0.0059978051383247,3.665737941763056,4.864710389126602,1.1863564264859434,1124.8189542041282,1131.3509005422954,1135.8019072132806,1144.9181959907676,-12.509070917303953,335.26714722166423,-12.404981643340117,59.929495098277954,150.7018375574103
3.62,-0.8539474240954983,-0.4509334570278511,-0.1913028769277296,-0.000960182567185,-0.0009141284883861,-0.0008410465682034,0.0046488030476811,-0.0065912307768723,-0.9952301699469231,-0.0972189121707412,-0.1256594401436365,-0.0207251940572993,9.960714861228672,0.0033737856383128,-0.0166396680293979,-0.0056027518657706,3.665739808251548,4.864754394140355,1.1863451880190534,1124.9076659668494,1132.089723911901,1135.879480742596,1144.9928877822665,102.6267162293174,244.04029022403455,75.33948918790136,-21.74321916213604,150.70063245382678
3.6225,-1.0540825963464755,-0.4357624862832514,-0.2814376136193157,-0.0029903274792551,-0.0012486033631649,-0.0011179435521875,0.0046275529221756,-0.0065900315559875,-0.995229991280842,-0.0972218700216058,-0.1257313054136549,-0.0215548639558064,9.962054621163666,0.003089154397688,-0.0168243269869222,-0.0052131347009432,3.6657420987803695,4.864796731000678,1.1863341848578484,1125.3320877852748,1132.5711019934156,1136.17860465922,1144.8094798949571,266.11529517627446,152.7140133200679,174.28937415607297,-150.48801872608558,150.69946928862768
3.625,-1.2445133320876636,-0.3942913579213293,-0.418145540409782,-0.0067754690249235,-0.0015444233744088,-0.0013238705105467,0.0045848863658149,-0.0065931029083159,-0.9952295246772104,-0.0972284814090561,-0.1251575394746021,-0.0224685883075974,9.96304557108658,0.0028104782315757,-0.0170055884825443,-0.004829280191024,3.6657448047296426,4.864838146281051,1.1863240076715098,1126.2382424427308,1132.8532939785011,1136.7509276133765,1144.240447688636,389.6977959173083,56.28796427440768,240.55409798780204,-264.234136306419,150.6981240897404
3.6275,-1.3328131116612871,-0.3461259267150826,-0.5483826391929623,-0.0108181896008538,-0.0019956791791397,-0.0016406334936827,0.0045257238010432,-0.0066012191849003,-0.9952287714615314,-0.097238450116455,-0.124057449567978,-0.0234767278683255,9.963703233861075,0.0025394279491414,-0.0171870296443497,-0.0044510987197938,3.66574810516208,4.864878707006344,1.1863152020481416,1127.2805767648613,1132.8525418147876,1137.381375149159,1143.488309213425,453.40441473532394,-47.52282901045066,278.38746022612804,-341.8062772590092,150.6970468375256
3.63,-1.3251686602904846,-0.2807405225309341,-0.674259555372779,-0.0151052265419206,-0.0027982557376444,-0.0025659467198138,0.0044603401483307,-0.0066091026710376,-0.9952277774685568,-0.0972511665513763,-0.1226497400248542,-0.024710565344572,9.964040797180935,0.0022773755783662,-0.0173719304305044,-0.0040782241137051,3.665752545538496,4.864918801502803,1.186307570977217,1128.5052645164071,1132.6156798334491,1138.142864914507,1142.531416302341,541.1155992524617,-158.4309472883781,356.7406488600441,-433.4126008517322,150.6960171324532
3.6325,-1.200462506095177,-0.1747527880504112,-0.7813363287367053,-0.0198089160079875,-0.0039857914092398,-0.0046439134568572,0.0043966432082705,-0.0066118506004425,-0.995226482327985,-0.0972672006663093,-0.1211103588209765,-0.0262800675695305,9.964070525382532,0.0020253341407538,-0.0175632019489787,-0.0037097840222504,3.6657577697040815,4.8649590620153615,1.1863002389849853,1129.9861547611235,1132.0603870783457,1139.1650783934595,1141.3212462091662,512.0750129517655,-248.08259661184053,384.1876318954487,-422.54840599377405,150.6948394500964
3.635,-1.011021924885546,-0.0614873007244449,-0.8015952485395781,-0.0229464537670435,-0.0048832115092429,-0.0071283565442748,0.0043380627101135,-0.0066076407842432,-0.9952248453202104,-0.0972869283043858,-0.119534524350925,-0.0282158529996451,9.963803483914635,0.0017838596875952,-0.0177633441400431,-0.0033443403575076,3.665764121308023,4.8649999790550895,1.1862920339152327,1131.0656395811664,1131.3752668503898,1140.0638030739844,1140.418674272372,364.1723297251325,-316.1308432791952,355.78354004047316,-301.8097166634625,150.69390889619297
3.6375,-0.7569716052414832,0.0712697670652737,-0.716721965925938,-0.0249080551572132,-0.0054044234341278,-0.0102055169695872,0.0042867416851095,-0.0065995843393938,-0.9952229630059832,-0.0973090488086471,-0.1180022865638623,-0.0304387083477303,9.963247633079117,0.0015529852398389,-0.0179744604535014,-0.0029799913866631,3.6657722133883057,4.865041760973585,1.1862824106022682,1131.8070164097492,1130.4797328619495,1140.9439960936616,1139.8121976258487,220.4187796309772,-432.2337123730996,364.353430008358,-164.78700313155412,150.69303458915317
3.64,-0.4090179916950992,0.2336678168674315,-0.4740911061860322,-0.0259194241668919,-0.0052394364765853,-0.0138477613166447,0.0042434143719386,-0.0065898770216427,-0.9952207932530684,-0.0973338148420795,-0.1165630440138995,-0.0328770990209184,9.962408163463504,0.0013322436810266,-0.0181982647872672,-0.0026148763267794,3.665781457912892,4.865083845632444,1.186271500112144,1132.1677334793212,1129.2140982885244,1141.885570224026,1139.5947392567143,36.99778473487719,-485.34211061056465,310.9422818612596,18.58569118012423,150.69205502064844
3.6425,-0.1013075182371083,0.3519963390361365,-0.1607493122762916,-0.0260404993763425,-0.0045052655083944,-0.0161975028667316,0.0042083814220127,-0.006576464247226,-0.9952185659248975,-0.0973590104720991,-0.1152474198688586,-0.0355350412915319,9.961287481170329,0.0011204397023815,-0.0184361251564432,-0.0022476315020849,3.66579078191473,4.865126027319431,1.186260329324497,1131.9920053334235,1128.0530223088967,1142.498707502968,1139.9051260817496,-160.89382030654977,-472.48589413126047,190.54399971887912,225.45084628478003,150.69130041691287
3.645,0.2123583897952095,0.4279964834040184,0.2342083053456824,-0.0256751557830911,-0.0031010685061151,-0.0174889196506807,0.0041819305445567,-0.0065582316056865,-0.995216625227578,-0.0973812018463755,-0.114084376711519,-0.0383915104191803,9.959885222091076,0.00091570240225,-0.0186890639777861,-0.0018774514898519,3.665799200632313,4.865168577273387,1.186250356011682,1131.3632643777885,1126.851668817868,1142.8382902226203,1140.721993488138,-309.4408203291616,-476.46628512612654,77.64385459336319,397.6833267793239,150.69061471150337
3.6475,0.5264516982028011,0.4533132613214409,0.6529437218573354,-0.0248445960574473,-0.0011801209178735,-0.0173284640669094,0.0041662268752249,-0.0065361455565399,-0.995215203472156,-0.0973978803535454,-0.1131397043850469,-0.0413834200167571,9.958198366507975,0.0007157170433801,-0.0189576953173283,-0.0015041270878522,3.6658061664934496,4.8652122387528784,1.186241879245422,1130.444801231778,1125.6706908832664,1142.8869267759349,1141.893542715646,-407.48533079427904,-453.6630568054176,-59.3727523862084,525.2887984741503,150.68998997130655
3.65,0.8370282913942154,0.4087249202063695,1.0305131618456151,-0.0235869585154836,0.0007206776863718,-0.014619401417487,0.0041564411274057,-0.0065129504529174,-0.9952140847812632,-0.097411273243571,-0.1123384095803538,-0.044396883732644,9.956225663911134,0.0005181109159719,-0.0192421990341344,-0.0011279809853504,3.665811848304784,4.865257470146839,1.1862349795946647,1129.3258377238171,1124.583353533841,1142.5414264606895,1143.348437480509,-496.1722636593655,-436.2879721848551,-239.9616286845281,656.2974688157423,150.6894430496988
3.6525,1.1958548210346427,0.2800083136720435,1.3459727453346235,-0.0216921887084788,0.0023667553580268,-0.0088966287542514,0.0041465710900728,-0.0064938595692489,-0.9952129453066856,-0.0974245958081401,-0.111581532905161,-0.0472652427847188,9.95396659946508,0.0003206662580101,-0.0195423683099099,-0.0007497467234169,3.665816720042265,4.865303965249818,1.1862295196430164,1127.9639399134812,1123.489251022342,1141.6871186325122,1145.1750300597248,-473.8490660723208,-349.0940926541717,-372.9038808786502,642.9084205218735,150.68888136162505
3.655,1.467320915811137,0.1239989382410288,1.446767723547384,-0.019548677130721,0.0031447412807684,-0.0033973672866778,0.004135499179051,-0.0064821120541402,-0.9952116499345264,-0.0974390598684553,-0.1108579422060893,-0.0498695389824788,9.951420475082493,0.0001214874967478,-0.0198576566717844,-0.0003706658356528,3.665821205080208,4.865351102991827,1.1862254212320527,1126.9565923934551,1122.83788307057,1140.676907056296,1146.5629795831185,-350.79578339302674,-186.80204057321689,-438.71642268378986,481.90973056513417,150.68849485151284
3.6575,1.675617372310107,-0.0593457053003427,1.357222234865069,-0.0162988346222059,0.0031129442761952,0.0016565472471247,0.0041227480727485,-0.0064788560499289,-0.9952099227944692,-0.0974574344739254,-0.1101598548685188,-0.052134972242527,9.948589004138666,-8.068354900073889e-05,-0.0201871936879547,7.582686796917502e-06,3.6658258641056904,4.8653986990328715,1.186222491291098,1126.209960996516,1122.555240819476,1139.4935365190931,1147.5845787125506,-253.2573723085588,-23.980655881996935,-520.9517524882924,326.47570268400847,150.68819543851495
3.66,1.796647000357734,-0.282245159472365,1.0450057586563883,-0.0106358595856182,0.0019214516160011,0.006906388909081,0.0041058484052561,-0.0064802557909023,-0.9952077727843276,-0.0974799914879193,-0.1094262030738624,-0.0540832433084756,9.945478197413756,-0.0002865251341836,-0.0205297609992739,0.0003828147581555,3.6658316568109153,4.865446738230629,1.1862203213841502,1125.6903055319124,1122.71797979116,1138.0721482938548,1148.1953580965385,-126.49894820774804,144.33253845013803,-491.72641839405645,109.3978856793024,150.68793865060144
3.6625,1.749516073567942,-0.4543723636688185,0.6477823243327439,-0.0045535370436452,0.0003949258933057,0.0102885661858803,0.0040866995478522,-0.0064821072464511,-0.9952054967659694,-0.0975039023767915,-0.108678384303441,-0.0557544905187022,9.942096603298888,-0.0004961836728363,-0.0208837662068224,0.0007525009831082,3.665839700906884,4.865495642444872,1.1862194137807656,1125.5774662554772,1123.2769035117267,1137.034904427123,1148.1315681409471,14.580804169964123,296.4678611096651,-353.72171958766404,-135.59854974096487,150.68781073980034
3.665,1.5205516463319426,-0.6038545296755293,0.1714672721832118,0.0019776513324324,-0.0010950970472742,0.0117935553005868,0.0040725390761013,-0.0064774588493391,-0.9952036615533028,-0.097523536649341,-0.1080354344604981,-0.0572574189579006,9.938455541464812,-0.0007094471754843,-0.0212472729849794,0.0011136769439533,3.665850924127053,4.8655463705035435,1.1862207110132563,1125.7632095527624,1124.2003190967084,1136.3035396959165,1147.5173653478337,137.1379757817551,451.3559730950515,-226.78883094704844,-359.23906168678366,150.68777216887483
3.6675,1.0498591755616928,-0.7563978707324102,-0.3989692654827743,0.0084238943686525,-0.0028733495034349,0.0105822014874225,0.004068658139251,-0.00646079328217,-0.9952025994277344,-0.0975356445840599,-0.1075778501068837,-0.0586746986489133,9.934571975498395,-0.0009258064307089,-0.0216181385882757,0.0014632638976691,3.66586476023038,4.86559895707845,1.1862242295330787,1126.263156134386,1125.533683377202,1135.9009602723877,1146.3353728325133,217.9337275637,486.00757813015787,-59.700619988008285,-466.41235937523646,150.6878282331757
3.67,0.5394490424018786,-0.8611567118386425,-0.8071361125734778,0.0113308182496117,-0.0044679095016711,0.0072961301658217,0.0040753443481695,-0.006433756432436,-0.9952024316313888,-0.0975388475637339,-0.1072989643205524,-0.0599444100818588,9.930469530400424,-0.001144737842088,-0.0219941853057755,0.001798535626767,3.6658799225718393,4.865652668545535,1.1862295996796497,1126.852878190581,1126.6303569873592,1136.0050365959764,1145.1853035509575,256.57197045402967,381.7333834395949,133.2256680376787,-440.7153860573183,150.68795922792447
3.6725,-0.0128920015678834,-0.9387220672541692,-1.0886887238084892,0.0111981071728285,-0.0061736301743933,0.0028994727544951,0.0040937767742513,-0.0063991775400715,-0.995203149563172,-0.0975329823684495,-0.1072105992823083,-0.0609902933833502,9.926176041949471,-0.0013659038081429,-0.0223733372919541,0.0021170364129446,3.6658956523507222,4.865707089164374,1.186237135240688,1127.546015986656,1127.4423502943998,1136.567088612576,1144.1317959022267,281.01218506515494,241.144770104058,295.02372745699006,-371.3772278206511,150.68817646733123
3.675,-0.5370014741093624,-0.9859815427524352,-1.2475753094425348,0.0090886104711372,-0.0082683273351979,-0.0015963284649658,0.0041233017282917,-0.0063617418546809,-0.995204453221675,-0.0975208213115435,-0.1072907056160986,-0.0617040730755141,9.921723816969086,-0.0015891056946513,-0.0227536491412285,0.002416814492016,3.665911660878944,4.865762022431816,1.1862461672225453,1128.2579391159068,1127.8360808378795,1137.4801552332615,1143.328417411854,269.9073888716884,27.366772128105335,438.2118550835162,-238.52142155331632,150.6884643476502
3.6775,-0.9673485105430896,-0.9826482007013356,-1.2659997349722567,0.0058096086688595,-0.0111401297935958,-0.0055456683133947,0.0041609845511871,-0.0063243044193959,-0.9952061741369468,-0.0975040213462552,-0.107468491080682,-0.0620165749405604,9.91714876361049,-0.001814414865987,-0.0231332721390953,0.0026964131476086,3.665927391221832,4.865817350138429,1.1862557101092517,1128.8955529310147,1127.5791841550404,1138.7581478879938,1142.93918879446,236.857214605248,-273.8772941320408,628.3411271030807,-78.2315195732752,150.68883639777303
3.68,-1.3269284779711767,-0.9059948807044766,-1.160102310541852,0.0014548831225174,-0.0148461946954435,-0.0090760935573912,0.0042006251266812,-0.0062892272851038,-0.9952080599448891,-0.0974852802686443,-0.1076078429033978,-0.0618700349600336,9.912489469351293,-0.0020419659082977,-0.0235103805532167,0.002954993201743,3.6659426833109823,4.865873100141637,1.1862660049123115,1129.4422251889328,1126.4666943672191,1140.6218608687768,1142.9372598139876,147.6749844446235,-527.4332798376803,723.3532491532214,53.22756093883186,150.68937891569064
3.6825,-1.4766756284676668,-0.7807922669014967,-0.9969779824440024,-0.0024367606546986,-0.0174508474231426,-0.0112063249416037,0.0042355632559763,-0.0062616563451852,-0.995209705847953,-0.0974687006192048,-0.1075696186428422,-0.0611589373889859,9.907784728953,-0.0022718076817214,-0.0238830761855107,0.0031924812104886,3.6659582208850736,4.865930116849011,1.186277801422204,1129.6339278532375,1124.942017755852,1142.3749141337598,1143.2053265991542,11.858029799896283,-692.0578327736314,722.3559530095071,120.40393338056931,150.68991019171798
3.685,-1.4598013206259488,-0.6027977004549476,-0.7901115927434295,-0.0067204259582479,-0.0192213586551354,-0.0127595552614701,0.0042600759474436,-0.0062431828255382,-0.9952102979006836,-0.097462748116508,-0.1072271537148731,-0.0598583971337829,9.90307152065923,-0.0025036376101894,-0.0242494295345477,0.0034093274730886,3.6659742983093753,4.86598881064724,1.1862903177560475,1129.5015153379325,1123.0064052033513,1144.2336406338243,1143.5392794808906,-127.9594204725554,-877.4034945781027,813.5185407505733,115.3022684548002,150.69052266162305
3.6875,-1.248298774645631,-0.3482847737070945,-0.5198447680600828,-0.0120347417931764,-0.0204570163265273,-0.0140091507737661,0.0042718025234669,-0.0062337180449417,-0.9952092472175524,-0.0974735577048554,-0.1065193421013258,-0.0579895595822923,9.898382594330487,-0.002737064255071,-0.0246075175007049,0.0036066265270468,3.6659909838364095,4.866048242132857,1.1863034404808503,1128.994130750875,1120.5550002829616,1146.4425068375126,1143.781837941428,-229.08167476380677,-867.3346283282812,780.0959254238189,43.46010891376956,150.6913503656652
3.69,-0.9273308691305712,-0.1169323766377085,-0.2893677357279323,-0.0158810739181199,-0.0208915917180423,-0.0147218986210557,0.0042684043772203,-0.006230595500587,-0.9952066145497672,-0.0975007915742006,-0.1053842398803206,-0.0556291355363054,9.893746337386528,-0.0029717664236003,-0.0249554524975917,0.0037861148663537,3.6660081785145247,4.86610827074414,1.1863165270607876,1128.3561069641135,1118.66973206171,1148.1341202609433,1143.7565800254595,-273.13067186024125,-669.3274139862892,606.8504488345882,-54.825232780104926,150.69211645115843
3.6925,-0.4934565610973841,0.1189275335607727,-0.0623173930706998,-0.0183233774199866,-0.0208385957580056,-0.0152901905800144,0.0042540398590509,-0.0062314878126246,-0.9952030222115552,-0.0975380524540717,-0.1038926610650235,-0.0528638770601892,9.88918331494518,-0.0032075080571683,-0.0252913536254438,0.0039501851678684,3.6660251839125886,4.866169541320679,1.1863281444588945,1127.6284773915738,1117.2083632130302,1149.4767590816855,1143.5077117775277,-307.8256541934271,-510.05750351129075,458.167763307998,-131.35190227621047,150.69296028834384
3.695,0.0936887072096942,0.3910347668873765,0.1970433679478876,-0.0193026876871895,-0.0202278363349537,-0.0154075559803256,0.0042333574634467,-0.0062333685401611,-0.9951990308968856,-0.0975796042783484,-0.1021273599861565,-0.0498004586047823,9.884707731618434,-0.0034436822669254,-0.0256134072411803,0.0041016981336376,3.666042500629151,4.866232934729981,1.186337139000521,1126.8169786931462,1116.119444544153,1150.4249590774834,1143.0998205140784,-267.35304943948006,-282.4675080780517,200.61805434214432,-138.10570890308531,150.69406058265926
3.6975,0.5838849945805731,0.5963892246339232,0.3924833105152705,-0.0184592873480763,-0.0191900505735454,-0.0145575316532275,0.0042087380357727,-0.0062356617603123,-0.9951949606094408,-0.097622116505205,-0.1001352729962524,-0.0464976867890119,9.880327942597619,-0.0036790823855004,-0.0259199833257689,0.0042438171153657,3.666061154153672,4.866298695686124,1.186343869589951,1126.2917121443763,1115.7960256726399,1150.4798493533963,1142.8171832330122,-163.40313653395592,-21.532990307969612,-162.43276940286142,-71.55397310712185,150.6950486419661
3.7,1.008170385914278,0.7630473202380315,0.5539850824748636,-0.0159817034913148,-0.0174904788740614,-0.0126178531561393,0.0041856917033998,-0.0062368976009543,-0.9951912811346536,-0.09766064832804,-0.0980282795651832,-0.0430406303665907,9.876044645525635,-0.0039121157337174,-0.0262098736599236,0.0043793768454723,3.666082296407696,4.866366553013861,1.1863499235300248,1125.9999630104764,1116.0117795926135,1149.6127952304691,1142.7420506485428,-73.04963489159648,154.87095288245075,-508.14128004031943,13.432060993500558,150.69610786363265
3.7025,1.3314346477866832,0.8847996162793375,0.6835973807742505,-0.0123881123169235,-0.0152410936883901,-0.0102352545857318,0.0041667735759392,-0.0062344973851827,-0.995188142810088,-0.0976937055591391,-0.0958628517859174,-0.0395331081984213,9.871853533037687,-0.0041406189721988,-0.0264825857675533,0.0045106661223211,3.6661066061067897,4.866434855066609,1.1863559543559075,1125.9264639699184,1116.570380437052,1147.9391429531947,1142.8843435379797,22.55171696278969,275.72716653381246,-850.8813227607061,99.64585439625107,150.697223798927
3.705,1.4870769900884109,0.9396202732743264,0.7828676986055999,-0.0080191839086138,-0.0124811400012967,-0.0082210593487831,0.0041547222887616,-0.0062300392592467,-0.9951855559473922,-0.0977209484754844,-0.0937123938383969,-0.0359983525704628,9.867744779078807,-0.0043622798918904,-0.0267384337507671,0.0046395399783972,3.6661332254179455,4.866502095525092,1.1863622390200723,1126.1127215952904,1117.3904154252823,1145.3583886166657,1143.240279920524,134.76957067582876,384.9952984264828,-1298.2905298156131,171.9465226876346,150.69840498421377
3.7075,1.4388490074120535,0.9203549875281508,0.8879172743517298,-0.0021424022751251,-0.0088864681182052,-0.0066868678721137,0.0041501823787781,-0.0062238928449011,-0.9951835669525116,-0.0977418449409475,-0.0916120969731377,-0.0324785167017342,9.863705095197057,-0.0045749895418895,-0.0269785102807366,0.0047671317122336,3.666160635426467,4.866567719685205,1.186368629963514,1126.6003118232975,1118.4953569291845,1141.4476903041168,1143.7440761514179,213.8086473692101,405.1962896502205,-1516.2966341595943,165.32927986941456,150.69989339589628
3.71,1.1891281913027691,0.8373075264084489,0.97574493504943,0.0033044163968121,-0.0062538034487798,-0.0060295537344547,0.0041483878661394,-0.0062164757086985,-0.9951823810489712,-0.0977544762740846,-0.0894959212653377,-0.0290021620829212,9.859720031241672,-0.0047770646453761,-0.0272044154444407,0.0048939502863234,3.6661879889353566,4.866631235188283,1.1863758497181178,1127.1817648321364,1119.4163968735336,1137.776905445868,1144.066926319871,254.61331083457117,353.6699428744744,-1474.3805314980223,73.94843655174712,150.70118964609358
3.7125,0.7359453018153517,0.7001597856439394,1.0591541659154322,0.0084445921744275,-0.0045226288491379,-0.0052931635386286,0.0041424401265668,-0.0062071696373073,-0.9951820070089988,-0.0977590883748936,-0.0872579080646911,-0.0256117996401028,9.855774303593588,-0.0049671253416488,-0.0274179511489707,0.0050198078065503,3.666215286152085,4.866693100893899,1.1863840478808227,1127.8733783774703,1120.2637066435568,1134.0757876466268,1144.1138183341764,310.96406848997253,347.23697291752444,-1535.6118451029815,-67.64776094614861,150.70254041049847
3.715,0.0269835335088124,0.4954468459916887,1.1147857626743871,0.0118828215873076,-0.0031630330598361,-0.0027261655993233,0.0041286013312064,-0.0061962530578569,-0.995182314995714,-0.0977571567461436,-0.0848589135624986,-0.0223352564475169,9.851851377158065,-0.0051441759007572,-0.0276207464385049,0.0051439238920745,3.666242838932991,4.866754404055273,1.186393509000027,1128.7365851745863,1121.1525817381212,1130.0988462203532,1143.7286875151403,309.77363819995566,300.59385414772595,-1313.0734553282787,-217.28115572380727,150.7042208103036
3.7175,-0.6164477886690117,0.3049307963711505,1.0801158518790932,0.0109317823718871,-0.0021391605778983,0.0014796229666097,0.0041057952839036,-0.0061821914060954,-0.9951831321683055,-0.0977506080801838,-0.0823103953619578,-0.0192372368101075,9.847935210074954,-0.0053076249870021,-0.027814035966621,0.0052649090357367,3.666271285778076,4.8668162160428095,1.186404794558923,1129.4222465684702,1121.7666759142955,1127.510420369985,1143.0274125555575,257.9119733587785,214.28711662532268,-823.5793237742099,-343.58453862953365,150.7056684803312
3.72,-1.1998580226505693,0.1076003251606733,0.9182090374810185,0.0061553081414501,-0.0012777805174704,0.0067547585011524,0.0040757566842655,-0.0061602234148443,-0.9951839615032873,-0.0977447501373206,-0.0796730956993134,-0.0164476139185999,9.84401160494004,-0.0054571419107379,-0.0279986337873152,0.0053808570447875,3.6663005688747248,4.866879088694252,1.186417262986564,1130.0261450413802,1122.2240173212479,1125.9809496014818,1142.0107648219923,243.97341211566135,158.82588550676127,-396.65943356349936,-483.90474510775795,150.7071630325524
3.7225,-1.727802356029482,-0.1164733602726706,0.5735782969860984,-0.0018105007358901,-0.0008763159912124,0.0118132087948126,0.0040449080232808,-0.0061288998085397,-0.9951845894426488,-0.0977415815130883,-0.0771053745603907,-0.0140351815779485,9.840068104550138,-0.0055931052997653,-0.0281748614269624,0.0054898351417974,3.6663310289260855,4.8669438633428594,1.1864303377351515,1130.6421136290485,1122.560805341829,1125.5271232021676,1140.6078888300187,208.98484347099372,85.22227535763886,55.83400908763116,-513.7014459956499,150.7090085930375
3.725,-1.9892902526022636,-0.2723888509086703,0.196107788589743,-0.0088804749566127,-0.0012754246065767,0.0137625566002078,0.0040195124695645,-0.0060872674189014,-0.995185128105499,-0.0977397604241152,-0.0747612604204165,-0.0120535135072151,9.836096364524176,-0.0057166099927409,-0.0283427520168227,0.0055899154355443,3.666362447526198,4.86701144993761,1.1864440597244357,1131.0710692587352,1122.650128698036,1126.26011964692,1139.4422575920144,154.48260248381632,-3.0705801601016645,480.58375183674,-432.34467252833394,150.7105887729175
3.7275,-2.072172808672593,-0.36890295159673,-0.2049415956914049,-0.0150451315606085,-0.0025489236753196,0.0130412527198006,0.0040020313982055,-0.0060388313529789,-0.9951855619904088,-0.0977391134022234,-0.0727252565748715,-0.0104572571522357,9.832093158147913,-0.0058292017613845,-0.0285023519470789,0.0056795293685557,3.666393629819144,4.867081428682568,1.186458511104756,1131.4145266414675,1122.5454524410288,1127.9300419613512,1138.446165467377,119.59289128608616,-68.84441821107576,773.3469168281936,-353.14006815416013,150.71221169955197
3.73,-2.0377888478158113,-0.3980238597962397,-0.5699328310228554,-0.019923001026895,-0.0044923681559144,0.0105527157530303,0.0039926384214659,-0.0059855414646608,-0.9951859860666844,-0.0977385346391301,-0.0710295184552333,-0.0092221955059326,9.828060523608448,-0.00593293368691,-0.0286540791697225,0.0057571787174007,3.6664242185396576,4.867152540896098,1.1864729239416119,1131.6690337151656,1122.3059066069807,1130.1268542310609,1137.6765572512436,70.7374602453016,-116.58887834646768,937.7168549940706,-242.94512462825483,150.71386937298925
3.7325,-1.908911248678862,-0.3355341540565046,-0.8411544130101282,-0.0235682440995677,-0.0068520892264444,0.007124418590108,0.0039889721649752,-0.0059290960254359,-0.9951862040333848,-0.0977400022999811,-0.0696505547007791,-0.0083197570480772,9.824005578297806,-0.0060299888008029,-0.0287989496775564,0.005821536138618,3.6664543767128808,4.867223950274486,1.1864873652186412,1131.768213942694,1121.9625080492965,1132.6186262363215,1137.2314398442359,-6.428965812119849,-156.3593929855903,1083.4239906251928,-117.20535834884026,150.71556780216306
3.735,-1.6934901024551308,-0.1661894963376573,-1.0257308604036717,-0.0271555655210329,-0.0091009520008491,0.0031875170780638,0.0039921235426007,-0.0058736860821156,-0.9951860131953276,-0.0977452594781846,-0.0686311176583268,-0.0076739176685141,9.819938218638034,-0.0061228014678867,-0.0289385576143109,0.0058714902386595,3.6664841199866047,4.867294914037879,1.1865031298479003,1131.6368888861048,1121.5241096420527,1135.5439741841867,1137.0905304594994,-97.12180018581677,-153.13708838833793,1014.7239336043864,12.584177059033268,150.7176510068801
3.7375,-1.4819612848827244,0.0257738590134087,-1.0576745426053835,-0.029904189852026,-0.0096613689805841,0.0003192495089399,0.0039995751060006,-0.0058234213858341,-0.995185316366828,-0.0977551290793778,-0.0679368077271916,-0.0071977443705475,9.81587283635896,-0.0062139061108989,-0.0290750037766902,0.0059061988380209,3.6665128308249377,4.867364559994655,1.186519799064298,1131.2826049417647,1121.1968226073548,1137.6922459043435,1137.294360729531,-194.03740287315085,-116.02806858635756,761.1162906551212,143.42361194711825,150.7194227025107
3.74,-1.239459956774968,0.2237726416992906,-0.9695620058019304,-0.0328674424698882,-0.008607801548661,-0.0022698938407885,0.0040076572437234,-0.0057794465891577,-0.9951842526677172,-0.0977682629958747,-0.0674986247145858,-0.0068542378444008,9.811827212403248,-0.0063059131329369,-0.029210707996753,0.005925015381198,3.6665403993759504,4.867432450557304,1.1865371634173254,1130.6667018717392,1120.943969299121,1139.3495556374623,1137.807648519235,-323.2435846680869,-97.32370600709352,592.946790034979,285.49248857653464,150.72122871240586
3.7425,-0.901484089592536,0.4180992871194756,-0.7385212426748073,-0.0368127530968824,-0.0061437005159461,-0.0052910311421564,0.0040142797781586,-0.0057397061149739,-0.9951832929034548,-0.0977800693030997,-0.0672661688123513,-0.0066661215497655,9.807820948049523,-0.0064014599789866,-0.0293481005550188,0.0059275273946994,3.6665671634133066,4.867499259193273,1.1865545558846646,1129.6663870184243,1120.7102040773193,1140.6569798545183,1138.7218231724137,-398.3512376194624,-82.09249705596622,360.0844458429114,369.7120267636444,150.72343180072747
3.745,-0.5758952157604246,0.5215739959233305,-0.4558126842661754,-0.0400637546181438,-0.0037878303245348,-0.0076352760703078,0.0040211300793096,-0.0057017658391602,-0.9951829450586516,-0.0977854541788389,-0.0672563623728527,-0.0066659428808368,9.80387362468412,-0.0065029395177395,-0.0294893420776334,0.0059137225420292,3.666593178597516,4.86756595334937,1.1865719976769948,1128.674945683642,1120.533506813841,1141.149977866677,1139.6562086530532,-409.92827140745214,-78.41796951638737,74.99750907986868,382.4106133051909,150.72529441709185
3.7475,-0.2172188703721362,0.5589113857611431,-0.10753642817243,-0.042197985260174,-0.0017659662064302,-0.0090634672959956,0.0040314235486338,-0.0056637393674616,-0.9951835611738568,-0.0977808256463316,-0.0675119730428668,-0.0068748534993891,9.80000432664426,-0.006612217735098,-0.029636162081562,0.0058840862862816,3.6666186614184886,4.867632949217295,1.186588958566176,1127.6167456613873,1120.3181142297371,1141.031967399918,1140.6338762389396,-456.5006321282096,-113.47785731932404,-183.71671413274663,399.73306362131495,150.72718047055548
3.75,0.2090609496174104,0.5416671271196634,0.336519616406291,-0.0423983604516011,6.405539892426359e-05,-0.0087602897032246,0.0040453818542533,-0.0056257864158492,-0.9951852216844164,-0.0977653601182545,-0.0680172551392929,-0.0072660105199399,9.79623175704437,-0.0067303756572292,-0.0297897747116748,0.0058397295152853,3.666644191729304,4.867699626124607,1.1866041980899098,1126.392442523001,1119.9661175272445,1140.2313942960131,1141.6548739711595,-425.9140218507218,-146.72511674334913,-391.6560130027021,318.5214024502397,150.7294655708642
3.7525,0.5202231905123051,0.4926431267506374,0.686581557806551,-0.0405992087394908,0.0011344878406018,-0.006949277795012,0.0040657161908438,-0.0055892285046365,-0.995187929293066,-0.0977388569514117,-0.0688044355939334,-0.007793180679146,9.79257196626986,-0.0068578231060746,-0.0299508027674121,0.0057820803923471,3.6666705862825326,4.867766064606345,1.186617623132621,1125.4871755521335,1119.5844886460206,1139.0736873349044,1142.2264832511908,-326.71515993093425,-166.8691758394779,-544.302040482228,141.7832624496926,150.7313843402328
3.755,0.7439163618421601,0.4281507526292687,0.9713889895738216,-0.0375865784427124,0.0017961951005595,-0.0041158178631352,0.0040956632433345,-0.0055515886202232,-0.995191259630884,-0.0977056570209901,-0.0699069272900224,-0.0084857111413205,9.789038696113764,-0.0069940581627449,-0.0301193183012102,0.0057124002061924,3.6666984727133465,4.867832900107013,1.1866301917501292,1124.7588667233463,1119.131771648047,1137.5098840936023,1142.3637902834082,-259.7867419383699,-186.1390721793543,-672.3229902893764,-27.69445850471852,150.73331410005068
3.7575,0.8787184708863816,0.3625551074560924,1.177734330227331,-0.0342952330855812,0.0021403461993208,-0.0006370049490377,0.0041364289320965,-0.0055112948667225,-0.9951947067385019,-0.0976709765110438,-0.071319743038835,-0.0093524491478632,9.785643059485102,-0.0071379859543044,-0.0302947287112248,0.0056319293514786,3.6667286007533577,4.867900494524268,1.1866428739689543,1124.1882418424418,1118.6537932851238,1135.712072383457,1142.0880109586672,-194.89268023156504,-187.9470188870401,-746.0922837676159,-206.0842893082142,150.73525015283255
3.76,0.907891523944496,0.3019508645947551,1.273439272620354,-0.0313019647633444,0.0024045640988903,0.0033309108760698,0.0041812379886864,-0.0054692585874583,-0.9951977189768046,-0.0976406854614739,-0.0728876944265958,-0.0103408233778872,9.782394757700079,-0.0072880790193655,-0.0304758266023391,0.005542063193431,3.6667610482593926,4.8679691752732746,1.1866557871533745,1123.7844033221884,1118.1920365536118,1133.779422674764,1141.333368836867,-151.719675805774,-190.30026876653616,-841.9387324204487,-418.3249311579037,150.73719064752822
3.7625,0.8436960088393837,0.232316280858911,1.258896810365936,-0.0284268161071666,0.0030992348304674,0.0081327553286503,0.0042219583793666,-0.0054299697164454,-0.995199983557002,-0.0976180754266795,-0.0744375515918121,-0.0113286234907996,9.77930000913098,-0.0074428999020951,-0.0306608747201968,0.005444338201306,3.666794948710969,4.868038893966676,1.1866687743779325,1123.4296434634127,1117.7022919412912,1131.5023787213552,1139.9963863028777,-119.73839211332488,-166.37799680257004,-800.8296671531923,-533.697731539371,150.7395206398439
3.765,0.7322783080227829,0.1708610673578753,1.151918354355311,-0.0266703004306727,0.0040816826127583,0.0115826257777972,0.0042567913732717,-0.0053932255462505,-0.9952015076124447,-0.097603160960045,-0.0759125465420966,-0.0123002733152639,9.776360070150002,-0.0076014113106393,-0.0308478414861705,0.0053398439479369,3.6668297899917,4.868110051562569,1.186682224059942,1123.1857113616215,1117.360146569599,1129.775274338998,1138.6648801791703,-98.81718595725245,-125.52172495448116,-627.5416721600457,-536.5167929598671,150.7414609692828
3.7675,0.5914068647760479,0.1023871871544813,0.9745552938062388,-0.0254955558083517,0.0051716449375334,0.013867991103193,0.0042878251073549,-0.0053557847074071,-0.9952024327765088,-0.0975945943412049,-0.0773281396171076,-0.0133105513678738,9.77357168957295,-0.0077629317908404,-0.0310345588287119,0.0052294343484676,3.666865568344424,4.868182805481122,1.18669577714564,1122.9355575336267,1117.0746833165188,1128.364670360555,1137.3138023380784,-118.49415550173288,-119.19582975929443,-521.1664218667122,-549.9430816768044,150.7433971801828
3.77,0.4182230672654269,0.0212456496356428,0.7161263793653097,-0.0246766837187625,0.0057878942792186,0.0154172246959596,0.004313992263992,-0.0053210529180649,-0.995203195303688,-0.0975877770745653,-0.0786537695149333,-0.0142822939042306,9.77092836697582,-0.0079272273560179,-0.0312187630964228,0.0051145334299087,3.666901313645981,4.8682573454092966,1.186709239483248,1122.5932405841131,1116.7641674208023,1127.1694422296644,1135.9151647707863,-130.8724223716154,-113.3432473030122,-340.0592697601569,-445.59973808696714,150.74571265384955
3.7725,0.2857939636285197,-0.0307923843210124,0.4819263575091333,-0.0243417012974211,0.0055332141909669,0.0162887609796842,0.0043314570765571,-0.0052941043020386,-0.99520390258529,-0.0975814878941811,-0.079810904832308,-0.0151052144640921,9.768421051818569,-0.0080940460924649,-0.0313984553149048,0.004996888149707,3.6669363723122896,4.868333964560879,1.1867222684460752,1122.2811954217686,1116.5079670800037,1126.6643740117543,1135.0858036476436,-120.27303913241921,-104.77469051357043,-87.24987316482115,-240.7093924538964,150.74763282706496
3.775,0.1752337783770034,-0.0480835343823985,0.2398488363116713,-0.0242089964264141,0.0048824910974007,0.0171189276695464,0.0043406425320695,-0.0052754788060331,-0.9952043117091102,-0.0975781312302962,-0.0807979510511329,-0.0157693877523365,9.76603700186668,-0.0082630018235083,-0.0315721911950035,0.004878045185117,3.666971398377168,4.868412222412804,1.1867347976727338,1121.991875388451,1116.2402939682347,1126.7331928638405,1134.7116178085168,-103.0077270898368,-118.35282702077419,168.5227950335538,-59.87518172146466,150.74953938989188
3.7775,0.0691453795176035,-0.0154088589544016,-0.0524020471084185,-0.024191951182657,0.0039510620482434,0.0178772936257608,0.0043442082258531,-0.0052617620717896,-0.9952043818317508,-0.0975781698696246,-0.0816522012201097,-0.01634791767273,9.763760828834712,-0.0084337423973809,-0.0317391842586198,0.0047593924288376,3.667007143155992,4.868492121024674,1.1867465879917252,1121.7661567863195,1115.9162029448999,1127.506987986922,1134.7864277390363,-46.770351817209786,-114.72824698525208,394.2417805256544,97.71695632611475,150.75180627651582
3.78,-0.0009006467674265,0.0572560000937986,-0.2891833933056762,-0.0242245167072062,0.0032751486528564,0.0179316763060669,0.0043439719792071,-0.0052491875784301,-0.9952040523958764,-0.0975823351412343,-0.082396790951125,-0.0169203739269282,9.761575865533267,-0.0086057261086492,-0.0318994860063321,0.0046423879293689,3.667044470682979,4.8685725569546365,1.1867569865956555,1121.7580236293647,1115.6666527333084,1128.704401766469,1135.2002025901475,50.8531364576322,-88.60547793587413,574.5006018480648,204.63314707529645,150.7536735090993
3.7825,-0.059626265074788,0.1664661980784107,-0.5020113943604362,-0.0241349209508455,0.0030952589999169,0.0170792144370509,0.0043402176436334,-0.0052364010261495,-0.9952034565911296,-0.0975893261205591,-0.0830325852515819,-0.0175161139434127,9.759465139512642,-0.0087784336409211,-0.0320540361644498,0.0045286200798203,3.6670831257308016,4.868652016215223,1.1867651271770692,1122.0204224686076,1115.4731755552205,1130.3794909961623,1135.8095934744128,157.6266167217488,-63.37819812738552,723.3493687636081,247.96174314552064,150.75551226389783
3.785,-0.1146201657290849,0.2905454752238015,-0.6786246980136242,-0.0240178547288946,0.0035822152452325,0.0154647384741713,0.0043338329851268,-0.0052215470748322,-0.995202783361337,-0.0975972820896131,-0.0835740247822346,-0.0181742307663919,9.757412203625691,-0.0089514229024338,-0.0322046639650549,0.0044193391332473,3.667121763669336,4.868729595820048,1.1867703163239547,1122.5461567129737,1115.3497617426715,1132.3211486102869,1136.440011305875,273.41727423022934,-27.677090690759226,796.5387173763417,229.02194024996368,150.75732259551873
3.7875,-0.168285957780399,0.4102152926647497,-0.792604187495858,-0.0240783482095128,0.004832716777872,0.0131204050487384,0.0043269634614021,-0.0052019277947252,-0.9952021416056566,-0.0976051572149831,-0.0840609264688179,-0.0189508499579387,9.755402374718532,-0.0091243073840277,-0.0323538739509676,0.0043150731912106,3.6671596213190374,4.868805001125069,1.1867732679775866,1123.3875088397588,1115.3347901017667,1134.362184583044,1136.9547031756626,425.8203629755008,25.533893170859844,854.8634936525741,178.92045554286068,150.7590922640165
3.79,-0.2293028276616658,0.5240403488567805,-0.8407188824052191,-0.0242555057879986,0.0069287613004617,0.009734723293342,0.0043225031727826,-0.0051739149632622,-0.9952016685601112,-0.0976116322237099,-0.0845482043897883,-0.0199190487377144,9.753424436031512,-0.0092967649709901,-0.0325044716560241,0.0042152910024289,3.6671968543528126,4.868878844791455,1.1867752621457317,1124.6752585278512,1115.4774312085256,1136.5954660785496,1137.334613583589,492.71087956291154,85.71075612717507,737.681571082355,97.35914234656983,150.76116004887655
3.7925,-0.2716776095106412,0.5833327316559233,-0.8051833809296518,-0.0244873680462965,0.0088808721153227,0.0068602171815769,0.0043185222178762,-0.005138381564235,-0.9952015704934242,-0.097614636117646,-0.0850077527331933,-0.0210525167275213,9.751473493441107,-0.0094684218628413,-0.0326591444049584,0.0041186792728438,3.6672336335530904,4.86895103349435,1.1867776794288607,1125.8510632375733,1115.7633438824023,1138.0505924384559,1137.4414988873955,448.07807479652234,156.58821854954445,461.035341794114,8.889608746813073,150.76283020515282
3.795,-0.292808079666132,0.6034761834137241,-0.7037351922392403,-0.0251715338201856,0.0105187947440507,0.0047007715549589,0.0043151513234415,-0.0050985854255693,-0.9952019473751096,-0.097612958950168,-0.0854576761053283,-0.0222804523195078,9.74955048186067,-0.0096387123186041,-0.0328201932290486,0.004022843954473,3.667270932540703,4.869021687189887,1.1867819518793243,1126.9156489018335,1116.2603723012735,1138.90064278752,1137.3790616273232,385.4763853511568,268.68985905567234,224.12673134286277,-47.343933686398586,150.76443778593404
3.7975,-0.2755899357039515,0.5887649913636981,-0.533497889167069,-0.0266031245623973,0.0121585244051301,0.0034066418790429,0.0043139039858464,-0.0050562657163915,-0.9952026112974808,-0.0976083488133446,-0.0859411078919572,-0.0235631734747669,9.747663804175252,-0.0098067233338041,-0.0329893102274541,0.0039242811033938,3.667309651551935,4.869091228775255,1.18678863565534,1127.778445164329,1117.1067931776809,1139.17122609517,1137.2047792189635,209.76966997362473,343.12765267293304,-11.345405802557396,-67.20929633460857,150.7662859912018
3.8,-0.2163041140615082,0.5498239157512289,-0.3710604076510288,-0.027927378797571,0.0135799666212056,0.0032432166545715,0.0043154661573676,-0.0050128690009329,-0.995203207486712,-0.0976043164909343,-0.0864851128531592,-0.0248647725189025,9.745830538241952,-0.0099713706231699,-0.0331673099518181,0.0038188604296377,3.667350194199805,4.869160122769533,1.1867980011983734,1127.964497251702,1117.9760105646383,1138.8439157585071,1137.0430151456503,-64.58532449341438,357.8576062806164,-211.66577595316477,-60.17678383645537,150.76775266071155
3.8025,-0.109490016561425,0.4899034993600405,-0.1996582570853609,-0.0288954667582744,0.0151102272517818,0.0033650405303656,0.0043222499361323,-0.004968366156038,-0.9952035191938876,-0.0976029742594007,-0.0871474376122973,-0.026181326265081,9.744075715856058,-0.0101318186390414,-0.0333539317260971,0.0037021105679189,3.6673921320857072,4.869229724033644,1.186810351754832,1127.455518541862,1118.896081209084,1138.1128972154042,1136.9038952997812,-385.4807134198919,377.54531172568824,-370.99393300114446,-61.104759200089966,150.7691359340178
3.805,0.0608974339529928,0.405264871293976,0.0198932162957727,-0.0293696795301949,0.0167275800916408,0.0030487308535603,0.004335369215687,-0.0049221670007705,-0.9952035582204553,-0.0976042018177841,-0.0879588279352248,-0.0275183360848906,9.74243251813579,-0.0102876883279108,-0.0335477957958007,0.0035698311426774,3.6674348887691823,4.869301223299342,1.1868255674077495,1126.0370936846025,1119.8637371232667,1136.9889460935017,1136.7374913496499,-630.9465432715704,303.1618407303605,-428.64047468880017,-72.6791086934115,150.77069140701852
3.8075,0.2223254316809899,0.3365569439727842,0.2221235998581795,-0.0291208988185952,0.0175963886251065,0.0024467787207462,0.0043522451106377,-0.0048723112619385,-0.995203538285958,-0.0976060559785734,-0.0888741928157944,-0.0289029735622072,9.740941740362324,-0.0104390923796687,-0.0337465674691051,0.0034185879356817,3.6674782116993976,4.86937590015385,1.186842246661268,1124.300785825504,1120.4118904127358,1135.9696948419603,1136.540499756314,-756.2469154638328,140.38773628072093,-411.4464584639878,-107.86765608372892,150.77189485239327
3.81,0.3818839376388762,0.2866505849647855,0.4458912596134312,-0.0282180027415534,0.017619154706095,0.0021262939611165,0.0043724006459051,-0.0048215908408041,-0.9952037569256466,-0.0976054018302745,-0.0898956877052291,-0.0302772975440549,9.739647576152755,-0.0105866292726734,-0.0339472526444664,0.0032463373787248,3.6675225369479287,4.8694540123356225,1.1868593300139236,1122.2558591072834,1120.5656758046703,1134.9317138011816,1136.1981530692312,-817.7556866148453,-10.486218121059432,-419.6191555021504,-170.76294283020067,150.77299538647554
3.8125,0.52387071602856,0.260845992407989,0.676341531490293,-0.0268802595998193,0.0171347916739197,0.0025788376683893,0.0043942473899161,-0.0047752475172937,-0.9952048111203148,-0.0975959750266214,-0.0910052114528336,-0.0315367339538145,9.738596373433154,-0.0107314714945451,-0.0341466046251127,0.00305259097795,3.6675683842440336,4.869534952308862,1.186876460029792,1120.21200739243,1120.3594593221303,1133.8715990644496,1135.6866850421632,-754.0799887812387,-159.7906940706741,-437.6348489481736,-248.92394650701664,150.77400597714288
3.815,0.6285444448265278,0.260599392748797,0.8863943790369399,-0.0253377566226916,0.0169817251866348,0.0043685998373893,0.0044121188211207,-0.0047355928465569,-0.995206799098862,-0.0975769043705196,-0.092095360049386,-0.0326306720881027,9.737835189262933,-0.0108747975715692,-0.0343417677082173,0.0028382583942776,3.667615330692844,4.869618041217634,1.1868926572870224,1118.4854591633773,1119.766722334317,1132.7435395564407,1134.953533336696,-620.7088234088719,-319.7883884415728,-519.2179921892713,-365.7186680387063,150.77490303734282
3.8175,0.6941702191245526,0.2672690982005433,1.0698618229284655,-0.0235846594487534,0.0179820275268594,0.0081262728038719,0.0044224283404738,-0.0047056723125447,-0.9952096090098624,-0.0975493270664509,-0.0930951951442041,-0.0335018441028404,9.737406650952195,-0.0110181078995862,-0.0345305354339555,0.0026057133904635,3.6676624111099834,4.869702944301829,1.1869069365073663,1117.1084632753857,1118.7605173799227,1131.2755091035033,1133.8580917019697,-361.7300766150248,-388.6015093110665,-554.1047180024715,-422.9853456624993,150.77584234442463
3.82,0.686709651805,0.2583063423130507,1.1376403738453555,-0.0220335048177598,0.0195319486376109,0.0121290284567451,0.0044285140091124,-0.0046837994830107,-0.9952131612116238,-0.0975139563154179,-0.0940533299322349,-0.0342000040270132,9.737344806125595,-0.0111633757400708,-0.0347115727332144,0.002358149977189,3.6677087345066286,4.869788638979588,1.1869186464890504,1116.676808780302,1117.8237147877614,1129.9730159664284,1132.8386066083835,-20.6818580316835,-358.75999380352675,-521.2917811543423,-404.76668400958255,150.77650693698376
3.8225,0.5983479792965009,0.2195815355869238,1.1018688701667476,-0.019988882076266,0.0210916299591306,0.016000707675244,0.0044383066180329,-0.0046669395580433,-0.9952173088792288,-0.0974720493664713,-0.0950988516546694,-0.0348109641436649,9.737673103673085,-0.011312824583245,-0.0348845192563679,0.0020996175053728,3.6677541819922417,4.869873993155073,1.1869281002663772,1117.0050539852273,1116.9667174109047,1128.6690501977312,1131.8342582819216,289.97646389107723,-323.0059151874298,-543.94953193779,-404.37839558831865,150.7770448104739
3.825,0.3843612282199664,0.1416555573504088,0.9485025947221774,-0.0171307344475729,0.0222826424105115,0.0197672475586145,0.0044556566935061,-0.0046507636611572,-0.9952219259328275,-0.097424904299425,-0.0962734635500827,-0.035437675108222,9.738405218490994,-0.0114687454269663,-0.0350499214389484,0.0018349960831767,3.6677991659480655,4.869958593942754,1.186934994035675,1118.1266910997574,1116.2086852118243,1127.2532683067395,1130.816714630442,493.91986142983257,-215.86447997670356,-469.7381593650889,-318.02922047127817,150.77753971198933
3.8275,0.1175935787165819,0.0635877465357816,0.7485829121817251,-0.0148936870156637,0.0224593412166441,0.022052728317084,0.004480923181543,-0.004631465893338,-0.9952269006055225,-0.0973738190542851,-0.0975467877894645,-0.0361648817962485,9.73954334916995,-0.0116333606388138,-0.0352090621756896,0.0015698123507866,3.6678432609773353,4.870042010589264,1.1869382279855296,1119.4746532923764,1115.8873950110215,1126.320359400906,1130.2441121795653,568.6361968264131,-57.49908081179578,-295.42674384243304,-151.12236223167523,150.77782416171155
3.83,-0.215842654965836,-0.0084545350315441,0.5050839668905447,-0.0137542124353026,0.0219980475917896,0.023389189884994,0.0045142380758472,-0.0046066048163009,-0.9952320542587616,-0.0973207296641016,-0.0988819806297459,-0.0370480500503269,9.74107635515196,-0.0118086442191401,-0.0353637505423021,0.0013098202879156,3.667885891982284,4.870124284093889,1.186937471561323,1120.9698720838894,1115.9211898077651,1125.7761345875272,1130.0611028192836,626.2956968383737,88.65202375923408,-127.5640115636206,16.856999724132397,150.77797321521155
3.8325,-0.6339112629315226,-0.0713069922131241,0.1997261170645441,-0.0149616092960958,0.021244514575692,0.0237866567009235,0.0045546637194021,-0.0045706192986529,-0.9952370208545056,-0.097269685296301,-0.1002119229795028,-0.0381981884366983,9.74298028165527,-0.0119960033102273,-0.0355161183364361,0.0010602558874128,3.6679271673804177,4.870206253719155,1.1869337677394571,1122.606131776568,1116.3306551298176,1125.682539343088,1130.328397178186,533.4027677774543,198.4325854758069,67.13349271881414,171.74768242498797,150.77799283332575
3.835,-0.9451061218293362,-0.0992367213606487,-0.0431654329076207,-0.0181929963152844,0.020682547588792,0.0232595630166634,0.0046001363789264,-0.0045213477383319,-0.99524145851174,-0.097224386256983,-0.1014520735123631,-0.0396540909384843,9.745218783837,-0.012196206609431,-0.0356683460795253,0.0008258643314858,3.6679677479244814,4.8702884183782285,1.186928509987225,1123.6368859227766,1116.9133527351444,1126.1118020511215,1130.9198412314083,311.4598191394701,263.7885942193463,275.949593658021,292.15782004290014,150.77787458449808
3.8375,-1.1670829696389051,-0.1035515203227952,-0.2576869022423817,-0.022488387111893,0.020291526425764,0.0222962224114156,0.0046466272241358,-0.0044609191949059,-0.995245086566119,-0.0971878024264241,-0.10248757088636,-0.0413629277724215,9.747744825274376,-0.0124091978736285,-0.0358225526377603,0.0006107367296265,3.6680086870441744,4.870370372836216,1.186922492449753,1124.1634308722655,1117.6495981009143,1127.062287311378,1131.7891862784004,117.93412725515078,305.2898861954483,457.0636546916473,372.99165010436695,150.77761446905447
3.84,-1.2965700861402287,-0.0929482367074597,-0.4448723060657704,-0.0266839942716122,0.0200427638895596,0.0212282788782344,0.0046908772596781,-0.0043949511932274,-0.9952481020173248,-0.0971578062898891,-0.1032269162706332,-0.0431996848727586,9.750501766426552,-0.0126343140334266,-0.0359806191071547,0.0004180689504181,3.6680507046523614,4.87045171276379,1.1869159279728587,1124.2265565590524,1118.4398021661216,1128.3971203245796,1132.7847994819303,-79.99143104593173,313.4660307097208,604.1059733145677,402.51540689116166,150.77723517119236
3.8425,-1.3147963837292063,-0.0712245081059782,-0.6007423631857125,-0.0302653699598922,0.0199275326829416,0.0200821432024675,0.0047349916258906,-0.0043282531221171,-0.9952506166403282,-0.0971329165859268,-0.1036845818649177,-0.045060868195952,9.753424292076673,-0.0128699085037468,-0.0361442384026177,0.0002496925015236,3.668094796492253,4.8705324905304686,1.1869091808604573,1123.7634737170358,1119.216928254463,1130.082817177951,1133.8017633128563,-299.2237266103328,323.24291166644434,780.735563760747,422.85247953224706,150.7767103857402
3.845,-1.2241042938265236,-0.0403657450432045,-0.7544802484971646,-0.0337659720713885,0.0198861461100637,0.0185013028573298,0.0047805326919028,-0.0042620507209374,-0.9952525834197264,-0.0971134696459098,-0.1038629112448978,-0.0469080423740223,9.756443144617885,-0.0131134145855828,-0.0363148436006134,0.0001060786970338,3.668140833972065,4.870612919620042,1.186902609593768,1122.7304379260006,1120.056016724454,1132.3007981433836,1134.8990618795915,-431.1734914799309,284.4023728423569,807.8206103240235,365.537224567614,150.77591028053652
3.8475,-1.0687442660239395,-0.0152716074629751,-0.8539580974468106,-0.0362592727855298,0.0198978443534737,0.0169315837384945,0.0048293522923194,-0.0041997719080579,-0.9952539732863416,-0.0970995178555145,-0.1037809767827839,-0.0486573270350869,9.759487289158583,-0.0133617179786389,-0.036493470665993,-1.32311069954944e-05,3.6681888208310434,4.87069291622469,1.1868964079980984,1121.6076062596362,1120.6389401186748,1134.121920229571,1135.6294494356944,-469.10191596594893,204.32309269727264,674.4902416371276,241.11676754742408,150.77510006549917
3.85,-0.8438874635085521,0.005200445219143,-0.9171901641226872,-0.0386078909678163,0.0199307152240975,0.0151355304017072,0.0048818293866519,-0.0041454488074855,-0.9952547924242124,-0.0970908162171081,-0.1034385952070749,-0.0502080001113219,9.762487251322284,-0.0136113743251014,-0.0366806929411179,-0.0001095890684398,3.668238642530552,4.870772964283538,1.1868903231989947,1120.384928346171,1121.0776321879403,1135.6732493515692,1136.1046457173288,-528.0894066593304,159.93804187251385,570.1536354734011,142.63319113834163,150.77413930840083
3.8525,-0.507261092678914,0.0211175805508543,-0.9365581890349048,-0.0409014892090783,0.0199803134250607,0.0126533550591423,0.0049358853645377,-0.0041019906894652,-0.9952551018009224,-0.0970867388928282,-0.1027947739896689,-0.0514752693105068,9.765377947403982,-0.0138588145880094,-0.0368765791412037,-0.000185235417602,3.668290171676015,4.870853449234415,1.1868851405198773,1118.9671592263396,1121.438630328037,1136.972688406938,1136.342615391386,-496.4504519390736,108.86477166227682,356.93925788410377,31.80202966350475,150.7728108979717
3.855,-0.1835793143657159,0.025117003431887,-0.8915213856103951,-0.0421525740546733,0.0200270851983103,0.0101207860934317,0.0049903445919963,-0.0040683515234136,-0.9952552640545556,-0.0970836900162336,-0.1018283110740227,-0.0524523011011915,9.768099639916935,-0.0141007024684573,-0.0370806234648403,-0.000243485466917,3.6683430121538754,4.870934184588225,1.1868817849429398,1117.9026760864756,1121.6219560462516,1137.4579456409897,1136.2636558656463,-394.8850909066634,57.762828888372816,58.3005461760889,-80.86263592508828,150.77155700144152
3.8575,0.1642966760070405,0.017030798896881,-0.767805622359742,-0.0427462237673333,0.0200788354986502,0.0071468341228725,0.0050402273016742,-0.0040449620149407,-0.9952555340517402,-0.0970793147874064,-0.1004562887003553,-0.0530980147647218,9.770601158775836,-0.0143337611993172,-0.0372918703927544,-0.0002879475251886,3.668397249012575,4.871014797133387,1.1868805344341984,1116.9927337718063,1121.7274444724792,1137.2641911378184,1135.9383022117606,-367.3102369543436,41.9295370756581,-229.09127299081356,-178.69308185864082,150.77015041579395
3.86,0.5753382483046056,-0.0095935778247701,-0.5250057732626073,-0.0422898855686575,0.0201411238575656,0.0037569533023328,0.0050781520575383,-0.0040328167254518,-0.9952559003558394,-0.0970740900329919,-0.0985590434864086,-0.0533589604811577,9.772840612240232,-0.0145547766007473,-0.0375089399632228,-0.0003223152838925,3.668453437098397,4.8710953424876,1.1868811561595984,1116.066124901704,1121.83160373163,1136.3124892760356,1135.3701904563532,-315.88095557892893,45.67694097631521,-444.4044990100037,-216.39916061320395,150.76828641420613
3.8625,0.8795978583416275,-0.0477592641289885,-0.2576393438929799,-0.0405244875385389,0.0201798230709958,0.0017402841677196,0.0051037720299159,-0.0040289700260608,-0.9952564604041908,-0.0970671566602354,-0.0961548132747549,-0.0532748183193846,9.774782857975888,-0.0147610586885048,-0.0377298716860042,-0.0003507219822054,3.6685111324604094,4.871176391612682,1.1868831649595306,1115.4133289939116,1121.9558291773608,1135.0421686427683,1134.8563064086943,-235.87553039076963,71.92770720752802,-568.4891755106107,-187.42285727752105,150.76658709792676
3.865,1.1011490345622137,-0.103579556696883,0.0415825587725792,-0.0373390787081719,0.0201706691275847,0.0009986414457803,0.0051203333812777,-0.0040271937030106,-0.9952574307530748,-0.0970563882073982,-0.0933330876938276,-0.0529599743169007,9.77640098284261,-0.0149506058036926,-0.037952130800885,-0.0003773217165408,3.66857017955106,4.871258755062428,1.1868866099112427,1114.88674724975,1122.1912422676676,1133.4700433984824,1134.4330761699655,-182.23522354201512,123.32094742546622,-649.5409627612528,-138.9864360871827,150.76473772146167
3.8675,1.2268358911564592,-0.1731762442736307,0.3303923079337614,-0.0335890742164041,0.0200793040936781,0.0014310310073123,0.0051277560884761,-0.0040210699861349,-0.9952591018528248,-0.0970390940446171,-0.0901244540198068,-0.0525308965188758,9.777678408442576,-0.0151221786079873,-0.0381727382443046,-0.0004055910141626,3.668630541516881,4.8713440325333215,1.1868907644332902,1114.5021528762015,1122.572433914488,1131.794463828962,1134.1613742282586,-100.99117140889788,197.60700204797524,-666.8161940678289,-64.40661273332036,150.76276541493078
3.87,1.2171557514248907,-0.2552784711739558,0.5584346864936663,-0.0298244082079067,0.0198182729431647,0.0032736677997241,0.0051231575756545,-0.0040077313004182,-0.9952614178080355,-0.0970161351772706,-0.0865159699740508,-0.0520353475161508,9.778607947606377,-0.0152750490590621,-0.0383886699832553,-0.0004378975748004,3.6686915773550703,4.871432642468736,1.1868948544821332,1114.3817913927055,1123.1792772779074,1130.135962428143,1134.111043106299,39.60728971155816,322.2998879955481,-702.2729142024368,22.43299535020972,150.76064720791084
3.8725,1.0410459748596124,-0.3581990424067226,0.7081534151034768,-0.0256677120092108,0.019212881150212,0.006829211044232,0.0051089221882524,-0.0039859269917912,-0.9952638388452856,-0.0969929852772359,-0.0826028825469855,-0.0515051283182019,9.77918828977172,-0.0154088941030608,-0.0385972867681236,-0.0004758745268512,3.6687528844407633,4.8715238487999,1.18689817354639,1114.700189324759,1124.1839333544658,1128.28309925795,1134.2735392050097,215.7436318834744,405.9207159216471,-646.6800072365596,80.12360682464703,150.75794036754115
3.875,0.7624824488203071,-0.4368931796590829,0.70590706423888,-0.0226463392242231,0.0184225704800014,0.010376876547746,0.0050928380210692,-0.0039537379141254,-0.9952656340841478,-0.0969768145161915,-0.0785856535237517,-0.0509994053486411,9.77942313873632,-0.0155239429234355,-0.0387966110850014,-0.0005206491921671,3.668814166219728,4.871616455888383,1.1869000838277564,1115.4605095521229,1125.2088808575156,1126.9025623919606,1134.511661140422,421.02659471312097,424.5996957755869,-508.58978847446633,85.54262183447646,150.7555503448944
3.8775,0.3664353864516207,-0.4922897713165071,0.571044325622621,-0.0204271281432364,0.017377185778664,0.0135865447418705,0.0050786209645005,-0.0039125809468068,-0.9952665975242984,-0.0969694639000335,-0.0745921356693464,-0.0505063922066792,9.779323083635331,-0.015621430646819,-0.0389853308780518,-0.000572338247867,3.668874012308608,4.871709317253401,1.186900089476498,1116.8053222983249,1126.3069318333437,1125.7401503155777,1134.701252314182,716.3689804233552,458.3798155599295,-444.73410687197463,29.47310141589759,150.7530252659253
3.88,-0.2040598955678329,-0.511047264618746,0.2920813651163232,-0.0193063291075316,0.0157821932113491,0.0158755936872805,0.0050651904218727,-0.0038624785247479,-0.995267050730548,-0.0969676493754142,-0.0706530910909835,-0.0500331840468001,9.778904705033892,-0.0157034114203045,-0.0391628387453184,-0.0006305861073371,3.668932404035396,4.8718023046404735,1.1868986687118555,1119.0423544542396,1127.5007799353152,1124.6788918576008,1134.6590266475016,895.0922702523108,383.6490096480442,-317.0954338131891,-88.90270087585432,150.74984484974277
3.8825,-0.7178357334087683,-0.4720674705915357,0.0063004410322476,-0.02008530042991,0.0139821145026643,0.0160537079972968,0.0050530135504396,-0.0038045034731038,-0.9952670827437444,-0.0969703443881249,-0.0668286668151166,-0.0495705032630838,9.778187665499175,-0.0157719338983525,-0.0393293945855866,-0.0006948410997766,3.6689900856254,4.871895122284981,1.1868968450618391,1121.2807836495867,1128.225176881584,1124.1546731465116,1134.2567388098028,916.485686805374,198.37477873105425,-114.35005352581494,-258.5865780404045,150.74707398486967
3.885,-1.214425426099618,-0.3649151433430595,-0.2767874233545629,-0.0228500745310301,0.0118835996726285,0.0145214844669353,0.0050433297595606,-0.00373764331912,-0.9952669447783216,-0.0969749035836168,-0.063186833567588,-0.0491503528759316,9.777194330016783,-0.0158291497638837,-0.0394858909535428,-0.000764686780613,3.6690472856364176,4.871987141187105,1.1868948985808545,1123.6247828882667,1128.4926538289703,1124.1071415899717,1133.3660937572995,975.2909488439609,-13.633773189440326,105.0460319761464,-505.51081165459607,150.7441843033808
3.8875,-1.7260537742605202,-0.1622638377788316,-0.5608442682514208,-0.0280122835595764,0.0100111092227321,0.0114733129608933,0.0050352785441415,-0.0036605156999548,-0.9952667247824352,-0.0969804877437618,-0.0597499398693174,-0.0488067597136472,9.77595001841922,-0.0158769386160976,-0.0396338002198046,-0.0008396402360392,3.6691042274824337,4.872077685891907,1.1868921856433055,1126.1572383938064,1128.1570080156368,1124.6799033063924,1131.7291847515298,824.4015457996005,-236.67891644386648,315.78075065463725,-677.9319264886143,150.7405873904567
3.89,-2.043631958792412,0.0505904979987181,-0.7320892799284784,-0.0333858516796679,0.0096043845814788,0.0086874741583758,0.0050264325312016,-0.0035753400854735,-0.9952662383300692,-0.0969889955272594,-0.0565122887415143,-0.0484988001560355,9.774482395700637,-0.015916784436288,-0.0397749721122403,-0.0009189263044414,3.6691611351160702,4.872166595675826,1.1868881138489027,1127.7467906172647,1127.3092592467513,1125.6860453432448,1129.9764341248565,473.3329959250669,-442.0390141215743,497.8323989661128,-744.9794323649415,150.73748858815097
3.8925,-2.216598900744413,0.2782225105214964,-0.8361139407422791,-0.0394166357354913,0.0104774241390864,0.0062479483721143,0.0050163059651083,-0.0034837854887872,-0.9952652161041772,-0.0970031229190113,-0.0535005838777959,-0.0481972382633606,9.77282047527236,-0.0159499137304272,-0.0399112778201903,-0.0010020585798264,3.669217647497124,4.872254069642454,1.1868829002708492,1128.5239033734315,1125.946812945029,1127.1690653012229,1128.0042875897052,152.87392419604984,-605.2114991121599,650.7334582691012,-790.927569464719,150.7342925419397
3.895,-2.257443414751349,0.4958834899302391,-0.8968821481510688,-0.0457538601985208,0.01207835843677,0.004252408669267,0.005006599312359,-0.0033861734618461,-0.99526353233212,-0.097024038683182,-0.0507773384571416,-0.0478999790623906,9.770994652297007,-0.0159774680419325,-0.0400442449251377,-0.0010890555264566,3.6692735690707954,4.872340640644657,1.1868779755874044,1128.5111602382449,1124.2832017511903,1128.9397126345903,1126.0217962775328,-197.79543480567972,-697.2164763035529,742.3310047900643,-754.2860509441358,150.73102200538003
3.8975,-2.138910209977851,0.6834114115468223,-0.9243366382659656,-0.0521965138777219,0.0142822302599828,0.0026418522800916,0.0050025464615881,-0.0032783220084539,-0.9952614022368304,-0.0970493921572962,-0.0484612864153785,-0.0476958824026136,9.769036609461512,-0.0160006157994941,-0.0401747560796545,-0.0011807772611454,3.669329510763825,4.872427802447285,1.1868735692233752,1127.5349261994031,1122.460730563511,1130.8807203251731,1124.2328573349846,-622.6486763585532,-785.2300083699614,844.1223856070972,-698.7265793763676,150.7276693110388
3.9,-1.8340181607075423,0.8647284374864407,-0.9361645267061706,-0.0594997654549135,0.0171615266695861,0.0009826030119308,0.005011553251007,-0.003156908551769,-0.9952591972082272,-0.097075097138151,-0.0467110598516765,-0.0476585132389498,9.766979754913498,-0.0160203658531494,-0.0403030390585411,-0.0012783891850826,3.669385565004059,4.872516813198102,1.1868695374176828,1125.397916856452,1120.3570517093408,1133.1603245626256,1122.5281633806512,-903.3013201536351,-726.0258037244931,794.8563597815256,-529.5086479324807,150.72356130972997
3.9025,-1.4779753843493566,0.982333659668774,-0.9311818169866156,-0.064552861031802,0.0194747498359725,-0.0003792124867772,0.0050357432094825,-0.0030223973815,-0.9952569120588662,-0.0971010681856556,-0.0455856750928022,-0.0477764245254573,9.764861061563089,-0.0160370923085862,-0.0404289787900064,-0.0013827377381938,3.6694423824955953,4.872607661216206,1.1868655974638396,1123.0184195986349,1118.8306015448886,1134.855002124081,1121.585314095322,-1011.8652505499766,-541.6647194773848,606.3183957569025,-263.91121283330034,150.72007501983202
3.905,-1.076010712311787,1.074318534782457,-0.899775574408661,-0.0676626144544414,0.0217168520036595,-0.0021030282050781,0.0050771684262157,-0.0028772342541043,-0.9952540514817548,-0.0971321971730915,-0.0451426505401898,-0.0479988709117827,9.762719816314153,-0.016050450289347,-0.0405523719655559,-0.0014946174588932,3.6695004917552287,4.872699859060978,1.1868616855346312,1120.338590603702,1117.6487281119537,1136.1919165414104,1121.2086073164846,-1167.3701583244358,-437.4106165059495,488.56152962722393,-32.33924039509544,150.71653284321425
3.9075,-0.6219536929395916,1.1647268825069899,-0.804964617742935,-0.0687659706033043,0.0244708187583934,-0.0049558259285748,0.0051391818124835,-0.0027259292579121,-0.9952503546785328,-0.0971708637546411,-0.045465329524712,-0.0482364459934275,9.76059722521868,-0.0160600727715264,-0.0406729003825132,-0.0016147708735104,3.669559891079828,4.872792463193457,1.1868577822473885,1117.1815688070128,1116.6435484623587,1137.297809772217,1121.4236178933463,-1092.5313705365857,-310.79245395536174,321.19633802227094,182.97257278004895,150.71222898131492
3.91,-0.3195268019021503,1.22627448471729,-0.6580968999044358,-0.0677042591035478,0.0268991301409914,-0.0079887572611531,0.0052185430315084,-0.0025752677169994,-0.9952460261404292,-0.0972149653956832,-0.0465099116430734,-0.0483424464934361,9.758538098100932,-0.0160659239518823,-0.0407901923604238,-0.001743510627438,3.6696207683820745,4.872884653816598,1.186854162262514,1114.8759337510191,1116.094765842177,1137.7978982315217,1122.1234701803849,-802.9408698789382,-182.83859149415028,121.2434821503874,369.4713697953,150.70860657996383
3.9125,-0.1305863818177188,1.27025544731258,-0.4301028345251515,-0.0656035598250542,0.0295296251342557,-0.0110653239491349,0.0053109233267572,-0.0024357293009949,-0.9952416573904828,-0.0972584049627139,-0.0482148801893793,-0.0480964546741718,9.756589194443245,-0.0160684593323096,-0.0409038491382164,-0.0018807620814609,3.6696833761343934,4.872976081371833,1.1868508263097879,1113.1668644576182,1115.729355504888,1137.904027182969,1123.270974742323,-580.6272589597153,-147.46737789019195,-28.55917198685408,577.6923511152413,150.7049571182459
3.915,-0.0247212400305051,1.290960004085066,-0.0824054756663326,-0.0636586000860218,0.033143075026397,-0.0133540407054244,0.0054066929839241,-0.002314243918206,-0.9952376456607716,-0.0972974626541778,-0.0504047485157744,-0.0473384969635676,9.754799918458446,-0.0160683789163257,-0.0410135618049549,-0.0020263799348599,3.6697477568125976,4.873067359698558,1.1868473889222528,1111.9727974562206,1115.357428952726,1137.6551023715874,1125.011931935961,-291.0256815354904,-139.9714969378722,-143.21312085376425,674.7511981750139,150.7005577579637
3.9175,0.0013236508852384,1.270105178942628,0.233016612154529,-0.063658993567751,0.0367103916580792,-0.0133640925859195,0.0054978058208196,-0.0022084946760438,-0.9952341101989072,-0.0973313999998352,-0.0529124366462198,-0.0460933385004718,9.753220162742751,-0.0160668130570793,-0.0411190479977192,-0.0021808117894188,3.6698128483168655,4.873158874002806,1.186844260571418,1111.7117360499408,1115.0294980201988,1137.1879615787,1126.644730733198,29.793508671401195,-137.5075135070376,-230.70778797364744,665.0737291489037,150.6968827865505
3.92,0.0238992913404912,1.200069745773111,0.520080159941887,-0.0653411809784135,0.0406730875402274,-0.0114290286718279,0.0055830496358732,-0.0021131650313317,-0.9952314712650552,-0.097356091272187,-0.0556926423917953,-0.0444587857801714,9.75189806159812,-0.0160659860188395,-0.0412198517727516,-0.0023447526617995,3.66987681897156,4.873250904970496,1.186841876107724,1112.1217649995776,1114.6698913851908,1136.5015634317192,1128.3373005817054,248.27435961302015,-138.644577731887,-304.07578508439394,672.8609852241024,150.6932075364061
3.9225,0.0798562485829179,1.0913357636134255,0.7470030533088586,-0.0673591557574872,0.0443951842178047,-0.0084958598525776,0.005660097455206,-0.0020237541418705,-0.9952299983384943,-0.0973690148727785,-0.0586739834704374,-0.0425178881093472,9.750880908279033,-0.0160687867133087,-0.0413155182425515,-0.002518398280865,3.6699378648125407,4.873343013786487,1.1868398395217348,1112.9531078480059,1114.3362751315394,1135.6675826532783,1130.0090356593184,392.6309980533196,-104.16139022985796,-358.5365510577716,654.6507159843726,150.6895383711859
3.925,0.1910980334240013,0.9533293318215352,0.8754582915914815,-0.0686278759485865,0.047004674550195,-0.0052312582443055,0.0057300604018047,-0.0019389164713542,-0.9952293657863344,-0.0973734737904021,-0.0618514799336508,-0.0403036065165776,9.750212774175926,-0.0160780969688264,-0.0414056839500616,-0.0027013001861688,3.6699958850803895,4.873434996807603,1.1868378041950132,1114.0849199898444,1114.1490844340415,1134.7088806764302,1131.6105541616275,513.1359805726896,-17.042682432792148,-431.83118510480006,685.3188386958656,150.6858838033894
3.9275,0.3720971588198972,0.7866606034483782,0.9089065678152444,-0.0687441487312811,0.0485807253317649,-0.001693312288742,0.0057971511309336,-0.0018628364608696,-0.9952290855205485,-0.0973741404325957,-0.0652847514663265,-0.0377522585473231,9.74993315078876,-0.0160967298468367,-0.0414898318565013,-0.0028920701758374,3.6700517689883214,4.87352681385638,1.1868351523905452,1115.5187877508695,1114.2510617193755,1133.508426727754,1133.435629852798,503.87028849441936,108.55383123671577,-431.31623455284176,654.1117147320759,150.68152411104217
3.93,0.5338535610890046,0.6666653537150475,0.846039265511385,-0.0675314236013836,0.0491685776734591,0.0007464255253993,0.0058613949401536,-0.0017993114302378,-0.99522883563543,-0.0973742435369829,-0.0689457815538953,-0.0348047823436742,9.750077849627248,-0.0161273162080706,-0.0415670469325117,-0.0030885282140888,3.670106063171683,4.873618377368297,1.1868318615037796,1116.6042714323164,1114.691853590225,1132.552299503666,1134.8811127352878,380.91837663992817,256.71021643721,-350.1014153627768,564.030190369079,150.67791870489643
3.9325,0.6678217068348704,0.5736982887474003,0.7101522326083833,-0.0649867047442555,0.0496771267176854,0.002685677606946,0.0059229517098038,-0.0017480987209543,-0.9952284049148932,-0.0973759571248106,-0.0727965825579824,-0.0314864604390652,9.750676983274916,-0.0161719672857486,-0.0416358885668206,-0.0032881979802858,3.6701598983220967,4.873710051026166,1.18682676572999,1117.423379634069,1115.5346128015615,1131.7579196509403,1136.255780804643,278.28615343569845,453.2609508712636,-285.72486216781425,587.5414432645937,150.6743490273558
3.935,0.7644004816580398,0.4797958056097333,0.4917446285895784,-0.0608927710018302,0.0504828993109956,0.0044231678592489,0.0059804661608249,-0.0017053594875769,-0.9952277230200623,-0.0973801783098649,-0.0767590194789987,-0.0278955696637643,9.751754646140173,-0.0162321429399315,-0.0416943272220032,-0.0034883301929318,3.670214535478872,4.873803130242606,1.1868192904032369,1117.9957021994949,1116.9581583445813,1131.123675192827,1137.8188199516107,134.8182392484006,574.3845999763503,-164.30368764668296,555.1361247886807,150.67011440667605
3.9375,0.7877970478582559,0.3954671660500703,0.2854990315410902,-0.0574770526984408,0.051471309169022,0.0054174472316437,0.006036164414156,-0.0016667041164442,-0.9952269189368056,-0.0973855609920104,-0.0808206889730711,-0.024153994362216,9.75332668573108,-0.0163086720436407,-0.0417398182408554,-0.0036861008134074,3.6702704734569487,4.87389805309248,1.1868095786617427,1118.097470830311,1118.4065358014432,1130.9364012127069,1139.0314614285867,-38.54806875442674,611.1520408632845,4.138166610391724,458.15833977973006,150.666631711862
3.94,0.7750262248993404,0.274722280727084,0.0804970029568345,-0.0551255516757756,0.0529072793317025,0.0059019382948769,0.0060948913993325,-0.0016272313775562,-0.9952260011695636,-0.0973918343450932,-0.0850177154665619,-0.0204051883918657,9.755400539956867,-0.0164015471213749,-0.0417696522073517,-0.0038788382567737,3.67032780714058,4.873995157639393,1.1867982776520438,1117.8029618557227,1120.0139185488977,1131.1443660258788,1140.1096116505091,-217.413987460127,721.6120583783022,176.5057682556327,428.81821589904575,150.66320296815283
3.9425,0.7660672226868411,0.0591506433214883,-0.1324321436712511,-0.0538376381926912,0.0550179383271794,0.0054418649245189,0.0061561496353649,-0.0015881684657235,-0.9952250154215236,-0.0973985518497021,-0.0892941769979897,-0.0166694563172827,9.757977056407329,-0.0165101960563777,-0.0417812898304703,-0.0040633910803403,3.6703865397618607,4.8740939235195455,1.1867857216853417,1117.0104008930105,1122.0145960933346,1131.818930053985,1141.1755525080819,-356.885550664741,733.7353967025095,302.94907053060115,339.4676447716618,150.65915748006717
3.945,0.7971234494010305,-0.1861276536374337,-0.2609721866594523,-0.0536772622880032,0.0566585845968164,0.0039807729705785,0.0062184363405045,-0.001553703286242,-0.9952240603230814,-0.097404746431909,-0.0935815159593898,-0.012912684675244,9.761049561726947,-0.0166336067729142,-0.041772640895435,-0.0042367158540605,3.6704470059496614,4.874193247008681,1.1867717010751964,1116.0185341023987,1123.6825955324105,1132.659111378532,1141.8069498743675,-448.90548168493,655.7577576808866,364.6905801489292,180.6782638498922,150.65584834438422
3.9475,0.8871391761414528,-0.4815959924932633,-0.3242369153057326,-0.0535064718287227,0.057079627396872,0.0020225524802203,0.006282581748711,-0.0015271372905671,-0.9952232451821668,-0.0974092147877985,-0.0978572208620116,-0.0091262017230459,9.764603543367215,-0.0167704374983605,-0.0417422508288799,-0.004396465932932,3.6705092116560865,4.874292259408461,1.1867566989603282,1114.7658734845857,1125.2933848817393,1133.6423829547296,1142.0789438273312,-522.8416626474084,624.13809441256,388.5161692147532,35.01021562156058,150.65260889399008
3.95,1.018182271911688,-0.7860788493352774,-0.3364522053767478,-0.0524652189080488,0.0556846812064135,0.0005438767457557,0.0063488773935033,-0.0015046095721982,-0.9952228378453236,-0.0974092630085844,-0.1020779959221672,-0.0054415719060658,9.768618957130958,-0.0169193448599234,-0.041689288293806,-0.0045414898839552,3.670572687855141,4.874390946989092,1.1867416927036392,1113.404325789162,1126.8032860044732,1134.6016922246058,1141.9820009524756,-532.9109784437719,560.904098231652,338.83230918923607,-140.13295567424692,150.64943092618384
3.9525,1.1663502098331076,-1.0521981370334423,-0.3051639348045079,-0.0498767581268128,0.0522928644986839,4.544087458171685e-05,0.0064152070835903,-0.0014847634279216,-0.9952228558907662,-0.0974048707740647,-0.1061627580423005,-0.0019384847675185,9.773070760997038,-0.017078824524929,-0.0416137856176063,-0.0046709882094823,3.6706368255119326,4.874489505980088,1.1867277646270407,1112.1013185923669,1128.0979053728975,1135.336544500676,1141.37827904896,-501.0207520054898,490.3689009624591,224.13103657423127,-382.53196836763794,150.64633117623094
3.955,1.3116521478405132,-1.275797104481858,-0.2435833326427892,-0.0453631080659382,0.0472387190589279,-7.784212173263594e-05,0.0064784424678301,-0.0014690165485647,-0.9952234220133976,-0.0973949847701192,-0.1100205858981206,0.0013605656958797,9.777929110333732,-0.0172476052146022,-0.0415165323843324,-0.0047844133100049,3.670700912473499,4.8745878072061535,1.1867159429864689,1110.8992220291343,1129.2551305092854,1135.7223474074767,1140.0693411106374,-337.8922786931143,337.9258336721322,34.1663711448753,-560.0785849425512,150.64270646405694
3.9575,1.3730415809061556,-1.3631139415713402,-0.1856173398222462,-0.0410013555458024,0.0429781334263083,-0.0001031044784153,0.0065385027626884,-0.0014582503465866,-0.9952247389553,-0.0973775616965189,-0.1136237739003058,0.0044200738103628,9.7831589229228,-0.0174245937324573,-0.0413990414283365,-0.004881630557633,3.6707638360142822,4.8746853410434445,1.1867056565242926,1110.411857198901,1129.787534541258,1135.5073763564003,1138.5778861242475,-48.28500182129677,107.80658657345388,-206.55142675109784,-639.3140975993128,150.63976782853396
3.96,1.3501961332837285,-1.346198313596746,-0.1278372774870505,-0.0366913500093738,0.0388404383151873,-0.0001190723782185,0.0066000918535534,-0.0014529280883986,-0.995227115648659,-0.0973491564292833,-0.1170422428955235,0.0071923830969697,9.788719681236792,-0.0176087511274951,-0.0412634638377631,-0.0049626860601098,3.670825106918576,4.874781373452722,1.1866959890375135,1110.657797020028,1129.7941634421527,1134.6895902737215,1136.8727706226407,298.4365374493854,-120.23234166740876,-479.559012165065,-738.9608327472318,150.63691699553135
3.9625,1.2229503425192818,-1.2251363743774426,-0.0579119508763693,-0.0323989830066443,0.0344345885326381,-0.0001656981015746,0.0066612801745114,-0.0014472466966311,-0.9952304176487649,-0.0973113513345404,-0.1202107788253503,0.0095253781461159,9.794570894557184,-0.017798456384337,-0.0411126110404724,-0.0050275688941345,3.670886023625165,4.8748759698651805,1.186686185046631,1111.9040398861482,1129.186372832921,1133.109581295575,1134.8830819605112,608.8266987770156,-315.2188503305539,-646.789674559297,-678.5595490886404,150.6335999198932
3.965,1.0428541970327803,-1.0652972356631936,0.0052433239636704,-0.0297219357334976,0.0316590199786213,-0.0002412162155631,0.0067177748131766,-0.0014369276148191,-0.9952342233399296,-0.097268788547139,-0.1230267276195082,0.0113077317798739,9.800669959650657,-0.0179914785019406,-0.0409497750927758,-0.005075695780918,3.6709481552412577,4.874969128600312,1.1866756241288763,1113.701930513913,1128.2180691904998,1131.4556419009248,1133.4799728771975,843.3927747143001,-457.80926608269147,-679.862623459439,-476.472591302913,150.63092356794098
3.9675,0.8004453880118846,-0.8791910452636365,0.0801829339946767,-0.0278146605802424,0.0298707549616608,-0.0003486293445019,0.0067729365347815,-0.0014164258241685,-0.9952382561316436,-0.097224105617377,-0.1255394020420749,0.0123977554734652,9.806968989577907,-0.0181853309402371,-0.0407783608834438,-0.0051066107147189,3.671012700877892,4.875060502092379,1.1866640653766811,1116.12100375972,1126.8973265025074,1129.7102681782776,1132.5007190039967,1145.338140565015,-618.1292190479003,-725.8604957710003,-329.29784533785795,150.62833938568605
3.97,0.4511220019621219,-0.6608218191478432,0.1891575302434385,-0.0262442875691711,0.0286095613001612,-0.0004650307470574,0.0068305655809087,-0.0013812044708505,-0.9952421076145906,-0.0971812581406853,-0.1278138415180808,0.0126814149854995,9.813417388973415,-0.0183772979817334,-0.0406019028849347,-0.0051196129109922,3.6710794790823895,4.875150119538157,1.186651509381854,1119.4286212167383,1125.1274230952604,1127.8263394220699,1131.8334836505082,1227.1823450054203,-641.0927561046856,-616.070832266964,-179.35802288380202,150.62534541805033
3.9725,0.1179650676691609,-0.4996201243341047,0.2953508177437516,-0.0256035588610156,0.0280170481947968,-0.0004756158152593,0.0068918740603635,-0.0013328136907632,-0.9952456091258653,-0.0971418431932176,-0.1298802849672841,0.0121788752303558,9.819962627541921,-0.0185650817476524,-0.0404238589192907,-0.0051133865097436,3.67114847734056,4.875238508399176,1.186637746375251,1122.2569154847467,1123.691862721984,1126.6299140169428,1131.6039288895777,1084.9977835064924,-520.3448964548099,-369.60619612160247,-64.34755786376765,150.6229399149121
