t,ang_acc_x,ang_acc_y,ang_acc_z,a_vel_x,a_vel_y,a_vel_z,quat_x,quat_y,quat_z,quat_w,acc_x,acc_y,acc_z,l_vel_x,l_vel_y,l_vel_z,pos_x,pos_y,pos_z,mot_1,mot_2,mot_3,mot_4,dmot_1,dmot_2,dmot_3,dmot_4,vbat
12.5675,0.4398668063854187,-0.0453409757840624,0.144292829784068,-0.0026219221288929,0.0276555250236808,0.0077830324559699,0.0010787848930156,0.0091829411372377,0.0285010634346698,0.9995506540232209,0.0118361688572015,-0.0052842199779315,9.863270414560604,0.0372635040729129,-0.012008453739782,0.0007698208216702,2.9915047002663036,4.512218566090281,3.631391594964067,1115.6152793660867,1091.751061980584,1100.4458748364168,1121.0442218711423,-1064.0804756239659,-967.2511305405658,-474.275627586911,-111.2364564942535,161.84833316731607
12.57,0.7225445584469848,0.0230090779537264,-0.0204262478444475,-0.0017273873695567,0.0274034156587891,0.0069353576613143,0.0010709859843621,0.0092185396216008,0.0285475264358537,0.9995490133641516,0.014206328034149,-0.0044399267490896,9.862520208358916,0.037602945211853,-0.0121052070758203,0.0009267007946362,2.991605357360819,4.512194554980013,3.6313939032850655,1113.1284602202693,1089.6659919477645,1099.2698529191955,1120.6947297616769,-966.545437072374,-751.0368665945535,-478.81841316753224,-177.31197913511895,161.8472580521652
12.5725,0.9753085727504176,0.0661597727668774,-0.1599356576705049,0.0003033832820845,0.0275733495497382,0.0055101548872065,0.0010731745121407,0.0092554677979391,0.0285880215793328,0.9995475183916442,0.0163314921116792,-0.0031244598867105,9.861770310405497,0.0379493498084093,-0.0121938869550021,0.0010769270149802,2.9917056275323786,4.512169140663604,3.63139784763064,1110.782552180726,1087.995877647612,1098.0517827705796,1120.157661975467,-885.0846690254436,-572.7636125026961,-472.7390613296564,-248.20421599548112,161.84614239087108
12.575,1.172965452972598,0.0866855310775202,-0.2707303887834386,0.0036675003570402,0.027990600247945,0.0042545377301212,0.0010841290717168,0.0093012453229904,0.0286178802989163,0.9995462344928964,0.018040626922063,-0.0013822822315233,9.861026023428384,0.0383025772916482,-0.0122729074638468,0.0012189158060123,2.9918037723406066,4.512141453223408,3.631403914896712,1108.7030368751412,1086.8021738852503,1096.9061576125468,1119.4537086816993,-746.8403941844114,-338.87748583705775,-417.99877083547307,-323.93434603686205,161.84499559240288
12.5775,1.2737555642728924,0.079946564782215,-0.3522570670103039,0.0082511573891226,0.0284363765576685,0.0033515133769701,0.0010988566828206,0.0093561901903713,0.0286381763650909,0.9995451335343164,0.0193065105669233,0.0006596275599224,9.860294813997104,0.038662740987567,-0.0123413827683543,0.0013511199156681,2.9919002737544953,4.512112555363013,3.6314121854289345,1107.0483502098034,1086.3014902184264,1095.961788916402,1118.5379902452823,-619.1974453215929,-46.00793385489857,-346.3194970074944,-449.6639343390583,161.84381406525372
12.58,1.2684668616813175,0.0450815664146547,-0.4312428248833057,0.0134587091296937,0.0288980249692027,0.0025260559539617,0.001117594752742,0.0094139023505383,0.0286518145560845,0.9995441926377976,0.0202413969306528,0.0029705962030851,9.85958486627303,0.039029888116343,-0.0123990269502993,0.0014724927159248,2.991995878850216,4.512083565243819,3.6314208594864152,1105.607049648534,1086.572134215976,1095.1745601275095,1117.2053890100044,-437.30999255312395,240.3123547060682,-220.93658611420173,-520.620155634664,161.84235949059195
12.5825,1.1691870650680831,0.0005262149282577,-0.4916066796899657,0.016708626045259,0.0291584432355914,0.0020391558153644,0.0011417971963339,0.00946784847526,0.0286599906842154,0.9995434398215264,0.0209651343397707,0.0055420263289679,9.858903007826097,0.0394037317209533,-0.0124459455415599,0.0015830262929444,2.99209149511798,4.512055737987474,3.631428247841272,1104.8618002470382,1087.5030519919565,1094.8571059858311,1115.9348894671095,-206.52453780850416,497.35646303926336,-55.37522373078034,-526.8215468052035,161.84111904827918
12.585,0.9971867512667179,-0.0483944000316624,-0.5511732441038735,0.0187047559166831,0.0291158093111952,0.0015670408041963,0.001166847128452,0.0095142811834084,0.0286622633293175,0.9995429283638024,0.0215437196181362,0.0082463041053056,9.858253222065834,0.0397834378750847,-0.0124825500831004,0.0016837224648103,2.992188298674388,4.512029655117379,3.6314340051491,1104.5744269594911,1089.0589165311728,1094.8976840088555,1114.571281275978,-25.17644001918204,789.2991749770448,84.59145484720051,-599.7806927487517,161.83985181507006
12.5875,0.7337664544706062,-0.0963249272326706,-0.6125854107072937,0.0201266263388517,0.0286055587240661,0.0004806138748818,0.0011960064525561,0.0095499106097401,0.0286551378919673,0.9995427826397442,0.022043302508983,0.0111113502236974,9.857635337118143,0.0401676310854502,-0.0125091835824486,0.0017764779541651,2.9922874945273703,4.5120052323709565,3.6314376719704207,1104.7359180469423,1091.4495478668423,1095.2800632600672,1112.935986003365,139.19466237860473,930.3793925085789,171.57912122919473,-583.5233384910931,161.838302925104
12.59,0.475851816667304,-0.1174107866696171,-0.6395930586361523,0.0209965816007764,0.0278223094388806,-0.0011272035548015,0.0012311761846284,0.0095771162899745,0.0286367100727489,0.9995430295355322,0.0224224199364664,0.0141416368359574,9.857043666694494,0.0405543956429864,-0.01252626828601,0.0018639924296,2.9923892047198377,4.511980936952005,3.631439914266352,1105.2704002713842,1093.7108134937148,1095.7555796150016,1111.653664583523,287.12051526836206,920.2430553236736,182.46164950521108,-480.7747420556256,161.83699054965487
12.5925,0.1761373390594966,-0.1137770950084068,-0.6194909196971685,0.0220040823512595,0.0268814849204664,-0.003293587690721,0.0012684705072025,0.0096006680570683,0.0286088476948258,0.9995435728101136,0.0225942628283429,0.0172293956300933,9.8564668711695,0.0409414470596394,-0.0125343945632876,0.0019491337338632,2.9924926131376495,4.511955352535681,3.631441670492879,1106.1715206232843,1096.0507631434612,1096.1923715075934,1110.5321122930868,408.19064355685424,919.9357016617267,135.29401095554636,-414.55370230631047,161.83565779437023
12.595,-0.1626426391245293,-0.0932626659246008,-0.5483001195452557,0.0229709865861646,0.0261614343534434,-0.0056208133797375,0.0013044198502617,0.0096241296483985,0.028579451516224,0.9995441554118304,0.0225010504891341,0.0202750020279678,9.855887835491234,0.0413262703475971,-0.0125345853230427,0.0020346065785702,2.9925983153252145,4.511928900164237,3.6314431373388074,1107.3113534891688,1098.310492002024,1096.4320496697794,1109.5808960719912,489.2270031566632,849.3122840803022,15.19680122874281,-335.3480608607,161.8343095664609
12.5975,-0.5451010912297337,-0.0652707094587671,-0.4130511299804165,0.0231981713563345,0.0260729025578056,-0.0078121758391303,0.0013374279748238,0.0096495626686748,0.02855606479238,0.999544544716482,0.0221202560048755,0.0232164931171511,9.855283662759039,0.041706454705802,-0.0125279350171385,0.0021228670150123,2.9927068485191377,4.511902371983814,3.6314449390259584,1108.6176556390672,1100.297324563862,1096.268355513737,1108.8553719887836,574.0259886722248,764.8687663489156,-186.3694550895077,-265.6909607057588,161.83294426349912
12.6,-1.029962818135855,-0.042576137509458,-0.1930057187875826,0.0219637726703306,0.026585349088938,-0.0096057290413487,0.0013698778692575,0.0096753857436629,0.0285425364258919,0.9995446443602392,0.0215071748299221,0.0260704800801977,9.854626129666412,0.0420800275258599,-0.0125154072102508,0.0022159507967031,2.992818259283781,4.511876644369,3.631446427423232,1110.1814834325291,1102.134835833768,1095.500202394332,1108.2524412684627,543.1884927463276,550.6266600256871,-371.05565283230703,-176.62722883012034,161.83128802856325
12.6025,-1.423755102423162,-0.0423316522947589,0.0136118054755712,0.0194594943675582,0.027225186736982,-0.0098290169257273,0.001401163897603,0.0096974873339768,0.0285360091216823,0.9995445769645432,0.0207679593411772,0.0287959912660859,9.853882769794224,0.042445812199618,-0.0124975617821845,0.0023153510995121,2.9929317625773617,4.511852110836849,3.631446499312076,1111.3335981027992,1103.0504578639907,1094.4130772495753,1107.972235844633,400.45570262903414,208.98262142283247,-494.94508321269217,-66.32108320367351,161.82989418158263
12.605,-1.7585393976069474,-0.0619258804821922,0.2084581094182892,0.0152102745434743,0.0275913831574887,-0.0086169188594673,0.0014255068886513,0.009717587444908,0.0285307514126355,0.9995444958174876,0.0198926185773435,0.0312558729292765,9.853017470157985,0.0428035227981611,-0.0124747519548985,0.0024225232018875,2.993045578849248,4.511828583503576,3.6314448424900694,1112.1837619456749,1103.1797489408823,1093.0254769782682,1107.9208358524443,286.216561087315,-137.5982678373749,-618.599063149882,29.964299236468428,161.828487509064
12.6075,-2.03631287401689,-0.0959079045492274,0.397032250879293,0.0083526688161554,0.0273823646799685,-0.006363620559832,0.0014403788621816,0.0097408758179696,0.0285240610656469,0.9995444295970712,0.0188054669192137,0.0333808930600892,9.851991544253407,0.0431536752260284,-0.0124474549721698,0.0025386325923645,2.993158635433749,4.511805422177929,3.631442076978977,1112.7646809082355,1102.362466524804,1091.3200819338265,1108.1220573408152,139.71519974700692,-451.47602422462,-582.1358213175039,117.10593074506104,161.8267861401231
12.61,-2.1349694053900845,-0.1202794373122513,0.5082019450356489,0.0018316335449774,0.0267077205243517,-0.0044032093867374,0.0014450896588535,0.0097702091478471,0.0285149166362806,0.9995443804421668,0.0174776610171539,0.0351387382950001,9.850765930905318,0.0434975000716229,-0.0124160758943196,0.0026637898219157,2.993270487287699,4.51178215463491,3.6314399946093654,1112.8823379444095,1100.9223688197596,1090.1147978716813,1108.5063655061695,-13.852266833598712,-698.0404728639132,-386.637747642893,196.55975241172763,161.8253583830349
12.6125,-2.083469031649642,-0.1288854640286963,0.5790253061590735,-0.0046962529752507,0.0259024093785008,-0.0027280325555677,0.0014371567142274,0.0098049050033659,0.0284994279877547,0.9995444707935836,0.0159478757013435,0.0364622085490723,9.84930333871816,0.0438367800092374,-0.0123805566187385,0.0027967813751409,2.9933803253389457,4.511757765255707,3.631439787621899,1112.6954195740675,1098.872264160484,1089.3868931956115,1109.104856102874,-104.79333662104362,-881.9609103804381,-189.93601597427852,270.7400274074675,161.82392200460197
12.615,-1.9173385607363491,-0.1214890171096418,0.6302780035099836,-0.0107205301123101,0.0253595474720369,-0.001443342719214,0.0014148582860218,0.0098397344878695,0.0284740305875307,0.9995448586497624,0.0143431194650648,0.0372985987382315,9.847569931694032,0.0441733922246985,-0.0123407279359808,0.0029351538048891,2.993488178461192,4.511732075074046,3.631441791028114,1112.3583712613045,1096.5125642678568,1089.1651177918095,1109.860065643207,-140.09325876116296,-965.7336212507846,33.427443602529195,329.8827074235052,161.8224799849298
12.6175,-1.645407626834779,-0.0969075537660546,0.6762838608142773,-0.0154239332884391,0.0251286507982261,-0.0005160668404444,0.0013788891063791,0.009867525568144,0.0284419274918389,0.999545525185513,0.0128284462138923,0.0376432162753005,9.84553654105183,0.0445087086049308,-0.0122970331208962,0.0030757293006404,2.993595379200932,4.511706066542772,3.631447055655221,1111.9949532802618,1094.043596054231,1089.5540304136243,1110.7542696399912,-126.3614228619447,-1049.2043020101116,278.2481503442361,405.6561997424344,161.82103327705136
12.62,-1.2540796881914749,-0.0520690519333685,0.7405888171580339,-0.0192088467448776,0.0248599349246439,0.0005574990515442,0.0013353572419792,0.0098813718477728,0.0284119327916192,0.999546278676011,0.0115650615484618,0.0375997908742775,9.843179515793114,0.0448432900587881,-0.0122505421351493,0.0032152343419802,2.993703953062174,4.511680545039609,3.6314559007704736,1111.7265641469946,1091.2665427578052,1090.5563585435311,1111.8883466419195,-47.23418130842391,-951.7309013397028,413.60182394981064,407.5040284764145,161.81929491581624
12.6225,-0.916504924115822,-0.0053679165854659,0.8025425553706901,-0.0210485186707619,0.0246946068246857,0.0017454378460764,0.0012834281566526,0.0098813288454598,0.0283907709831889,0.9995469253294406,0.0105713284339792,0.0371417525767748,9.840482033247872,0.0451769512433136,-0.0122023431719954,0.0033510787613,2.9938153809538495,4.511656272699208,3.631466285449013,1111.7587823737197,1089.2849415475318,1091.6220395333737,1112.7917897823736,81.7505174594934,-696.0745214131769,414.90767407507593,329.58411893143614,161.81784689874576
12.625,-0.6083549216856364,0.0458178913161504,0.8618444030265942,-0.0219607908951163,0.0248587955007378,0.0035513717104666,0.0012183057962539,0.0098704032749602,0.0283805836380003,0.9995473788899412,0.0098035441682683,0.0361690391238456,9.837435001390528,0.045509025514323,-0.0121532051350107,0.0034814080111826,2.993930818435706,4.511633583103385,3.6314767252766584,1112.135316734292,1087.78617015074,1092.630896913906,1113.5362672365764,245.62155224867064,-534.0285363332595,372.217269783488,269.216235790699,161.81640288999483
12.6275,-0.3027316581827307,0.1066765454240302,0.9079119347218936,-0.0223452089167967,0.0252806028288954,0.0064696830493148,0.0011418091529898,0.0098551053806024,0.0283800423538754,0.9995476097958736,0.0091513297177525,0.0347164752323155,9.834036642113569,0.0458387168371024,-0.0121034481828226,0.0036054843883853,2.9940498897345886,4.511611698884556,3.6314858605621927,1112.9868901349628,1086.614798865866,1093.4831258822908,1114.1378709613268,367.22557159140416,-325.07280018248287,227.70000317665188,163.9598062628209,161.8146789711625
12.63,-0.111883022294198,0.1547760100143631,0.910211306043876,-0.0221989775896559,0.0256356132309586,0.0091870956052988,0.001058939760346,0.0098472777026817,0.0283866772877612,0.9995475664868048,0.0084001436987175,0.0328870771460291,9.83029304346504,0.046165471266277,-0.0120530380298194,0.0037236663104292,2.9941713365420934,4.511590042204367,3.631493287912944,1113.971444592249,1086.1608061498275,1093.7693969297895,1114.3560662678904,424.57260212170416,-83.21960139827361,24.62279525957071,31.101337303648197,161.81325295038167
12.6325,0.0122653085812928,0.1995533715022668,0.864259191783369,-0.0217642351532586,0.0261864278466065,0.0117299993757617,0.0009735287633032,0.0098556980719466,0.0283976324132654,0.9995472440625924,0.0073941254892237,0.030761862278651,9.82621994317372,0.0464893576640966,-0.0120016413410423,0.0038362796806822,2.994294094071697,4.511568274564757,3.6314985306141865,1115.1097531455716,1086.1987008588746,1093.6062398585887,1114.293377647845,454.3678441369133,82.8463995724343,-120.36988560037236,-60.73602610559946,161.81184162819872
12.635,0.0884035667341423,0.2421706823626701,0.7763894096472828,-0.0213236458117909,0.0270146830245782,0.013860532574573,0.0008864674843978,0.0098870614637999,0.0284094164522802,0.9995466845048065,0.006015714741536,0.0283659851689901,9.82184314288952,0.0468112273255704,-0.0119486543000063,0.0039433247053785,2.9944162401259966,4.511544945915329,3.631501721536405,1116.2432838129334,1086.5750381476896,1093.1675475017876,1114.0523861373626,417.1200290094733,208.7501864025072,-199.5567896227528,-118.22493062243636,161.81044522080535
12.6375,0.1219314297774816,0.2861871787426447,0.6400529159349297,-0.0210931292356934,0.0278909588932326,0.0153840157928713,0.0008006722021501,0.0099431490127855,0.0284166697916601,0.9995460334045654,0.0042438901836641,0.025765203295712,9.81719893264744,0.0471326802263178,-0.0118932175332905,0.004043954124299,2.99453557351789,4.511518908420808,3.631503990975176,1117.195353290619,1087.2424517908871,1092.6084559104747,1113.7022529947328,335.09737043745406,325.1975157594589,-209.3415612922527,-148.04087298109567,161.80907003975443
12.64,0.1349424426730134,0.351074883716767,0.4226075721970421,-0.0211333863895526,0.0286857702215849,0.0167078072643253,0.0007248957619547,0.0100157463026161,0.0284171651152351,0.9995454395381336,0.0022561335889868,0.0231379073544381,9.812335075603272,0.0474556095436211,-0.0118349773429079,0.0041357813413873,2.9946518958013946,4.511490285326998,3.631506155049848,1117.9187706651207,1088.2010257264872,1092.1208396953264,1113.312181772457,171.83414476579637,351.23961266965745,-104.973546471022,-117.1743815111546,161.8074484844925
12.6425,0.1364375057504043,0.4238339893918645,0.1957122962001977,-0.0213549016284635,0.0291265699412959,0.017599811931745,0.0006633344127645,0.0100906659954514,0.0284144431863505,0.9995449478119288,0.0003435985378094,0.0205738404705269,9.807311422242227,0.0477815715752265,-0.0117748009985526,0.0042149004628254,2.9947672245188954,4.511460352281527,3.631510237144123,1118.054524014448,1088.9986498542353,1092.0835881781195,1113.1163810871772,-58.91992682333047,292.828531498266,96.98782376919664,-34.76720648091723,161.8061240392736
12.645,0.1364940820566563,0.521405332580205,-0.0800900641142412,-0.0215232669754165,0.0295178539171744,0.0184182955725055,0.0006168796669372,0.0101618044900795,0.0284120797245806,0.9995445225769266,-0.0013637767350427,0.0181078371082255,9.8021978978966,0.0481113652134461,-0.0117145305844298,0.0042773578930552,2.9948826435177702,4.51143028666668,3.6315169511013625,1117.6241710310044,1089.665168383978,1092.6057788141723,1113.1383457400525,-322.0752819211108,246.48812487458383,370.5256844861072,64.60698120817041,161.80483095981546
12.6475,0.1334619944710961,0.660437335015902,-0.4603707381477058,-0.0211733896669992,0.0302922272011989,0.019051121722228,0.0005832242851732,0.0102289824617348,0.0284159350829154,0.9995440054613236,-0.002853801561206,0.0157213618518549,9.797074152007577,0.0484447674035668,-0.0116573333436712,0.0043192678174486,2.9949992286920954,4.511401509374517,3.631526125502523,1116.4441476048423,1090.2310904786084,1093.9362166005503,1113.439415993218,-532.5571510762152,166.87492610000965,592.9627132633851,149.96263664809177,161.80331953414128
12.65,0.1235060192700569,0.7788859093766745,-0.799726257657217,-0.0201543627046869,0.0315027112852041,0.0187631310668849,0.0005571899865521,0.0102912685759007,0.0284325108174048,0.9995432266400548,-0.0041002567254646,0.0133458753146864,9.792029402917944,0.0487805991888732,-0.0116074815701926,0.0043365627458113,2.995118556420825,4.511375739081694,3.6315384815626985,1114.961385275623,1090.4995430144784,1095.5705923804896,1113.888158923293,-669.6405991659017,73.06238785660388,729.1747632851725,206.34228856874424,161.80209646854823
12.6525,0.1058144770065999,0.8706665654880628,-1.1202889419549615,-0.0186963533270628,0.0336253045855261,0.0169735028725377,0.00053237457295,0.0103433229449544,0.0284624203013079,0.999542219680286,-0.0049900645223672,0.0108935169411231,9.78716134280888,0.0491170840748078,-0.0115694035200004,0.0043251035072187,2.995241152427203,4.511354426123521,3.631554270468477,1113.0959446090135,1090.596402417891,1097.5820904169757,1114.4711274360616,-780.0500346629777,20.32305896077242,833.6798550221436,244.31735648777976,161.80091467505562
12.655,0.0933762636046182,0.915654175889734,-1.3824262094987525,-0.0176397489728298,0.036587114322417,0.0135949025738956,0.000507982429669,0.0103854028243344,0.0285000749946699,0.999541117798334,-0.0055149845180892,0.0083957153070953,9.782572377164781,0.0494521085862854,-0.011547049702047,0.0042823035844103,2.995367545754971,4.511338378209164,3.631572971072063,1111.0611351023072,1090.6011583092823,1099.738991655601,1115.109745705732,-811.7994103812731,-7.333871480976758,855.5205442105516,259.5079310797749,161.79976965508615
12.6575,0.116318730023555,0.8818930022905882,-1.5215597293674963,-0.0178155131638941,0.040243786104729,0.0083219779603692,0.0004873903994163,0.0104200730354577,0.0285395214696845,0.9995400199928836,-0.0057077105349887,0.0059715165066355,9.77836760026094,0.0497835603923136,-0.0115437745541207,0.0042072718500955,2.995497905321791,4.511327456923424,3.631592756843689,1109.0369475571065,1090.5597330604865,1101.8596931380291,1115.7686670914607,-831.003248369763,-14.537649381603096,875.9251396641425,288.05418334856125,161.79867204852317
12.66,0.2246730421603047,0.7453772153196364,-1.5016876337273772,-0.0189099226815302,0.0445300365291342,0.0010124772759863,0.0004793427239696,0.0104483951866341,0.0285744211685891,0.999539021750936,-0.0055671090238077,0.0038468584715684,9.774652412123022,0.0501098591691613,-0.0115615939133097,0.0041007745806357,2.99563144111744,4.511320096521141,3.631610920495617,1106.9061188604594,1090.5284700623743,1104.1186173539209,1116.5500166224747,-694.0809929421465,-0.2708153111144013,752.892182296923,281.07646743775285,161.79741368879164
12.6625,0.399086535260038,0.5702560991045055,-1.3270495716154715,-0.0196978932526451,0.0471426676605479,-0.0045436328411297,0.000488350647645,0.0104775706566099,0.0285989535419371,0.9995381071901784,-0.0052138248880665,0.0021688163407688,9.771528388894064,0.0504303134897902,-0.0116007459354875,0.0039658031940093,2.9957661547024856,4.511313021688716,3.631624789552444,1105.5665425923964,1090.5583789839309,1105.6241540495128,1117.1740494286491,-411.9749882627995,31.417155692629056,503.1152501174015,236.22035473459565,161.79641690947767
12.665,0.6568945345458815,0.3758944791154712,-1.0243911535386878,-0.0196800766935841,0.0480031586058451,-0.0084411932408509,0.000512086918214,0.0105107492535926,0.0286078103927102,0.9995373226410068,-0.004693717242645,0.0009466638777232,9.769091481466402,0.0507454280213439,-0.0116594412649189,0.0038061175256528,2.995899651042622,4.511303305570828,3.63163386205344,1104.846243919145,1090.6855558408374,1106.6341936045083,1117.7311183961478,-156.17970733580765,87.33583416809321,321.9761515401339,215.43803753076003,161.79547738940295
12.6675,1.0286366220181336,0.1798297987547153,-0.5894670765655557,-0.0182765217902121,0.0470073836204553,-0.0106774390544624,0.0005427847550746,0.0105514193557341,0.0286035064105019,0.999536660680862,-0.0040642768223498,7.877456780110233e-05,9.767428250468242,0.0510565936998034,-0.0117347367363005,0.0036261195229902,2.9960314319388415,4.511289635569932,3.631640659346581,1104.7856440557173,1090.9950581547714,1107.234034807214,1118.251239616303,107.690612194459,146.6875975165131,121.8426797114504,154.82379385369663,161.79442011788925
12.67,1.3505991296761155,0.0782631708309479,-0.2301846420259398,-0.0157034425796971,0.0452223464345991,-0.0106581481646916,0.0005707846221504,0.0106056511730726,0.0285890858672876,0.9995360761104172,-0.0034377918517347,-0.0005787907731363,9.76661281967123,0.0513659054866132,-0.0118222335462964,0.0034306931822342,2.9961617294190552,4.511270917861289,3.6316470670888186,1105.3846969801173,1091.4189938284198,1107.2434070030652,1118.505237365416,349.1624869270494,212.21869834275495,-85.1468164291133,55.42780116580809,161.79360024503694
12.6725,1.62880458135478,0.047211302151101,0.0604153351777775,-0.0116115855921901,0.043833216705186,-0.0093154305532884,0.000593948381618,0.0106721350652804,0.028567503576142,0.9995355655487336,-0.002782655540054,-0.0010359579032261,9.766705944605462,0.0516758582951659,-0.0119166021803136,0.0032241986287941,2.9962915459589965,4.511247133985592,3.631653326337556,1106.531456490352,1092.0561516464848,1106.8083007250684,1118.528378622132,581.0276136650374,336.6096276521986,-274.61257932418704,-42.84929006466212,161.79284675851596
12.675,1.8495898479290291,0.0605728485022579,0.2810996378637344,-0.0053030312077953,0.0438734641922502,-0.0068012910801426,0.0006067299926306,0.0107434059908769,0.0285428802389096,0.9995351329918069,-0.0019541850635897,-0.0013827003143258,9.76775295691406,0.0519889853910412,-0.0120124907742227,0.0030103601129839,2.9964217711676335,4.511219896809768,3.6316592847174767,1108.289835048443,1093.102041966681,1105.8703441064442,1118.2909909150928,664.9434223066107,432.4643578831689,-399.18872286355634,-122.89266849468628,161.79202214441975
12.6775,1.905030085261536,0.0799544407951278,0.345474532377451,0.0005984713548648,0.04507968570021,-0.0045790600459366,0.0006061344601987,0.0108183506316337,0.0285152818786592,0.9995348088970601,-0.0009358656915122,-0.0016657946158359,9.769780355481492,0.0523077215956807,-0.012104561250865,0.0027937286996144,2.996552396530357,4.511189951132442,3.6316645988609566,1109.8561736018855,1094.2184734359012,1104.8123571107503,1117.9139152796583,597.7708480885492,494.4732109005219,-465.1825240393025,-169.89297819762865,161.79140299304228
12.68,1.807250238923516,0.0756342253285041,0.2970465260049104,0.0064365383479867,0.0464090827533838,-0.0029003101348429,0.0005977394390654,0.0108967870419549,0.0284869823690435,0.9995345307606992,0.0002696341664494,-0.0017743025180267,9.77279532248835,0.0526342016763522,-0.0121885813159531,0.002579271829234,2.9966838544332233,4.511157702409028,3.631669000646309,1111.278689288885,1095.5744080211832,1103.544431486248,1117.4415260241049,516.0835166487334,574.2553497048459,-530.6941760368397,-187.16633256869304,161.79085610411104
12.6825,1.5853811542106613,0.04125780146795,0.1789188254646033,0.0117625716643521,0.0472653350707299,-0.0017911460695667,0.0005833427936296,0.0109772392317067,0.0284633329963142,0.999534156173473,0.0016771247981717,-0.0016810998700096,9.77678521100004,0.0529702083694417,-0.0122619503022133,0.0023718614961519,2.996816630438896,4.51112375965357,3.631673128575112,1112.4365911851298,1097.0897501844258,1102.1588862305657,1116.9780836168147,379.50616847063856,627.4804756003888,-568.633123487509,-160.80900580261402,161.79037007784666
12.685,1.23756173468015,-0.0278407033240703,0.0165168771051107,0.0159169786965772,0.0473106479482253,-0.0014891768734896,0.0005639369515466,0.0110578578082044,0.0284416346559907,0.999533772610357,0.0033030168912262,-0.0013819331342414,9.781716876914903,0.0533174483465979,-0.0123227750328321,0.0021764455714513,2.9969499819360728,4.511089849102032,3.631677967363828,1113.1762201312383,1098.7118103991857,1100.70126586881,1116.6374809950917,223.85673352659884,709.7352970959539,-641.6113197519193,-96.81273831399373,161.78995822247805
12.6875,0.7245282806782435,-0.1424830922502571,-0.1731380261638929,0.0190227218671348,0.0465738798586091,-0.0025125073753479,0.0005390308882189,0.0111372104919357,0.0284175193471144,0.9995335126780543,0.0051499297831943,-0.0009069620926944,9.787536478315143,0.0536773957315121,-0.0123706133262868,0.0019982281921066,2.9970836070832174,4.511058351184449,3.6316835521382,1113.5558748527624,1100.638426669905,1098.9508296318068,1116.494019925245,62.992490748423535,681.526638475406,-633.1028950997629,2.480087234244404,161.78955029811513
12.69,0.2609834208346529,-0.2610803013747911,-0.2899007337777621,0.0200160870333792,0.0457108907372813,-0.0045473191754932,0.0005076117281625,0.0112187140597129,0.0283899848233306,0.999533360075256,0.0071210133499003,-0.0002982765656445,9.79416930486157,0.0540510983567603,-0.0124067972806935,0.0018433454119724,2.9972173067620305,4.51103085420994,3.6316892631056623,1113.4911825849806,1102.119443591562,1097.535751393312,1116.6498814312629,-87.39897441399533,544.5178513800842,-550.2810980103781,119.68541677413616,161.78928235978995
12.6925,-0.1881192831353254,-0.4065742803640688,-0.3380614520317853,0.0195035606313902,0.0449996410278313,-0.006928878546638,0.0004742490140615,0.0113013069276781,0.0283670272998734,0.9995330873340303,0.0092065208725455,0.0005052997666734,9.801521802978137,0.0544389959169422,-0.0124345617219537,0.0017181001173526,2.9973515471019967,4.511007227387871,3.631692534504164,1113.1188799806923,1103.3610159268055,1096.1994241417544,1117.0924470091159,-213.21609531056612,471.52355796662863,-564.281285644759,243.5122676095108,161.78908886805058
12.695,-0.6587497660867239,-0.618810660509671,-0.3195345196353194,0.0173738198377662,0.0441612091891808,-0.0087523019475398,0.000445794978236,0.0113841152372787,0.0283545497386453,0.9995325248253698,0.0113916662501091,0.0016085906597912,9.809482472168284,0.0548411292665582,-0.0124572770063391,0.0016292530910588,2.997487367028018,4.510987001427162,3.631691161213943,1112.4251021084276,1104.4770613813955,1094.7143449650875,1117.8674427693106,-282.0855475583464,334.74318253495153,-520.0089596899613,303.3129450711989,161.78894193264975
12.6975,-0.9656740215921696,-0.8274933234958906,-0.2592919261051432,0.0145882422989428,0.0434073545787435,-0.0090827006360759,0.0004241104138142,0.0114607337962186,0.0283508572504858,0.9995317820130352,0.0137656194285793,0.0030156822054366,9.817924798929248,0.0552573627050106,-0.0124772788304131,0.001582753854286,2.9976256649758417,4.510969995612688,3.631684301106719,1111.708452242901,1105.03473183948,1093.5993793433051,1118.6090117344716,-302.9086699195413,129.4604406253054,-412.2383501214964,287.966381644856,161.78888962175253
12.7,-1.1639956395985436,-1.0573725214248628,-0.1778401732734914,0.0112218362187516,0.042175141305505,-0.0087027649675956,0.0004111518504719,0.0115286241751245,0.0283555325902389,0.9995308912622068,0.0163409029170413,0.0047339946407224,9.826709152925057,0.0556873236498414,-0.0124963120518215,0.001584165163305,2.9977662825793328,4.510954914904809,3.6316723554483614,1110.9105587588297,1105.124363584522,1092.65315321448,1119.3072746775351,-325.2405735241556,-56.73127324743314,-342.365034848891,253.94241928443657,161.7889086477983
12.7025,-1.2677851666528495,-1.283410955296599,-0.0900534612112768,0.0077449622199416,0.0399040451748406,-0.0083017885956213,0.000406763382684,0.0115925093465717,0.0283647365327507,0.9995299032175204,0.0189857359380775,0.0067331047054991,9.835686395894744,0.0561307390014644,-0.0125146458279143,0.0016382485698017,2.9979080662123123,4.510939657340046,3.631656840188751,1110.08224937528,1104.7510754732427,1091.8875541690604,1119.878723830894,-330.3929887041452,-280.164754441613,-252.4554513043815,183.9395012195748,161.78898545912475
12.705,-1.2624187810181275,-1.4673319201489616,0.004158540221368,0.0046436107894888,0.0361797354205181,-0.0080213199965729,0.0004071764096627,0.0116568979626623,0.0283753697037921,0.99952885545013,0.0215702723302434,0.0089099270824396,9.844703297771881,0.0565874702496964,-0.0125314053607606,0.0017474627320021,2.9980500311116782,4.510922855859669,3.6316395608127134,1109.2585938153093,1103.7235398123144,1091.3908759579583,1120.2269721836328,-349.10509105655035,-621.35149580739,-147.36945760558433,94.13591787744787,161.7891299527093
12.7075,-1.141474380100961,-1.5912344100352172,0.1336546632231245,0.0016476768647815,0.030583104692763,-0.0076424123139555,0.0004105815676728,0.0117214202369443,0.0283891198313165,0.9995277063705588,0.0240622642936576,0.0111943780549889,9.853607704936387,0.0570573799332484,-0.0125451495722941,0.0019111331522745,2.998192592153417,4.510903489530396,3.6316232721378854,1108.3367239199977,1101.6443179942066,1091.1507068810326,1120.349403420281,-315.70402913480007,-904.7152511209283,-28.633389764895654,-3.8420987886177858,161.7893786194008
12.71,-0.9512561004525992,-1.5887086945909978,0.2657070327920446,-0.0004698333935817,0.0255023218062975,-0.0072992328188655,0.0004144655767395,0.0117855673007944,0.02840487116045,0.9995264964800638,0.026433052230201,0.0135002495602005,9.862253028952436,0.0575403832512269,-0.0125533430169936,0.0021258380879773,2.9983354327245118,4.510880353239468,3.631610910813024,1107.680073669635,1099.199963556709,1091.2477090091338,1120.2077616896895,-223.3234657761492,-1105.7084449808463,90.3086836859388,-103.06997377809446,161.78964626946188
12.7125,-0.6683936802989489,-1.4656507351378312,0.4355569033577109,-0.0027139790140247,0.0205963300304361,-0.0070697934693884,0.0004207174878235,0.0118388413673145,0.0284229721401156,0.9995253375283444,0.0288554737108436,0.0158196873644186,9.87050350748718,0.0580362390349133,-0.012553303921027,0.0023846797812636,2.998479023571919,4.510853583875165,3.6316041904654774,1107.2201065911167,1096.1157757693015,1091.6022502994624,1119.8340535513903,-137.58445739902535,-1451.733011436197,192.01471421824132,-213.0377327779084,161.78997392134113
12.715,-0.2214792155967684,-1.1930506951390663,0.6897218548092994,-0.0058663755670656,0.0157229205320027,-0.006984473159688,0.0004315530208576,0.0118719668428354,0.0284428858549457,0.9995243548638472,0.0314815007397478,0.0181499236337162,9.878237326078754,0.0585444448141221,-0.0125424874268653,0.002679092613842,2.9986245901046047,4.5108245334428085,3.631602869338448,1106.99215138264,1091.9412984995295,1092.2077825802248,1119.1425730258004,-18.467793343003745,-1553.3460524087177,230.9314226590325,-291.89952469419023,161.79043338138385
12.7175,0.2274055164782035,-0.8873880001643126,0.93485814232535,-0.0082954131028933,0.0128887022032941,-0.0068439336470184,0.0004549430880384,0.0118840038502713,0.0284646574284335,0.9995235584042492,0.0343051251187575,0.0206050131638969,9.88534909738796,0.0590641315393563,-0.0125190771093102,0.0030005482749596,2.9987724622985334,4.5107950508452905,3.6316063879167664,1107.1277676244017,1088.3490455072567,1092.7569074127575,1118.3745559279191,127.90931769207236,-1381.5725348501132,205.17576284293204,-345.91977171711784,161.79086928463997
12.72,0.7068719874503469,-0.5406836663372498,1.1786803969319855,-0.0088609122011801,0.0112088508562335,-0.0055621230718947,0.0004964338324769,0.0118823574418044,0.028490769233381,0.9995227935930708,0.0371575561635622,0.0232551279294862,9.8917526021159,0.05959408301354,-0.0124824631945256,0.0033411023892993,2.998922809296284,4.510766679310401,3.6316136679436184,1107.6316979711005,1085.0334358252778,1093.2336613944397,1117.4129741672143,260.8121808037659,-1220.996418844622,165.83607413193593,-415.28284362674714,161.79135763169273
12.7225,1.148749699809787,-0.1923488644091432,1.3749000846459711,-0.0066389092955439,0.0105528271704607,-0.0022078723215776,0.0005504925251193,0.0118794737195538,0.0285260161915179,0.9995217835570446,0.0397677252287719,0.0259544596231726,9.897382918869113,0.0601328815341766,-0.0124332929961822,0.0036934076758745,2.9990754472310606,4.510739983626805,3.6316239283324094,1108.4318285284203,1082.2440634130348,1093.5860877834173,1116.298141709786,382.4449363285873,-929.0867522694982,104.25886660684483,-477.5832340026268,161.79188757023255
12.725,1.4568381030155375,0.1209495223544946,1.4507241354057459,-0.0010200413653559,0.011435747684965,0.00364498601072,0.0006079532930846,0.0118834144471156,0.0285650648007716,0.999520591065626,0.0419527263113688,0.0284863225330049,9.902196833781625,0.0606794153174564,-0.0123718057946102,0.0040501659816376,2.9992291596166414,4.510714688956954,3.6316362390526176,1109.543922652743,1080.3880020639313,1093.7549557274735,1115.0250579972019,543.8339969795438,-554.0997984843714,34.697733385241044,-583.4615953907356,161.79246540738387
12.7275,1.5852729672863612,0.4212477615972781,1.3510154907560767,0.0074034147301758,0.0138453620070592,0.0110789229499663,0.0006644379319415,0.0118948427515863,0.02860019425213,0.9995194297371341,0.0436832073208604,0.0307283121337192,9.906171321140915,0.0612327677166232,-0.01229848695104,0.0044042034611509,2.9993831176300665,4.510690414767139,3.631651779832332,1111.1509985133184,1079.4735644206123,1093.7595764503435,1113.380833732832,619.0101771782735,-110.87631600074104,-22.551003187614807,-608.1343458993574,161.7932113067674
12.73,1.46946848509602,0.5991867411747561,1.108979197943326,0.0137682349048561,0.0161279360940533,0.0159620922338169,0.0007119037700355,0.0119184696928881,0.0286260018141029,0.9995184002546356,0.0448527209016347,0.0324920647847452,9.909301495380234,0.0617919117715544,-0.012214533476816,0.0047499656067598,2.9995364760043848,4.510666344936289,3.631670873337745,1112.638973538635,1079.8336204839275,1093.6422007115357,1111.9843862677046,604.319897296484,348.45573902578167,-56.7469400985032,-543.2805908594845,161.7938744530605
12.7325,1.1475239273485072,0.7116333057443203,0.7419335778737816,0.0181814574410559,0.0180838876294841,0.0188372209366194,0.0007435427767807,0.0119527471144562,0.0286437716879699,0.999517486086439,0.0454852319401932,0.0336147385763137,9.911598181096071,0.0623554703829548,-0.0121223150360781,0.005082703971737,2.9996902539036943,4.5106421830968095,3.63169145937696,1114.1725979998002,1081.215843115741,1093.475841749851,1110.664430778535,655.7003847774862,775.6092200887174,-64.33462961941957,-537.3085736923417,161.79457782023627
12.735,0.594404369538341,0.7973008602146249,0.2310454731107799,0.0209179674204041,0.0200052257897435,0.0200356003573679,0.0007551324917714,0.0119972457937903,0.0286596448033228,0.9995165191580992,0.0455899546180719,0.0339913796835433,9.913084273586486,0.0629214915450278,-0.012025175140227,0.0053996358028573,2.999845401243974,4.510617801832811,3.6317117815644657,1115.9174754625217,1083.7116665843703,1093.3205275634386,1109.2978433992434,600.0003124415315,991.4103326465735,-35.889485447791074,-447.6043435407728,161.79546448054026
12.7375,0.0570492584784537,0.8480350055106354,-0.1956913832364285,0.0212581868289448,0.0214303708877172,0.0193614871000548,0.0007517109005032,0.0120468223809938,0.0286767780660942,0.9995154672157602,0.0452802841733333,0.0337063050130772,9.913791135367958,0.0634876198314253,-0.0119264282989473,0.0056993339843722,3.0000028864414907,4.510595033171755,3.6317316417775274,1117.1725995620084,1086.1728947789748,1093.296394322612,1108.4264090608308,432.6972039578101,987.780152524356,24.319620361253165,-277.4383611868437,161.79623571998016
12.74,-0.4881783672197972,0.8951894731827065,-0.5628569452200471,0.0199685875127484,0.0229028171672185,0.0172246353617503,0.0007405939166705,0.0120929413591961,0.0286985113772548,0.9995143306555224,0.0447435794574517,0.0328954161623619,9.913755909279175,0.0640510950544885,-0.011829721411775,0.0059815600805039,3.000163868534127,4.51057527637959,3.631750271555529,1118.080961482311,1088.6505673469928,1093.4421256652447,1107.910651593309,288.60816195311884,945.6026281429848,91.277703526448,-140.70657081604693,161.79703637840495
12.7425,-0.9942469013834612,0.9454211606913706,-0.8474540838085173,0.0175398015413482,0.0245030246949749,0.0141621010172738,0.0007202657653232,0.01213554635577,0.0287219790833162,0.99951318593828,0.0439986105179829,0.0315340841246942,9.913018961979523,0.0646090060482202,-0.0117380547117639,0.0062483105263066,3.000328529306772,4.510558056643696,3.6317660876330367,1118.6156403717737,1090.9009079196887,1093.7527828402442,1107.7228762067507,112.8242466794114,804.4613410514664,165.00389836648685,5.3540147362574135,161.79785802468973
12.745,-1.4088909503530551,0.9973352504056464,-1.0122263236793758,0.0139345464914214,0.0263740350814351,0.0105871999173894,0.000689612547273,0.012175391971338,0.0287447821693253,0.9995120886297728,0.0430524029707888,0.0296142371893494,9.911621047527213,0.0651585611994703,-0.0116542044374092,0.0065026266548893,3.0004969863654054,4.5105426614216295,3.6317774799018543,1118.6450827157082,1092.6728740522508,1094.2671451570775,1107.9374216669903,-99.52293095255561,641.5893441795013,270.18407477540086,181.0140945280808,161.79870049269732
12.7475,-1.757469883673663,1.0487373583282265,-1.07199475377857,0.0083474518963555,0.0290214116383918,0.0063987480964044,0.0006512865033883,0.0122119893409889,0.0287675970832227,0.999511021303798,0.0419419018550079,0.0272087588225548,9.909601385207754,0.0656974434617739,-0.0115807624835901,0.0067477692175441,3.0006687829018768,4.510528442126723,3.631785266605665,1118.1180257170108,1094.1088546405867,1095.1037032141214,1108.6279466793912,-269.28077103203475,409.01498179035974,339.1934397104925,314.7847593458836,161.799729279421
12.75,-1.903055293096144,1.0681503026886607,-1.0235740912945643,0.0029870132967439,0.0315957092589088,0.0034368253376683,0.0006121270842434,0.0122449963967578,0.0287879448962335,0.999510054487548,0.0407049244897426,0.024480854366572,9.906996596753668,0.066224289267492,-0.0115191453733052,0.0069867407312049,3.0008424664427125,4.51051463671824,3.6317916821009697,1117.2986788605483,1094.717948961202,1095.9631123556296,1109.5113454637194,-371.7091226345304,136.40592402273782,372.0411150742451,397.49576659927413,161.80059667938215
12.7525,-1.8889985739612096,1.0445602166729833,-0.9050589225329176,-0.0024626069126823,0.0346641782609928,0.0013577632286002,0.0005798617514512,0.0122708902295517,0.028806512076771,0.9995092079466616,0.0394428711818338,0.0216143788537707,9.903840877163809,0.0667388016004707,-0.0114703896635395,0.0072213119436101,3.0010174978132516,4.510500461575046,3.631798352246846,1116.2594801038383,1094.7908842607003,1096.9639087894923,1110.6154255123872,-460.051357375888,-59.132010148132245,465.903220916216,506.214086056173,161.80146879407275
12.755,-1.6968708873707339,0.9512769784722188,-0.7209810885157796,-0.0085891790662185,0.038753673228946,-0.0002610398304947,0.00055880332215,0.0122899378172557,0.0288251628135612,0.9995084257935772,0.0381783584272341,0.0187317699228769,9.900166133819774,0.0672417626016196,-0.0114349864329874,0.0074526793027097,3.001193406354085,4.510485469133128,3.6318062679791745,1114.9984220736685,1094.4222889104615,1098.292628460211,1112.0424158940007,-432.32142799095135,-182.6127662328132,501.27791726237206,515.6345806578987,161.80251413327068
12.7575,-1.4094865632774736,0.8194065304967558,-0.5553334306948239,-0.0129387297653391,0.0419579900249119,-0.0011420895449035,0.0005512520282044,0.0123090563270578,0.0288427594454937,0.9995076600043746,0.0367978359669687,0.0159230834428309,9.896002323203524,0.0677350353007127,-0.0114124195906366,0.0076819270022559,3.001369175198186,4.510469598416361,3.6318164166523776,1114.0978729638834,1093.877820429536,1099.4702983758043,1113.1935984156771,-300.6743639995109,-234.67059806512347,473.01166389252415,426.01077640724105,161.80337940938907
12.76,-1.0239514460791987,0.6490253850691151,-0.3931180664837085,-0.0161369089044298,0.0442307683083808,-0.0018324833315957,0.0005573873928111,0.0123340932248281,0.0288519196246788,0.9995070595738764,0.0352032210631388,0.0132389573799189,9.891378818143336,0.0682215806695485,-0.0114008729735562,0.0079091768792805,3.00154360403481,4.5104518998819225,3.63182919000356,1113.4950502536713,1093.248935920136,1100.6576867796732,1114.1724697760365,-181.25070083748943,-246.35902632072217,464.27900695168336,349.2294455208503,161.8042328555468
12.7625,-0.5882832052962615,0.470453599504738,-0.2386650565033517,-0.0181841124658117,0.0454282808271385,-0.0024770109597774,0.0005730903803082,0.0123680793060872,0.0288436971919406,0.9995068540289704,0.0333445577284526,0.0106447978559557,9.886325700243523,0.0687050517492528,-0.0113980976614605,0.0081335713469636,3.0017156500179256,4.510432145775101,3.6318442684993575,1113.1916194596959,1092.6460252979323,1101.7916934105633,1114.9397456432816,-51.02252565110688,-219.333634289262,425.473720682682,249.70740767899505,161.80507218665227
12.765,-0.132805731292454,0.31350899277911,-0.0952329416326024,-0.0187175146144898,0.0455001234356913,-0.0029769964368678,0.0005963112783939,0.0124060949731472,0.0288223907279115,0.9995069783147345,0.0313248019655017,0.0081405245452681,9.880875090992477,0.0691890652008071,-0.0114036496299997,0.0083529346282903,3.001885735055585,4.51041062884631,3.6318604768608775,1113.2399376254157,1092.1522677486896,1102.7850553830867,1115.4210068144316,82.39889497819425,-179.86828378315235,390.34333407893007,149.7991975786888,161.8058892890964
12.7675,0.3868835070602293,0.1800593593078458,0.0617993476127616,-0.0177298678699351,0.044987858440024,-0.0031412013754921,0.0006228490893858,0.0124471664272639,0.0287968409035547,0.9995071893587468,0.0291619250016551,0.0056851075097437,9.875061701515026,0.0696766836597229,-0.0114180639421207,0.0085654723019381,3.0020544743402136,4.510387819879041,3.6318756989436367,1113.6036139345867,1091.7466838790167,1103.7434100809576,1115.6887416311747,159.77707721652672,-112.71139233456292,308.9073441745473,55.18928436946413,161.80683740144792
12.77,0.7669472769716914,0.1231981338900297,0.1768542609373014,-0.0158126673514629,0.0443674434400292,-0.0028649615451312,0.0006466788263876,0.0124894839104489,0.0287722269731958,0.9995073639000616,0.0268843357600066,0.0032015063039544,9.868924175937572,0.0701702287078529,-0.0114419372221947,0.0087690494828421,3.002223248996745,4.510364641556403,3.631889090955016,1114.038823011498,1091.588710787017,1104.3295921039592,1115.696953236279,168.42024781824063,-24.35771291734073,193.86280945624705,-29.15604012072889,161.80759571027176
12.7725,1.06468450343686,0.1161320974305859,0.2708180709860856,-0.0132661059962296,0.0437778990230375,-0.0021786476240665,0.0006644819452054,0.0125254593735569,0.0287518870781126,0.999507499295408,0.0246321964302592,0.0006626709813967,9.862506405002124,0.0706710530887685,-0.0114761955460693,0.0089603114386432,3.0023940457299028,4.510343320332586,3.631901996734351,1114.445715173678,1091.62489531443,1104.7127241282387,1115.5429614305713,142.21440012645468,55.89085250166171,129.81844901799167,-93.32022644037713,161.80831568309517
12.775,1.3045636780276133,0.1378765231077329,0.3551812555561877,-0.009685012324775,0.0438551000982083,-0.00114313226248,0.0006706482154367,0.0125567457713805,0.0287371640957766,0.9995075324880696,0.022359857257163,-0.0019989043319959,9.855857174019112,0.0711792459517918,-0.0115220173623807,0.0091364909771393,3.002567436543824,4.51032453544183,3.6319165806840767,1114.7498950121303,1091.8681650495253,1104.9786843490494,1115.2303521040767,72.14356543301236,114.8531114891058,69.65687206576625,-130.07937447476112,161.8091296478117
12.7775,1.39346694359713,0.1533499693675901,0.4006311704899913,-0.0061922545222266,0.0449233828801937,-0.0002149960671342,0.0006636913015078,0.0125868752786176,0.0287307635503107,0.9995073375174596,0.0199867877212701,-0.0047699104594559,9.849031075254219,0.0716938342495956,-0.01158089830039,0.0092945358349864,3.002743686327653,4.510308063688628,3.631933615900656,1114.806433000843,1092.1991608718752,1105.0610084885675,1114.8925645581976,-7.87146273091698,148.15198219646348,5.1365231916853356,-147.40986885742555,161.80976247840968
12.78,1.3546713330300992,0.1369953293148008,0.4200152010204512,-0.0024124683924938,0.0464808290535792,0.000809474033745,0.0006427864096108,0.012621739840524,0.0287350476155732,0.9995067711795323,0.0173880151073771,-0.0076247176730276,9.842088588873464,0.0722130457686547,-0.0116541005980958,0.0094313604810545,3.0029230688171924,4.51029367314578,3.6319530796630417,1114.710537698476,1092.6089249605077,1105.0043669650079,1114.4933027597897,-42.914844929866945,189.20410075108288,-59.99343341217327,-187.56579844786552,161.81034397143603
12.7825,1.153986296633992,0.0672801206949676,0.4135869833369262,0.0021802310488793,0.0479550565630004,0.0022170606740308,0.0006084629299109,0.0126605831796905,0.0287453907459361,0.9995059740695356,0.0145735967864514,-0.0105168066626947,9.83509656605674,0.0727348948789186,-0.0117413460472451,0.0095428863157672,3.003104589111764,4.510280134833004,3.6319755154907343,1114.5918587761937,1093.1451813756307,1104.7610413215068,1113.954735565958,-13.249701300904142,202.13760639130143,-121.51124904178376,-205.08238599986257,161.81097811568117
12.785,0.8625891555326808,-0.0267146545184056,0.3853060257001429,0.0059952553491566,0.0484858432621618,0.0034830483642192,0.0005662623154073,0.012696201460844,0.0287564617251716,0.9995051864756658,0.0116875997733196,-0.0133089429287128,9.828127497177046,0.0732572493327576,-0.0118414121411257,0.0096244782012354,3.003288011659297,4.510266336005,3.6320001357533815,1114.6442891919714,1093.619612992464,1104.396810719799,1113.4678908297903,80.51767225162403,198.85637917013216,-181.1424927755885,-197.02251628290753,161.811450726335
12.7875,0.4655328599410973,-0.1387837283983554,0.339363771906565,0.0090589409918139,0.0481571802813026,0.0044895629588341,0.0005176566253254,0.0127191907742102,0.0287632583673656,0.9995046734382952,0.0089201315153859,-0.015950708224275,9.821257582988208,0.0737778484998036,-0.0119523658420699,0.0096717329648792,3.00347376818857,4.510251636518044,3.632027219533691,1114.9944471374515,1094.1394632714814,1103.855328857629,1112.9696229845435,194.7722977857816,219.72803582790425,-244.45273410274967,-193.95701139371036,161.81186244075383
12.79,0.0162409987550233,-0.2488352428628739,0.2863045078728818,0.0104427104682391,0.0471885289226651,0.0048470351274413,0.0004652255543965,0.0127231406823631,0.0287609461178794,0.999504662970104,0.0064089212245593,-0.0183747663259183,9.814564097613632,0.0742943267955058,-0.0120715057114846,0.0096817046303881,3.0036624554735902,4.510236238537217,3.6320574518655047,1115.6181506809005,1094.7182531716037,1103.1745470492851,1112.4981057728219,297.2477285415143,248.40524571500947,-300.02459316469725,-169.5891804531319,161.81222188499024
12.7925,-0.4364136798908591,-0.3407490915228289,0.2316489050407118,0.0092973132151899,0.0457792052311129,0.0045831340900093,0.0004129884562392,0.0127087097060433,0.0287443879186418,0.9995053063364984,0.004160182020587,-0.0204890065039215,9.808122294580675,0.0748043209669506,-0.0121953873456398,0.009653941242584,3.0038538055751705,4.510219793124117,3.6320886246734254,1116.4806857801595,1095.3814895000567,1102.355205891805,1112.121677082278,383.96983956284566,306.8772859178508,-382.1738599193246,-123.82749062333195,161.8125168525641
12.795,-0.9066652025462532,-0.4218721005748294,0.1601213855639,0.0058323138156666,0.0443334764781128,0.0045019383144376,0.0003616998449345,0.0126806870605474,0.0287106731791752,0.9995066382125316,0.0021038988312052,-0.0222714941197639,9.802002685021415,0.0753056590252891,-0.0123204097094844,0.0095902653152483,3.004046639613859,4.510202112369146,3.6321179788683535,1117.5379998787143,1096.2526396011926,1101.263677749689,1111.878968319705,343.93456844188694,321.6711915355703,-410.5181386504135,-38.77238699379494,161.81279534273975
12.7975,-1.195028598909315,-0.4662105520239889,0.0825211038046781,0.0020166767475263,0.0435508631365837,0.0050095036382847,0.0003158061710101,0.0126349537110355,0.0286601523612305,0.9995086995848445,0.0003529695566333,-0.0236418090157511,9.796270065226876,0.0757967033405298,-0.0124430120950206,0.0094929157785353,3.0042408509828524,4.51018358885146,3.632144661504189,1118.2003586223686,1096.989845457734,1100.3026151985537,1111.927815147309,166.6007510708563,278.01666491541454,-386.1175683387352,87.63256200626067,161.81296452098525
12.8,-1.3469762342959135,-0.4878195835027955,-0.0321271929012206,-0.001921147579194,0.0426959128291262,0.0059717089666858,0.0002814442749213,0.0125828444298776,0.0285959078698187,0.999511245639486,-0.0012759232646819,-0.0244865716807129,9.790977653150208,0.0762759340895448,-0.0125597751560049,0.0093679018861105,3.004436271759881,4.510163026177099,3.632167773452085,1118.3710036340688,1097.64272292577,1099.3330899079947,1112.3171311297367,-76.97030582802358,242.281052194456,-417.5564305905284,259.2665972973968,161.81306920624144
12.8025,-1.3612700260502577,-0.4833335064493118,-0.2219444617593456,-0.0061853022099293,0.0412356956043649,0.0070870748975076,0.0002630343234094,0.0125366954106018,0.028521716368442,0.9995140032036604,-0.0029813515367486,-0.0247336209077395,9.786166427431235,0.0767422821986776,-0.0126673899193629,0.0092223406933576,3.004631889218545,4.510139746974671,3.632187215316899,1117.8155070932285,1098.2012507187067,1098.2148330456007,1113.2241481337962,-335.91150311678894,151.19893152953688,-394.2257272640165,402.12810462602454,161.81312219406257
12.805,-1.233676207667996,-0.4495318901545617,-0.415322984126698,-0.0095644795988072,0.0396257603101256,0.0073593409706631,0.0002606261063907,0.0124999514372357,0.0284465985358003,0.9995166639701814,-0.0047863232644425,-0.024408841715775,9.781864654388515,0.077195123887695,-0.0127637197092951,0.0090623629608506,3.004828173327083,4.510114113655931,3.63220333721734,1116.6914461184851,1098.3987175834175,1097.3619612716752,1114.3277716528664,-565.8831974484681,11.194448174681453,-316.04475268709,493.4973945392041,161.8131078924968
12.8075,-0.966236082406412,-0.3834680638422208,-0.6163855988700415,-0.0129526275576275,0.0378206405888285,0.0062269257500351,0.0002693770838472,0.0124750333493345,0.028376295519173,0.9995190303896924,-0.0066933736674993,-0.0236394354890092,9.778085791223413,0.0776342378297468,-0.0128468340439821,0.0088938034389273,3.005025312924015,4.510086428497046,3.632216880598644,1114.9860911059857,1098.25722295958,1096.634609282165,1115.6916351064926,-745.6732672615288,-115.33559311304104,-265.7814362158245,562.3563122435856,161.81303612231955
12.81,-0.5925552066722803,-0.2978624652007337,-0.7944710997652739,-0.0160333686365027,0.0361442053248327,0.0041373549532689,0.000287518977446,0.0124683110240824,0.0283153647940346,0.9995208906106444,-0.0087785491407778,-0.0224938371899501,9.7748277009823,0.0780595937656179,-0.0129154902991968,0.0087227573739336,3.0052230423993462,4.510057191142173,3.632229272429376,1112.9630797821767,1097.822039617852,1096.033054090596,1117.1395532140848,-833.2208997280596,-239.53696883804915,-208.7370276150938,558.6124987689093,161.81291940991028
12.8125,-0.1171706571564899,-0.2099995366222563,-0.911450714346684,-0.0179777332618522,0.0352083572963219,0.0014442561093517,0.0003097640285319,0.0124834675748092,0.0282710594003252,0.999521991300372,-0.0110666306757672,-0.0211126976351857,9.772073588942431,0.0784713116065667,-0.0129700889441723,0.0085541977181844,3.005421967012604,4.510027208351351,3.632242169528204,1110.8199866073462,1097.05953811539,1095.5909241440895,1118.4846976003366,-899.4154403444525,-393.78799277663904,-159.96638343393442,514.5238970597916,161.81275179932976
12.815,0.514274909969741,-0.1404325901391641,-0.9488382913699446,-0.0182485683207445,0.0355037875326832,-0.0022512960568167,0.0003308491527641,0.0125230754934081,0.0282435681093784,0.9995222930031364,-0.0135608041315947,-0.0196356804821861,9.769792744846548,0.078869848854473,-0.013011230602389,0.0083923008263998,3.0056217279007984,4.5099975027790995,3.632256312060659,1108.4660025804556,1095.8530996539691,1095.2332221734264,1119.7121726993832,-781.4299799748057,-471.3198727671797,-105.86227682691224,354.1048293082796,161.81249600560136
12.8175,1.0370597450268677,-0.1380884097339212,-0.8810450213530204,-0.016455231733218,0.0367790264738881,-0.0056844492450297,0.0003483657696218,0.0125831956241106,0.0282334313405126,0.999521827402084,-0.0161372299641013,-0.0181478219162925,9.767942773849375,0.0792558886922363,-0.0130408387102298,0.0082398210849275,3.0058227822414927,4.509969546785241,3.632271120468257,1106.9128367074716,1094.7029387515538,1095.061612759955,1120.2552217468783,-500.52177813851273,-460.18701316063095,-47.311496005606266,98.62029212757356,161.81224028929614
12.82,1.4858940958740656,-0.2049956693314094,-0.7124195393475126,-0.0124850580450738,0.0382101372839855,-0.0091589884509988,0.0003640416195097,0.0126599429237995,0.0282408585702173,0.9995206352459804,-0.0186738420305448,-0.0166489835088112,9.766470237604285,0.0796302690354555,-0.0130618623815645,0.0080993441171745,3.0060257292947328,4.509944933946602,3.632285696977332,1105.9633936897624,1093.5521645881659,1094.9966646933983,1120.2052741600212,-267.8624073470552,-467.70224735905896,-10.53298312395082,-150.7372959154354,161.81194391211778
12.8225,1.8670584892615731,-0.3423285813772881,-0.4254993289685636,-0.0057626652428458,0.038548211896114,-0.0121832241264487,0.0003792912570673,0.0127480000510009,0.0282593083532397,0.9995189676579932,-0.0210247519288607,-0.0151396311638826,9.76531269693154,0.079994279372589,-0.0130769352020985,0.0079730511575609,3.0062301437915377,4.5099239080728495,3.632298905934289,1105.5735246707363,1092.3644275147587,1095.0089478443351,1119.5015352673013,-31.55604007165,-376.8529241391527,12.857408119541825,-340.6099148045918,161.81154524345368
12.825,2.018647835430978,-0.4677944627961567,-0.1587566127834233,0.0006367588103007,0.0369664352999367,-0.0127818129522119,0.0003956651190679,0.0128406147627448,0.0282812533736587,0.9995171250544048,-0.0230213945979678,-0.0136115329735432,9.764401005288029,0.080349640568104,-0.0130887760910729,0.0078626627398612,3.006435519154662,4.509905153264346,3.632309744302872,1105.8056134894043,1091.6678999674696,1095.060951733996,1118.502224585998,175.20775640716226,-194.83802998990225,17.108971636887016,-443.32235371550615,161.81118003335465
12.8275,1.984564416622536,-0.5586504667328227,0.0770000057857064,0.0069997863366758,0.033927510246629,-0.0114244255437943,0.0004160472090159,0.0129314574558851,0.0283008988099025,0.9995153564812608,-0.0245093630558294,-0.0120230637026707,9.76366155315273,0.080698480831047,-0.0131001704022789,0.007769540534397,3.0066413020583087,4.5098880118264715,3.632317945169566,1106.4495634527725,1091.3902373648093,1095.0944927025198,1117.2849234987234,296.91785593137405,-34.192468590033485,-2.778432794912631,-491.0349058663609,161.8107839300801
12.83,1.8076911673259592,-0.6009401871703609,0.2514358031897588,0.0126958295107149,0.0308445088111137,-0.0094235775863136,0.00044103570189,0.0130141951554816,0.028314180929958,0.9995138645691994,-0.0253431311481097,-0.0103701642260771,9.763019073986477,0.0810433389423019,-0.0131137180925953,0.0076942320876645,3.0068470349113143,4.509871766203446,3.6323247200237407,1107.290202769061,1091.4969376245197,1095.0470595700215,1116.0470500566666,354.2715315330747,131.4258509689614,-56.36292656537292,-470.9077087266023,161.81036458462108
12.8325,1.4925855518893707,-0.5870171101447068,0.3318615524364048,0.0168937669302015,0.0286972042273363,-0.0075441391995955,0.0004725838791097,0.0130896556669193,0.0283222573384969,0.999512609576892,-0.0255248738553975,-0.0086121612015979,9.762398397049738,0.0813868867943185,-0.0131321614008752,0.0076374465361269,3.0070529421368657,4.509855575777816,3.6323297928580978,1108.2209211104375,1092.047366619654,1094.8126780696928,1114.9303849550909,407.1977518994845,324.49454298852675,-162.841577402216,-445.50419188760634,161.8099197308783
12.835,1.0110176165125624,-0.5310797161016931,0.3207729814538153,0.0200685983466077,0.0272069248720049,-0.0055672615421321,0.0005068409304506,0.0131589218792067,0.0283269532499079,0.9995115308576868,-0.0250742043610085,-0.0068161217030974,9.761728810190863,0.081732050441522,-0.0131576755586449,0.007598565740265,3.0072590344393455,4.509838808530078,3.6323330641541904,1109.3261915285586,1093.1194103394623,1094.2328516830103,1113.8195290972283,397.6932493549445,437.4320736119215,-262.54175537961135,-371.34237870967456,161.80935911634015
12.8375,0.5638414492380993,-0.4750081634506967,0.2370219715363051,0.0214184272567342,0.0265886909853188,-0.0041881058363129,0.0005460323569725,0.013215573499897,0.0283324615715078,0.9995105925495084,-0.0238707318538229,-0.0049308765406358,9.760948808360096,0.0820819881132862,-0.0131920164978925,0.0075743988130614,3.007465956973591,4.509821956634274,3.6323359255502794,1110.2093873572123,1094.234526987714,1093.4999692927947,1113.073673061542,347.65983333197806,455.0636764053248,-325.71865942993213,-277.38482738733245,161.80887118249268
12.84,0.1088951346650902,-0.4308230710071191,0.1069799736637734,0.0217631368863671,0.0263764030411816,-0.0033824949015277,0.000593528727712,0.013260208594068,0.0283386858968643,0.999509787189728,-0.0219403435121831,-0.0028764928413168,9.760006241492698,0.0824399839852482,-0.0132355300185887,0.0075613338607856,3.0076732791794654,4.509804882524121,3.6323405867388545,1111.064490695218,1095.3947287214887,1092.6042583858607,1112.4326049602919,374.2960149257085,474.48835603356054,-388.0771112775467,-283.8508859331352,161.80836310658913
12.8425,-0.4104930865761803,-0.4012067734614201,-0.0550405761238214,0.0211991534360543,0.0260468650122488,-0.0035184512133032,0.0006463587927676,0.0133020206082167,0.0283451260014681,0.9995090069036184,-0.0194900896403851,-0.0006915545477026,9.758860699974386,0.0828092588935111,-0.0132879000242067,0.007555578155453,3.007880184229555,4.5097874803714255,3.6323479333142066,1112.0808674318412,1096.606968767882,1091.5595837364067,1111.6544186318763,369.44670105275367,384.4476962428725,-340.52301296618816,-302.93899275311367,161.8077311617264
12.845,-0.7989694212093527,-0.3917589346661249,-0.1587833522672757,0.0198604399370333,0.0252989188809945,-0.0045917253521502,0.0006980975074941,0.0133429724374561,0.0283554188960907,0.9995081249676105,-0.0165973575584302,0.0015122731363632,9.75748847728714,0.0831929461519765,-0.0133489036863593,0.0075509474232169,3.008087101785851,4.509769324036278,3.6323588085817327,1112.9117242004822,1097.3169672027032,1090.9016433210295,1110.917909996526,317.00625208815774,197.66053151669732,-180.84325600456356,-322.2938060644724,161.80718635900735
12.8475,-1.1152449280944634,-0.385253284219265,-0.1954426393730185,0.0174020097144507,0.0240082090336595,-0.0063561280077419,0.0007429409993323,0.0133832180383127,0.0283724926145232,0.9995070640027844,-0.0133126295047947,0.003631390709301,9.755882676802818,0.0835939650627258,-0.0134176248485619,0.007540319483374,3.0082949119084055,4.5097503126958625,3.6323734098273808,1113.6658986922819,1097.5952714254652,1090.655367456384,1110.0429496015543,273.0845759609199,33.67108213488552,-13.836007944203654,-371.11623921890094,161.80662266450565
12.85,-1.3523379186514288,-0.3721894789458466,-0.1639193062248409,0.0138742959459929,0.0225955603825745,-0.008407761071318,0.0007771920981825,0.0134216570632244,0.0283942785303239,0.9995059072730994,-0.0096684637897174,0.0055984573978466,9.7540531973013,0.0840150178243837,-0.0134918034662034,0.0075163234219899,3.0085033176259195,4.50973095915263,3.632392282238924,1114.2771470802863,1097.4853226133775,1090.8324632813087,1109.062328800432,188.04850221874196,-130.32817349155957,173.70235622676788,-405.9091201739922,161.80604303032217
12.8525,-1.476315618216521,-0.3468383644083699,-0.0575179050912503,0.009234062650821,0.0214196834699991,-0.0100222982327613,0.0007994201748418,0.0134489618392531,0.0284156405645955,0.9995049292894692,-0.0055421999060626,0.0073802828196128,9.752026820566467,0.0844585660575173,-0.0135681984977476,0.0074707969387634,3.008711979494907,4.509712285543593,3.6324161598695057,1114.6061412033755,1096.9436305580075,1091.523879237518,1108.013404000684,57.853560704315946,-314.1438147629251,401.4160582569557,-453.2820370562805,161.80544374152015
12.855,-1.4902139068348617,-0.3044760855994134,0.1185619533315286,0.0034659664748424,0.0204233998184926,-0.0101697146746396,0.000806401455206,0.0134645412429346,0.0284285402508132,0.9995043646872444,-0.0009875284827016,0.008907193898437,9.749842768343767,0.0849264497337145,-0.0136426061734375,0.0073982699756762,3.0089202552340835,4.509693543570611,3.6324440662488073,1114.566414883808,1095.914603539563,1092.8395435725938,1106.79591861515,-92.08385103249395,-416.9012906022464,535.875799306875,-418.68792867575536,161.80470128191303
12.8575,-1.4040534288472624,-0.2635084841446583,0.2668825344794379,-0.0005039807790434,0.0198793682025176,-0.0086171964759458,0.0008022299217665,0.0134670033139454,0.0284286442242285,0.9995043458239335,0.0039584334747423,0.0102440143834895,9.747551414110282,0.08541966604334,-0.0137108216215889,0.0072952429200029,3.0091291073623605,4.509672921586516,3.632472604514581,1114.1457219482131,1094.8591241049967,1094.2032582340519,1105.9199643573056,-238.56385095187048,-434.7902593351547,562.8839529974113,-297.5764592199222,161.8040626893286
12.86,-1.2485478513287527,-0.2209951029563435,0.378496735711659,-0.0032166197004197,0.0194918823311014,-0.0062613433726062,0.0007882660306917,0.0134560602699717,0.0284128284262341,0.9995049619254994,0.0092343671379033,0.0113951785526491,9.745211024678094,0.0859382408691609,-0.0137684811044166,0.0071606459532429,3.0093396345635606,4.509649312803456,3.6324979547596574,1113.373595629049,1093.7406522428876,1095.6539633375803,1105.3080363190509,-390.4341025942202,-480.66195052339697,618.0388884987167,-187.9939429989624,161.80340291185715
12.8625,-1.0194669624637547,-0.1697897267287866,0.4537698827291037,-0.0055856388033774,0.0190605198136905,-0.0038174128887831,0.0007674666062382,0.0134314999826548,0.0283822325848136,0.9995061827114148,0.0147791910681823,0.0123884057749686,9.742884322458607,0.0864811236806067,-0.0138118820344469,0.0069956402972552,3.009552747636228,4.509622805305296,3.632519157105527,1112.193551435242,1092.455814352379,1097.293452676546,1104.9799946423107,-444.9094333587468,-450.3633246314826,562.1203064230061,-46.80820440070597,161.8025860248907
12.865,-0.8120943187060666,-0.1260254007590993,0.474267091363188,-0.0073061685815879,0.0186825639562483,-0.0024994786457041,0.0007478107715847,0.0133998733078468,0.0283435352984146,0.9995077244629152,0.0204055916448384,0.0133455826648699,9.740634245109865,0.0870461692851125,-0.0138386245005302,0.0068044149517508,3.0097689208633014,4.509593984315373,3.632537074095165,1111.1490484622548,1091.4888356197296,1098.4645648696956,1105.0739952970473,-393.8816031643784,-362.2552095781696,412.49022080404774,107.30707914615184,161.8018838304591
12.8675,-0.5996130020367189,-0.079250025603299,0.4693516255616304,-0.0089836891356576,0.0183559187185912,-0.0018492781860629,0.0007303507521092,0.0133708653881139,0.0283047585415647,0.999509227812186,0.0258657610886595,0.0142499504303475,9.738521879076544,0.0876305238451469,-0.0138474602757452,0.0065928327742236,3.0099880450628977,4.509563421275336,3.6325524788330656,1110.2241434194204,1090.6445383044888,1099.3559037805655,1105.5165300380413,-327.97061403179544,-322.0050454334747,306.28575366326675,220.2283791655756,161.80115876769
12.87,-0.3883489978476,-0.0291819826066404,0.4559514768629129,-0.0104921809702235,0.0182424862885175,-0.0014174040334881,0.0007172051175865,0.013348664809284,0.0282742506300743,0.9995103987658304,0.0310251303251098,0.0150992283473562,9.736604343365983,0.0882310178975244,-0.0138383549349892,0.0063667186830732,3.0102104171461392,4.50953237622332,3.632564975530843,1109.5091953920955,1089.878810392562,1099.9959936380124,1106.1751371928751,-220.08288836074115,-298.34017601347,197.62504633069153,290.24895227703394,161.8004142893576
12.8725,-0.1873285730000576,0.025425630805353,0.4388629642199585,-0.0111937009942812,0.0184670124437351,-0.0007663872603306,0.0007107689703221,0.0133418243860985,0.028256048965525,0.9995110098334344,0.035670629224075,0.0158989845082285,9.734931845431856,0.0888444228447413,-0.0138118676764132,0.0061332224946056,3.0104357702021103,4.509501565635217,3.6325739826148977,1109.1237289776163,1089.1528374244213,1100.3440290122192,1106.9677747994267,-90.50108520288612,-326.05087020671937,93.27799085837832,345.45572819795376,161.79964584910215
12.875,0.0276239570035215,0.0995883148726744,0.4120157292665125,-0.0110303256962468,0.0188680489049996,0.000428272586825,0.0007087755556601,0.0133598567595706,0.0282508620231992,0.9995109176049594,0.0395747139824721,0.0165672825457536,9.733546957910196,0.0894677253498498,-0.0137694021412568,0.0058997216307093,3.0106632956436217,4.509472044263721,3.63257905790122,1109.0566899660814,1088.248556041529,1100.462383592304,1107.9024158338648,32.91331394121444,-346.2957522118138,0.155307788736567,318.826679612557,161.79869530967332
12.8775,0.1764514903472751,0.1739764208113394,0.3797030553866571,-0.0105795801983812,0.0191886098091117,0.0017195986614702,0.0007106303653629,0.0133990762146814,0.02826044535515,0.9995101189485522,0.0427745005543353,0.0170520114767077,9.732484494673987,0.0900983622489964,-0.0137138169691951,0.0056709311632762,3.010893438971923,4.50944528406341,3.632579587936621,1109.2882955473226,1087.4213586633623,1100.344805551163,1108.5619081974892,134.4634421726613,-351.04692510370995,-85.71169148511696,222.79728353929545,161.7978790035201
12.88,0.2883945192008421,0.269486659353494,0.3342644763849124,-0.0102439867506731,0.0195066265882444,0.0031954801146315,0.0007137437483413,0.0134528233909411,0.0282817729566283,0.9995087883194556,0.0453702599747358,0.0172687474672533,9.731770947735491,0.0907344093055161,-0.0136481370615769,0.0054500571590958,3.0111260119570606,4.509421485398939,3.63257626265638,1109.7290071769448,1086.49332141601,1100.0338251348785,1109.0164022515614,218.53604815684088,-427.80684690085445,-179.08837487818275,147.26458075103864,161.79703698279275
12.8825,0.3734582137859596,0.4155749692504804,0.2716096960748403,-0.009839777151251,0.0200396819796672,0.0047881788026183,0.0007190774844914,0.0135188352601092,0.0283066041973308,0.9995071883648696,0.0473846053848576,0.0172149484016384,9.73142475088175,0.0913746670109452,-0.0135750185175291,0.0052397471199436,3.0113595920874454,4.509399899166874,3.632572215044053,1110.3809757881068,1085.282324428858,1099.449363676772,1109.2982311012445,243.8200928848831,-451.2613220784248,-251.0678074636461,63.8928783865267,161.79599614023843
12.885,0.3933746070005538,0.5645168683569944,0.226581492247274,-0.0090097635332428,0.0207744327136804,0.00564240847711,0.0007226799361774,0.0135943099107085,0.0283279459222528,0.9995055598553112,0.0488534907789168,0.0168026914094951,9.731458265411451,0.0920185791164447,-0.0134976329509896,0.0050407743142704,3.0115930723614888,4.509379567144057,3.6325695011880494,1110.948107641369,1084.2370148056184,1098.7784860975603,1109.335866643494,217.06285685482968,-408.53252471122664,-310.3074104477825,-13.43844196194158,161.79510293302113
12.8875,0.3438669247968748,0.7362083960890973,0.2128653834113868,-0.0071768676126129,0.0219994636714357,0.0057131408173004,0.0007163772921078,0.013668264981855,0.0283445485400383,0.9995040930561752,0.0499747907255776,0.0158677496026836,9.731879485701842,0.0926660417709622,-0.0134202570628035,0.0048507406143992,3.0118265871189007,4.509360064686302,3.632569094596092,1111.4662900723813,1083.2396618053015,1097.8978266245329,1109.2310388914348,191.3990323642493,-374.669156663536,-388.7703692517181,-53.7260652054472,161.79418234179008
12.89,0.2291305746613191,0.9177953975006476,0.2422525937834136,-0.0049322388173917,0.0236905046736984,0.0052055876981438,0.0006992122490184,0.0137334964641544,0.0283570953817234,0.9995028671618074,0.0508813064128617,0.0143998556683217,9.732692443714274,0.0933171540653751,-0.0133473634199018,0.0046668437335611,3.012060857239649,4.509341532102948,3.632570204507089,1111.9051028031904,1082.3636690223004,1096.8346342513016,1109.0672363174667,150.06470149836133,-300.14800150708254,-466.1380128360197,-65.81359260773242,161.79323868046788
12.8925,0.0453135949396391,1.0957454012802232,0.3328700552862172,-0.0032204681762234,0.0258766792661464,0.0044584045798444,0.0006790947880104,0.0137916488993229,0.0283676240280347,0.9995017935287628,0.0515425565236456,0.0125776347548041,9.733898269946376,0.0939720095090121,-0.0132834104276387,0.0044872601723638,3.012296216695869,4.509324341004973,3.6325734293589105,1112.2166135798727,1081.7389217977664,1095.5671365603532,1108.901970928396,101.8671943600314,-194.73067944635892,-590.5547248414942,-58.18189416755806,161.7922670384038
12.895,-0.214049556381772,1.2801217641688023,0.4994269500094926,-0.0026222119561091,0.029196510338561,0.0041194529247011,0.0006639213081219,0.0138434911419534,0.0283793398078565,0.999500764694872,0.0519487355234251,0.0105899105837672,9.73549677046974,0.0946306832210323,-0.0132327380631647,0.0043095604307873,3.0125325838360446,4.509309152522222,3.632580712977433,1112.4144387749905,1081.3900156250688,1093.8818606270947,1108.7763268466288,40.0947608617963,-53.5908620288781,-626.8610806594936,-25.75423827097036,161.79106902966504
12.8975,-0.4176480874981619,1.3889510536040086,0.6576071845753967,-0.0035688420438624,0.0327469459713774,0.0049641406017891,0.0006549213541387,0.0138932560059931,0.0283933989867217,0.9994996891495648,0.0520223522702198,0.0085082663246753,9.737486692067447,0.0952931803162313,-0.0131987878305052,0.0041319443752959,3.01276966699266,4.509294972773188,3.6325916907004494,1112.417087384182,1081.470967487622,1092.4328311570553,1108.7731997370413,-35.069716990614296,104.1388646994911,-559.4841469033817,26.988541518899517,161.79004460225647
12.9,-0.5507712998268852,1.4292906146475055,0.7864832146678589,-0.0059043538272459,0.0370523354604808,0.0073410515491675,0.0006458706034275,0.013939398758268,0.028408332379563,0.9994986345940132,0.0517977283085769,0.0062650738179098,9.73986552463539,0.0959594022592689,-0.013183784385304,0.0039521121421934,3.013007373963021,4.509280962424843,3.632604972488048,1112.2390901900371,1081.9107099485664,1091.0844398925772,1108.9112695542235,-120.63535631075536,251.68383245273168,-532.5025164993044,98.41286611574243,161.7889942889104
12.9025,-0.5770947632343544,1.3868410568461107,0.8513020797523017,-0.0096922596656923,0.0423381291032593,0.0114842435708537,0.0006339324168204,0.0139820285657712,0.0284211838867314,0.9994976859995288,0.0512825868513978,0.0038663190900765,9.742628008711016,0.0966288995066792,-0.0131887847170673,0.0037694034773013,3.0132463240193186,4.509267095835606,3.6326174070941777,1111.8139106026283,1082.729386649885,1089.7703185745593,1109.26526406762,-189.40148725825327,321.5557434812988,-406.95751222981926,161.698227367626,161.78770595713527
12.905,-0.4709059217262908,1.281191671869581,0.8047798262457881,-0.0129838880704765,0.0460816505619076,0.0150745292607259,0.000618766773786,0.0140327396813672,0.0284312956435236,0.9994966966606316,0.0502662384465996,0.0013766129259461,9.74576467678275,0.0973006021731838,-0.0132143958534115,0.0035868792980739,3.013487463072681,4.509253219037402,3.6326260916376576,1111.292082753746,1083.518488665973,1089.049652331428,1109.7197606910615,-238.49551134281592,302.04764712070573,-191.6942996305507,210.67874341557743,161.786610882127
12.9075,-0.243640939104809,1.122343141737857,0.649462596387324,-0.0152433890223161,0.0487992847818982,0.0178615446717634,0.0005979978992994,0.0141007974295326,0.0284340532780137,0.9994956660607602,0.0485862235717691,-0.001177603862938,9.74926098641187,0.0979731100214935,-0.0132596055247143,0.0034083529643979,3.013730954590395,4.509238499736104,3.6326310967473217,1110.621433045914,1084.239624885489,1088.8118470764064,1110.318657784698,-320.4792884299151,267.04094383990963,11.478172484978597,286.44198937951177,161.78549618052324
12.91,0.1189344490434408,0.8973192150618207,0.3603377506718994,-0.0158095332648708,0.0511651734486231,0.0199240554026654,0.0005742635437999,0.0141867243192875,0.0284294276418329,0.9994945826152976,0.0462574922761797,-0.0036787344389707,9.753096175517337,0.0986445908584906,-0.0133234940475751,0.003236805934938,3.0139766826124483,4.509222611283216,3.6326334562460976,1109.6896863115967,1084.8536933851724,1089.1070431938529,1111.151970637959,-354.4683035656613,169.1810872425203,196.42135527760087,314.8575158271059,161.78413942829764
12.9125,0.4472021468528866,0.6966538650509465,0.061591457547763,-0.0143406231483007,0.052736705394333,0.020565681261602,0.0005536816330731,0.0142854010994499,0.0284226356867851,0.999493363048904,0.0434113311322649,-0.0059484809392156,9.75724233842354,0.0993128299042024,-0.0134055492767457,0.0030745207662084,3.014225133584512,4.509206413382012,3.6326342962943374,1108.849091528086,1085.0855303217015,1089.793953852794,1111.8929453638332,-337.57294798783005,34.988075832728995,344.8114687601362,294.224986582139,161.78299564161367
12.915,0.7490929858056846,0.4939792011988133,-0.2591243397796458,-0.0112846408543292,0.0541682882927205,0.0201223411523735,0.0005394942068454,0.0143919860962263,0.0284149452900561,0.9994920355672064,0.0401765578283582,-0.0078684250153535,9.761663603974073,0.0999755581243176,-0.0135039867929698,0.0029238560705854,3.014476253814248,4.509190408127573,3.6326343897451814,1108.0018215716573,1085.028633764336,1090.8311005376538,1112.62309557087,-329.6154594395315,-57.846509433229635,451.8492126413296,282.80628162861046,161.78184156000663
12.9175,1.004014480727243,0.2959508324307546,-0.5699703298189323,-0.0077187887324637,0.0554219921465431,0.0187679660196861,0.0005363309075796,0.0145040538881419,0.0284122077113911,0.9994904655632532,0.0366396920475261,-0.0092996438759934,9.766315634349063,0.1006303718822641,-0.0136174371893763,0.0027876544286752,3.014730352542854,4.509174539564705,3.63263327155474,1107.201014230888,1084.796297774535,1092.0531999160012,1113.3069767719765,-295.50054834191053,-108.58043437685753,506.69819380710646,255.99955409457473,161.78068150003185
12.92,1.1953491778392342,0.1134094148936251,-0.8394943171724563,-0.0044588322952185,0.0559552851212062,0.0163049262856547,0.000552508365898,0.0146252066469282,0.0284209716922455,0.9994884110334255,0.0327750729541766,-0.0100364655303201,9.771145355992608,0.101275015775642,-0.0137441528649376,0.0026699524336001,3.0149882156049914,4.509158621465132,3.6326301858442647,1106.524318829948,1084.4857315924519,1093.3645915066888,1113.9030933413424,-252.57969891841208,-114.26630007829316,566.497109098167,237.1239446515136,161.77951738711664
12.9225,1.3620527499128243,-0.0717803306791928,-1.0889778128393108,-0.001142252421578,0.0554252394772777,0.0123069255128048,0.0005913397362063,0.0147552802092929,0.0284401976157106,0.9994859034727704,0.0286306402692683,-0.0099811540765098,9.77609178062803,0.1019079374988175,-0.0138803336759608,0.0025736683155268,3.0152494808105264,4.509141733377097,3.6326252544248665,1105.9381157362964,1084.224966274144,1094.8856854614914,1114.4925964952336,-168.91027183503044,-48.90430555632665,530.5080287948466,193.64833995861477,161.77811992696232
12.925,1.458411682642198,-0.18937014390339,-1.2287805918701888,0.0014465856803989,0.0543931650923691,0.0086338799973499,0.0006477680849451,0.014885583079011,0.0284676988703256,0.9994831379394868,0.0244181936152261,-0.0092151694623791,9.781087260648038,0.1025284242490717,-0.0140214720684077,0.002499306415022,3.015513112144839,4.509122761264121,3.6326190120747137,1105.6797674707727,1084.2412100646702,1096.0171316506635,1114.8713350411358,-54.26612218920188,80.56223726915611,407.9282030467128,127.25507753450812,161.77695803941197
12.9275,1.5131076590637136,-0.269056148304176,-1.3065096164203942,0.0044187763557219,0.0531567671658538,0.0052670233369779,0.0007112310394986,0.0150053147089897,0.0284976278306435,0.9994804494969928,0.0203886660689725,-0.0079400975718275,9.786058510282103,0.1031368276954794,-0.0141620202066109,0.002446122385691,3.015778077166584,4.509101190207192,3.6326131284762706,1105.6667851253503,1084.6277774604898,1096.925326476725,1115.1288718829064,37.651860517333475,270.5044981311032,335.2372644910004,82.88031826984307,161.77580269492054
12.93,1.5191049307933224,-0.3359954615843486,-1.3509684885379905,0.0088162681048293,0.0518908542319976,0.0019169439574085,0.0007718646382754,0.0151135232181283,0.0285242413834851,0.9994780240325996,0.0166002074626461,-0.006350690570876,9.790927108030472,0.1037344284105784,-0.0142964516873705,0.0024147081382995,3.016042871936873,4.509077023092745,3.6326080354369497,1105.8680267733591,1085.5937325553255,1097.693317973118,1115.2857366324847,90.92558637729267,437.3893126213941,221.7019744634962,28.81685532415308,161.7744282942751
12.9325,1.4620180235341467,-0.3860695574786389,-1.363517628851862,0.0129344722083261,0.0511925819939709,-0.0004433328263604,0.0008211293099209,0.0152116563265426,0.0285388467173923,0.9994761004096246,0.0130628453372629,-0.0046255755080724,9.7956116773762,0.1043233908190744,-0.0144189817818708,0.0024056046048499,3.0163062746326537,4.50905032432047,3.632603215505679,1106.1214130572369,1086.8147240235971,1098.0338363490428,1115.2729561595272,91.5182046788998,561.4880557150204,68.87078544144802,-39.11173392279423,161.77329611074222
12.935,1.3304866896889072,-0.4532782201616628,-1.3589976950561928,0.0167363878996854,0.0508035850189693,-0.0028153248907754,0.0008549035796926,0.0153024605610101,0.0285359394655579,0.9994748043838252,0.0097606003301861,-0.0028673083008229,9.80002979117635,0.1049062230461838,-0.0145251767349683,0.0024192489904746,3.0165677255154337,4.509021610979266,3.632598263277044,1106.325617796754,1088.401172833901,1098.0376719003254,1115.0901779628707,55.930657641203865,677.9492707655647,-56.73967287863199,-102.6748546439398,161.77218102246104
12.9375,1.1361199182551196,-0.5473290364876775,-1.3353182918259727,0.0199328506059036,0.0504927153143687,-0.0055119614428071,0.0008813149555757,0.0153802633594005,0.0285189226232468,0.9994741138184212,0.0068456657356195,-0.0009535666201007,9.80410096413949,0.1054851720620363,-0.0146134450459089,0.0024541380154559,3.016828721440877,4.50899270992569,3.6325934152908825,1106.4010663454428,1090.2044703774243,1097.7501379846499,1114.7595818863076,-9.78201128509876,748.8694779253491,-185.7661492286212,-166.10781900902688,161.771082441665
12.94,0.8699028440498786,-0.6775865346684357,-1.2716825738985733,0.0223776459711956,0.04995900439689,-0.0086400349232001,0.0009037149522126,0.0154413451702099,0.0284938785798445,0.99947390452825,0.0044257609278115,0.0011383783038778,9.807747568691513,0.1060619545893031,-0.0146839038817032,0.0025086092412221,3.017090628439199,4.508964745545501,3.6325893139096848,1106.2767077403284,1092.145520223527,1097.1088411541823,1114.259638867826,-91.02432928269477,856.1485791160547,-359.6601156596882,-254.43546378501767,161.77000629729525
12.9425,0.4750129274179192,-0.8627678122643733,-1.1229191572848385,0.0244540140195493,0.0485861387036531,-0.0125210578185571,0.0009189433324134,0.0154860583568223,0.0284667418915769,0.9994740037577952,0.0025215560737135,0.0033009903958285,9.810896631066644,0.1066376292050355,-0.0147377101755186,0.002581310657962,3.0173540207653886,4.508938721761155,3.632585375604912,1105.9459446990293,1094.4852132730052,1095.9518374063512,1113.4874045673823,-129.9101616305758,842.5489213125776,-480.82202647002975,-309.0300042799725,161.768743769099
12.945,0.0898867524615667,-1.0200154002602255,-0.92210775493482,0.0254378027058025,0.046507503687677,-0.0157309739092377,0.0009240533848475,0.0155168963686746,0.0284449969968145,0.999474165316429,0.0011083410294247,0.0054286678497737,9.813482046123353,0.107212518592935,-0.0147771783326795,0.0026709971928178,3.0176196376512965,4.508915158166037,3.6325802380070655,1105.6271569321755,1096.3582648300903,1094.704731021832,1112.7144888464259,-100.27647826561582,718.5414863602156,-541.2204419187841,-334.45560077459334,161.767717562975
12.9475,-0.3422352240295767,-1.1480287186664648,-0.631196933921018,0.0255692782614429,0.043272910881545,-0.0188793923113393,0.000923326362244,0.0155421793049488,0.0284338000162403,0.9994741123595112,4.782322245178161e-05,0.0075598593704301,9.815445905297837,0.1077863794207578,-0.0148046078481564,0.002777419619512,3.0178875656150304,4.508893433270897,3.6325741148665265,1105.4445623077013,1098.0779207048056,1093.2457351967576,1111.8151265635097,-6.577796102373094,708.3155571557911,-664.2742881414378,-423.08213050039495,161.76672016389713
12.95,-0.89435233146593,-1.2355815194032846,-0.1879544750224551,0.0244602632761633,0.038467358294639,-0.0219263626720776,0.0009194785765794,0.0155709621176151,0.028432454281452,0.9994737232659548,-0.0008167823433094,0.0097038702795041,9.816741208931886,0.1083586814583887,-0.0148212046487946,0.0028998714616397,3.018158255693991,4.508872818479392,3.632567084759119,1105.5942679516636,1099.89984261587,1091.3833595811243,1110.5990781939236,138.1647452107029,619.344129273753,-679.2372470153471,-464.5613498253352,161.76555844614904
12.9525,-1.36001876297804,-1.2426767024693808,0.2321772189761044,0.0223140228634326,0.0344466028113853,-0.0232301640300271,0.0009104789915593,0.0156024685315227,0.0284424824174603,0.9994729664217714,-0.0014550269420872,0.0117723453143321,9.817335321800183,0.1089286216946984,-0.014828594106339,0.0030346392495967,3.0184319324903246,4.508853159666181,3.632560010257092,1106.135386033755,1101.1746413511748,1089.8495489616805,1109.4923198143827,308.86884770631474,448.97415464770177,-583.9417240154287,-451.0299211335666,161.7646207610078
12.955,-1.795940764022614,-1.1872654329544807,0.6479715294931969,0.0187630819892905,0.0310175291564096,-0.0223396061185154,0.0008903464628373,0.0156358074244326,0.0284629353369064,0.9994718858688152,-0.0018395656343973,0.0136021741782026,9.817210351699327,0.1094954377566352,-0.0148276656714621,0.0031770137835631,3.018708182722041,4.50883354208188,3.6325543873994386,1107.1386121901949,1102.144713389108,1088.4636509610475,1108.343928588256,464.0945624012161,328.70791546976926,-513.5389886403685,-452.32845039622487,161.7637156867999
12.9575,-2.1756213135120728,-1.0947931164733724,1.007150618693763,0.0138847520462091,0.0281051818402068,-0.0191333837405286,0.000859325559703,0.0156695462951693,0.0284914861468385,0.9994705690040736,-0.001932527375347,0.0151557064800085,9.816364103154775,0.1100585831148514,-0.014818729166338,0.0033215071734749,3.018986934491146,4.508812843252951,3.6325510397421135,1108.4558588457603,1102.8181809285231,1087.2818540184792,1107.230677562402,565.606751723956,185.67754470583904,-408.6034857560933,-413.33768633492485,161.76283822563548
12.96,-2.4486900719606246,-0.9809617990403736,1.2422599099160552,0.0073999838776085,0.025698801303171,-0.0138460754487614,0.0008227281413587,0.0157035800144206,0.028525691682057,0.9994690840695476,-0.0017234391597478,0.0164995989209815,9.81481052025277,0.1106178449618682,-0.0148018843543846,0.0034624774289797,3.0192682527589456,4.508790280737958,3.632550695712835,1109.966645948815,1103.0731011126375,1086.4206335322667,1106.2772401565812,646.2829771014084,-0.7947763710034118,-290.79695378113684,-346.4091408917652,161.76199450208108
12.9625,-2.6146303648414237,-0.850502198430407,1.3481648552094656,-0.0014887305391392,0.0233388188677075,-0.0071897364697291,0.0007916443854119,0.0157381966585134,0.0285623109853875,0.9994675123364812,-0.0012112667285072,0.0178189084408698,9.812579932925736,0.1111735215349277,-0.0147770822667053,0.003594303180139,3.019552188100879,4.508767353389076,3.632553405551788,1111.687273731268,1102.8142070466683,1085.8278692495733,1105.4986318579429,567.6099266707971,-198.72274547951156,-136.6243127733286,-196.83501366079605,161.76102129232174
12.965,-2.6060659638698342,-0.7673829404346643,1.301127496163254,-0.0089998515431954,0.0218563582728325,-0.0025708021378088,0.0007710886062029,0.0157735480149818,0.0285974514377627,0.9994659612248766,-0.0004015637327068,0.0191846646905487,9.809719214534077,0.1117265744053932,-0.0147443774257085,0.0037114080925057,3.0198379256917334,4.508744936944411,3.6325587467621054,1112.8046955821685,1102.07948738524,1085.7375119684004,1105.2930650882774,333.67477786695656,-406.2945554467025,53.313871548144405,39.25904495699183,161.7602429628375
12.9675,-2.452493751810617,-0.7294955123046429,1.1600986337473287,-0.0156940414036816,0.020826173722116,0.0005680429894144,0.0007558666472109,0.0158130636718852,0.0286252907822839,0.9994645459400228,0.0006232631721001,0.020475608697535,9.806290561157832,0.1122787358931729,-0.0147037080825392,0.0038093256300628,3.020124218711416,4.508722486266596,3.63256545002554,1113.3556476206031,1100.7827342694345,1086.094438607314,1105.6949270827279,80.88242085831197,-692.1538502544363,262.63250193415377,337.7515458592297,161.75949824944132
12.97,-2.129295196008653,-0.7450346868508247,0.9534663063606756,-0.0223043782350466,0.0197654015210907,0.0026168677928497,0.0007408517230021,0.0158556662756902,0.0286442861279921,0.999463329944042,0.0018617380531412,0.0215748915000113,9.80237052202552,0.1128323437169639,-0.0146562564119558,0.0038834686543321,3.0204105929860483,4.508700021247413,3.632573032994512,1113.20910768646,1098.6187181339671,1087.0506744780714,1106.9818228175739,-188.4177924990956,-877.6775351663146,435.91504013210886,605.6100124169302,161.75864283500243
12.9725,-1.7697177398548811,-0.803658650813383,0.7976220968114627,-0.0266826125908507,0.018683550479437,0.0032240364162375,0.000722389288952,0.0159015552550605,0.0286520572432522,0.999462382693948,0.0032798528310729,0.0224020311101772,9.79804695473849,0.1133902869185661,-0.0146033115247104,0.0039306108979725,3.020696473651338,4.508678126458271,3.632581317878623,1112.4135586581078,1096.3943465936038,1088.274013807974,1108.722977144812,-430.6276666638443,-944.9549184364575,567.045227260609,812.270421699875,161.75796138881117
12.975,-1.3439562558826907,-0.8898181970810103,0.6954526568299622,-0.0299729954693587,0.01701549152682,0.0032923426178193,0.0006996196911494,0.0159514691351883,0.0286471076701573,0.9994617393397724,0.004825979999672,0.0229381338638465,9.793416489754573,0.1139557141485778,-0.0145466117591055,0.0039488593795224,3.02098170457226,4.508657731393392,3.6325903888833455,1111.055969353141,1093.893943541786,1089.885900614374,1111.0431749260724,-599.1252049014265,-1016.2137552510331,693.4445005657208,990.7935867603826,161.75731212928576
12.9775,-0.8792168709567209,-0.976594652767424,0.645005885814141,-0.0323693685577433,0.0147138728512453,0.0034721818436859,0.0006735576323367,0.0159982458125594,0.028635040963225,0.9994613515513956,0.006595769228855,0.023201663794034,9.788582816022533,0.1145316446129973,-0.0144896363754371,0.0039357831249428,3.0212676854425458,4.508639295452671,3.632599238464969,1109.4179326336002,1091.3132778173479,1091.7412363108033,1113.6769450786146,-667.290175788353,-1013.9839908499886,770.9623198618987,1075.7548843672475,161.7566893936108
12.98,-0.381182204201503,-1.0351535704665884,0.641819079878909,-0.033702121595422,0.0117618035988346,0.0044262557792712,0.0006439002554445,0.0160376501130947,0.0286188915349728,0.9994611997720853,0.0086181857406421,0.0231933199124512,9.783652506643236,0.1151209759008483,-0.0144351979057575,0.0038908110041071,3.021555051697648,4.508622492106458,3.632605775170904,1107.719518474199,1088.8240235875353,1093.740712213684,1116.4219493479095,-690.2499890901263,-1029.1036703806412,862.8521363200333,1160.9358261253,161.75609860641023
12.9825,0.2413048876050078,-1.0422052715942556,0.6545723481115514,-0.034348311849193,0.0077595531674303,0.0067420164160844,0.0006112023564308,0.0160690620027998,0.0286026318782243,0.999461182046786,0.0108442934411552,0.0229376667956089,9.778732013850387,0.1157263142292604,-0.0143859852101122,0.0038152752942406,3.0218434856609138,4.50860744143908,3.6326093269712025,1105.9666826881503,1086.1677594654457,1096.0554969924024,1119.48162420924,-552.338498891523,-891.4217419834995,794.2297030690713,1036.1062033229944,161.75542676580207
12.985,0.7691010057521857,-0.9829461751114777,0.6499073888156341,-0.0341945493138849,0.0042259435375973,0.0093490938199787,0.0005829163338648,0.0160940389164331,0.0285927525365358,0.999461084310884,0.0131801373622846,0.022599037323009,9.773924911895143,0.1163499195785587,-0.014344681405826,0.0037118738708138,3.0221329823111396,4.508594061883808,3.632610277247714,1104.957825979742,1084.3669148776187,1097.7118607290283,1121.6024803645234,-276.4980820204096,-611.3271317168209,561.7900017197858,719.6759673895269,161.75489809855893
12.9875,1.2808678745632867,-0.8577578657116027,0.6069618425874262,-0.0328915893642397,0.0007854559351827,0.0120586786674877,0.0005613899267567,0.0161185576399825,0.0285900426929656,0.9994607874105496,0.015437583821593,0.02224867427422,9.769330001133268,0.116993883493884,-0.0143118935899348,0.0035845639124129,3.022422915912516,4.508580526878315,3.632609332614972,1104.584192278048,1083.111123806861,1098.864447001002,1123.080004046188,-4.8097083281838175,-413.6807678076629,355.47745295092574,480.9853871470453,161.75440233813507
12.99,1.8237790324860468,-0.658253298991679,0.5091963423372594,-0.0289430914019005,-0.0022888329181211,0.014793607278483,0.000543483583757,0.0161472649785104,0.0285887054813253,0.9994603853767362,0.0174484707201615,0.0218535427506084,9.765039928793849,0.117660075452231,-0.0142858347724715,0.0034369220264799,3.022712233449069,4.508564936260783,3.6326067046843256,1104.933777438101,1082.29851103858,1099.4892479937835,1124.007407300259,254.15628680917104,-182.90805498289956,93.06587454713768,200.70903575264663,161.75384625708529
12.9925,2.1666722433479126,-0.4848776852865444,0.4031696727837886,-0.0232779001993388,-0.003129618062084,0.0163039559146049,0.0005293263041246,0.0161800414417902,0.0285818972141335,0.9994600764130592,0.0191389727685745,0.021443403649683,9.761139235379646,0.118349741348667,-0.0142637349425583,0.0032712965182387,3.0230005966383606,4.508546162415032,3.632603955150171,1105.8549737120936,1082.1965835319468,1099.3297763737376,1124.0835492249512,475.32995374664847,66.33395630409595,-194.96890724300687,-96.96049160023296,161.75341574907404
12.995,2.340144953651613,-0.3463619770089814,0.2997126236780182,-0.0158113731908447,-0.0024594456683556,0.0169821412769499,0.0005155025678714,0.0162083946825195,0.0285705784407875,0.9994599688329082,0.0205988131991686,0.0209729233856393,9.757703463511673,0.1190628973614368,-0.0142443456879896,0.0030877055073745,3.0232892302212124,4.508524563802442,3.632603344896132,1107.3104272068347,1082.6301808201003,1098.5144034575683,1123.5226048422578,645.0908390674059,245.64697318229065,-412.7113528994224,-309.6745673848516,161.75301980836016
12.9975,2.349361786538231,-0.2552124074188206,0.2214520751076614,-0.0079337586330846,-0.0015900686663903,0.016910507997732,0.0005030867303261,0.0162205309197896,0.0285597457403325,0.9994601067949628,0.0219891443097751,0.0204813520398695,9.754796849094756,0.1197980688698077,-0.0142275086403034,0.0028853674500498,3.0235801180085464,4.508501554419359,3.6326044183522175,1109.0804279074312,1083.4248183978584,1097.26621960924,1122.5351763880267,748.4335328609302,378.89542756027623,-564.55577930153,-469.17475435743887,161.75265267923703
13.0,2.1643697274397318,-0.2190463878224573,0.1948087928918902,-0.0009012383666622,-0.0012945253359232,0.0160661452324812,0.000493792599015,0.0162110611835837,0.0285565510596407,0.9994603697059584,0.0233537751890068,0.0200226960421311,9.752470501349162,0.12055218012441,-0.0142140793309736,0.0026652735193704,3.0238748273001748,4.508478585405367,3.6326062690336474,1111.0525948711384,1084.5246579579016,1095.6916245610612,1121.176731070471,868.2774415808487,518.6025178680788,-712.5961261667325,-646.6138180805424,161.75232026356153
13.0025,1.7603001861121077,-0.2133037031102999,0.2290339456293285,0.005644110032702,-0.0018538987225866,0.0148483458143595,0.0004862689370347,0.0161844246276073,0.0285667833272993,0.9994605173027185,0.0245530308536716,0.0195959865182732,9.750761394795106,0.1213208130223661,-0.0142052317166876,0.0024312567571156,3.0241743644898142,4.508457339058452,3.632607073729988,1113.4218151153343,1086.0178309871983,1093.7032389784072,1119.3021072976246,837.3423834921651,552.0206357447979,-708.1595365904634,-703.8796964238636,161.7519611972183
13.005,1.31960194462537,-0.2145806684636614,0.297141820138509,0.0093802526953747,-0.0030453656769515,0.0145832737988906,0.0004802471935647,0.0161489622011039,0.0285927712713399,0.9994603459994224,0.0253838793058691,0.0192232798874256,9.74969196682052,0.1220986854235929,-0.0142018440228194,0.0021887977429771,3.024478985341932,4.508438496198367,3.632606315105492,1115.2393067886,1087.284761136626,1092.1508268781083,1117.6573325883512,661.3486334371249,487.39299793971094,-565.5344206257748,-651.2437364758517,161.7516947636923
13.0075,0.8339449620143266,-0.1974925649850016,0.3675796354389362,0.0115895330131108,-0.0046849760849359,0.0160300292585605,0.0004766015827192,0.0161123333857704,0.0286358993009204,0.9994596924520476,0.0256710041161705,0.0189476168001407,9.749269947504283,0.1228800877386912,-0.0142048499160821,0.0019438669401979,3.024788479151216,4.508421409394225,3.6326044101513992,1116.7285582825207,1088.4547959768972,1090.8755668752779,1116.0458886152448,550.4811700260419,471.81513026676214,-475.8443679350003,-680.3565253932437,161.75146166093572
13.01,0.2687835509327939,-0.1466264462080895,0.4075062317543086,0.0126981680210089,-0.0063830847025227,0.019031518081349,0.0004769846996526,0.0160812280022239,0.0286983245532121,0.9994583878036593,0.025273193257872,0.0188252100764017,9.749488108979754,0.1236593225365816,-0.01421539884712,0.0017027499173064,3.025102435009064,4.508405360039319,3.6326011819414825,1117.9917126387295,1089.6438367879591,1089.7716050384336,1114.2555499613857,362.66375327921895,389.96658148233377,-329.0315048120587,-621.0098780328674,161.75121944385785
13.0125,-0.1416905547969359,-0.0876510060284593,0.3850557293506499,0.0122059382150716,-0.0069148889999997,0.0212936657068272,0.0004797031869932,0.016057710344598,0.0287755595265845,0.9994565282216236,0.0241523471329462,0.0188444439524648,9.750324892948221,0.1244313574892682,-0.0142328298672016,0.001470939028967,3.025419879262051,4.508390286183258,3.632595191039768,1118.541877048917,1090.4046288843092,1089.2304093512173,1112.94083922508,110.22639956370864,250.42101751324205,-139.58844676465196,-479.25856846597304,161.7510481299763
13.015,-0.443919155319177,-0.0323428635721403,0.3072093069186963,0.0103225803699244,-0.0061706452617422,0.022545027903977,0.0004817883856175,0.0160468486394826,0.0288588522500004,0.9994542856752594,0.022225684180117,0.0189694471091256,9.751744299719345,0.125192045339467,-0.0142550914095416,0.0012548464518672,3.0257391456740854,4.508375337876232,3.632586155204701,1118.5428446365484,1090.8959418755255,1089.0736628046104,1111.8592571190554,-120.48970745202163,154.964327630736,16.299908418207966,-415.7538719421527,161.7509078405496
13.0175,-0.6482136883509277,0.0123289520110809,0.1710899273348244,0.0072059259531282,-0.0047205358566167,0.0230409461261881,0.0004812020200264,0.0160494121705349,0.0289405052416485,0.9994518718977492,0.0195087122439318,0.0191771549846352,9.753697634869543,0.12593812827848,-0.0142800021588088,0.0010596907294479,3.026059648454108,4.5083597031499325,3.6325739202769767,1117.939428511657,1091.1794505224627,1089.3119088933083,1110.8620698653697,-310.3000244603371,59.14632719128616,157.58598266218948,-314.5475880805123,161.7507748513412
13.02,-0.6793849232894256,0.0338576609451398,0.0395366989697955,0.0046520095359733,-0.0039476481106272,0.0227937146186138,0.0004751300174767,0.0160575036370525,0.0290177480359214,0.9994494942437786,0.0161984841213461,0.0194201151162564,9.756125932556685,0.1266671045009058,-0.0143062917425454,0.0008879186808969,3.0263816281243185,4.50834325744483,3.6325581125040234,1116.9913445142467,1091.191673511482,1089.8615927179212,1110.2865191786532,-450.7701011467566,-29.06006422108021,293.237395519645,-179.9770118173174,161.75069329772293
13.0225,-0.5765515582909299,0.0584818316622844,-0.0958249629161254,0.0024888972855583,-0.0041420868696398,0.0221894273699378,0.0004605407867749,0.0160644383532891,0.0290874569172026,0.9994473523985322,0.0124797950748702,0.0196435570904257,9.75896148978268,0.1273772750718817,-0.0143324070239956,0.0007412482764143,3.026704138428753,4.508326317279646,3.632539662022921,1115.6855780059227,1091.0341502013573,1090.7780958709068,1109.9621848062827,-562.2136142709709,-79.8033447243927,426.41665391945634,-92.38373559022341,161.75064210504752
13.025,-0.3807213739683567,0.1035586515650984,-0.2297683128983756,0.000812220839328,-0.0050960815340816,0.0215467764510092,0.0004398073066514,0.016064234837941,0.0291470225924947,0.9994456180450018,0.0085367993991724,0.019894160173088,9.762130432105756,0.1280675903134584,-0.0143568582551866,0.0006202861772785,3.0270264998692937,4.508308880787431,3.6325205796651567,1114.1802764428917,1090.79265678786,1091.9936759875188,1109.824600500702,-624.273581501699,-103.78387339285172,551.5706275329836,-16.446493017750615,161.75061623120823
13.0275,-0.1035172743451821,0.1838399348504543,-0.3624980631087726,-6.137910289074743e-05,-0.0063872991678737,0.0209306570520464,0.0004153683641515,0.0160553582689926,0.02919596618891,0.9994443291733792,0.0044753249336863,0.0202174778075192,9.765555517048112,0.1287373688138098,-0.014378706281626,0.0005252026390458,3.027348403136855,4.50829140125233,3.6325026611855007,1112.564210098415,1090.5152308343932,1093.5359490085712,1109.8799523411942,-703.7143590341921,-116.53902780015412,735.4502876158435,60.20288575458804,161.7506212512085
13.03,0.2758499953114952,0.3065044794305682,-0.5221595891810116,-1.6527878866447554e-05,-0.0070693301050307,0.0200755863209476,0.0003961334718367,0.0160343155975455,0.0292357992786001,0.9994434925187674,0.0004498342884002,0.0207792153624866,9.76915959160679,0.1293860196375962,-0.0143975847946453,0.000454295555562,3.027671416631787,4.508274932817392,3.632485687359504,1110.66170464772,1090.2099616488592,1095.6709274255986,1110.1256149294748,-670.5505343208049,-98.57156169217257,810.1119783372367,112.72099700743694,161.7506636778182
13.0325,0.5930505247290728,0.4002315156682547,-0.6536296475925524,0.0010459491230437,-0.0061903304580234,0.0190591919633728,0.0003873647912523,0.0160026912072542,0.0292688791547713,0.9994430109120876,-0.0034814421695738,0.0216718636851478,9.772868082402407,0.1300128871549734,-0.0144133131759209,0.0004057831394315,3.0279972298380335,4.508259558752417,3.632469987578192,1109.2114574268105,1090.0223730259322,1097.586508900258,1110.4435573262315,-533.2881908084497,-49.55590803793788,766.5601334758936,139.52629868033955,161.75072990305898
13.035,0.8654692675830966,0.4395167381155015,-0.7750966765418673,0.0032934481504308,-0.0037489369427934,0.0174696760312677,0.0003941719923359,0.0159642843701204,0.0292977033248097,0.9994427523287732,-0.0073004488638823,0.0229812317651999,9.77661165535007,0.1306173204625273,-0.0144255848862681,0.0003773773682992,3.028326800753406,4.508245408336827,3.6324559969050454,1107.9952636936785,1089.9621821086696,1099.503728092977,1110.8232464228763,-468.26709511028866,19.24308500502249,812.3831101437897,164.33126317091222,161.75082864029588
13.0375,1.0932633282865782,0.3864841143709192,-0.894297606111713,0.0072746381035024,-0.0001106256290888,0.0147801280167911,0.0004163227636055,0.0159244468712075,0.0293216606697276,0.9994426558879708,-0.0110212730362042,0.0246850004760799,9.780328660651408,0.131199012178475,-0.0144329537887527,0.0003662875864233,3.028659928271445,4.508231466631869,3.632444859771909,1106.8701219512595,1090.1185884509573,1101.648424450976,1111.2652136420859,-353.67820896639313,107.03669328834768,741.7063495063961,145.48789256966757,161.75098498346975
13.04,1.1761880406710787,0.2563509573107524,-0.961366953492558,0.0112303792449936,0.0022533231946465,0.0119694832063863,0.0004433635023052,0.01589044652307,0.0293325904594047,0.9994428521914712,-0.0147021561914779,0.0265578350541264,9.783966959196345,0.1317584209342747,-0.0144315635537904,0.000369594452647,3.0289949613919958,4.508216422652184,3.632436400297757,1106.2268726488462,1090.4973655751114,1103.21225984051,1111.5506858857248,-199.7030929239515,211.04883619042425,565.1627360175579,80.266339077649,161.75114683350387
13.0425,1.1377703828000765,0.0646293583933583,-0.9900513321629668,0.0149985680875899,0.0028843883215047,0.0087948199981858,0.0004691142327839,0.0158675246229088,0.0293215055599691,0.9994435268803544,-0.0183616462307037,0.0284513649306707,9.787484739575476,0.1322967296091603,-0.0144170337915682,0.0003839389388657,3.0293299679574552,4.508199061170785,3.6324299455612494,1105.8716064866396,1091.1738326319096,1104.4742381310643,1111.666545337474,-101.99397176668054,317.70376640171844,451.02657952574975,8.328404079522281,161.75134124722268
13.045,1.0052796589964308,-0.1449545336490814,-0.992180604604011,0.0181179137236812,0.0021614745235061,0.0058672671607601,0.0004918744828995,0.0158544290001289,0.0292864387720202,0.9994447581843384,-0.0218922547229457,0.0302952530748157,9.790851589640319,0.1328155405399474,-0.0143868033466772,0.0004046849568294,3.029664754290639,4.508179681319928,3.632425100062559,1105.716902790013,1092.0858844071197,1105.467392738138,1111.5923279061224,-27.243091754877202,406.9119523923191,333.92274855211605,-81.11821600679627,161.7515623534325
13.0475,0.7788991224932159,-0.3387571104397136,-0.9790538650007548,0.0203308947376129,0.0004339952699084,0.0038132578628222,0.0005140003251338,0.015851014722623,0.0292248788433508,0.9994466193649107,-0.0252112611937764,0.0320954442936685,9.794046855963085,0.1333168554987059,-0.0143384590443685,0.0004281839506014,3.029999237068544,4.508159578105036,3.63242116623702,1105.7353910278653,1093.2083923938708,1106.1438518738244,1111.2609542574403,28.15139602343621,512.0398395000047,228.84359791602097,-201.59534241489868,161.7518150724084
13.05,0.4294593728954865,-0.5231763583173143,-0.9686587452071806,0.0220738922705402,-0.0021688283926404,0.0022895158275882,0.0005378473684026,0.0158503053095588,0.0291465850373565,0.999448928170367,-0.0281083054064818,0.033849834560094,9.797060429726832,0.1338024731199559,-0.0142733696282273,0.0004497302027563,3.0303345222566893,4.50813904324243,3.632416306379364,1105.85765977013,1094.64608360462,1106.6116107277185,1110.584351194048,48.0963980362428,517.491772672257,116.4357350189948,-283.91613998324027,161.75215385774567
13.0525,0.096459179170813,-0.6310671103755066,-0.9714965281408205,0.0228260905198627,-0.0043465432249488,0.0013128736804332,0.0005624039069793,0.0158461744729522,0.0290671481138308,0.9994513210499268,-0.0303992098433519,0.0354890806464539,9.799890245939242,0.1342740342879475,-0.0141951278287222,0.0004655369259967,3.0306721232645466,4.508117861554728,3.6324110126514646,1105.9758730180465,1095.7958512572325,1106.7260305489197,1109.8413735575239,39.9030487644802,425.52951995566497,-11.512066917750888,-314.35106589685233,161.7524647013508
13.055,-0.2519886295764345,-0.7010069078755502,-0.9743385438422189,0.0226671260549948,-0.005921060083076,-0.0002641899086106,0.0005847171667916,0.015837286492816,0.0289955683769227,0.9994535537368656,-0.0320044032100606,0.0369095172662286,9.802539583667603,0.1347334138159645,-0.0141063480925554,0.0004737714699675,3.031012087251301,4.508096077515074,3.6324063177737127,1106.0571750139525,1096.773731204398,1106.5540503931295,1109.012595864564,24.502643608771713,375.5173334743498,-146.09374529406966,-357.0978339169311,161.7528032641447
13.0575,-0.6543134929067002,-0.7602956191638633,-0.9420109856884368,0.0210020220945033,-0.0070592258661936,-0.0036552171880727,0.0005994940207645,0.0158239260738748,0.0289373792041138,0.999455463077,-0.0328881395540914,0.0379643506892042,9.805015684966728,0.1351827866388643,-0.0140095997373407,0.0004737199715817,3.0313541881851895,4.508074706847789,3.632401969655771,1106.0983862360904,1097.6734379246045,1105.9955618224492,1108.0558843879387,9.840619827580948,283.09881223690473,-269.4423457264781,-325.5262046458884,161.7532385831156
13.06,-0.9536080158057804,-0.7971570626491374,-0.8577313903163755,0.0184929258059282,-0.0080833535337121,-0.0073267228344992,0.0006029506246133,0.0158088931546524,0.0288960577064933,0.9994569094066496,-0.0330748564201009,0.0385407629551996,9.807327181066281,0.1356247465281081,-0.0139078239843168,0.0004661791065722,3.03169781189486,4.508055514311304,3.632397524185557,1106.1063781130904,1098.1892252655828,1105.2068386644971,1107.3849648413343,6.292883781135403,165.31425360457084,-392.9333240385276,-224.04117914265865,161.75362282140017
13.0625,-1.1961336795821695,-0.816583424584915,-0.6983241151962923,0.0154682434855496,-0.0100478778703254,-0.0105260953722274,0.0005958333471427,0.0157988650810871,0.0288732121744053,0.9994577448564472,-0.0326751224309164,0.0386211856487988,9.809481511904554,0.1360624018380224,-0.01380423964639,0.0004539298104253,3.032041491070357,4.508038800322828,3.632393226884492,1106.129850654996,1098.5000091926272,1104.0308952022567,1106.9356784922259,17.81780247388624,99.36667263784489,-542.9096802983338,-133.67526552781715,161.75402544733137
13.065,-1.3837721786300845,-0.8125485497346919,-0.4831031708518514,0.012092679300872,-0.0127314069335306,-0.0125250145356997,0.0005844253949561,0.0157961772362061,0.0288674165607294,0.999457972525362,-0.031724660509579,0.0382996404320556,9.81148467742468,0.1364993809761373,-0.0137017181855498,0.0004395362262111,3.032384440756112,4.508025021760108,3.632389320332072,1106.1954671254596,1098.686058628772,1102.492290263006,1106.7165885136951,39.954606961867405,54.993512313322334,-707.9623364253879,-25.66778849113288,161.7544399272714
13.0675,-1.5015217897422708,-0.7749770194399817,-0.2229018274307551,0.0081746959368531,-0.015443474878998,-0.0130661159952127,0.0005692132839217,0.0157989803156149,0.0288737062756752,0.99945776378017,-0.0301941836223987,0.0375603771195526,9.813340600543869,0.1369396685300176,-0.0136022024377827,0.0004251671823339,3.032726862950846,4.508015016710359,3.632384350476455,1106.3296236898054,1098.7749767541939,1100.4910835201295,1106.80733954977,74.9920365420504,25.830021464658383,-978.376341381483,114.25401343383815,161.75486401034195
13.07,-1.564735856912508,-0.6997086367776159,0.1108442776691936,0.0033870807032157,-0.0179478479989949,-0.0126559292621793,0.0005547630974825,0.0157993440717008,0.0288901450856778,0.9994572936475694,-0.0279460988237578,0.0364701324228216,9.81504944749941,0.1373872045311553,-0.0135080673419548,0.0004121686524767,3.033069647454514,4.508007349555683,3.63237618646936,1106.57042730817,1098.8152087360952,1097.6004085560978,1107.2878585808646,100.45400085789149,5.19738915472875,-1119.7103109755926,235.2338735547632,161.75537732851467
13.0725,-1.5597301815092697,-0.6261307119212428,0.3900564306212079,-0.0003660978806054,-0.0193129659859594,-0.0118145563633308,0.0005427485710825,0.0157928249029958,0.0289146855255454,0.9994566882388066,-0.024926113699534,0.0350471571493351,9.816605567929352,0.137845819380941,-0.0134208477782591,0.0004032287738403,3.033413267408487,4.507999685142875,3.632364205816187,1106.8318936940948,1098.8009636999675,1094.8925319652526,1107.9835089175435,117.75442866267419,-21.383744543069337,-1102.5445007284457,328.67601222500844,161.75580398092674
13.075,-1.5063816969567272,-0.5590734490239528,0.6568097888234127,-0.0039306775300481,-0.0201253654455144,-0.0105638871223565,0.0005335844798561,0.0157819122782603,0.0289434061273079,0.999456020789924,-0.0212295434325584,0.0332952276690224,9.817996712592407,0.1383192109645251,-0.0133406137235239,0.000402877574222,3.0337576583377537,4.507990854355242,3.6323490015793247,1107.1591994514836,1098.7082900133798,1092.0876860524547,1108.93123864199,164.96179851039565,-75.6348392524951,-1194.5510094786591,452.97372488718986,161.75622464965917
13.0775,-1.3989584259944468,-0.4980378074868322,0.9494466283221964,-0.0080090806893663,-0.0208285335561853,-0.0084235351211737,0.0005267391039505,0.015773166895841,0.0289743424626508,0.9994552465619728,-0.0170438730778907,0.0312073984317752,9.819205350470552,0.1388107975243969,-0.0132671360174005,0.0004162034773765,3.0341028606540044,4.507980458051821,3.632331305443933,1107.656702686647,1098.4227895037047,1088.9197769178584,1110.24837754198,206.91114081964335,-151.3885932536442,-1083.412483773133,491.8912685236661,161.756718265279
13.08,-1.2811155483386563,-0.4629837772734733,1.1596675047662066,-0.0110155212216774,-0.0214401123665493,-0.0060380111058514,0.0005172934460732,0.015774816158169,0.0290030264661628,0.9994543717013992,-0.012602566300533,0.028697416385394,9.820210705365652,0.1393237686627024,-0.0131988889745808,0.0004477039868675,3.034448005541732,4.507967756610616,3.6323121933272935,1108.1937551555816,1097.9513470471115,1086.67062363359,1111.3906949846075,248.24971523267257,-260.1432666746468,-775.4427434211899,439.0538606533447,161.75711805776552
13.0825,-1.1407513938102116,-0.4335775885695861,1.3199703888486196,-0.013555743946997,-0.0222689599842145,-0.0030568775251543,0.0005016031701566,0.0157933229084207,0.0290254271788967,0.9994534183038156,-0.0081127147839295,0.0257084186606325,9.820990660195008,0.1398608556595035,-0.0131342235030265,0.0005001486803516,3.0347926263935383,4.507951906242267,3.6322937167744462,1108.89795126281,1097.122073170332,1085.0425632007532,1112.4436468452463,311.31558214132974,-404.68924575969186,-529.7311700533637,387.3262691133127,161.7575042403498
13.085,-0.9833731843600632,-0.3956375500508344,1.4267981985455507,-0.0158901740000443,-0.0233058899205158,0.0003793471626341,0.0004768848326527,0.0158249986235506,0.0290422183955122,0.9994524272509616,-0.0035885585971898,0.0221993605039845,9.821524959502678,0.14042398557842,-0.0130730012774874,0.0005721364210967,3.035137815386914,4.507933614706122,3.6322774839689225,1109.7503330662885,1095.9279008183128,1084.021967783323,1113.3273263301746,369.84500519787287,-570.4702130415188,-258.6561103886248,294.86071786459365,161.75787870869257
13.0875,-0.803203284831948,-0.3299364359250009,1.455794660024718,-0.0180059712063973,-0.0245817787047017,0.0043918370063968,0.0004483255444489,0.0158661943644653,0.0290531530496588,0.9994514602912732,0.0009541853982818,0.0182914408811338,9.821795206248542,0.1410142004404444,-0.013015480466977,0.0006612288073078,3.0354842596172293,4.507915045565739,3.632263619696479,1110.7471762887997,1094.269722105124,1083.7492826488099,1113.9179504345695,449.962148143139,-822.7843437517822,35.15951984423526,179.9664394894438,161.75823947735552
13.09,-0.5557395454660395,-0.20137722631408,1.3909755135615391,-0.020098395987591,-0.0260812991845434,0.0097717043459017,0.0004254727777852,0.0159095460579113,0.0290648646284813,0.9994504374644032,0.0055722921743866,0.014194012743777,9.821787894328333,0.1416313679133071,-0.0129647299218814,0.000763120332623,3.0358333659493826,4.507898386902772,3.632251363768052,1112.0001438070035,1091.813979099555,1084.197765382544,1114.2271585276217,445.51654846516016,-954.6308668646232,269.0403107307281,47.13382910839928,161.758658292144
13.0925,-0.3206310401631345,-0.0472642534946805,1.2584967317090328,-0.0214369944264865,-0.0268556333129913,0.0141881408036472,0.0004157221299406,0.0159456488963919,0.0290874359773709,0.9994492130418238,0.010360153482028,0.0100783255517883,9.821496355607827,0.1422743600246569,-0.0129255947258659,0.0008722561967281,3.036186552220579,4.507885176260548,3.6322402699746568,1112.9747590311258,1089.4965677708,1085.0944842024635,1114.1536195801116,345.8271373447047,-947.4555342739104,429.4661540231811,-87.79418123898259,161.75899748831208
13.095,-0.0553524551075957,0.1532143152215473,1.0694074118283408,-0.0223245450137321,-0.0268616018455312,0.0176609870268469,0.0004178016925104,0.0159706041508139,0.0291219825395581,0.999447815205069,0.0152995429297013,0.0059565340573443,9.82092154046408,0.1429416395112662,-0.0129008209373742,0.0009840738509508,3.036543345038522,4.5078749942845535,3.632230212144304,1113.7292794937275,1087.0767014281846,1086.3450961526603,1113.7881876214267,256.2737657602211,-1048.747118441342,584.6045010030847,-208.53407366330032,161.75932916457504
13.0975,0.2903002513357817,0.4381515168053029,0.8262472903877885,-0.0226330180764756,-0.0261059833800282,0.0203093612330454,0.0004218258825333,0.0159825683070847,0.0291648681902918,0.9994463828829876,0.0203295451974373,0.0016803957417433,9.820073512645678,0.1436314922950754,-0.0128918003531267,0.0010941972856753,3.0369031794530468,4.507866599039479,3.6322205369199,1114.2561278599267,1084.2528321785944,1088.0175067074783,1113.1109492117953,124.5190759462523,-999.0810646555187,609.7571410947996,-272.76359292987735,161.7597218029438
13.1,0.5884529904712122,0.7043026463603042,0.6505444910003942,-0.0220868982203425,-0.0249126095614361,0.0212045047630668,0.0004183367891352,0.0159820466883492,0.0292113353673266,0.9994450514305034,0.0253477069426578,-0.0028818050828938,9.818971940026803,0.1443421934291997,-0.0128992896798794,0.0011987824271342,3.0372649720875615,4.507858932513241,3.6322113237002114,1114.3518748734587,1082.081296104908,1089.3938818581337,1112.4243696567776,-22.5041324293635,-810.5115647982173,517.3206071225296,-283.9559626616857,161.76004708455503
13.1025,0.8734614427728282,0.9886294746792492,0.5428363588147757,-0.0206966272639428,-0.0232155508347309,0.0207997885739219,0.0004083577865903,0.0159738823338953,0.0292608331715275,0.9994437534344842,0.0301781187174514,-0.0076484999074217,9.817646455859247,0.1450719857522415,-0.0129248005386385,0.0012953478157121,3.0376280468385843,4.507850795264363,3.632204057044596,1114.1436071977798,1080.2002743546027,1090.6041097430916,1111.6911693984866,-115.08312033491184,-692.1561265140381,442.9122268850496,-291.34011008641204,161.76037359346535
13.105,1.1243623298484262,1.2764226142925994,0.5049790654393039,-0.0185237507991537,-0.0211172673921526,0.0197816186711497,0.0003911704625975,0.0159593352752085,0.0293099321624729,0.999442563459675,0.0347211617814056,-0.0125685736350195,9.816137533985623,0.1458192635424208,-0.0129685197891276,0.0013804376781104,3.0379919417143144,4.50784161822693,3.632199018912982,1113.776459271784,1078.6205154723373,1091.6084429925593,1110.9676691063453,-155.36600453100073,-546.0231955739523,345.98352679179305,-277.8952217379454,161.76070364285872
13.1075,1.3017187255980396,1.5472484713888819,0.5366123259756361,-0.01523962047157,-0.0182418941130333,0.019474905109277,0.0003692320465929,0.015937666524553,0.0293559691028662,0.999441567718658,0.0389262566533991,-0.0175257568196812,9.814495613700334,0.146582346780395,-0.0130304697988211,0.001450424304146,3.038356564041844,4.507831646831453,3.6321964966706255,1113.3667771751248,1077.4701583767335,1092.3340273770502,1110.3016932897972,-152.23417875816568,-390.9377264786922,258.9855508865245,-270.8923423560093,161.7610411577487
13.11,1.3900548300060744,1.814574555107532,0.5993797461457774,-0.0101001795134682,-0.0133912995749995,0.0213414182418746,0.0003519795983014,0.0159079256616622,0.0293988643086438,0.9994407797105544,0.0427597716039913,-0.0222647003489611,9.812780075115437,0.1473592598012418,-0.0131111718744091,0.0015024156174672,3.038723085421239,4.5078219110785644,3.6321957333281776,1113.015288377993,1076.6658268399442,1092.9033707469916,1109.6132073945655,-84.61755415563444,-189.94208718215063,169.54531402781947,-229.83932205616884,161.7614590948623
13.1125,1.3411251486847016,1.957846841098778,0.6224656289548604,-0.0053824814970366,-0.0080646992481136,0.0242654417575921,0.0003467579936332,0.0158693103273126,0.0294394559727574,0.9994401870597696,0.0461935461921877,-0.0265697318944105,9.81105758843858,0.1481476869353435,-0.0132111851317956,0.0015344886344328,3.0390927262251295,4.507813289669859,3.6321948285745935,1112.9436894043467,1076.5204479408224,1093.1817539471895,1109.152496679516,29.01795563352153,53.45874514208919,91.09437791706509,-158.80293919937932,161.7618212043394
13.115,1.1636114743903936,1.9882137340930683,0.570061962324879,-0.0010956406938722,-0.0019062161240917,0.027343007906023,0.0003529514984454,0.0158207369822619,0.0294742298208455,0.9994399127585174,0.0492109121356136,-0.030380085220019,9.809399825222831,0.1489451851538681,-0.0133294463629179,0.0015455701997231,3.0394652401152755,4.5078053492701615,3.632192651076535,1113.1603781561607,1076.9331205656547,1093.358842636577,1108.8191926985685,157.16876008358156,297.6752791709852,81.68516232664649,-118.27893685670084,161.7622007952736
13.1175,0.829419224150147,1.8829372100632304,0.4005334532193398,0.0030545214911121,0.0056611615959876,0.0303728925591017,0.00036817924367,0.015765005839994,0.0295018468854901,0.9994399570461212,0.0517288185575768,-0.0336690633434439,9.80788126030613,0.1497491407436674,-0.0134650773566137,0.00153669544115,3.0398397649514446,4.507797236053704,3.6321887147572585,1113.7295332047645,1078.0088243366772,1093.5901797588226,1108.5611019952328,245.821223876608,469.95191279658616,105.68000998962984,-73.311955152701,161.7626792689262
13.12,0.4867472276193647,1.6908805572996617,0.1776291166623508,0.0054309980014974,0.0115880707360603,0.0320255126231904,0.0003872791163235,0.0157107150087343,0.0295216222477516,0.9994402078129327,0.0535601734747657,-0.0364639864512544,9.806576956077036,0.15055687713168,-0.0136168850143978,0.0015113752583371,3.04021561944917,4.507788284029969,3.632182923889829,1114.389484275544,1079.282880129638,1093.8872426865253,1108.4526329228047,275.75940962406327,551.4799863176952,155.72224808772555,-24.92707271253104,161.7630985559705
13.1225,0.1365039701526049,1.4345935298951507,-0.1021721142858118,0.0060920252303607,0.0160489964057973,0.0324422781242914,0.0004061349401168,0.015657611830528,0.0295309251574485,0.9994407456058476,0.0547036914141485,-0.0387804863355124,9.805561051271582,0.1513657284601264,-0.0137826267622374,0.0014709976369005,3.0405924230788806,4.5077779139414735,3.632175457603521,1115.108330252885,1080.766224268266,1094.3687909992611,1108.43646663167,273.0630288616428,596.7070737749787,229.4821762412086,5.919670687991397,161.76354018089447
