t,ang_acc_x,ang_acc_y,ang_acc_z,a_vel_x,a_vel_y,a_vel_z,quat_x,quat_y,quat_z,quat_w,acc_x,acc_y,acc_z,l_vel_x,l_vel_y,l_vel_z,pos_x,pos_y,pos_z,mot_1,mot_2,mot_3,mot_4,dmot_1,dmot_2,dmot_3,dmot_4,vbat
2.7775,-0.9765776556820772,0.5408033814408831,-0.8814770840246229,0.0441338152218512,0.0221814119783733,0.0082929688717809,0.0015667200500285,-0.0014469434329547,-0.0366403123836773,0.9993261069978132,-0.0096706299577229,0.0292602350561708,9.745270547105727,-0.0162961951838832,0.0108970073498814,-0.0064396333505792,-0.9819309796656184,0.8551253717141266,1.231261215410678,1095.6170611991383,1114.4618048931543,1113.475996495204,1096.9862642519963,-147.10995476592788,-1.470885701200942,330.9791706909668,-109.89889192814356,162.91518091048343
2.78,-1.0820742703312731,0.5294287801242378,-0.9437879567444982,0.0405162514591822,0.0245902987825086,0.0036661729961227,0.0015890921065046,-0.0014198722047896,-0.0366287016367395,0.9993265195583076,-0.0103390055187581,0.0305674047109349,9.74485366070205,-0.0164176246872846,0.0110477393755091,-0.0066140696663574,-0.9819639835799104,0.8551533153705686,1.2312480100797487,1094.7219691226446,1114.2805965907612,1114.2154381294704,1096.6221017259047,-479.6007829544709,-104.075214404513,189.6101403605698,-156.60374033590267,162.91327886160076
2.7825,-1.1061605032413706,0.4769478909705691,-0.8691052349943362,0.0376581278331245,0.0264903811477043,0.000431106675158,0.0016115306655713,-0.0013944549078543,-0.0366244199130773,0.9993266618556405,-0.0109015648406758,0.0317264245822888,9.74485882438515,-0.0165479426115695,0.0112038581973678,-0.0067946102039852,-0.981998607440414,0.8551835339563615,1.2312336971604476,1093.219057284366,1113.941428821132,1114.4240471970068,1096.2032455503168,-698.6836542110872,-129.96983976745744,-10.89249492365548,-186.0781549382449,162.91167244425208
2.785,-1.0770921129737823,0.3896431265022972,-0.69160581774249,0.0352964627753824,0.027785215601215,-0.0020037123743428,0.001636931613385,-0.0013678332464238,-0.0366230634573964,0.999326695881294,-0.0113946125876609,0.0327778416349295,9.745311860361449,-0.0166853958137285,0.0113616925327529,-0.0069797902222076,-0.9820352238866928,0.8552154235477964,1.2312180325717224,1091.2285508515893,1113.630747391924,1114.160975654852,1095.6917109512135,-907.1089573215168,-80.27878229213627,-211.4488444914104,-232.31177768998845,162.9100524268443
2.7875,-0.9960201022245484,0.2659832308416862,-0.4103177904951647,0.0326959161476358,0.0284108691438353,-0.0039225565501061,0.0016672832047482,-0.0013391962272328,-0.0366247148047956,0.9993266176921148,-0.011817587580248,0.0337543460126511,9.746235851851631,-0.0168278085930522,0.0115174710514067,-0.0071677535543091,-0.9820739600541784,0.8552489340933979,1.2312008043171847,1088.6835124977583,1113.5400349096712,1113.36680297455,1095.0416866618668,-904.8171289379037,38.241485070285215,-345.671681186339,-229.18833877775373,162.9081015912691
2.79,-0.8971144300267607,0.1627840088478183,-0.1619606593316685,0.0303269423506481,0.0282452231926265,-0.0044495235816633,0.0017036470515593,-0.0013097070028805,-0.0366299306240799,0.9993264057168894,-0.0121349847796214,0.0346803958937367,9.747650437660177,-0.0169727777106635,0.0116676362931194,-0.0073564063815138,-0.982114603361236,0.8552842711803637,1.231181778125958,1086.7044652068998,1113.8219548172751,1112.4326172489205,1094.5457692573248,-715.8473752923026,195.321482176591,-386.8957419248628,-168.7976794019996,162.90647595366457
2.7925,-0.7722919112493031,0.0699884215024242,0.0490580949121373,0.0279893082286648,0.0276980490837222,-0.0035853814532855,0.0017417212466773,-0.0012790333668372,-0.0366362845057799,0.9993261564033636,-0.0123409939762161,0.0354827965033003,9.74957178782112,-0.0171178098819516,0.011809221033383,-0.0075436012144391,-0.9821562128201224,0.8553216161524704,1.2311612848429228,1085.1042756212971,1114.516642320554,1111.4323242649257,1094.1976982648569,-561.0948598087481,337.2067456170115,-374.6739416383287,-101.77622153892332,162.90485632792303
2.795,-0.633570734324749,-0.0156383153685368,0.1971366337311889,0.0260986217515877,0.027235165979167,-0.0017096746974036,0.0017808583484576,-0.0012502412027414,-0.0366444407465928,0.9993258394379744,-0.0123716156830437,0.036168282332229,9.752010927406968,-0.0172607193268267,0.0119397338595485,-0.0077273622734197,-0.982198457691314,0.8553611742544215,1.231140100348407,1083.898990907856,1115.5079885453604,1110.5592475407288,1094.0368881496304,-388.988682430144,443.10269422008815,-278.7402173898104,-9.256355089837795,162.90324546792726
2.7975,-0.4912808096135585,-0.1044731095341313,0.2501067380506997,0.0250584761887495,0.0271959227618658,0.0005664441256598,0.0018199213001533,-0.0012259050018513,-0.0366512981380855,0.9993255637149656,-0.0121766321168735,0.0367389186114913,9.7549738425174,-0.0173995128730635,0.012057705549861,-0.0079060087810779,-0.9822410110831912,0.8554022302815917,1.2311187191770916,1083.1593322091464,1116.7321557916543,1110.0386231779767,1094.1514164894077,-240.0973594656372,550.495414392216,-112.01442554369504,118.23219005486064,162.9016489529514
2.8,-0.3320516604954972,-0.2334637172081517,0.2114215001126669,0.0245152363003761,0.0273368473394107,0.002680541485448,0.0018594925348738,-0.0012068694853063,-0.036655157217231,0.9993253870586069,-0.0117456744184682,0.0372321400073403,9.758460770927767,-0.0175325237367094,0.012162696247738,-0.0080782598650042,-0.9822832593543042,0.8554438445922627,1.2310974291291867,1082.698504110528,1118.2604656173216,1109.9991754130103,1094.6280490999047,-120.83735960453944,538.2245477927063,93.35263181805485,228.40302112952764,162.89975358760256
2.8025,-0.214627631165653,-0.3688069444736215,0.120165573793236,0.0243051686178281,0.0272669691148483,0.0034909748215459,0.0019027330245483,-0.0011905131551726,-0.0366569968873454,0.9993252690359729,-0.01114242795039,0.037734339498631,9.762465708895816,-0.0176583762337558,0.0122553343594074,-0.0082432640469272,-0.9823253841821292,0.8554844639525209,1.2310764960165523,1082.5551454111237,1119.4232785306183,1110.5053863370667,1095.2934315950552,-33.84684066700247,408.6225695387016,306.7392463430744,311.9970615403484,162.89819327138855
2.805,-0.111557730557727,-0.5343819446746529,0.0120997125662405,0.0242040890302381,0.0267675416557014,0.0031393707966083,0.0019502658990972,-0.0011746593654353,-0.0366557784318592,0.999325247839962,-0.0104235267996683,0.0382823552917615,9.766977056620602,-0.0177758637683156,0.0123374868208683,-0.0084002380742678,-0.9823680580732737,0.8555231996109486,1.231056095353799,1082.5292699071929,1120.303578465015,1111.5328716447257,1096.1880344076064,-5.8693770884475605,295.8882508921824,541.642980182917,427.53926947671965,162.8966546504296
2.8075,0.004941987187066,-0.7566522720488346,-0.0866129846476055,0.0241314920231845,0.025520027881487,0.0016442162843543,0.0020024749923787,-0.00115974068093,-0.0366516916715165,0.99932531487195,-0.0095974888347222,0.0389079829608352,9.771976963623889,-0.0178840346417662,0.0124118625203483,-0.0085483148000783,-0.9824115832817228,0.8555597876079682,1.2310364556732762,1082.5257985256815,1120.9027197850792,1113.2136012379815,1097.4311279424387,-3.7709178870500986,136.453833841145,657.64919056011,465.5355178934869,162.8948348737071
2.81,0.1053103543709289,-0.945604464798068,-0.1180177439838751,0.0241716300572422,0.0239721216361293,-2.483097977076205e-05,0.002060577934248,-0.0011486181755413,-0.0366450094413405,0.9993254546544604,-0.0086278037146705,0.0396576175910434,9.7774407059693,-0.0179821987855706,0.0124816883753605,-0.0086864098852516,-0.9824561597592631,0.8555939758419387,1.2310179322429222,1082.5104153177576,1120.9858476342208,1114.821117597526,1098.5157119970738,-6.810325110927951,-45.53501177324603,639.6531055565129,418.2098869674608,162.89334127250837
2.8125,0.2199882359230601,-1.111513707369148,-0.0885018100264121,0.0244118633202845,0.0218210976955936,-0.0015870811704138,0.0021230846201543,-0.0011418622857174,-0.0366389188147176,0.9993255528433952,-0.0075218212384927,0.0405187215058041,9.783336652554288,-0.0180700018521769,0.0125502825669698,-0.0088130935630593,-0.9825021528017298,0.8556259203322286,1.231000307765596,1082.4917469001268,1120.6750447262127,1116.411866765764,1099.522177377276,3.0793337047726457,-201.40836296236984,641.7504799868448,393.67802929938006,162.89187190014025
2.815,0.3841714207557,-1.2446986203990276,-0.0020966161134763,0.0246896704324053,0.018163525949495,-0.0026966639895406,0.0021877998899966,-0.0011392117523899,-0.0366353736126143,0.999325543547106,-0.0063021513557669,0.0414598376310148,9.789625559112773,-0.0181474628847211,0.0126207848249469,-0.0089263949470274,-0.9825490667022734,0.855656689288697,1.2309828675586858,1082.5258119862815,1119.9788058194088,1118.0298699974603,1100.4841021435707,33.89353397105951,-282.5530083555865,509.8046690946484,290.3521328635696,162.89013672358988
2.8175,0.5459347820976354,-1.2714855097717628,0.0831969825358295,0.0247232238820208,0.0141575687621364,-0.0023955324717413,0.0022520390990926,-0.0011374742493444,-0.0366333333240672,0.999325475089344,-0.0050466363883067,0.0424335108481368,9.796260152708138,-0.0182149974386963,0.012695916574357,-0.0090237616513778,-0.982595691736371,0.8556865617463204,1.2309643375714103,1082.661214569982,1119.262279684435,1118.9608901112372,1100.973938041594,90.66539557830048,-280.9924128496337,255.27983354341447,109.9083072474992,162.88871385444682
2.82,0.7240106724912565,-1.186327534217511,0.1425722734328664,0.0247762010162856,0.0096830927553812,-0.0006542397147013,0.0023144695810196,-0.0011332642549233,-0.0366358739928646,0.999325242185928,-0.0038360351675722,0.0434145497385181,9.803184762254382,-0.0182736545086123,0.0127774854107015,-0.0091020403705933,-0.982641863197286,0.8557159116707583,1.2309438429444775,1082.9791389641728,1118.5738437551609,1119.3062691651771,1101.033643679808,165.97616903994793,-247.77507845713592,30.429108858241072,-57.93278164218982,162.88731426193996
2.8225,0.8928623512533987,-1.0055659374074857,0.1604651076706416,0.0255088447474137,0.005627953189475,0.0014521113638062,0.0023735249214463,-0.001124525871272,-0.0366462359774332,0.9993247331431162,-0.0027216367618778,0.0443712936353284,9.81033576882218,-0.0183249730786308,0.0128664222595924,-0.0091575780188611,-0.9826876434758348,0.8557455100955756,1.2309203447512502,1083.491095415182,1118.0234042921493,1119.1130356555284,1100.684274133383,257.32847641932574,-165.95796330719867,-201.34403834452772,-241.2740090967255,162.88593319777863
2.825,1.0033954254374908,-0.7283447983741477,0.1280216562545888,0.028052770017885,0.0028757484600089,0.0027115920740487,0.0024268348461558,-0.001106737544998,-0.0366629622390191,0.999324011930524,-0.0017978783477453,0.0452530431742321,9.817642216422758,-0.0183707018489107,0.0129629242210069,-0.0091866934104434,-0.9827330086728427,0.8557759353678265,1.230893404951631,1084.2657813462697,1117.7440539386248,1118.2995489734546,1099.8272736343245,401.9605324677372,-45.62709598162753,-469.0207767379534,-483.2078356855721,162.8845737700632
2.8275,1.000708215457224,-0.3281809591318615,0.0554046488961628,0.0332021647582683,0.0013511084009298,0.0027756889951464,0.0024745697217165,-0.0010794870035204,-0.0366851634838151,0.9993231102940744,-0.0010759714499013,0.046061389482824,9.825026394567647,-0.0184129722690688,0.0130662386838006,-0.0091859876980365,-0.9827777510415576,0.8558073091835597,1.2308641191742051,1085.5008980775203,1117.7952688122411,1116.7679317718387,1098.2682349549552,498.90942127677744,83.36643027787609,-615.4133120035243,-641.4932126693793,162.88296784979445
2.83,0.8514151265915983,0.0244806278643653,-0.0101944296289538,0.038022518995434,0.0014243798258565,0.0021536567478514,0.0025177752957369,-0.001045479724974,-0.0367102674989313,0.9993221170440908,-0.000501416014734,0.0468182497690367,9.83240561736016,-0.018454133289106,0.0131748725450284,-0.0091527619586685,-0.982821662429914,0.8558396614495346,1.2308332426984931,1086.7603284526535,1118.160886090014,1115.222482413437,1096.6198075709776,540.3474094726904,201.69047349104832,-616.925676005862,-700.4729115700378,162.88165212698013
2.8325,0.5461016526376024,0.356976903596633,-0.0609753691173515,0.0416468162844795,0.0025519605777022,0.0014014100603563,0.0025592545817867,-0.0010110222393561,-0.0367343427175103,0.9993211633825652,5.491247642084272e-05,0.047584606158155,9.839694041303916,-0.0184966428801423,0.013286681205675,-0.0090853329557065,-0.9828642953105352,0.8558731580053197,1.2308019811931197,1088.202635124884,1118.8037211796964,1113.6833033918094,1094.7658703971051,658.8020549202752,323.4422481934485,-608.0229612017904,-821.5654614092903,162.88036277941282
2.835,0.043080568781344,0.697977772491471,-0.0955763608358984,0.0433546531997491,0.0049502662015568,0.0006566104126165,0.0026014218868659,-0.000980395588536,-0.0367529641205996,0.9993204025097476,0.0006872089867706,0.0484149800259543,9.846805287195567,-0.0185428145499544,0.0133990219823002,-0.0089833482653241,-0.9829052660221516,0.855908382503135,1.230770915598683,1090.0543387272548,1119.7780973309812,1112.1823676074282,1092.5119802639313,683.7748273595626,372.0749919587513,-451.12125428605447,-802.0620150538605,162.8788511866018
2.8375,-0.4392933054814051,0.9181377619758552,-0.1034571074891517,0.0423430385340483,0.0077911669938819,0.0002365102697552,0.0026424550506056,-0.0009543512926905,-0.0367651734733115,0.99931987405329,0.0014263569385557,0.0492806564199261,9.853655628026468,-0.018594678207076,0.0135088741412654,-0.0088477829916056,-0.9829448588508608,0.8559455872624847,1.2307406146990976,1091.6215092616817,1120.66409613949,1111.4276971203792,1090.755560321836,612.5491765408827,349.87894319620693,-168.3315079303192,-648.3458293812557,162.87762607304143
2.84,-0.9261698649087012,1.0670836687406935,-0.0958931509510881,0.0394112516021213,0.0110213460317007,9.595094516166278e-06,0.002679481299933,-0.000935363780301,-0.0367722091735568,0.9993195379930276,0.0023398128719941,0.0501358363978938,9.860165982620025,-0.0186538141574419,0.0136130807861936,-0.0086808012234162,-0.982983243939854,0.8559852173209288,1.230711902906497,1093.1170846099592,1121.5274920469624,1111.3407100677766,1089.270251117025,620.2834020240098,357.6720776626402,119.38849216225312,-567.9306979657284,162.87644394599948
2.8425,-1.464178978209307,1.1765326581703148,-0.0781117727822696,0.0347911077215323,0.0145741630448546,-0.0001040745161136,0.0027091054884517,-0.0009246086613488,-0.0367727967124747,0.9993194491123012,0.0034708297255351,0.0509252553242245,9.866264124745886,-0.0187209706884634,0.0137088291057021,-0.0084857486360028,-0.9830204549866732,0.8560274980407174,1.2306855712931548,1094.722926271802,1122.4524565278034,1112.0246395811905,1087.915906832007,544.0812911526424,311.246205448312,362.1589651428377,-415.9125676398791,162.87508491053515
2.845,-1.8523092117998512,1.2273711971379315,-0.0618264097694777,0.0304090917079168,0.017106286890987,-0.0001159844566319,0.002731028439057,-0.0009212529344034,-0.0367696457835117,0.9993195085103452,0.0048191845530798,0.0516536716926536,9.871886030923049,-0.018796057407277,0.0137937103337176,-0.0082670453174107,-0.9830572998198436,0.8560725348316958,1.2306621164258864,1095.8374910657224,1123.083723074204,1113.1515048934907,1087.1906882788255,386.69833790819126,212.5851734569141,520.9855454095416,-202.48331857902008,162.87400954260363
2.8475,-2.1644011212963785,1.2565697568576275,-0.0486160536200666,0.0256354904663085,0.0195618995292533,-8.872536608340056e-05,0.0027458114813633,-0.0009222521794138,-0.0367651813843629,0.9993196283821278,0.0063374594447314,0.0523403049589322,9.876977866774775,-0.0188779362500175,0.0138663076404242,-0.008029812453145,-0.9830953118205454,0.8561201171612851,1.2306415044319334,1096.6564179613429,1123.515382395088,1114.629567308238,1086.903490239112,280.92329383762853,127.45701601893686,664.7197834619107,-26.74216840896463,162.87300200312438
2.85,-2.4398998163500845,1.2813664751560003,-0.0383129482297067,0.0192205351714465,0.0226752834577396,-4.650638700185791e-05,0.0027539170778561,-0.0009235873745329,-0.0367592389785031,0.999319818234476,0.0079546959332952,0.0529989473194838,9.881497220859105,-0.0189644491481348,0.0139266612183788,-0.0077794559959707,-0.9831356707718234,0.8561690955451792,1.2306232113357702,1097.2421075349107,1123.7210081542987,1116.4751038108004,1087.0569774367807,143.4976063526877,8.582704437003667,641.475823343003,136.1739527665606,162.87188027745836
2.8525,-2.577424412952508,1.2976890386829447,-0.0337170279501892,0.0132313593501288,0.0253776987659018,-1.980387383541588e-05,0.0027577081510631,-0.0009235031045481,-0.0367510935148385,0.9993201010554108,0.0096371941303765,0.0536776904867039,9.885413161125092,-0.0190527702071626,0.0139764082680986,-0.0075212960727653,-0.98317862820379,0.8562180620039793,1.2306072528451044,1097.3739059931063,1123.5582959172727,1117.836946424953,1087.5843600029448,-21.734317534128884,-151.2789298183666,466.4444646537603,289.75233267365803,162.87102414058242
2.855,-2.60682881810037,1.3077986048028882,-0.0304019238503618,0.00672429252471,0.0281185434051292,-1.4676129027485592e-05,0.002757700808785,-0.0009182058324141,-0.0367404506556821,0.99932049089337,0.0113050828486855,0.0543798203854288,9.888706817487595,-0.0191397057100581,0.0140188546397278,-0.0072603444150391,-0.983223798778516,0.8562649086983662,1.230593489861424,1097.13343594724,1122.964613505207,1118.8073261340692,1088.5057391001487,-152.65408398295543,-315.216941092974,309.08101042264866,430.7465102516381,162.87025587994736
2.8575,-2.539027020005609,1.3068629300040076,-0.024765125394615,-0.0001339588748885,0.0309345593678211,-3.441494107730376e-05,0.002755002620142,-0.0009059858248535,-0.0367289409340195,0.9993209271889528,0.0129110933547727,0.0551133195212592,9.891370204158772,-0.0192221131268709,0.0140586612849927,-0.0070009722954417,-0.9832705337137996,0.8563078566106973,1.2305815485018787,1096.6106355731915,1121.982211211808,1119.3823514770663,1089.7380925542027,-263.8845216664833,-478.50744344551566,140.55104330573457,562.5635822627038,162.86956461094806
2.86,-2.3526992327477823,1.2805353072130528,-0.0112635751036518,-0.006946754834761,0.0340414143944925,-9.024752863978525e-05,0.002751040177305,-0.0008814633605508,-0.0367177360514629,0.9993213677734823,0.0143271383161262,0.0558803116473744,9.893405185877215,-0.0192969778152293,0.0141014583232283,-0.0067469086559399,-0.9833184014404164,0.8563464334900419,1.2305707242196804,1095.8140133389077,1120.5720762879791,1119.5100813505978,1091.3185570114624,-391.53139967908913,-683.726931854698,-15.259776585979912,763.4620754555666,162.86897049972683
2.8625,-2.0072686032659663,1.2018212594814377,0.020814737653961,-0.0140761387922531,0.0381794079735,-0.0001999125437598,0.0027432601582139,-0.0008436543622418,-0.0367073875446816,0.9993217986789964,0.0155071369212394,0.0565976172574728,9.894822671665171,-0.0193616549735926,0.0141532593058845,-0.0065006778811959,-0.9833667508788198,0.8563810297928885,1.230560662261151,1094.652978574796,1118.5635765525344,1119.3060525941364,1093.555402931481,-443.84114267656247,-747.6730315918708,-100.50102273248062,861.7480547012619,162.86837462557042
2.865,-1.6410200742054624,1.0876527757323171,0.0649366166096326,-0.0188094029326409,0.0416939091225434,-0.0003161633637624,0.00272986498754,-0.0007939999941611,-0.0367031500197748,0.9993220288998804,0.0164445588008544,0.0571895328917974,9.895639945816049,-0.019414028049396,0.0142195232985364,-0.006263751912096,-0.983414856100482,0.856412090557998,1.2305510615347728,1093.5948076255247,1116.8337111300195,1119.0075762369352,1095.627297284969,-426.7685552741205,-645.3379859478583,-104.40242657096172,846.2727832409837,162.8679785396143
2.8675,-1.2298356850485588,0.922538027893076,0.1294487563501168,-0.0221081629560165,0.0447748259809131,-0.0004190780510331,0.0027093522095647,-0.0007338931832549,-0.0367109521121629,0.9993218420856756,0.0171253946089711,0.0575784718063733,9.895878959200648,-0.0194523282439713,0.0143047176537047,-0.0060366276431554,-0.9834632546114386,0.8564405211668117,1.2305414607335399,1092.5191357984252,1115.3368866227952,1118.7840404612816,1097.7867668476858,-464.88987390758746,-541.3843160804505,-44.26198816518176,935.3070167910771,162.86768983279623
2.87,-0.7293839261611089,0.6802685256796449,0.2273032683220051,-0.0242951576047163,0.0474022706673923,-0.0004285416184392,0.0026835479250597,-0.0006614884891176,-0.0367282365199877,0.9993213243153928,0.0174655122720667,0.0577448557480395,9.895564042005374,-0.0194748102725694,0.014412152682011,-0.0058190984343103,-0.983513160908362,0.8564681510671469,1.230531258609413,1091.2703582559868,1114.1267895496176,1118.7862662961095,1100.3038323689243,-444.20589992542807,-311.31357215391046,58.96082866461382,885.8645380444801,162.8674707244483
2.8725,-0.3350552063811561,0.4592247921571983,0.3181731695776242,-0.0248050585940303,0.0485635630334438,-0.0002233329619171,0.0026542832193493,-0.000575676532489,-0.0367487265710861,0.9993206985171492,0.0173926750228897,0.0576671005370181,9.894720897179408,-0.0194800361683187,0.014543530164056,-0.0056101463791579,-0.9835646351919765,0.8564958569595765,1.2305195241641431,1090.2981062987983,1113.7803187620257,1119.0788446046047,1102.216089537908,-368.7038252890112,20.16605837657196,174.1079312342245,702.9339691099872,162.86739633845903
2.875,0.0126056288548266,0.2397119332726429,0.4023125248446502,-0.0244835735306153,0.0488649444652592,0.0003971849802229,0.0026226975754618,-0.0004779436186801,-0.0367670845326635,0.9993201551111396,0.0168850471790304,0.057312516628972,9.893375446527632,-0.0194672295104462,0.0146986363073226,-0.0054081025036628,-0.9836172866665108,0.8565242969471053,1.2305056453405188,1089.4268391295418,1114.2276198415004,1119.6568059522804,1103.818502214474,-355.673157761756,375.930815819637,296.10781697202304,617.3575825656958,162.86743646563568
2.8775,0.3643973141917379,-0.0046713174079503,0.4693951032659189,-0.0234998234567022,0.0487092474745843,0.0018691637117829,0.0025890637739662,-0.0003712256961022,-0.0367798926043874,0.9993198173756228,0.0159505613858836,0.0566365164822218,9.891553083541584,-0.0194364900278186,0.0148753017205256,-0.0052110425181959,-0.9836701281754576,0.8565546753563998,1.2304896989533862,1088.5197405099896,1115.6599728411238,1120.5593836894648,1105.3028774507363,-308.21228243258446,651.2560223405355,340.1596929396037,467.81655131400015,162.86761919153994
2.88,0.601832223886577,-0.1863215239157708,0.4775483107168019,-0.0221995673823471,0.0483360648732394,0.0038198203845284,0.0025534290615521,-0.000260167784369,-0.0367872703121702,0.9993196799330392,0.0146334937859115,0.0555988690921705,9.889278211365507,-0.0193889674452203,0.0150694655008485,-0.0050171845803708,-0.9837225359329524,0.8565874866810151,1.230472948486576,1087.8857777173787,1117.483899953203,1121.3576044169783,1106.157584971044,-228.02280054302656,810.5876663473455,296.704549538078,268.1064129139998,162.86788495851854
2.8825,0.7843057969754899,-0.3426268267506162,0.4213619450065821,-0.020494778988621,0.0475851662780862,0.0064097307233202,0.0025174838565601,-0.000152786925868,-0.0367901751558444,0.9993197018931804,0.0130484959267141,0.0542047729218124,9.88657399981014,-0.0193268175817764,0.0152755258386158,-0.004825185752169,-0.9837737498192046,0.8566233238392901,1.2304561896673618,1087.3796265072745,1119.7129111728605,1122.0429064371551,1106.6434095153063,-180.9262899156116,908.1880098016724,234.39378379287757,143.74440108030225,162.86826985382567
2.885,0.9246716230247548,-0.4777866005712295,0.3149529402302395,-0.0184527175579262,0.046501669483477,0.0090661087681019,0.0024872466700963,-5.441730080161229e-05,-0.0367884784876475,0.9993198715251786,0.0112612553268973,0.0525557474788028,9.883462560435023,-0.019252999720662,0.0154867557308695,-0.0046346128715533,-0.9838227763687644,0.8566627917076687,1.2304402681111128,1086.9811462678008,1122.0248400022117,1122.529573335943,1106.8763069764457,-131.7528896274691,875.1247173299225,127.72085327873403,51.13436137680419,162.8687543097918
2.8875,1.018846113071954,-0.588944718414847,0.1764010076699666,-0.0159529924397441,0.0451642888949297,0.0106346504378366,0.0024653165599241,3.3322499638571534e-05,-0.0367843553695081,0.9993201014932268,0.0092751380335894,0.0506972783083263,9.879967226658673,-0.0191711883702763,0.0156957058585831,-0.004445757196658,-0.9838696379704784,0.8567063583056593,1.2304254483728652,1086.720862059137,1124.0885347595104,1122.6815107035488,1106.8990813221903,-79.68070720985622,764.3255785581166,-25.187918299935145,-9.655939237473127,162.86935949283225
2.89,1.086310924909378,-0.6980829668419639,0.0353651472597721,-0.0126344126091148,0.0433657784741654,0.0100400422735591,0.00245116659685,0.0001107059523512,-0.0367828352442498,0.9993202078398544,0.0070685238789595,0.0486265876925037,9.876113334635356,-0.0190855693172722,0.0158947179451828,-0.0042595042064384,-0.9839147512189048,0.8567544023439767,1.2304117436052282,1086.5827427317515,1125.8464678950022,1122.4036337444431,1106.8280272802583,-21.18632504461902,475.3212366280524,-180.340009156502,-21.786380451431352,162.87022580937395
2.8925,1.1133017944861283,-0.7714680674692925,-0.0139540683346022,-0.0100246060084807,0.0419125895727817,0.0077220862123275,0.0024436671744397,0.0001780717189992,-0.0367861461329416,0.999320111871687,0.0046309283699143,0.0463434124077873,9.871928684657956,-0.01900046268454,0.016076713064952,-0.0040772498462934,-0.983958768926228,0.8568064273709791,1.2303991818893427,1086.614930433914,1126.4651409426504,1121.7798106577663,1106.7901494199334,38.851106697394165,41.51453460335777,-319.9291105941552,7.472050176647985,162.87106462406675
2.895,1.122450846493006,-0.8270082817522751,0.0379288608337582,-0.0076812527813215,0.040591833811857,0.0051315782536835,0.0024424618750054,0.000235376440083,-0.0367932126838499,0.999319855145268,0.0019714151157873,0.0438761513518986,9.867444247049946,-0.0189201551425871,0.0162357798511933,-0.0039008280595333,-0.9840015828098346,0.8568615946217515,1.2303877927017963,1086.7769982652385,1126.0540405680188,1120.8039881914726,1106.8653875311416,89.02691282724126,-407.31164411177775,-481.0214270681729,66.14645482727751,162.87202462990368
2.8975,1.1238060660375235,-0.8642845195920287,0.2006133469744027,-0.0048874742746056,0.0384451973726089,0.0035380325371628,0.0024468379215044,0.0002828282350774,-0.0368017642050169,0.999319524617779,-0.0008933497077929,0.0412569169009199,9.862695196462884,-0.0188488448730767,0.0163675868589992,-0.0037323880461384,-0.9840433057169466,0.856918346385866,1.230377669394962,1087.06006499805,1124.4285827220915,1119.3747035224255,1107.1208816940696,107.56366093937913,-744.2656843761757,-537.6935034297845,116.12652010185477,162.87331621545067
2.9,1.1202890429112176,-0.8586655668706892,0.3782173153185033,-0.0026808669287004,0.0358920043981209,0.0039833630388668,0.0024552929314477,0.0003208076782337,-0.0368089727435556,0.9993192299826078,-0.0039377695949173,0.038510192351701,9.85772159647058,-0.0187905426902634,0.0164696696133876,-0.0035742562496296,-0.9840838995859508,0.8569750138647768,1.2303687774419196,1087.3148165699351,1122.332712146138,1118.1155206743235,1107.4460201316508,95.69844624029632,-913.7373640776073,-482.3429333728757,138.69494128739757,162.87450821211547
2.9025,1.1091596800432335,-0.8026142245035282,0.5347391200959287,-0.0006383960642825,0.0330088044080964,0.0062868329938155,0.0024679825523992,0.0003493457548857,-0.0368125822254662,0.9993190556437738,-0.0071198902132996,0.0356981059688988,9.85256838422283,-0.0187489660417217,0.0165414614974499,-0.00342887491656,-0.9841225518369812,0.857030895777464,1.2303610006630863,1087.5385572292516,1119.8598959017036,1116.9629888555612,1107.8143564005068,89.18281565587982,-1065.2823387531687,-453.70131371238705,150.23165848382527,162.87581920079566
2.905,1.0723753773452824,-0.6773412437885872,0.6335390553585865,0.001984992024933,0.0299215092442432,0.0104796280084962,0.0024844092124448,0.0003714165726422,-0.0368114596163835,0.9993190446483772,-0.0104459994813393,0.0328689296103928,9.847285760079448,-0.018727321020229,0.0165842205029885,-0.0032987183709785,-0.9841594411128336,0.857085674075523,1.230354513588888,1087.7607306482148,1117.006300452372,1115.8470141057617,1108.19717842407,79.83566548809365,-951.1827795212679,-358.3785732378359,114.778690972063,162.8775281586586
2.9075,1.0042490955304852,-0.5368092441705749,0.6177802487394193,0.0046327435185707,0.0280105678262892,0.0141022824912243,0.0025028911080994,0.0003886745129165,-0.0368046815410944,0.999319235548252,-0.0138879442561989,0.030046344831361,9.841929101641568,-0.0187280401234339,0.0166009088725628,-0.0031859839800201,-0.98419525941327,0.8571384330097138,1.2303495250162932,1087.937735556692,1115.1039820040971,1115.171095989372,1108.3882498553671,82.29998253959995,-595.3373209155543,-229.81426137567303,33.9971940511994,162.87906357505813
2.91,0.8737270526934943,-0.3837569489779261,0.5071195714159317,0.0077569853378329,0.0269686776261082,0.0167212047631962,0.0025220073378028,0.0004034072751857,-0.0367914950978617,0.9993196599571667,-0.0174248024668123,0.0272534301921954,9.836558171133582,-0.0187525380251779,0.0165959351601381,-0.0030925596072527,-0.984230331535344,0.8571882873822304,1.2303451829401448,1088.1722305609128,1114.0296138477943,1114.697942798883,1108.367164394326,113.04427773525516,-270.4094893003969,-176.71279961255473,-52.470394836155926,162.88071155019716
2.9125,0.6800163565793572,-0.2419110851422499,0.3448927760971572,0.0106299667264568,0.0265354064804589,0.0181674591601988,0.0025398721995248,0.0004190197030992,-0.036772915813261,0.9993202850840078,-0.0210543479712538,0.0244954616861251,9.831236377529416,-0.0188010940267965,0.0165747273404922,-0.0030199044997556,-0.9842655014783414,0.8572348493252208,1.2303407922896044,1088.5029569453684,1113.7519345575952,1114.2875319913092,1108.1258978811863,160.69540549506544,68.48825992915555,-180.21456640599737,-156.24837771406752,162.88245010588005
2.915,0.4103707668668849,-0.1369602987299087,0.166130211001652,0.0126211174464712,0.0266648040234063,0.0182145503919145,0.0025545852807473,0.0004364540932921,-0.0367540685493283,0.9993209270950342,-0.0247256179748577,0.0217694251374832,9.826029850399497,-0.0188728626716303,0.0165431768157621,-0.002968916165413,-0.9843017413594468,0.8572783005899228,1.2303361188496065,1088.975707588388,1114.37205514744,1113.7968699668531,1107.5859225057557,235.05775139492968,419.4490248721738,-267.2791107636442,-309.11855718064294,162.88429387002253
2.9175,0.0157562855562256,-0.0748694361663398,-0.0112344443166354,0.0141433239505269,0.0271731627747306,0.0169928968820992,0.0025647312687321,0.0004560052943737,-0.0367395178556788,0.999321421782844,-0.0283769761099252,0.0190717696374584,9.82100611344178,-0.0189657431832553,0.0165073148813288,-0.0029400571965269,-0.9843401738640511,0.857318510414332,1.2303311442896792,1089.678245702343,1115.849179681956,1112.9511364374907,1106.5803050952832,267.62672925256646,597.0400772506891,-363.3179225597892,-424.911992827001,162.88662194767815
2.92,-0.3497119598730058,-0.0831402194563376,-0.0993316062487035,0.0146765342687337,0.0276296131205243,0.0153810942516714,0.0025696674462817,0.0004748802606602,-0.036730354254565,0.999321731570529,-0.0318904380330082,0.0164060281186125,9.816232887068761,-0.0190764826576435,0.0164729184959851,-0.0029333360542282,-0.9843815001898728,0.8573555556196413,1.2303257689645868,1090.313841234651,1117.3572555336934,1111.9802803540545,1105.4613625416207,243.98496841432072,572.6322693432969,-435.57598730263646,-495.51798853759607,162.88865324719143
2.9225,-0.7126107681556916,-0.1509351066311901,-0.1136676945532532,0.0140684736082996,0.0278293228565878,0.013976498228002,0.0025689650358716,0.0004917896578491,-0.0367256890941875,0.9993218906385346,-0.0351833685088551,0.0137694201324636,9.811776386526072,-0.0192010200115893,0.0164449573093392,-0.0029485092515151,-0.98442646972776,0.8573901951260645,1.230320634471073,1090.8981705444144,1118.7123410286724,1110.7732565009778,1104.1027151525952,220.47973349411552,472.34789199302656,-554.5550502968662,-634.9133839866707,162.89077244010872
2.925,-1.0816225216729296,-0.2862161885593589,-0.0595046526347157,0.0112716532959876,0.0274400462587013,0.0131526600872895,0.0025613762754822,0.0005062146343881,-0.0367250601019612,0.99932192005283,-0.0381946788227948,0.0111346758912421,9.807699837767206,-0.0193349948803119,0.0164270594061198,-0.0029850258904809,-0.9844749102124302,0.8574230692158666,1.2303161534243767,1091.4162399021216,1119.7189949936587,1109.20750510257,1102.2867956216871,144.26588507384557,225.0208871772732,-562.619156696481,-680.3432587437323,162.8934083656529
2.9275,-1.283786341268082,-0.4283795180386533,0.0236864007088324,0.0070829069483154,0.0264730209592748,0.0130918079185951,0.0025474034549039,0.0005187389647852,-0.0367296128805072,0.9993217773295971,-0.0408938274897379,0.0085023351994815,9.804061449311746,-0.0194742464198945,0.0164211045948942,-0.0030420633419811,-0.9845260059750482,0.8574555196404477,1.2303120887030057,1091.6194999697839,1119.8374454645589,1107.9601607174952,1100.7009988588763,21.31293052848423,-111.86460748249613,-448.26163370431505,-626.4671639659942,162.8956758118017
2.93,-1.3301407947667845,-0.5822212484462027,0.116975553376835,0.0017904145096821,0.025018515768922,0.0134211237669125,0.0025321411088868,0.0005303801128589,-0.0367387703905404,0.99932147095816,-0.0432695939877106,0.0059597625097057,9.800912489298591,-0.0196151121870846,0.0164271564655984,-0.0031185075952095,-0.9845789158169708,0.8574896992757512,1.2303085005150571,1091.522804554764,1119.1596719562463,1106.9661969340484,1099.1544598018572,-118.51763051468222,-443.8778164155432,-340.4290137707976,-640.8103011877438,162.8980089766748
2.9325,-1.1889347784357989,-0.7623125662623305,0.2081058562566558,-0.0043163707239275,0.0230382396801404,0.014367725539363,0.002520009836727,0.000539821524732,-0.0367482913759621,0.9993211459853368,-0.0452716091669894,0.0035828856632689,9.798296453137896,-0.0197546822705358,0.0164436503396829,-0.0032125738713632,-0.984632698327405,0.8575270256843907,1.2303054571351884,1091.0269118172105,1117.6180563824812,1106.2580156486413,1097.4969473529377,-244.5619340738683,-633.919824790214,-159.67951848634016,-550.8335596277565,162.900875741999
2.935,-0.9246771241513692,-0.8974716589769853,0.2468727339649183,-0.0081572814605243,0.0211720126125202,0.015641172287406,0.0025112759473843,0.0005469836142669,-0.0367566060433453,0.9993208579465364,-0.0468773325924161,0.0013675820578875,9.796247360484855,-0.0198911640708647,0.0164675145429884,-0.0033217235986855,-0.984686209806364,0.8575683637020641,1.2303023328092924,1090.2999948843947,1115.9900728322953,1106.1677993416167,1096.4002920037185,-349.7393329713379,-647.6180028622049,77.61394572594492,-352.8176893083202,162.90331397321447
2.9375,-0.5568808448338962,-1.0034720736316332,0.2329014774566081,-0.0098566895618082,0.0189267393664641,0.0170155409548912,0.0025065560787188,0.0005545089780461,-0.0367611273628097,0.9993206976323088,-0.0481231259256014,-0.0006805898844313,9.79478756985059,-0.0200237856460825,0.0164948057754154,-0.0034428189267852,-0.9847389685613676,0.8576128703602539,1.2302983922472464,1089.2782151523538,1114.3799663681702,1106.6460853772708,1095.732858906396,-450.5180089434912,-589.6839447076344,283.27203053768847,-180.67098456645385,162.9057955465371
2.94,-0.1482151709438685,-1.074255398512344,0.174176356607237,-0.0097695323679467,0.016227952973888,0.0180743081995993,0.0025064395476379,0.0005658537435867,-0.0367603010181876,0.9993207184808756,-0.0490655914813703,-0.0025510075436258,9.79392672360467,-0.0201527898859344,0.0165211607559765,-0.0035720693497613,-0.9847906248343212,0.8576595669292353,1.2302929673441407,1088.0474048396773,1113.0416531087571,1107.5841594943051,1095.4969370808863,-532.8306914180416,-427.65375459608555,473.34505359977913,17.291666071696824,162.90830725392047
2.9425,0.2630443682460858,-1.0908723814623156,0.0704629150688876,-0.0080127930875531,0.0129595157277958,0.0184984143587604,0.002510756133935,0.0005824158270533,-0.0367527303795315,0.9993209719445342,-0.0497238504041819,-0.0042392443950202,9.793661193410223,-0.0202792594364179,0.0165422601100506,-0.0037050250393982,-0.9848405979036108,0.857708207367875,1.230285619227317,1086.6140616952637,1112.2416975951899,1109.0128106452698,1095.8193172367546,-662.4270565333204,-208.70427335499235,716.0745705573996,262.2710895212605,162.91084827205964
2.945,0.725035084784839,-1.0424834625685453,-0.088170817528731,-0.0050394349553516,0.0089433433487736,0.0182576619441106,0.0025198987007816,0.0005996286615977,-0.0367382413064998,0.9993214657650245,-0.0500033728555187,-0.0057182709257205,9.793973916732567,-0.0204049306367315,0.0165541103227772,-0.0038366750414958,-0.984887725696369,0.8577583976551604,1.2302762502399822,1084.7352695570107,1111.9981317419822,1111.164532347092,1096.8082925284923,-700.8962994451376,17.607523322702665,837.8838687555235,441.9169793193007,162.91392221192848
2.9475,1.078949895514338,-0.9515437873254255,-0.2362061212250643,-0.0024488560722174,0.0062277344090365,0.0176006907823791,0.0025336936258582,0.0006128744407537,-0.0367191694738757,0.9993221164266116,-0.0498105481821557,-0.0069654414947002,9.794833786136472,-0.0205318213088124,0.0165532778728656,-0.0039618796666194,-0.9849318781547388,0.8578091570332095,1.2302655036926442,1083.1095801980375,1112.3297352118032,1113.2022299890475,1098.0289021333513,-639.2274508134528,204.32748295473613,833.1029559340442,530.1554478634995,162.91649749723095
2.95,1.409819270836328,-0.825066035770087,-0.3895863691910675,0.0001494797240472,0.00441853389042,0.016901755879038,0.0025538688733341,0.0006193754524136,-0.0366942301391833,0.9993229668634848,-0.0490913826787365,-0.0079159881427361,9.796195709814,-0.0206615401875374,0.0165373074340905,-0.0040757374908478,-0.9849734654271136,0.8578596827478692,1.230253995438621,1081.5391323029432,1113.019769156756,1115.3300471267623,1099.4590697678102,-643.3529824662083,326.06866412384767,916.5021285077469,619.6948852874489,162.9190782644889
2.9525,1.7917869168732037,-0.652344916956194,-0.5690784310462608,0.0035667684733793,0.0026901337015172,0.0164382439711324,0.0025819823204243,0.0006174861914666,-0.036664736555037,0.9993239645029424,-0.0478167758887644,-0.0085052806624662,9.798001870637005,-0.0207950295136136,0.0165045523780428,-0.0041736200849074,-0.9850133095202244,0.8579099183796571,1.230241201720013,1079.8928152857068,1113.9600785324224,1117.7847406315864,1101.1273765597884,-536.3054328258501,322.57313231862787,854.7193867473379,561.4744881214511,162.9221708388685
2.955,2.0963201047056006,-0.5012693961812373,-0.7011518726774981,0.0068996648618023,0.0012730231448972,0.015812794686492,0.0026224690085126,0.0006089318339844,-0.0366343772253736,0.9993249604956445,-0.0460293764865783,-0.0086126614625697,9.80018283828252,-0.0209321639544489,0.0164541652707467,-0.0042515044365398,-0.9850531942297676,0.8579606428339418,1.2302261854809036,1078.857605138814,1114.632634818349,1119.6036440604992,1102.2664422084174,-314.2302494915451,215.26811778485808,650.2100075252795,362.7688275269143,162.92473617129482
2.9575,2.366444052982013,-0.3525271186098664,-0.7851123317655649,0.0113249091831596,2.6317688430824865e-05,0.0137744480285743,0.002680304683342,0.0005953726487312,-0.0366071779304047,0.9993257935819548,-0.0437756860776128,-0.0081066535513755,9.80266021878233,-0.0210715348380103,0.0163862381274593,-0.0043059930713233,-0.9850947654204988,0.8580120144647243,1.2302082895367112,1078.321664038249,1115.0364191213469,1121.0357906692127,1102.9412206974228,-96.94870989374272,113.11426827528761,514.961719539917,163.78406074186736,162.9272789884326
2.96,2.6046588805085857,-0.1907948253523337,-0.7894567195732196,0.0185764795346637,-0.0009645191575595,0.0096590325914069,0.0027555254274589,0.0005792467417225,-0.0365861186962606,0.9993263531660224,-0.0411197292042612,-0.0069551319151807,9.80534948903891,-0.0212104814704498,0.0163019920298121,-0.0043345137547691,-0.9851396223608938,0.8580636646267068,1.2301878213770412,1078.3728615893451,1115.1982061597255,1122.1784526581987,1103.0853625121267,140.07693219546425,25.3889993160561,313.10312625351554,-60.02879546936256,162.93029182170872
2.9625,2.6922265079299175,-0.0832684005649475,-0.6957580558930129,0.0257990872227975,-0.0011504039363726,0.0059046659763412,0.0028460104327136,0.0005633222344902,-0.0365671988439501,0.9993267880415828,-0.0381371209983558,-0.0051724409062415,9.808162807248237,-0.0213452211920718,0.0162040680491369,-0.0043357779060349,-0.9851880784174606,0.8581148122761538,1.2301664041310696,1079.0220486992264,1115.1633641179271,1122.6013063004802,1102.641076720076,376.1467676229211,-8.75802404284532,60.17747143996658,-278.87105805849075,162.93276084674775
2.965,2.6263706258343458,-0.0201575879646963,-0.510290775470642,0.0332764726959967,-0.00060070207596,0.0030580614247235,0.0029467013370452,0.0005480444710201,-0.0365492141537687,0.9993271539874378,-0.0348631717430018,-0.002835955749218,9.81101252350984,-0.0214716493955329,0.0160960885954544,-0.0043098952443531,-0.9852397159103194,0.8581643687141102,1.2301456467462148,1080.25359542746,1115.1544160395113,1122.4793400153983,1101.6910072218343,570.136576088005,33.84308890835881,-128.9378122679322,-441.83975166258017,162.9351750244753
2.9675,2.4172665984913313,-0.0012240701057153,-0.2772112557917663,0.0405846817221481,0.0002915256348264,0.0013818847840645,0.0030529488694486,0.000533059439145,-0.0365300056335207,0.9993275430850292,-0.0313251068757526,-2.3123381177450608e-05,9.813813993245816,-0.0215856569005033,0.0159826176061432,-0.0042585719520152,-0.9852940723525044,0.8582113440276399,1.230127423305336,1081.8727315796666,1115.3325795624687,1121.9566172391403,1100.4318779617631,705.8436610056539,147.00891275227977,-283.7236700473831,-544.8846433785179,162.93753551342527
2.97,2.034386377511953,-0.03256614581375,-0.0373079845178685,0.0474126862658018,0.0011991490198997,0.0012225030426531,0.0031605114192361,0.0005197492285209,-0.0365069863292455,0.9993280625320284,-0.0275913467305915,0.0031852955288287,9.816488416312227,-0.0216835107567079,0.0158688255817014,-0.0041849868888107,-0.9853504849623697,0.8582551144838582,1.2301126897341954,1083.7828137324884,1115.8894606032727,1121.0607216651615,1098.9665840049415,853.0419864627856,348.6302595566105,-444.01118329297833,-647.3889517909039,162.93982234518984
2.9725,1.4003784729009985,-0.1063215405560336,0.1893667631890816,0.054231763170604,0.0017369105223138,0.002669319884154,0.0032628796170166,0.0005075115750024,-0.0364835036473387,0.999328608959308,-0.0236958906282551,0.0066543149848505,9.818966052766456,-0.0217623683863627,0.0157598064173854,-0.0040931317777777,-0.9854073384446616,0.8582952120868494,1.2301004836037213,1086.1379415119804,1117.075730860252,1119.7365613226757,1097.1949332028087,833.796424631118,514.2147993568979,-498.3111976270372,-621.4588044356921,162.9424711900426
2.975,0.7677147771036416,-0.1708997334073385,0.2853241576538555,0.0580349649881824,0.0012446748662688,0.0049898970250225,0.0033582495952551,0.0004952822887341,-0.0364609882413528,0.9993291341844736,-0.0196716669542023,0.0103309606703692,9.821187540885767,-0.0218201310017752,0.0156603724268716,-0.0039876816522756,-0.9854642038220872,0.858332545565165,1.2300902957894293,1087.951795855644,1118.4605346000571,1118.5691656770264,1095.8592899827631,655.1047864857677,610.4116019039013,-448.6171764735996,-476.2937139992674,162.94459260092398
2.9775,0.0982631367100053,-0.2028399018400445,0.2581282316589855,0.0590063492584935,-0.0002325793977876,0.0078052718514769,0.0034463580124073,0.0004808085940643,-0.0364407126436136,0.9993295935737836,-0.0155323680184849,0.014183189766109,9.823105605037819,-0.0218554990055432,0.0155745671549985,-0.0038735214323587,-0.9855212123461095,0.858368224815155,1.2300820164498192,1089.4134654444092,1120.1277888697712,1117.4934754403075,1094.8134646328124,536.3136614292331,759.261649028456,-425.02032014200256,-373.38986825298775,162.9466181388129
2.98,-0.6528948620071073,-0.1743784605006302,0.093335130564174,0.0568056935559948,-0.002137262660243,0.0103121560250101,0.0035266886381362,0.0004655404266894,-0.0364244554091824,0.999329925026429,-0.0113653498839411,0.0181622878601112,9.824685821378845,-0.0218679300863175,0.0155053594861475,-0.0037556205432247,-0.9855785876656696,0.8584040175581255,1.23007554721497,1090.63336416279,1122.2568428451991,1116.4440640763164,1093.9923406414982,356.94090063371584,774.3866610801142,-334.01229041065363,-224.8998734296995,162.9489316163123
2.9825,-1.1745142383982692,-0.0889748451724863,-0.1197933792543541,0.0526004361490894,-0.0031220310933607,0.010701368937128,0.0035979726906418,0.0004539712854513,-0.0364114366118204,0.9993301620372196,-0.007316225841006,0.022195143030295,9.825907044946318,-0.0218575748454481,0.015454698264893,-0.0036387465182249,-0.9856367018562004,0.8584413190831884,1.2300704528093076,1091.1981699475775,1123.9997221751719,1115.8234139882543,1093.688965265664,149.7420276381522,663.7450025985486,-194.56583792462385,-51.02303385292652,162.95075816457936
2.985,-1.542529453603949,0.0525759030498721,-0.3536488822037688,0.0468686788456426,-0.0034098221399712,0.0092359084027224,0.0036585485247693,0.0004470401316659,-0.0363957390297301,0.9993305275918396,-0.003457259815675,0.0261977661914808,9.826761202714223,-0.0218253286179487,0.0154237476786425,-0.0035269919967733,-0.9856951397719184,0.8584800777993992,1.2300666610443483,1091.3820743009808,1125.575567858192,1115.4712348866933,1093.7372254722336,29.67856474374257,631.4901259912432,-104.02598703484936,75.6382723342489,162.95247609701025
2.9875,-1.801623402761612,0.2684641303251531,-0.5960953319086859,0.0397139332255784,-0.0031981565929112,0.0063693229312966,0.0037072383250178,0.0004423141938066,-0.0363763225121044,0.9993310660280496,0.0002098946134194,0.0300940821402219,9.827252052008248,-0.0217732123318788,0.0154126653934209,-0.0034236445983053,-0.9857523704909652,0.8585197100828876,1.2300638853047363,1091.3465627712965,1127.1571728051283,1115.3032840530802,1094.0671566273352,-25.452773013055875,515.4139457313356,-32.96188572207716,137.3870812020321,162.95440888878207
2.99,-1.8928060529638628,0.4697179247022431,-0.7360266545977833,0.0345154933088858,-0.0024615043821157,0.0036736395535394,0.0037450564329975,0.0004389866663458,-0.0363573574790225,0.9993316233206861,0.0036563800676612,0.0338480580048428,9.827393332869619,-0.0217042954581575,0.0154207750795238,-0.003331324449212,-0.9858075702859725,0.8585597133787112,1.2300616006826484,1091.2548104359155,1128.1526375868489,1115.306425458083,1094.4241608782438,-18.93964130413264,318.9962301101855,10.537190200739357,120.02239296926092,162.95591019807628
2.9925,-1.9101048197000536,0.6702257830601747,-0.7953065269398402,0.030553251784284,-0.0010828800267116,0.0010764164004388,0.0037747913975948,0.0004343643140662,-0.0363459008099212,0.9993319352933908,0.0068968602471826,0.0374600321412513,9.827207058641708,-0.0216224295962848,0.0154468055094207,-0.0032517473730766,-0.9858595649190316,0.8586001490290653,1.230059430780978,1091.2518645647758,1128.7521539556792,1115.355970004084,1094.6672685921815,37.87456408886182,160.85791428691098,7.034295853463996,38.971326405090544,162.95729572492075
2.995,-1.9121484387241576,0.8822394000314179,-0.7742970503374224,0.0268211719122217,0.0012562706921,-0.0015585099485798,0.0038007764516335,0.0004285686252122,-0.0363467387079659,0.9993318136489708,0.0098987184928458,0.0409605542313224,9.82672153194676,-0.0215316930621304,0.0154892235278811,-0.0031859084549844,-0.985908149030781,0.8586416168105078,1.2300567931658677,1091.4441832563596,1128.9569271582834,1115.3415969373502,1094.6190175102693,101.44286544864588,-17.07970208171937,-34.61366253232046,-93.74874824143463,162.95882210063587
2.9975,-1.9325928533861088,1.0155115810355133,-0.6883272156254546,0.0239727809182812,0.003798110670586,-0.0033206735695836,0.0038258213430888,0.0004276790861674,-0.0363591542445967,0.9993312714056543,0.01252343769749,0.0443492459365594,9.825969943987113,-0.0214358356437637,0.0155465263003934,-0.0031341712648027,-0.9859549804915986,0.8586839072428066,1.2300534049739202,1091.759078892019,1128.6667554452706,1115.1829016914223,1094.1985248509743,137.50063387151678,-214.67039086929165,-107.6982328462714,-249.82229288280527,162.95997893779568
3.0,-1.986698719064992,1.0836475898048819,-0.5438645931420482,0.0207511804367831,0.0068280440679556,-0.0049746208193637,0.0038534865684467,0.0004339523146359,-0.0363778577041721,0.999330485492237,0.014717215049832,0.0476476463570984,9.824988012745424,-0.0213380302692079,0.0156173124654871,-0.0030960419233309,-0.986001597933328,0.8587259224742048,1.2300494814465135,1092.1316864257171,1127.8835752039367,1114.803105773119,1093.3699060458553,132.49422369677004,-390.2014680246877,-190.61485222251076,-383.4662617844597,162.96101453544307
3.0025,-2.0591570212054,1.0876896269445415,-0.3613884057235117,0.0167571724903995,0.0100150986700008,-0.0066735358490043,0.0038872481195424,0.0004460616983704,-0.0363980658071465,0.999329616618605,0.0165059940677553,0.0508838188537573,9.823812186539561,-0.0212409007853922,0.0157000905952656,-0.0030702731969987,-0.9860488568738685,0.8587669463823823,1.2300450424758802,1092.4215500105029,1126.7157481051472,1114.2298274303096,1092.281193542052,59.299509405992815,-540.3514189919521,-266.04807222566365,-460.1839185129491,162.96194843539303
3.005,-2.1250963833577976,1.0107231440366324,-0.1517663453981623,0.011714480232356,0.0132620914550375,-0.0079950270254112,0.003926485440716,0.000462849180147,-0.0364152634042309,0.999328831704526,0.0179238485971895,0.0540118759566536,9.822478871136925,-0.0211465360057269,0.0157932157852446,-0.0030549997066047,-0.986096647772355,0.8588082188276654,1.2300393647962753,1092.428183972747,1125.1818181089773,1113.4728654119904,1091.0689864532903,-103.20327791418308,-714.7533258808353,-348.29816150370254,-500.10113022186744,162.9627583927252
3.0075,-2.153471567471576,0.8330494827287588,0.0941835323897595,0.0047894798920015,0.0166694333673258,-0.008046764132161,0.0039677007644067,0.0004816603285161,-0.0364280468422243,0.9993281964115012,0.0190433631326486,0.0569380215360067,9.82102303055496,-0.0210567044027243,0.0158946859909559,-0.0030478622007493,-0.9861449176132036,0.8588506604264692,1.230031836332086,1091.905533620932,1123.1419814757428,1112.4883366227912,1089.7806878909423,-296.28495754548385,-738.0821446817166,-346.97160674529573,-401.21364100279624,162.96358502760444
3.01,-2.1083441931140006,0.6297088939215795,0.2625617691813014,-0.0014310783749475,0.0186720833864517,-0.0065631341743693,0.0040051013123846,0.0004991819778062,-0.0364348997008835,0.999327790491158,0.0199577780848402,0.0595318786465894,9.81947727527056,-0.0209728651978873,0.0160023231078592,-0.0030462955084957,-0.9861931353774798,0.8588938916245203,1.2300227367904777,1090.9467591850198,1121.4914073855684,1111.738007378264,1089.0629182482764,-487.76489097764306,-596.3560470525535,-252.74393970935847,-175.87067920890524,162.964150798408
3.0125,-1.9753656525871448,0.3950200464681605,0.3641093309802778,-0.0073609428397571,0.0197023205466552,-0.0042937507408422,0.0040340911015444,0.0005124548964428,-0.0364363300634146,0.9993276155908992,0.0207568828469015,0.0616946719321106,9.817870708728412,-0.0208962929130609,0.0161137560718397,-0.0030479408668515,-0.9862400275115666,0.8589375496993806,1.2300126507308868,1089.4667091660435,1120.16020124048,1111.2246169242444,1088.901334494898,-734.9298542218705,-460.3307306774794,-142.19966481796595,74.09748974955777,162.96458574336168
3.015,-1.7182806050551602,0.1079975474397806,0.402130596216367,-0.0133049333039232,0.0199557566377508,-0.0018996220314382,0.0040507601434695,0.0005220078311041,-0.0364331567457991,0.999327657955419,0.0214645116480602,0.063346899028161,9.816228943553732,-0.020827943783678,0.0162265581197637,-0.0030509535587537,-0.9862855186747904,0.8589814185968437,1.2300021848413447,1087.2721099139103,1119.189753732181,1111.027009054174,1089.4334056970242,-831.693101718401,-227.68473839769769,6.924588715901484,309.82858953271466,162.96495201990615
3.0175,-1.4370707278158135,-0.1171300846198686,0.377265780651881,-0.0171284449678066,0.0194943627892838,-0.0006106347216374,0.0040522944191695,0.0005275925433015,-0.0364248391020195,0.9993279497296648,0.0221205463041831,0.06443907405133,9.814574018126825,-0.0207682659077846,0.0163383403344707,-0.0030539498294681,-0.9863296902347368,0.8590256975693947,1.22999197513203,1085.3082436574518,1119.0217775484916,1111.259239867824,1090.4504774425616,-756.1589210060608,72.61936259542534,171.27391265549159,500.4338698689132,162.96512374768835
3.02,-1.1080457219660005,-0.3128288037303509,0.3214382790677551,-0.019879060420592,0.0185273753702487,1.1525280696974916e-05,0.004041291539304,0.000529319834307,-0.0364114916336976,0.9993284759541166,0.0227536027100259,0.0650350683759721,9.812923893085856,-0.0207170781753711,0.0164466735250288,-0.0030562186791956,-0.9863726732051586,0.8590711878694436,1.2299821283713812,1083.4913153088803,1119.5528505451582,1111.8833786174516,1091.9355750463687,-707.5414032867835,373.94188230960816,344.0168039385372,717.1831540355622,162.9651517055665
3.0225,-0.680832415910778,-0.5059685294501342,0.2524311326038578,-0.0220565972230518,0.0170647984569749,0.0002343281085476,0.0040204468207062,0.0005317699324574,-0.0363927587949591,0.9993292352258246,0.0233027393347084,0.065204020584341,9.811294295704926,-0.0206733617177117,0.0165492659007132,-0.0030576734587149,-0.9864156289807192,0.8591182476804314,1.229972307448391,1081.770536641018,1120.8914869600396,1112.9793238875163,1094.0363932127393,-525.8374113481863,573.6697998838404,437.1920872126432,786.9427166901173,162.96501216065923
3.025,-0.3104731444228387,-0.6312851106297246,0.212907112286845,-0.0230274940081699,0.0156688579266464,0.0001669667024324,0.0039928590309206,0.0005385294825778,-0.036369554509849,0.9993301792858063,0.0237226869382858,0.0650292326720786,9.809699177198544,-0.0206353008274412,0.0166440607734819,-0.0030586160937527,-0.9864594835525092,0.8591669842309017,1.2299623370065955,1080.8621282521394,1122.4211995445771,1114.0693390535148,1095.8702886298192,-240.3136412938744,639.6349716321902,443.50256700559873,709.0784714136286,162.9647461497449
3.0275,0.0645431355541105,-0.7209401433523285,0.2060094028587002,-0.0232251535821211,0.0140505291631408,2.895264130647575e-05,0.0039616292692373,0.0005543131299615,-0.0363420835888277,0.999331286096588,0.0239415370209015,0.0645973885239459,9.808151594925906,-0.0206002993881779,0.0167295174769567,-0.003059812539455,-0.9865047531578386,0.8592167955837415,1.2299524588519075,1080.5689684345487,1124.0896618182005,1115.1968367225445,1097.5817855698072,-19.281562512195315,639.1662917145392,437.9531726831078,638.4100351574058,162.96431824655835
3.03,0.4378875365357133,-0.7823507434500918,0.2286889819294267,-0.022766958145562,0.0124899906621822,-4.091760541193148e-05,0.00393170457042,0.000581465379734,-0.0363094410489321,0.9993325684710356,0.0239271680096878,0.0640356621459681,9.806663848835855,-0.0205651922016293,0.0168047722891613,-0.003062417818122,-0.9865519892020216,0.8592671170550725,1.229942868490916,1080.7657204395784,1125.6170310031503,1116.2591049169305,1099.0623388056065,177.94819850099591,515.6288281914947,393.49558367577697,516.1672031769392,162.96375163412768
3.0325,0.8022246930797182,-0.8093881534705749,0.280838242182822,-0.0214452739278024,0.0111010949513729,0.0001192792590565,0.0039072217367602,0.0006170644469633,-0.0362740360329457,0.99933392453701,0.0237448176742733,0.0634602756107461,9.805248459220962,-0.020526703178964,0.016869548091272,-0.0030677307844168,-0.9866021319384058,0.859317712702556,1.2299343803675207,1081.4587094270537,1126.667805959158,1117.1643146409235,1100.1626215856922,384.50645028634335,288.9434979421883,353.9186683583087,387.4794176066271,162.9630128991715
3.035,1.216946871788218,-0.7941276477085392,0.35964344794661,-0.0189290904879565,0.0091490531366293,0.0007668166469135,0.00389022296744,0.0006547248103185,-0.0362391274436055,0.9993352324651872,0.0235229886126297,0.0629483024115211,9.80391884444541,-0.0204817420982364,0.0169242676019429,-0.0030771048618573,-0.986655079243787,0.8593677941976631,1.229927715564168,1082.68825269101,1127.0617484928612,1118.028698258722,1100.9997358936396,489.0412081864828,-25.117404276307376,282.29109876447785,232.0576031814248,162.96192184019407
3.0375,1.5314117601867776,-0.7301874201445212,0.4211010318478039,-0.0161011065481288,0.0070768486731423,0.0018011672120627,0.0038832754457415,0.000686911724551,-0.0362108968894853,0.9993362626837314,0.0234064781446211,0.0625859037926961,9.802688952102338,-0.0204278889388777,0.0169698826361248,-0.0030919133217447,-0.9867094339499544,0.8594172288965395,1.2299228115115364,1083.903915467986,1126.5422189377766,1118.5757701347459,1101.3229096015991,495.105643814724,-381.3746114039613,192.4736258452908,66.8608151141612,162.96083856419227
3.04,1.7927059820302356,-0.5990031373481812,0.4561940411621219,-0.0124001452193687,0.0046034588261785,0.0033795468362442,0.003885836151901,0.0007117520591403,-0.0361929438461359,0.9993368864119702,0.0234272608564054,0.0623906449237055,9.801574069551915,-0.0203634986837887,0.0170079980619117,-0.0031134171571985,-0.9867644721983247,0.8594657625601163,1.2299196863421973,1085.1637809100837,1125.1548754358414,1118.9910663879484,1101.3340399692104,536.5647471698254,-768.410583876328,166.2800956365608,-48.61593837108661,162.9595709402977
3.0425,2.0132848777085974,-0.3594927781114162,0.4491382516430864,-0.0066967308435984,0.0019678583776081,0.0056196699208101,0.0038949590814644,0.0007284473849552,-0.0361863056894223,0.999337077380464,0.0235952317389967,0.0623275161163456,9.800590034784804,-0.0202879149945896,0.0170407231409416,-0.0031423307659337,-0.98681966661504,0.8595136788366108,1.229917741271911,1086.5867392038351,1122.700166018395,1119.4071706129287,1101.079829909744,492.42161705416174,-980.5660653406655,146.56166578897995,-128.2480106797293,162.95783315558356
3.045,2.0960152445192617,-0.1019365533895838,0.3979224242492256,-0.0009933442347679,0.0005195078714822,0.0073346820877604,0.0039062031711007,0.0007382015501157,-0.0361914758265441,0.9993368349202792,0.0238806675708857,0.062325340517593,9.799752425953598,-0.0202016049147508,0.017070448694984,-0.0031786690297136,-0.9868735371991422,0.8595607381414491,1.2299155248217166,1087.6258889953544,1120.252045109138,1119.7238747168933,1100.6927999158115,373.27781594154544,-990.4124834305304,122.47061972662128,-185.07929792277025,162.956202424635
3.0475,2.054159474015865,0.1873702506407632,0.3068053827061943,0.005164802978493,0.0001227480945818,0.0083971290186353,0.003913288429248,0.000745199773259,-0.036207634833962,0.9993362116289428,0.0241969739797896,0.0622688230088181,9.79907590322544,-0.0201060515059243,0.0170997457786616,-0.0032216986971543,-0.9869252674867715,0.8596060704861316,1.2299116723398051,1088.4531282835428,1117.7481036012423,1120.0195237115615,1100.15443342013,304.2461111739862,-1033.5848251425189,117.65837943638986,-267.2966265073048,162.95438049984
3.05,1.858269999270888,0.5236371187549855,0.1693582319894912,0.0122259541477365,0.0010534679893245,0.008955294162094,0.0039132458789265,0.0007508037138291,-0.0362336437257004,0.9993352610683714,0.0245120241393346,0.0621034452366509,9.798572136828671,-0.0200035836820877,0.0171310953916218,-0.0032700217950218,-0.9869743394370336,0.859649369912446,1.2299051070049207,1089.1471195512245,1115.0841209834252,1120.3121666140753,1099.3563167832751,197.36672664924785,-873.1567663685248,87.46756118329678,-312.78851690242556,162.95197242485136
3.0525,1.5894497648320687,0.7557927736339352,0.0453141957285402,0.0171349680517809,0.0031050066999109,0.0091019980136251,0.0039101622994426,0.0007546562783492,-0.0362644952216663,0.9993341494607512,0.0248254270023705,0.0619080580695149,9.79824837218448,-0.0198968990214752,0.0171667410169756,-0.0033220517515377,-0.987020604292608,0.8596912216217603,1.2298963392221836,1089.4399619167891,1113.3823197693996,1120.4568615174783,1098.5904908356179,51.16480108795367,-541.385730070954,26.299974782251063,-316.4931720307845,162.94978122907014
3.055,1.2463592704463808,0.8956770959662311,-0.0739432222038483,0.0206933175295868,0.0064483371656681,0.0091089328482108,0.0039092737491471,0.0007563851258159,-0.0362929256947188,0.9993331209132496,0.0251398598340573,0.0617786389775154,9.798108179411056,-0.0197887202142778,0.0172084155617338,-0.0033762038291208,-0.987064788006739,0.8597326024977014,1.2298865674937478,1089.4029435566642,1112.3771923330703,1120.4436664879863,1097.7738509231212,-70.0378675412609,-283.99319067398807,-36.7141997618554,-324.1464786044231,162.94740000371382
3.0575,0.8745507542126884,0.9387279043738966,-0.1788863317907683,0.0231959043265226,0.0105214991153946,0.008993068315395,0.0039175745000468,0.00075649191173,-0.0363141129222623,0.9993323233185089,0.0254429099456981,0.0618406855066992,9.798151018321942,-0.0196816125663982,0.0172570130560217,-0.003431167714152,-0.9871077485628638,0.8597743805288005,1.2298772296679774,1089.0897725790828,1111.9623538160297,1120.273290518669,1096.9697584425955,-182.67339651970747,-43.82283327390817,-107.81274257988346,-304.55069557729723,162.94486305339012
3.06,0.508991437669211,0.8648931267635728,-0.2524818417230624,0.0244670398604584,0.0144594510572901,0.0082926774746693,0.0039374412511029,0.0007564897878169,-0.036321531258006,0.999331982534791,0.0257093522408037,0.0621250822528333,9.798373386058238,-0.0195776277285111,0.0173127902151933,-0.0034857104120423,-0.9871504226071698,0.8598173222030273,1.2298692821306347,1088.4895765740655,1112.1580781667008,1119.9046027750871,1096.2510974452348,-303.92223916974865,181.88006111477463,-206.7381837963738,-281.3775768635484,162.94214152763533
3.0625,0.1259501511392298,0.6765406091948037,-0.2866978270502905,0.0245651720182782,0.0177455162225654,0.0069675694587861,0.0039690327665961,0.0007558272228054,-0.0363148473883359,0.9993321085983196,0.0259581777439442,0.0626187768934785,9.79876818957126,-0.0194785139464629,0.0173751505162367,-0.0035385035769862,-0.9871924466031288,0.8598618670177847,1.2298623724334083,1087.570161383234,1112.8717541216035,1119.2395995996872,1095.562870558278,-342.73802756579977,302.77429437479174,-279.8149114048161,-216.7685017201212,162.93866769188085
3.065,-0.1186513177565964,0.4810320012280504,-0.2616046430006571,0.0235194051226964,0.0189032621813896,0.0059028659981655,0.0040101781515207,0.0007557343119206,-0.0362991349290569,0.999332523089277,0.0261766451390097,0.0632608548745328,9.799325084632365,-0.019385635020084,0.0174428814425971,-0.0035880827924665,-0.9872336385327636,0.8599084675669126,1.2298553546342874,1086.7758864362368,1113.6719496385747,1118.505528218063,1095.1672549366342,-287.76898867604973,319.1151317614708,-331.29545692273285,-120.14193917771335,162.93560430482228
3.0675,-0.2667322641700274,0.3038951789619904,-0.1779734592327389,0.0216092857122579,0.0186022382285129,0.0049113495557597,0.0040553559063277,0.0007570354562393,-0.0362822066074485,0.9993329623349102,0.02636315168431,0.0639248646638431,9.800030918155471,-0.0192998470998686,0.0175145310085829,-0.0036326411231803,-0.9872742427116568,0.8599568472021037,1.229847400212204,1086.131316439854,1114.4673297804109,1117.5831223150735,1094.9621608623895,-213.58321927008012,309.9405363783053,-450.78630987933735,-52.84623219972316,162.93237265910943
3.07,-0.3370790568053679,0.1647989764349074,-0.01582291959116,0.0191170412339169,0.0171561866559756,0.0040559190766352,0.0040995771098527,0.0007607076563971,-0.036270005125508,0.9993332292957404,0.0265129786795097,0.0644949717468117,9.800869438686835,-0.0192212890447134,0.017588827239771,-0.0036702487763043,-0.9873147480174544,0.8600065519468147,1.2298378524357851,1085.7079703398863,1115.2216523204663,1116.2515966686663,1094.9030237756356,-79.67927936169335,226.5931227107405,-524.9791195813585,0.7486654693820533,162.92830881565152
3.0725,-0.3288140808981654,0.1272659509659161,0.159828058345212,0.017563771102225,0.0156683670149104,0.0038903669338761,0.0041387579015716,0.0007668470889975,-0.0362624479095694,0.9993333427345676,0.0266376414639604,0.0648743661350218,9.801821847570332,-0.0191492363909824,0.0176650360573432,-0.0036990007691957,-0.9873552713272408,0.8600563935300747,1.2298267384781985,1085.7329200430452,1115.6002953939646,1114.9582267171663,1094.9659041897364,96.54303896768604,97.1702879292045,-549.1598126544549,36.70390389315877,162.92477427706183
3.075,-0.2953778328705646,0.161570227991633,0.3578499312374632,0.0172929961500621,0.0149434679209106,0.0041821993773899,0.0041716898609983,0.0007759760902727,-0.0362567978562023,0.9993334060733688,0.0267363225871602,0.0650236162894628,9.802867320538864,-0.0190822355974733,0.0177428860503636,-0.0037173627196528,-0.9873960986904242,0.8601051605982906,1.2298141404660217,1086.1906855347247,1115.7075037601123,1113.505797605394,1095.0865432951011,296.00160727264387,4.576958240295523,-657.9224182006923,55.84582503888788,162.92109502781747
3.0775,-0.2802091773787859,0.2445163866405647,0.5915140590593657,0.0181340278413086,0.0158319099258669,0.0051136486342608,0.0041988046893082,0.0007874193810861,-0.0362516838799153,0.999333467897646,0.0268270531385041,0.0649383115779739,9.803984283828672,-0.0190183056242324,0.0178223281274543,-0.0037242922781055,-0.9874373174352096,0.860152679268471,1.2298002319641623,1087.2129280794084,1115.623180185166,1111.6686146261632,1095.2451333149309,441.2596602144825,-40.23897759375445,-668.1651647093673,56.38663180789201,162.91652386295215
3.08,-0.3145446560422007,0.3128532402907808,0.7561348492358638,0.0187872751698268,0.0176069948338771,0.0067933090913359,0.0042220341071119,0.0008023694251392,-0.0362453828428982,0.9993335822048042,0.026886239384834,0.0646445163145583,9.805151839139501,-0.0189549236491541,0.0179034054489563,-0.0037195496406311,-0.9874792356509916,0.8601992701154964,1.2297857981004328,1088.396983835797,1115.5063088721436,1110.1649717818473,1095.3684764541408,519.9797667887761,-21.535534993700367,-562.4065280663336,46.20774354571138,162.91259330620366
3.0825,-0.4057728630396546,0.3497304223891306,0.8553197341128127,0.018582955499331,0.019545057672163,0.0095057066331802,0.0042419970616518,0.0008223100375768,-0.0362398429536837,0.9993336750467744,0.0268806076707806,0.0641454886652605,9.806351628082611,-0.0188892920281755,0.017985926508371,-0.0037036648549037,-0.9875228321468962,0.860245795999089,1.22977175221872,1089.8128269133524,1115.5155025101976,1108.8565819858316,1095.4761720326594,583.3863902652989,45.29177301051374,-463.3986267263125,40.72188370232738,162.9085481298732
3.085,-0.5371498871878274,0.3517554526687966,0.8796455229865426,0.0175744548221414,0.0212867923574755,0.0128310450871283,0.0042564969276535,0.0008502007886581,-0.0362354885628629,0.9993337384679836,0.0267457280325145,0.0633916020932535,9.807569502746675,-0.0188183502832525,0.0180695453267726,-0.0036779381633222,-0.9875684855803744,0.8602920869355559,1.2297587310387532,1091.3139157871235,1115.7327677371964,1107.8479786482155,1095.5720858726525,591.7598460326769,147.66077477347923,-301.6972414067887,35.692632657447426,162.9044168113109
3.0875,-0.7026470035181902,0.3167149785943829,0.8042119053786311,0.01575958486391,0.0225412078459997,0.0164114342013524,0.0042668116416886,0.0008892499649601,-0.036229895300643,0.9993338532761704,0.026406173846227,0.0624049582365138,9.808795301815994,-0.0187390335483875,0.0181536712783838,-0.0036445356961131,-0.9876161337720856,0.8603376704379592,1.2297468244467562,1092.7716261435155,1116.253806384065,1107.3480957787976,1095.6546351959466,593.9997121274372,291.3367413693839,-79.31713522052802,32.61044406999714,162.90019247060079
3.09,-0.9249910729125748,0.2509323141699434,0.6139629224536935,0.013223787240035,0.0233197110409981,0.0199192484185625,0.0042758253099265,0.0009408919544243,-0.0362204236390854,0.9993341033780632,0.0258170372716098,0.061244890052955,9.810024062313316,-0.0186487130002945,0.0182372696431431,-0.0036061981559495,-0.9876655620822488,0.8603834509155794,1.2297361066942647,1094.2839143477606,1117.1894514440432,1107.4513929721131,1095.7351380930024,492.29520014765825,374.76497467316415,155.97571377710523,25.73072340514781,162.89502890787168
3.0925,-1.1222607111441283,0.1932844549564733,0.4033707995459791,0.0112305002579159,0.0235347261048387,0.0215192387754822,0.0042817593030135,0.0010014332114722,-0.0362082990534527,0.999334455796338,0.0250349829450722,0.0598880888491456,9.811257710799524,-0.0185456956267241,0.0183186793615577,-0.0035657121975392,-0.9877168845282268,0.8604302874522897,1.2297271559696654,1095.233102144254,1118.1276312574307,1108.1279743476832,1095.7832888129724,298.39887861756125,373.06685995883737,373.2542801673592,14.80431965783182,162.890656200987
3.095,-1.3207524874184389,0.1498730466546767,0.1889221913562062,0.0091618884450865,0.0235361280094665,0.0215174170084371,0.0042833170011606,0.0010636293048066,-0.0361970735304363,0.999334794090633,0.0241855839901241,0.0583284944286904,9.812504197944579,-0.0184294741005976,0.0183956779884274,-0.0035259462996723,-0.987769109537221,0.8604786853825592,1.2297203992991903,1095.7759087408483,1119.0547857438376,1109.31766437295,1095.8091596912916,141.25697694271668,360.27529069948145,596.0489948752311,5.711724491766412,162.8862208618942
3.0975,-1.5341562739926307,0.1265068013032064,-0.0182144057075179,0.0055414470183518,0.0233180878366053,0.0200983107072448,0.0042797444433248,0.0011216663586646,-0.0361851171302358,0.9993351857012696,0.0233683245319639,0.0565745519530215,9.813777352288371,-0.0183006653124494,0.0184659097898976,-0.0034897536166851,-0.98782064355507,0.8605286067883587,1.2297157837667498,1095.9393870289675,1119.9290077109283,1111.1082193220593,1095.8118474354312,-15.169651037740872,252.064712818088,674.3221854402833,-4.663515735774226,162.88083630934457
3.1,-1.6634487939708371,0.1334933786684125,-0.1236844429052014,0.0012440554537344,0.0231927702529711,0.0183057677635895,0.004271725687761,0.0011703631791967,-0.0361699347812839,0.9993357240091788,0.0226728809589237,0.0546673147533862,9.815095824201864,-0.018161248509768,0.0185269187748885,-0.0034596674852054,-0.987870224785708,0.860579748570357,1.2297130606052504,1095.7000604856598,1120.315109307928,1112.6892753001512,1095.7858421126127,-160.47637604383794,61.6746032770165,599.9503121116177,-18.32629660216337,162.87630420245205
3.1025,-1.7100804631680904,0.1630983072342893,-0.1545308808931636,-0.0039240504363604,0.0234808594150196,0.0167154392640063,0.0042596018190989,0.0012036972053778,-0.0361515028448614,0.999336416027442,0.0222105845353031,0.0526461195103851,9.816482078169319,-0.0180145592799779,0.0185762521179743,-0.0034374933142513,-0.9879160618959067,0.86063269608846,1.2297114978063255,1095.1370051487484,1120.2373807273132,1114.107970882617,1095.7202159524204,-304.82061505372906,-144.13130625426072,542.609322152123,-40.91527575265078,162.87173274494438
3.105,-1.650229933279331,0.2139975799119586,-0.1296948717312887,-0.0103582454969938,0.0242727854584887,0.0159210628094934,0.0042408552641083,0.0012219329193446,-0.0361310202896708,0.9993372281946836,0.0219777811933013,0.0504931011907529,9.817961393252586,-0.0178648299722087,0.0186117771972676,-0.0034242438473635,-0.9879571123600696,0.8606875091667713,1.2297100525035325,1094.1759574103912,1119.5944527766567,1115.402321910912,1095.5812657338495,-386.50630317907513,-312.8856794504439,391.9133315167612,-62.50864468807001,162.86620905732968
3.1075,-1.506573099149066,0.2624623052224295,-0.0862450365000014,-0.0152525278753879,0.0251229857656854,0.0162301501333539,0.0042160086359291,0.001232544595242,-0.0361099908549368,0.9993380928523784,0.0218342881289939,0.048246910159718,9.819558800718193,-0.0177165970305855,0.0186319707212835,-0.0034202954662121,-0.9879943281607346,0.860743306837041,1.2297081436538615,1093.2044736328533,1118.6729523300612,1116.067537540201,1095.40767272898,-407.3802079107368,-413.90680300779394,186.1539718263924,-81.65758281334266,162.86157934656137
3.11,-1.2893768810089583,0.3134197138763804,-0.051264356030237,-0.0190611396898344,0.0260239608614453,0.0168743617956655,0.0041866581659915,0.0012434257176022,-0.0360897332512315,0.9993389446447448,0.0216381104582191,0.0459673699976281,9.821297187655231,-0.0175741558498719,0.0186361883209046,-0.0034250936493662,-0.9880287345927172,0.8607988873713353,1.229705588277086,1092.1390563708376,1117.5249187616175,1116.333091770044,1095.1729778197828,-429.18794725207414,-461.8256273985624,59.408311447255606,-102.54429171836126,162.8569275337779
3.1125,-1.0394955994136403,0.3668447293511416,-0.0388441274294199,-0.0218357371376979,0.0269315377233408,0.0173950465605399,0.0041537292602718,0.0012598848143091,-0.0360717474443732,0.999339718470784,0.0213050302882053,0.043701649874413,9.823195464622838,-0.0174411404755636,0.0186247479399977,-0.0034370674903924,-0.9880615819168208,0.8608531159166518,1.2297021309078615,1091.0585338965927,1116.3638241930682,1116.3645790974372,1094.8949512703882,-421.34602600505673,-423.3045313456556,-8.721579959864679,-117.56732023021983,162.85226132273044
3.115,-0.787927624895394,0.4261208961779068,-0.0615815903246256,-0.0233610861372693,0.0278114189303181,0.0176609564953028,0.0041184454127232,0.0012828934759915,-0.0360573646182162,0.9993403591544434,0.0208412249802845,0.0415027155092585,9.825266430717715,-0.0173202234960488,0.0185988483808937,-0.0034537261713687,-0.98809359054513,0.8609058402632339,1.229697870345403,1090.032326240812,1115.408396104889,1116.2894838702443,1094.5851412186316,-422.54008950190826,-327.0565820660592,-8.26300298472251,-135.09157921207876,162.8475822706025
3.1175,-0.5255976360869654,0.5078173376155716,-0.1301464700346342,-0.0239760395637115,0.0287239975594934,0.0178082515673267,0.0040808463837161,0.0013137095640857,-0.0360460980097132,0.9993408816608994,0.0202520803457163,0.0393951743477766,9.827515539011337,-0.017212867929857,0.0185604503562219,-0.0034718876652608,-0.988125564951632,0.8609574621568703,1.2296924756891614,1088.9458334490832,1114.728541282738,1116.3232640825136,1094.2194933743278,-365.26491175723874,-154.93722906412916,64.38761810673124,-124.30794999845865,162.84195813173602
3.12,-0.3583919661352826,0.584498945120756,-0.2169778350332834,-0.0239247763305764,0.02945731201575,0.0177070071106389,0.0040408041043232,0.001350992754912,-0.0360381755512379,0.99934127937782,0.0195959486013599,0.037395899012304,9.829939377037464,-0.0171194090309817,0.0185119976904002,-0.0034877730631269,-0.9881584720323702,0.8610083932430731,1.2296854628680842,1088.206001682026,1114.6337099595687,1116.6114219607782,1093.9636014686391,-256.2520193631881,53.52599306970775,192.0407780786304,-79.58458985535968,162.8372675026284
3.1225,-0.2483116680420169,0.6622602622248914,-0.3235829609840106,-0.0236947506591672,0.0304502234084317,0.017338897230841,0.0040001449319714,0.0013928365414279,-0.0360346767514113,0.9993415079855916,0.0189406733903362,0.035553091695729,9.832524630664564,-0.0170391441474485,0.0184562652122036,-0.0034973648425051,-0.9881929381661412,0.8610588938185255,1.2296763462911893,1087.664573352267,1114.9961712480865,1117.2834679729067,1093.821570425051,-193.94021314256364,227.1133233462072,385.13965635857767,-21.47718208907509,162.83257732223555
3.125,-0.1650239449444625,0.7367000418407443,-0.4553431796284505,-0.0236543700320983,0.0323574642690854,0.0166534216438154,0.0039607122553879,0.0014380161921935,-0.0360344269032436,0.9993416035724408,0.0183385964872804,0.0339063529415066,9.835248193832621,-0.0169704233633695,0.0183963879668302,-0.0034966542517422,-0.9882291708583608,0.8611089055060878,1.2296648262723127,1087.2363006163132,1115.7692765762995,1118.537120242571,1093.856215558194,-125.93327455092816,299.2956496114012,516.8723870295362,55.02486453738246,162.82695456125413
3.1275,-0.1134598454620081,0.7642307878910026,-0.5498847806371515,-0.0240408117276105,0.0347689048345208,0.0155785065694323,0.0039216781890822,0.0014855951327329,-0.0360374290867923,0.999341570286556,0.0178339675591001,0.0324338201496109,9.838077847949824,-0.0169110459471727,0.0183356836095721,-0.0034818542905332,-0.9882663924312864,0.8611580004178985,1.2296518834200423,1087.0349069795127,1116.4926494961435,1119.8678299080543,1094.096694747738,-58.9609003447107,254.40043842305016,554.6040300880695,143.81865835285075,162.82227694983075
3.13,-0.049375746536605,0.7381546731186042,-0.6027476362969939,-0.0248313350434947,0.0378253194655567,0.0135118335928457,0.003881706541314,0.0015356110019754,-0.0360447862402732,0.9993413739374012,0.0174462337526925,0.0310941130272893,9.840972770733192,-0.016858475091586,0.0182775308395209,-0.0034497889718986,-0.9883041369748922,0.8612055807349394,1.229638331226274,1086.9414961145897,1117.0412787684147,1121.3101403930111,1094.5753088499582,-30.159195950680225,151.6918662194155,607.5669393187171,259.98589940616574,162.81761168614133
3.1325,0.0710086196554754,0.644023871491654,-0.5943874906524637,-0.0260112630470111,0.0410422611258601,0.0100044512988392,0.003839992097329,0.0015888203755685,-0.0360556996281712,0.9993410465122166,0.0171731271622605,0.0298472162109475,9.843884711422637,-0.0168098648188924,0.0182252903498255,-0.0033980969059254,-0.98834227105551,0.8612514356903174,1.2296244215549998,1086.8841109997593,1117.2511088272406,1122.9056646046483,1095.3966242447689,-21.11557733028206,-19.44080992925461,525.3104723512579,331.49342854833355,162.81203217438497
3.135,0.2173824578104908,0.5287696058655476,-0.5257461079749696,-0.0268421331802459,0.0425387526260603,0.00700141563097,0.0037986849601303,0.0016462818357535,-0.0360677927991618,0.9993406654338922,0.0169960593909618,0.028703398596976,9.846759385415876,-0.0167621534784531,0.0181820513118277,-0.0033254008154895,-0.9883806537989476,0.8612957353524118,1.2296104789604172,1086.8359182279382,1116.9440747187687,1123.9366927547678,1096.2327759927,-27.19659582026055,-225.2308202651923,317.00085023240484,347.2444483914461,162.80740148491353
3.1375,0.4051839950423535,0.4031802187583503,-0.4172188188916213,-0.026947080663533,0.0428354179472564,0.0051294807500358,0.0037592035894973,0.0017066426782071,-0.0360769109538028,0.9993403794701492,0.0169354993604414,0.0276539431578554,9.849538982659501,-0.0167121317927046,0.0181504350693786,-0.0032311239677576,-0.988419546329775,0.8613391155119358,1.2295972089605327,1086.748128020658,1116.1249547259147,1124.4906688558103,1097.132846486726,-44.46357016295318,-394.8082684090052,131.2035923886952,354.81261676978494,162.8027942104688
3.14,0.6097104296209105,0.2859996787471463,-0.3093947353098218,-0.0261499169485025,0.0427001359398278,0.004651279361852,0.0037232648615538,0.001764399825911,-0.0360807946235056,0.9993402741414752,0.0170840622015925,0.0266945386711276,9.852164183280546,-0.0166566478747614,0.0181322887243835,-0.0031154510393886,-0.988458797182391,0.86138198873577,1.2295850132891668,1086.6136003771235,1114.9700333767237,1124.5927107167113,1098.0068390765489,-64.33865271374225,-500.255349912424,-61.47612993631941,325.50112479048727,162.79820915305368
3.1425,0.8036457791762591,0.186298078874813,-0.245790480260636,-0.0242712039392149,0.0425875455221566,0.0057528982354595,0.0036899482327507,0.0018176635520781,-0.0360796269834788,0.9993403498071526,0.017455913313825,0.0257639889087117,9.854576978545143,-0.0165926496175468,0.0181285836308537,-0.0029793793299882,-0.9884982948054418,0.8614249195075318,1.2295737841400072,1086.4264347570893,1113.6236779763526,1124.1832882061287,1098.7603521106785,-89.2658036249505,-566.2177931744857,-265.59514025285006,286.28116796094827,162.79365425214723
3.145,0.98304421034132,0.0809495414269715,-0.2538030787128451,-0.0211518535977392,0.0431062538156667,0.0079926060609518,0.0036588607056783,0.0018662378048994,-0.0360728686630922,0.9993406285842588,0.0180230197065614,0.024809911426387,9.85672240383735,-0.0165171501482528,0.0181394706196804,-0.0028246635824802,-0.988537984338493,0.861468386222623,1.2295637598275024,1086.1672713589987,1112.1389444108513,1123.264735015447,1099.4382449163536,-95.39873765929971,-471.9155751105164,-371.58496471389174,203.97339776900915,162.78822757929856
3.1475,1.0626033313957164,-0.0030871003231511,-0.3253003615722358,-0.0180436863531818,0.0439185352462412,0.0093655161799286,0.0036337968419457,0.0019119993467035,-0.0360628251992133,0.9993410103944766,0.0187057981666159,0.023863127136563,9.858550169502225,-0.0164274225027187,0.0181641810762472,-0.0026538438540916,-0.9885780067399312,0.8615123002393481,1.229555180514848,1085.9494410687928,1111.2641001008,1122.325363382559,1099.7802190995235,-81.0109018320435,-230.28767985279535,-363.4083579369494,90.15979437022189,162.7837412084216
3.15,1.0487635748334392,-0.0860142157648127,-0.4199249080975525,-0.0145240804713346,0.0442651062135249,0.0087126826010722,0.0036181669599923,0.0019597622026238,-0.0360516625115265,0.9993413965676226,0.0193608890018369,0.0229491645168906,9.860017201792996,-0.0163209793856907,0.0182012153812699,-0.0024699565990071,-0.9886191331809696,0.8615562271965183,1.229548148209405,1085.7622168498383,1110.9875060115871,1121.4476932257624,1099.8890438882047,-68.56039254053177,35.73221334781996,-323.2118804658581,2.634528748330978,162.7792958894682
3.1525,0.9178587517320032,-0.1754106492642182,-0.4853538158624133,-0.0101527955975869,0.043739850668063,0.0052619894402455,0.0036122626379453,0.0020138608865679,-0.0360404782836508,0.9993417397308164,0.0198522672773222,0.0220388883639727,9.861089514708524,-0.0161957179522328,0.0182484016432235,-0.0022761643587123,-0.9886619621753324,0.8615998230899367,1.2295422590797185,1085.60663910609,1111.4427611675392,1120.70930398023,1099.7933917432651,-41.36319664252999,289.24897165191265,-195.49787351751135,-62.33667431651645,162.7740134853729
3.155,0.7249842864960357,-0.232698542146065,-0.4561791453828636,-0.0068157193199626,0.0428155299556355,0.001170613492992,0.0036125628656335,0.0020777731453003,-0.0360307401081871,0.9993419938601152,0.0200612671080372,0.0210370918000575,9.861743538565143,-0.0160502297445176,0.018302799773952,-0.0020755826393504,-0.9887069753246792,0.8616432189314714,1.2295372789065766,1085.5554008666259,1112.433750869847,1120.4702038581747,1099.577360516622,-0.215646008973621,491.4444775197476,-10.922907268422197,-101.07006118027356,162.76965815783714
3.1575,0.4807236251872507,-0.2664242939432424,-0.3280219917890114,-0.0047049960051794,0.0419371137075715,-0.0021074175455658,0.0036148369429583,0.0021470916629951,-0.0360236411440255,0.999342137733618,0.0200254196157058,0.0198502322277805,9.861966452678544,-0.0158841360068776,0.0183606428742101,-0.0018710953857441,-0.9887536188107436,0.861687512961066,1.2295329837508215,1085.6055608760453,1113.899983555138,1120.654689443888,1099.2880414373635,49.231143409361856,703.174089853716,160.57205261827562,-131.7716019935261,162.7653553830964
3.16,0.1907502421885183,-0.2803605845938757,-0.101221622488292,-0.0042004652556739,0.0413935153505678,-0.0035204916941478,0.0036162703480638,0.0022167135673268,-0.0360222280022664,0.9993420780549616,0.0197977377158705,0.0184245926463308,9.861756746292883,-0.0156984550547257,0.0184172947482677,-0.0016656201702945,-0.9888000203966892,0.8617341855468084,1.2295291811942728,1085.8015565836727,1115.9496213191155,1121.273064121266,1098.9185025066545,96.85455866383768,760.7128715868547,265.7240549931487,-133.91054866433763,162.7602577158946
3.1625,-0.0005073652654593,-0.2709054173013976,0.0973419568707458,-0.0050342676735598,0.0413283319946623,-0.0027011776690454,0.0036152729969264,0.0022817722700745,-0.0360279291169945,0.999341773469219,0.01943125302452,0.0167422666824751,9.861124601962489,-0.0154956380272156,0.0184675890253128,-0.0014621262557808,-0.9888438050150266,0.8617840461973661,1.229525487188298,1086.0898336693645,1117.7035479130723,1121.9833097188537,1098.618488694042,143.9664922283131,670.8414410568964,283.9944915192124,-114.96116764465359,162.75606807007387
3.165,-0.0949087292553436,-0.2342440443515313,0.2464763763163271,-0.006538924940904,0.0408552200240292,-0.0006410129567578,0.0036126371187143,0.0023409742550225,-0.0360376375759334,0.9993413261201884,0.0189149268258861,0.0148413797482472,9.860091860297661,-0.0152793423496408,0.0185063247615865,-0.0012638146264855,-0.9888839331687747,0.8618371801595134,1.2295217641764016,1086.5213890448142,1119.3038285244,1122.693036578862,1098.3436966684312,226.36611671801373,636.124174400552,268.00329717739834,-110.69985569575017,162.75194360851447
3.1675,-0.070417940354435,-0.1453604816439254,0.3254622525859569,-0.0087909175521817,0.0394213637798057,0.0023864674383464,0.0036094478236819,0.0023954078779219,-0.0360483984309276,0.999340823260264,0.0182003874491212,0.0127753231842872,9.8586918973272,-0.0150542698039459,0.0185286248222525,-0.0010740637543854,-0.988920371894299,0.8618931487119575,1.229518411962188,1087.2216642529545,1120.8841687850747,1123.3233262047406,1098.064989415563,289.26329065039386,509.81001844189626,173.2304117028471,-88.756370876492,162.74707511459297
3.17,0.0622577239279433,-0.0284525259052706,0.3010992463348889,-0.010622418987835,0.0381533975288661,0.0047736344437942,0.0036058839110816,0.0024452479320879,-0.0360561038567079,0.9993403960187708,0.0172692610312709,0.0105899240039123,9.856968965581082,-0.0148256861707786,0.0185304696819709,-0.0008963252674205,-0.9889529396250084,0.8619513715370744,1.229516224370633,1087.967705498066,1121.8528786166091,1123.5591886373763,1097.8999148140488,331.24035456317665,311.2710258097261,31.50000476348463,-46.05346848266079,162.7430895905036
3.1725,0.2797150199314756,0.1245358213443737,0.2037883441322552,-0.0113112768339018,0.0379522679545408,0.0060755241906817,0.0036029063932269,0.0024933926326398,-0.0360561078883348,0.9993401821140868,0.0160610819464589,0.0083521005220158,9.854976995708174,-0.0145989670290024,0.0185090931660061,-0.0007342416929222,-0.9889816874154312,0.8620106075847457,1.2295159088992147,1088.8778660257703,1122.4405239141236,1123.480826228558,1097.83472207315,384.27511658043977,175.60961896969,-66.30209575841498,-7.877418832458182,162.73918351955004
3.175,0.5250683835709862,0.2921604432866795,0.0767589903339214,-0.0102116586404658,0.0389298567056011,0.0059009373661633,0.0036029957656968,0.0025420878958892,-0.0360483669723029,0.9993401461183856,0.0145392496050756,0.0061645340583917,9.852777941367961,-0.0143793246553311,0.018463118261187,-0.000591414665457,-0.9890078670741757,0.8620692406185583,1.229517628828145,1089.8890810809685,1122.7309267114579,1123.2276781585842,1097.8605277198865,408.627774160386,53.19316538570642,-102.33899987078294,27.584437083940383,162.73534737229403
3.1775,0.7461019384272825,0.4602374433590246,-0.0476652497190721,-0.0068744608634324,0.0407546700868053,0.0044696320973372,0.0036072650817063,0.0025902825907298,-0.0360364973131991,0.9993401319891668,0.0127446524779862,0.0041076824762408,9.85044009527508,-0.0141713796762083,0.0183926769626245,-0.0004709882295288,-0.9890324557270148,0.8621260541281494,1.2295214929452645,1090.9210048965724,1122.706489741052,1122.969131229204,1097.9726442585695,419.0070800863485,-72.34707289876651,-48.19894217503237,54.95437369300024,162.73160064390453
3.18,0.9297369593576869,0.6544934000582778,-0.1647924610552196,-0.0015832575866528,0.0428448791107424,0.0027779384865023,0.0036154703300412,0.002636791642121,-0.0360228355815803,0.9993400371686684,0.0107322365601111,0.0022344319793881,9.848035770128664,-0.0139787114486648,0.0182994244695701,-0.000375468009956,-0.989055960026796,0.862180614075685,1.2295275722644607,1091.9841164814,1122.369191346964,1122.986683447709,1098.1352995883515,327.41720857789704,-169.05169435840796,108.38636138596716,50.79884697102096,162.7272148306521
3.1825,1.0054988360498396,0.8136620014717333,-0.2325884089157045,0.0025185730775355,0.0443625189109616,0.0018762684548303,0.0036260296881292,0.0026784231052663,-0.0360082397335595,0.9993398290331914,0.008606050761828,0.0005689793949298,9.845638517699417,-0.0138036962060161,0.018186286253586,-0.0003063833816497,-0.9890787148923376,0.8622330958484749,1.229535483791341,1092.5580909394619,1121.86123126926,1123.511063036134,1098.2266384934248,131.92998672698477,-245.52692059028757,355.3413459498718,13.172335067384036,162.72365711890606
3.185,1.025370503928423,0.975901788396182,-0.2791623501443428,0.0053860903260615,0.0460701449179924,0.0015241130277205,0.0036385015706137,0.002714701511876,-0.0359944098039927,0.9993394466921258,0.0064223379370118,-0.0008501260286113,9.84331990052233,-0.0136475078991867,0.0180571023132244,-0.0002642297140831,-0.989101886015572,0.8622832269015253,1.2295449123961273,1092.643766415035,1121.1415567440126,1124.7633901774584,1098.2011612636884,-89.99738414750217,-359.2622795019073,729.3521165304965,-45.56086178986431,162.7202067716926
3.1875,1.036497082995824,1.1742449624429083,-0.3236802656031528,0.0076935456288661,0.0485688579809697,0.001416722681501,0.0036532961506645,0.0027432346101163,-0.0359821290104901,0.999338886574545,0.004278661400206,-0.0019745680527985,9.841146281364841,-0.0135100793978934,0.0179163760705348,-0.0002480990184953,-0.9891260465173568,0.8623309214154714,1.2295552020443667,1092.1081040187244,1120.0649198717504,1127.1578236187863,1097.9988341844755,-291.8692176498614,-421.6599757586754,1003.9216627726304,-99.78247983254035,162.7161982737266
3.19,1.0724185026720512,1.3362271711145233,-0.3545796500942205,0.0091041659509479,0.0511308573179338,0.0011952388667641,0.0036707094660804,0.0027640479882623,-0.0359721380913721,0.9993381742382832,0.0022269640530117,-0.0027697907094421,9.839175683513945,-0.0133902589597326,0.0177689243495438,-0.0002555988089438,-0.9891508604522884,0.8623761261218199,1.2295649623740974,1091.1844203267858,1119.0332568652193,1129.7829984913215,1097.7022488645257,-430.26059274271586,-422.58269415657185,1118.1875396868475,-132.7674919456996,162.71297327257454
3.1925,1.1666249459199631,1.4798323987370239,-0.3726914846937441,0.0103405177031233,0.0544613405569198,0.0005081876943064,0.0036921423628804,0.0027836335696016,-0.0359660680494827,0.9993373276392508,0.0001909609672762,-0.0031947171879962,9.837454564210164,-0.0132859900683316,0.0176195208113703,-0.0002829918362454,-0.9891764218295463,0.8624193078432155,1.22957220446235,1089.9568010550108,1117.9520064009675,1132.7487613172204,1097.334996724747,-545.1804444654131,-456.55914949317423,1277.6426790213511,-157.95087842647106,162.7098741196452
3.195,1.355917866934341,1.609002843025788,-0.3641967190631129,0.0123545207930949,0.0594388114610387,-0.0007590247516589,0.0037188589254948,0.0028094953640731,-0.035964778839887,0.9993364532110716,-0.0019275615660407,-0.0032226164065894,9.836015273328707,-0.0131943972579813,0.0174726448082822,-0.00032523885042,-0.989203571388158,0.8624610397161931,1.2295757498089963,1088.4585181044583,1116.7504611177533,1136.1712118864286,1096.9124944723933,-503.3019653081852,-398.6754305181152,1146.9926540783624,-138.0304633168996,162.7063070245672
3.1975,1.5642351736949787,1.6677309770295319,-0.3205396380205841,0.0149949237909226,0.0640081259559174,-0.0020564696547469,0.0037518101633159,0.0028502178770271,-0.0359688453858287,0.9993357429262456,-0.0042515287663596,-0.0028442040696858,9.834874050473475,-0.0131120181685757,0.0173322399017245,-0.0003764390267572,-0.989233571036053,0.8625019083885007,1.2295759848189682,1087.4402912284695,1115.958629248377,1138.4837245876126,1096.6448444081625,-310.1355386866155,-245.05358139822945,723.397623068392,-77.76860205476788,162.70346528337083
3.2,1.7918506720968184,1.6697752823605967,-0.2307634342269527,0.0187148783299114,0.0683550741772839,-0.003367095054064,0.0037913153743439,0.0029102968643674,-0.0359766285278467,0.9993354440334395,-0.0068278331720229,-0.0020693714100843,9.834029938204596,-0.0130350972422634,0.0172016098033072,-0.0004301925760396,-0.9892665498091922,0.8625421394932546,1.2295741096465993,1086.9078404110255,1115.525193210762,1139.7882000017703,1096.5236514621195,-111.51119504870859,-99.90331035133053,310.1639588330793,-20.274303751057666,162.70076397349987
3.2025,2.003338704165303,1.6270784104994067,-0.1036162697380767,0.0232035186423564,0.072381602497555,-0.00449239414842,0.0038353584659587,0.0029885119763033,-0.0359858353817601,0.9993354424522836,-0.0095947711687801,-0.0009580406163143,9.833464716942554,-0.0129600871225563,0.0170832801828146,-0.000479914190801,-0.9893009870585524,0.8625820854857765,1.229570246902938,1086.8827352532262,1115.4591126966204,1140.034544381778,1096.5434728894072,111.52693939939364,67.16493287422198,-171.35660907716013,40.8271198891734,162.69818223549723
3.205,2.1541953658882247,1.5367111354603031,0.0571159285339751,0.0285227363712727,0.0760707060783067,-0.0052822999768598,0.0038829180336379,0.0030834589518233,-0.0359938370084581,0.9993355958618086,-0.0124931618920851,0.0004430684309695,9.833143140444472,-0.0128840171629964,0.0169789431715191,-0.0005194019271502,-0.9893361695922176,0.862622146579875,1.2295648733477464,1087.4654751080225,1115.8610178751333,1138.9314169563847,1096.727787061565,361.95046759990737,277.05066508961545,-762.9298708284458,111.68136125707188,162.69574805789873
3.2075,2.215922746288994,1.3812105591310848,0.2598259807504752,0.036010010655031,0.0801149242759957,-0.0054269160322402,0.0039355638028008,0.0031954053242716,-0.0359986247452721,0.9993358020693954,-0.0155035284145315,0.0021324130335715,9.83301413150356,-0.0128047402720807,0.0168894395238177,-0.0005431901874138,-0.9893719096684658,0.862662044159692,1.2295582745448594,1088.6924875912257,1116.8443660220685,1136.2198950276359,1097.1018796956923,492.83013639793495,429.8169468521883,-1166.8839627390091,153.9470575354731,162.6930014124139
3.21,2.1416547122328824,1.216960751520637,0.4069796154646678,0.0432148415249966,0.0831842844662829,-0.0047670364681057,0.0039951708469973,0.0033212931227711,-0.0360009575134985,0.9993359318189192,-0.0185455761656085,0.0041142604640793,9.833013374983187,-0.012721132681365,0.0168147290714166,-0.0005465522657848,-0.9894070088879438,0.8627017381473996,1.2295505074130109,1089.929625790012,1118.010102609394,1133.0969971426898,1097.4975223492427,474.38965171346456,513.7655271642525,-1333.490161244191,163.00598069624704,162.69086001871645
3.2125,1.9307577394142172,1.0208118841371456,0.4907220942254976,0.0505200419888494,0.0859329166872412,-0.0032965431404081,0.004061182550895,0.0034531184152608,-0.0360031155831745,0.9993358743120796,-0.0214435400095188,0.0063479710979947,9.833066699846208,-0.0126330668317464,0.0167539378194698,-0.0005255441326027,-0.9894407772148328,0.8627412664607119,1.2295423170307402,1091.0644358497927,1119.4131936578897,1129.552444221415,1097.9169095991736,404.15265610955373,638.0291985716804,-1541.4449693686822,175.07273041788184,162.6888734848094
3.215,1.5592988885191534,0.7537933525267622,0.4735730575121663,0.0572098936624595,0.0885208276327843,-0.0003651681429951,0.0041331015218874,0.0035865903054268,-0.03600928576572,0.9993354715003347,-0.0240972743964886,0.0087926638972662,9.833093015073134,-0.0125412953613449,0.0167053613368754,-0.0004774273266748,-0.9894725333886512,0.8627809439521652,1.229533787500154,1091.9503890705598,1121.2002486022525,1125.3897722958463,1098.372886001332,206.9303499760596,646.7530482695583,-1441.0033339354804,150.15291997296012,162.68666972242886
3.2175,1.2072011381506256,0.5096875493252788,0.3406256122526272,0.0600416234912401,0.0899569108233474,0.0027590845462646,0.0042115031749818,0.0037225738531817,-0.0360205037223679,0.9993346795778242,-0.0265104976447035,0.0114276903109536,9.833007997646128,-0.0124470528523225,0.0166666420841244,-0.0004008257961643,-0.9895016220290654,0.8628215921741332,1.229523951756226,1092.099087599673,1122.6469588992377,1122.3474275517372,1098.6676741990386,-84.36930040901984,543.4426329815866,-1077.977394521049,92.994044353548,162.6849834132497
3.22,0.8852567725440765,0.2483511339761501,0.0884875059221387,0.0603399109789489,0.0907127641396062,0.0056398099324334,0.0042953899347886,0.0038612591415939,-0.0360371370458769,0.9993335034033392,-0.0286738426568742,0.0142060972382117,9.832728976637679,-0.0123518348175933,0.0166348446676657,-0.0002956551502511,-0.9895283946840704,0.862864079720648,1.229511846700522,1091.5285425685147,1123.9174617671606,1119.9998853232407,1098.8378562230998,-407.28315682054887,499.9078864771597,-863.7960052832752,42.275869609785325,162.6834522939509
3.2225,0.5919847450846597,-0.0814228017673088,-0.2999472100847552,0.0591971658889372,0.0909437936184258,0.0071944817231542,0.0043803970722006,0.0040015571644579,-0.0360593899185803,0.999331980978117,-0.030551539193697,0.0170206607246758,9.832179734913696,-0.0122570948027695,0.0166066974034755,-0.0001633303871884,-0.9895537527309136,0.8629091073252898,1.229498703206194,1090.0626718155706,1125.1464983316234,1118.0284475253209,1098.8790535470876,-638.9580222645827,398.9518546686298,-604.4665295433916,-12.79198402680804,162.68179260452757
3.225,0.433396319580685,-0.3678955092228711,-0.6296242572902166,0.058236856685732,0.0905791338864866,0.0057033127041517,0.0044631728771158,0.0041406725477841,-0.0360854193656177,0.9993302294625008,-0.0320762219303841,0.0197906528552612,9.831294538582675,-0.0121639464342262,0.0165789931090151,-7.171426007011666e-06,-0.9895781563390876,0.8629567255024149,1.2294864470616602,1088.3337524571918,1125.9122210405037,1116.977552675524,1098.7738963029656,-744.3785338960128,262.19331849798084,-343.3080571212559,-70.26714444814537,162.68055564715536
3.2275,0.3327788362204899,-0.6632647526892271,-0.8780664775876348,0.0585757355409352,0.0895276103076765,0.0013401040358955,0.0045427624606723,0.0042736999194345,-0.0361157021328846,0.999328279804174,-0.0331426524034262,0.0224892127187483,9.830022094387838,-0.0120731705229074,0.0165488847985296,0.0001674966860743,-0.9896016594043764,0.863006045424407,1.2294767729246987,1086.3407791460907,1126.4574649241133,1116.3119072397146,1098.5277178248468,-795.6725027296386,195.24655811579083,-237.71946607108072,-119.61462069152984,162.67946737187376
3.23,0.2385702272174331,-0.961534507386188,-1.0108491523964702,0.0599640497291205,0.087775149755115,-0.003874632838452,0.0046202370782471,0.0043953301511219,-0.0361475411028856,0.9993262680763814,-0.0336416156439904,0.0251342150510927,9.828328941027287,-0.0119849338753597,0.0165143579718635,0.0003535199608345,-0.9896239540717992,0.8630554195045183,1.229471359545617,1084.3553899435435,1126.8884538310826,1115.7889553451687,1098.175823199508,-741.4123587414609,163.5959767875682,-204.4673400457712,-159.9900966836719,162.67849991834672
3.2325,0.1025705797098167,-1.255272079575728,-0.9868986617055752,0.0618042459309189,0.0850911922228043,-0.008338106053113,0.0046964512300585,0.0045026205844777,-0.0361770595304286,0.9993243611057454,-0.0335138243947082,0.0277412261107417,9.82620216434299,-0.0118987419703452,0.0164743477340613,0.0005423805952118,-0.989644992387212,0.8631041440920839,1.2294708797185296,1082.6337173523834,1127.2754448080511,1115.2895705394856,1097.7277673414285,-648.2379454780269,178.1078807829128,-227.24224164058367,-205.9456783580616,162.67767520510907
3.235,-0.1507333585731581,-1.5909856676163643,-0.8026610849237237,0.0640593596627273,0.0810195969078203,-0.0119279084656571,0.0047721299851155,0.004597460521729,-0.0362022858300504,0.9993226325651192,-0.0327996403469995,0.0303222261065205,9.82365082336178,-0.0118134135157551,0.0164286682597576,0.0007247648420959,-0.9896657145832328,0.8631519977618379,1.2294753435918335,1081.1142002161537,1127.7789932349972,1114.6527441369656,1097.1460948077179,-448.5143078341177,194.24961289117672,-231.7824549770492,-208.3548725643,162.6768468686962
3.2375,-0.4436717142864471,-1.848509176804818,-0.5587883126770057,0.0655460942591321,0.0771423336997367,-0.0132778372649323,0.004847795200259,0.0046827767005935,-0.0362220826286315,0.999321119311568,-0.0315655271970958,0.0328855182840392,9.820706743742592,-0.0117269723434106,0.0163779564684943,0.0008913363031113,-0.9896871168931684,0.8631986829096316,1.2294841820672142,1080.3911458132127,1128.246692872507,1114.1306582646005,1096.6859929786067,-177.44896994257655,184.63336040357376,-184.2106118237428,-165.41508166714058,162.67628840758508
3.24,-0.7954839555878683,-2.0715443574607257,-0.2722391329597544,0.065539815297977,0.0727515260188064,-0.0134051369146148,0.0049223066142603,0.0047620419238899,-0.0362393640514442,0.9993197132981237,-0.0298945512962431,0.0354062417319181,9.8174240272077,-0.0116368020523022,0.0163234603494305,0.001033437379639,-0.9897093472188232,0.8632441291950921,1.2294962133456955,1080.2269553664407,1128.7021600370151,1113.731691077847,1096.319019399382,34.336997497940324,164.64423078755667,-117.45514498561784,-131.07607986153477,162.67586375986232
3.2425,-1.2171744494674397,-2.280870035439019,0.0736727781288696,0.0629334935888866,0.0668933159499055,-0.012787097853858,0.0049946413133533,0.0048385795067385,-0.0362542240440649,0.9993184064776368,-0.0278743797387518,0.0378606329846271,9.81387686838077,-0.0115395574034777,0.0162670374052965,0.0011435640460071,-0.9897329024445998,0.8632883305313503,1.22951036093065,1080.5628308007024,1129.0699140264448,1113.5433825396724,1096.0306125792993,188.31549033989575,74.93352813830984,-6.374541457899022,-80.41273707776953,162.67550552806105
3.245,-1.5060050701459329,-2.3888950117544425,0.3402934979649805,0.05850467412886,0.0614423266960743,-0.011559485843308,0.0050643465623775,0.0049156500087159,-0.0362647837360805,0.9993172587283436,-0.025599732681828,0.0402339332094265,9.810156355144786,-0.0114313947693123,0.0162109547826147,0.0012157158082922,-0.9897585436312988,0.8633312434250429,1.229526088420439,1081.16853281814,1129.0768276777067,1113.6998183705575,1095.9169557139933,281.8398627657704,-91.6932967989416,127.34971492505154,-25.863164572093048,162.67533076717356
3.2475,-1.6641416642032771,-2.4033394221469955,0.5692539824977269,0.0524157089086586,0.0552003726459886,-0.0098661142233122,0.0051293458026358,0.0049949193469335,-0.036269944017224,0.9993163163878293,-0.0231409511948753,0.0424779488788025,9.806366855642892,-0.0113083495821289,0.0161576270854212,0.0012457609912744,-0.989786728476508,0.8633726708367173,1.2295434665722507,1081.9720301145312,1128.61144754245,1114.1801311142976,1095.9012967564388,374.12999214953624,-334.3107146828132,260.7278511644437,3.960126234051216,162.67528173675424
3.25,-1.6633714959352264,-2.28840790815874,0.7969623016325869,0.0447159247928023,0.0473187755099771,-0.0078995443328791,0.0051883490440978,0.005071909460785,-0.0362679301067949,0.999315673719166,-0.0204560515777169,0.0445613410910545,9.80262104184742,-0.0111666486286738,0.0161094407633713,0.0012316736277127,-0.9898168909261064,0.8634125124666852,1.229561979425537,1083.0391827788878,1127.4052741042926,1115.0034576263797,1095.9367563451635,397.189321705818,-548.3709789064624,311.850511052405,14.016837504414369,162.67536494077424
3.2525,-1.5083943180602803,-2.0753922425941744,0.9489914975732332,0.0391009222672261,0.0411931550819366,-0.0061966629158301,0.0052399558903786,0.005144779408943,-0.0362594247380314,0.999315321787748,-0.0175615441221809,0.0464461020666537,9.799034194378212,-0.0110032042733937,0.01606844674248,0.0011735537764061,-0.9898480938171293,0.8634510112612351,1.229580065900988,1083.9579767230603,1125.869592647918,1115.7393836695596,1095.9713809439609,368.61784054431934,-701.2251263002476,264.2439031058131,7.973014842218787,162.67554998766872
3.255,-1.2340431236781892,-1.747958258081881,1.0605684968108084,0.0349379784956808,0.0358832510022571,-0.0040058315612723,0.0052861458759949,0.005214009083982,-0.0362440447445034,0.9993152612087496,-0.0145269203591601,0.0481565364068463,9.795718212366765,-0.0108157672305785,0.016036232272845,0.00107357331792,-0.9898789971079048,0.8634886196217226,1.2295965424218283,1084.8822719816092,1123.8991484727915,1116.3246771419088,1095.9766214193746,371.56645031074953,-830.2857134098653,186.0717027060093,-6.837571540790569,162.67585166258442
3.2575,-0.9089264652334824,-1.3416417544200272,1.1338979494090415,0.0323018313581057,0.0315884116665199,-0.0013880305510262,0.0053322370033699,0.0052794897095197,-0.0362212052634903,0.9993154859303942,-0.0114158183287062,0.0497812738921907,9.792776413757313,-0.0106030567117898,0.0160137392209879,0.0009359169248703,-0.9899087239670256,0.8635259433256897,1.2296108452750043,1085.815808974614,1121.7181640808683,1116.6697421830895,1095.937193086257,378.53025057990806,-880.2023148696521,70.25150277685933,-33.08192157664739,162.6762472277742
3.26,-0.5879438939422871,-0.8695939743350138,1.1537815722234643,0.0318520519586767,0.0289757227062445,0.0015399391906574,0.0053838854023483,0.0053435209830215,-0.0361927224904155,0.99931588800614,-0.0083406963678707,0.0514136215220228,9.79029904287182,-0.0103648142745523,0.0160011175844472,0.000766572046304,-0.9899371389725252,0.863563042216487,1.2296223748809254,1086.774923234509,1119.498136898443,1116.675934655793,1095.8112118114911,428.059051626824,-935.8778859944975,-62.97706899081411,-87.25365708965185,162.67675231580924
3.2625,-0.2778547129482626,-0.2700555629931143,1.1086004164131964,0.0331733858025228,0.0277462293377644,0.0052435496654843,0.005444229598765,0.0054022626319105,-0.0361614811982213,0.9993163645633832,-0.00529122367512,0.0531029701455308,9.788359828976864,-0.0101016329773712,0.0159977274229886,0.000573262005721,-0.9899637680236248,0.863600138352623,1.2296308428147031,1087.9561042327482,1117.038774650896,1116.3548568381357,1095.5009248008087,432.3399323074319,-842.5228548498305,-149.83945921972327,-148.60633376124812,162.6774799056608
3.265,-0.1090704317329206,0.2281371670872442,1.0121578927580808,0.034651806297841,0.0279600989035114,0.0081827687767007,0.0055151720470826,0.0054549535315478,-0.0361293639094578,0.9993168391580962,-0.0023132645471729,0.0548744779129193,9.78701212230876,-0.0098147616440549,0.0160021921132659,0.0003648267113641,-0.989988769537926,0.8636376698994088,1.2296355670172991,1088.936622896046,1115.2855226241938,1115.9267373596945,1095.0681801426852,375.5157627290908,-626.408970742809,-172.7925497069046,-212.40731401949685,162.67818346225957
3.2675,-0.0313382813229212,0.69588985438696,0.8596455879828837,0.0354455288194523,0.0292103421816754,0.0105039198524514,0.0055970195570882,0.0055068918219846,-0.0360998332114009,0.9993171546890152,0.0004350535429103,0.0567213002172456,9.786286798731508,-0.0095060437789018,0.016012411454207,0.0001507253801896,-0.9900136644483402,0.8636768598626527,1.229635690746909,1089.8336830463936,1113.906729797182,1115.4908940896012,1094.4388882307112,348.460639253479,-521.8783884564457,-164.69925138554015,-310.6166638996067,162.67898292772512
3.27,-0.010739694667695,1.1928163260669489,0.6228809730495024,0.0351522687454144,0.031927588851066,0.012922726177073,0.0056864120888387,0.0055627583277202,-0.0360753115737724,0.9993172166738484,0.0028176132813053,0.0585694919617293,9.786191836175389,-0.0091778115594942,0.0160257927179055,-5.9320767926644015e-05,-0.9900393215552544,0.863718596431954,1.22963151367178,1090.6789260923135,1112.6761306819117,1115.1032411027668,1093.5150968231872,251.6093968796721,-388.9217903156888,-110.01755989273312,-346.99414587076546,162.6800475257081
3.2725,-0.0252036901190917,1.5326652559290668,0.3912036696686452,0.0340546629449185,0.0352795729018435,0.0148727277821193,0.0057753147089769,0.0056224677950423,-0.0360582879778173,0.9993169804717896,0.0048037683480761,0.060261843480589,9.78671272747866,-0.0088330647602859,0.0160395332736224,-0.0002558223213672,-0.9900637548306772,0.8637624089046154,1.2296238444933003,1091.091730030792,1111.9621208456035,1114.9408062901375,1092.7039175013574,90.03357546516973,-233.87719796278856,-35.75127606363897,-300.81297772381464,162.6810186742023
3.275,-0.0487748154293805,1.772023798945931,0.1441203132730217,0.0328300783282924,0.0397576952836026,0.0161197522768374,0.0058568975107131,0.0056869997653413,-0.0360460262890581,0.99931657778804,0.0063520893323051,0.0616683140649309,9.787812647666575,-0.0084753819105703,0.0160510492825963,-0.0004303472389737,-0.99008528067974,0.8638077631295858,1.229613450596552,1091.1290939696391,1111.5067446920975,1114.9244847224484,1092.011031934568,-66.01482812643694,-153.24465637841385,5.645074834274175,-241.75796913546552,162.68207307928924
3.2775,-0.0831519787205595,1.922805744369688,-0.1327883528861694,0.0317993786984039,0.0461909483545174,0.0160630459032293,0.00592814571809,0.0057592346809673,-0.0360330796599617,0.9993162067140308,0.0073930168681217,0.0627364852306359,9.789434395220711,-0.0081088533186596,0.0160581918603723,-0.0005760223283343,-0.9901042148727986,0.8638535990007074,1.2296015197412795,1090.7616558901595,1111.1958975637115,1114.969031664309,1091.49512765568,-184.01968004544537,-79.42254350031736,5.689572892242339,-120.11488181232478,162.6834307230669
3.28,-0.1266727755132412,1.9301581285529952,-0.3159066777694809,0.0314182993340653,0.0516222447385468,0.0146069257873423,0.0059901585496262,0.0058377038755347,-0.0360147207866716,0.9993160406524207,0.0079511820320092,0.0635017712581145,9.791503677700936,-0.0077379410871091,0.0160593492035047,-0.0006877052422039,-0.990120926804392,0.8638992072655964,1.2295893586323732,1090.208995569412,1111.109631974596,1114.9529325869098,1091.4104575255064,-234.76062954985767,2.0207305675738554,-42.413378497164416,40.39965851816032,162.68463664073204
3.2825,-0.2044114746729489,1.8240433104093807,-0.4206257732603674,0.0314093324215934,0.0562053231595242,0.0121029837347516,0.0060445047248239,0.0059221858177722,-0.0359881830838132,0.9993161737852256,0.0080384112427125,0.0640117216456144,9.79393403542272,-0.0073672764672722,0.0160534776550037,-0.0007620505761298,-0.9901350710228564,0.8639440294153934,1.229577157254547,1089.5878527424104,1111.206001216549,1114.756964771823,1091.6971259482707,-228.2330206689088,72.71413964413267,-120.37384087161884,165.4954284050781,162.6859175521152
3.285,-0.3234567366231799,1.6371085278269075,-0.4541540412572334,0.031464932245445,0.0602116475451356,0.0094979659304603,0.0060912638934329,0.0060118690169524,-0.0359579691717634,0.9993164493970744,0.0076899994771931,0.064288823717669,9.796631933751188,-0.007001578116655,0.0160399877358478,-0.0007974335141831,-0.9901456326535982,0.86398754735639,1.2295631153236648,1089.0678304660676,1111.4732026728168,1114.3510633825515,1092.2379346675318,-151.6468453417961,154.33168007853385,-212.81677978518476,253.03265576258667,162.6872592410186
3.2875,-0.500086056755493,1.3687379925399474,-0.4181232406466004,0.0311425166299902,0.063850824809661,0.0076145583077674,0.0061351198589411,0.0061056051924755,-0.0359286202288927,0.9993166817920506,0.0069550767676598,0.064447851854115,9.799500430372467,-0.0066450755203179,0.0160187317995186,-0.0007942737656712,-0.9901529131783848,0.8640293604460683,1.229546745716121,1088.8296185157014,1111.977659616942,1113.6928808728971,1092.9622892270838,-18.044759399254342,284.4411519787688,-324.9054089203652,322.24448364937194,162.6886729428665
3.29,-0.775666413220266,0.972651943283578,-0.3379739129699565,0.0298710260028235,0.0673952681823996,0.0064454377276131,0.0061749209649273,0.0061994978792055,-0.0359005034613044,0.999316885447284,0.0059499816737738,0.0644916645468764,9.802446322905187,-0.0063009917767197,0.0159898915739434,-0.0007549181911156,-0.99015798980142,0.8640700654123623,1.229530401317979,1088.9776066690713,1112.8954084327106,1112.72653633795,1093.8491570857786,122.85983502206624,392.5343464011432,-353.074713907434,300.18716188456625,162.69045136519156
3.2925,-1.0484064839837994,0.5971359507184569,-0.2785753103000341,0.0280961192606892,0.0693348063831014,0.0063610031229952,0.0062107043179234,0.006290351076372,-0.0358719502961915,0.99931713766585,0.0047834952807904,0.0644455812346815,9.805383349313257,-0.0059713094972167,0.0159537595696911,-0.000684045204324,-0.9901621401557456,0.8641104368478651,1.2295170260218933,1089.4439176908115,1113.9403313489477,1111.92750730336,1094.4632250365066,228.4749669474471,476.945929722716,-274.5123069027672,194.02888010586557,162.69200086858407
3.295,-1.3473463916991464,0.1952593103606239,-0.2672786850020761,0.0256056667008855,0.0701640048772928,0.0070241382066508,0.0062435096879971,0.0063749759319894,-0.0358421631144615,0.9993174807673858,0.0035678596492054,0.0643537236855073,9.808236278580301,-0.0056567523586188,0.0159106147264364,-0.0005884255872217,-0.9901669482912782,0.8641507837676526,1.229508923558203,1090.1199815038085,1115.280138081324,1111.353974803436,1094.819301486308,287.4348370778596,650.6620267767769,-155.45113654880302,85.02470620292297,162.69361947164725
3.2975,-1.7069477049118549,-0.2938851316799999,-0.3354324486045235,0.0216363300867166,0.0699626677147963,0.0080146269425979,0.0062731729078929,0.0064490529108814,-0.0358108428729675,0.999317955713264,0.0024401332339819,0.0642356850853789,9.8109445503509,-0.0053568739402103,0.0158607242923826,-0.0004762495323162,-0.9901728530537782,0.8641915764977589,1.229506884979376,1090.881091876201,1117.1936414828315,1111.150251620616,1094.8883485675212,221.74583088479588,740.6116284766495,25.55604377271093,-28.310876554904002,162.69564062793708
3.3,-1.9808448725592485,-0.69094534226136,-0.459329656803078,0.0173492038957587,0.0688578919411495,0.0084469076801651,0.0062994414696922,0.0065119596098269,-0.0357777026353038,0.9993185810693272,0.0014642651633692,0.0641041237408434,9.813464052168449,-0.0050702751102379,0.0158044040812364,-0.0003563933829873,-0.9901787438268548,0.8642333621414929,1.2295107700520855,1091.2287106582323,1118.9831962237076,1111.4817550222997,1094.6777471035334,29.930113420639625,734.1682008489402,237.90763887630632,-117.47260324617972,162.69738987471572
3.3025,-2.193067966253896,-1.0578253804994076,-0.6274497517024987,0.0119833637208507,0.0668696960915041,0.0080359547293426,0.0063187909304001,0.0065675208931257,-0.0357465016570036,0.9993192221178206,0.0006158164432902,0.0639014894831446,9.815768510533204,-0.004794950055561,0.0157421114988406,-0.0002374518845636,-0.990184465397194,0.8642760958007313,1.229519209724056,1091.0307424433042,1120.8644824870764,1112.3397898149976,1094.3009855512903,-240.48969371488568,816.615507906653,473.49902422143816,-169.4264593108564,162.69920567169615
3.305,-2.3390206235347115,-1.439123200567092,-0.8271071460691917,0.0048172178158569,0.0636092844187288,0.0061594821497121,0.0063274511039571,0.0066190541760281,-0.0357246115949743,0.9993196189446512,-0.000124995968475,0.0635620424234953,9.817848357873258,-0.0045284044721737,0.0156746281378607,-0.000127036494988,-0.9901896697849162,0.8643194106481955,1.2295304556570252,1090.026262189658,1123.0662737632408,1113.8492501434068,1093.8306148069792,-488.4015139425277,772.8255600916037,602.0659445598668,-152.59406851578527,162.701460579078
3.3075,-2.349276084442337,-1.6872869349064823,-0.94539949147129,-0.0014471730631544,0.0600117022290762,0.0033268323074912,0.0063261244675511,0.0066713866432349,-0.035713801749471,0.999319671714516,-0.0008169603109117,0.0631013467909276,9.819708061851568,-0.0042674484338582,0.0156032987299923,-3.141622621997115e-05,-0.9901952589927624,0.8643630112380007,1.2295428504234955,1088.5887348735916,1124.7286102875344,1115.350119537797,1093.5380152087112,-658.6689744555001,600.0808090589672,608.5874124961849,-79.48307186038787,162.7034022452119
3.31,-2.229534002174087,-1.8357042516022832,-0.9633052699689026,-0.0079513489877058,0.0552660071713737,-0.0004973681451056,0.0063153056412484,0.0067271609504925,-0.0357101946798752,0.9993194973450013,-0.0014832623468877,0.0625265909102081,9.821364498448911,-0.0040083123126896,0.0155301099560432,4.4935784810365366e-05,-0.9902016363469028,0.8644057722367979,1.2295553243104973,1086.7329173173807,1126.0666778085356,1116.8921872058877,1093.4331994476772,-838.55133907743,484.12026317251855,645.7978889484958,0.7352646887284365,162.70540800727912
3.3125,-1.9370961721482205,-1.871053571070863,-0.8342335688374197,-0.0152527316243986,0.0488140855028898,-0.0054326141170605,0.0062982196994639,0.0067876449304871,-0.0357104075450787,0.9993191872367926,-0.0021306187643557,0.0618941592006472,9.822842942177036,-0.0037470283453717,0.0154576033346589,9.93170079151556e-05,-0.990209557687985,0.8644467971239501,1.2295677207527376,1084.3959781782044,1127.149211603397,1118.5791089825393,1093.541691532155,-815.6723236294229,292.70709886587326,571.1981996029984,72.91131849042513,162.70788801392615
3.315,-1.585748931261379,-1.7717983136752988,-0.6005982411787346,-0.0202635950290595,0.0433889976770321,-0.0090794743486974,0.0062785289358422,0.0068504956391924,-0.0357145737741113,0.9993187289390392,-0.0027041110383202,0.061266603666039,9.824173728162739,-0.0034797963360787,0.0153886734677179,0.0001308600787294,-0.990219799724794,0.8644851703200332,1.2295798028110503,1082.6545556992337,1127.5302133028647,1119.7481782039026,1093.7977560401291,-592.6779116789147,32.93350318167611,410.672816752012,125.65017621759849,162.71001484287783
3.3175,-1.1577045809698807,-1.544002019969721,-0.2675551822595543,-0.0238692492900421,0.0385911251755335,-0.0112482431709923,0.0062608491163931,0.0069107958806933,-0.0357241100342718,0.9993180759831756,-0.0031072155420219,0.0607222333469763,9.825388092422802,-0.0032032773451035,0.0153262692717897,0.0001404495332898,-0.9902319195742358,0.8645210297219607,1.2295912670146862,1081.43258861981,1127.3138791193053,1120.632473066299,1094.169942413243,-372.91950634077904,-184.21762518017775,312.3604236883028,160.51739200746678,162.71220318440407
3.32,-0.699675287115447,-1.2255496725235349,0.1047142146858722,-0.0261700486343879,0.0347286792102558,-0.0119385008413074,0.0062458689421452,0.0069662329475917,-0.0357400915800157,0.9993172009899424,-0.0032989910323665,0.0602563128911077,9.82651509849534,-0.0029149251827059,0.0152730172091805,0.0001307604466442,-0.99024461843194,0.8645543672025575,1.2296022311320636,1080.7899581675297,1126.609125176964,1121.3099803223442,1094.6003430001667,-107.11603098488197,-383.18532199179714,238.9927055036717,180.04939873525163,162.71444181401682
3.3225,-0.2491892795929096,-0.8274903069325775,0.4598597685624303,-0.0267908324543384,0.0320629629046595,-0.0107732614577628,0.0062311762451975,0.007017908707183,-0.0357613062095818,0.9993161546577928,-0.0033090801043982,0.0597977213695691,9.827577760083134,-0.0026131985324438,0.0152308528557707,0.0001061350395068,-0.9902572967076994,0.864585749220089,1.2296116698751935,1080.8970084648856,1125.397952509346,1121.8274365938175,1095.070189406919,199.7864264717052,-610.2609395689472,219.79397823079597,210.38343233113204,162.7167401673464
3.325,0.231149768948846,-0.3032528274146474,0.7843648790312733,-0.0256698535928806,0.0302231247746562,-0.0073761449022212,0.0062138408587212,0.0070666230522471,-0.0357872765084575,0.9993149682874148,-0.0031651709230025,0.0592642312613992,9.828589474760259,-0.0022977845996734,0.0152006837767909,7.235254285262062e-05,-0.9902688470976116,0.8646163844809854,1.2296181250560017,1081.788890299888,1123.5578204791193,1122.4089502134982,1095.6522601618224,418.5243453843757,-700.6460423279499,226.2197842663275,211.89426897490645,162.71956598437623
3.3275,0.5535482525449642,0.1361642528621523,0.9230008643248688,-0.0234396438796332,0.0299381079177862,-0.0035193818326521,0.0061901834658936,0.0071103425294216,-0.0358179691160432,0.9993136834898888,-0.0028413378079391,0.0585615415047845,9.829551824412992,-0.0019695856247051,0.0151822035187643,3.630191170235813e-05,-0.9902777290626876,0.8646469619633343,1.2296204416877656,1082.9896301918075,1121.8947222977065,1122.9585355151492,1096.1296607517938,518.0919826975352,-643.3514784945737,248.5565922443182,180.3331945570828,162.72197635489087
3.33,0.7810854972522958,0.5332819524517899,0.8953032303455499,-0.0206183720071424,0.0310717983430106,0.0005406485718357,0.0061549290390004,0.0071458872556594,-0.0358531928805322,0.9993123655853788,-0.0022888664702594,0.057567272995067,9.830453395884199,-0.0016305052792373,0.0151738501059188,5.466871941062963e-06,-0.9902819997184072,0.8646780140522415,1.229617989376269,1084.3793502133758,1120.3410630866465,1123.6517331747195,1096.5539261346075,587.3411511782831,-610.6431102857771,342.9995811804093,157.95000045618843,162.7244431202743
