t,ang_acc_x,ang_acc_y,ang_acc_z,a_vel_x,a_vel_y,a_vel_z,quat_x,quat_y,quat_z,quat_w,acc_x,acc_y,acc_z,l_vel_x,l_vel_y,l_vel_z,pos_x,pos_y,pos_z,mot_1,mot_2,mot_3,mot_4,dmot_1,dmot_2,dmot_3,dmot_4,vbat
0.0025,-0.9068028713250886,-7.852676417360259,-0.3635849421789013,-0.0985161161374365,-0.0461074870319113,0.0260621756865497,0.0001699979178517,0.0054941308333795,-0.0993995278997254,0.9950325968452632,0.0207294106102489,-0.1785890754823893,11.366033039871851,0.0491021482861448,-0.0322382220685354,0.9646598188268594,-0.7806553219137174,1.7488146803967612,0.1938590568016367,1223.5477637152192,1198.0317109647,1177.66952261547,1235.3760094284908,-2314.4528186518983,-1201.2251059577463,-2203.9823874115427,-786.9265633084069,163.51568044061185
0.005,-0.4178624593963649,-8.615818984830327,-0.1586763027410972,-0.0982402426915762,-0.0680592470407161,0.025787354552008,5.484758897236368e-05,0.0052568770078586,-0.099384580308083,0.9950351522626228,0.0286232716911715,-0.1744264947705364,11.365290911255752,0.0497116933441537,-0.0327665585793648,0.968314652242884,-0.780521557831401,1.748707062864121,0.1962832064246266,1217.7616316685896,1195.0286481998055,1172.1595666469411,1233.40869302022,-2164.862010133538,-1374.0225411564554,-2000.267360854696,-970.311698042906,163.53218929852264
0.0074999999999999,-0.0802692025545543,-9.049697641264942,0.0233631097535668,-0.096872235447442,-0.0914833113958949,0.0257076305526536,-6.079785534735919e-05,0.0050153082960789,-0.0993654259520118,0.995038131565251,0.0366049234684935,-0.1702305725113101,11.364441914901375,0.0503347028001715,-0.0332970409054228,0.9719780624210088,-0.7803880628574934,1.7485995810326131,0.1987078103518711,1212.7234536645517,1191.1615982589178,1167.6681858111965,1230.5244509382765,-1947.0365398544343,-1883.075667837284,-1665.5525399893122,-1448.0710856743372,163.548088560864
0.01,0.1206052077771125,-9.158934715868348,0.2147194416267124,-0.0947350205644196,-0.1200721202083895,0.0257785988852912,-0.0001742776045228,0.0047689655848361,-0.0993358065230011,0.9950421458071818,0.0446666257225231,-0.1659120150081931,11.363390290007564,0.0509726832675278,-0.0338251050735507,0.9756565539879124,-0.7802546469720151,1.7484929694529243,0.2011343001580621,1208.0264489693175,1185.6132698606193,1163.8318039469943,1226.1683375918483,-1448.709972886399,-2160.656992519625,-1121.1403835493,-1703.5760001740523,163.5664683495249
0.0125,0.1221354393165313,-8.914791105551833,0.3498809866231736,-0.0929571999171371,-0.1433955771398411,0.0260482303005506,-0.0002831758939158,0.004508227443593,-0.0992927879572765,0.9950475155194572,0.0530048514073845,-0.1613616412650984,11.36201199060568,0.0516455735594055,-0.034344136180651,0.9793553113039656,-0.7801215292990765,1.7483871303965055,0.2035654232890357,1205.4799038001197,1180.3583132963197,1162.06248389345,1222.006570937406,-713.3233093666605,-2189.8932831650204,-417.0287560531961,-1714.8194929263357,163.58120688708132
0.0149999999999999,-0.0166170081882137,-8.362675238763472,0.452424035426304,-0.0916199865650809,-0.1651161584303253,0.0267598894769512,-0.0003893261760067,0.0042245552117619,-0.0992402942511582,0.9950538706928082,0.0617980537373519,-0.1565660728705347,11.360155603463085,0.0523729512866824,-0.0348546358865824,0.983077906010642,-0.7799900284741896,1.7482807940849967,0.2060050702057323,1204.459832422484,1174.6638034447942,1161.7466601667284,1217.5942401272166,-125.18873077906387,-2541.662440626941,148.13184312370137,-1934.8464016979049,163.59535213178768
0.0175,-0.2799652217704649,-7.419673404981268,0.522320634110402,-0.0914904188517501,-0.1882954743081148,0.0284438603186724,-0.0004933085557293,0.0039117820339779,-0.0991837212750543,0.99506068693159,0.0711631303627735,-0.1514887314243517,11.35764839214884,0.0531698300334307,-0.0353543051842675,0.9868264051170004,-0.7798610468761612,1.748172755270305,0.2084556479728068,1204.8539601462244,1167.6500010931848,1162.8031431090683,1212.3323389289167,357.4112847451033,-2546.490999312527,570.7793769281577,-1888.5272528455057,163.61164923818075
0.02,-0.5206990811271516,-6.465863029886094,0.524713259567756,-0.092976894330613,-0.2046553615718195,0.0304824149326348,-0.0005948933148911,0.0035786727672791,-0.0991272979812523,0.9950674874863572,0.0808720336595345,-0.1461105887104686,11.354301327259984,0.0540213702497192,-0.0358417221252364,0.9906026060221116,-0.7797346490350864,1.7480626787148548,0.2109169391728892,1206.2468888462097,1161.9313484482316,1164.6005570513692,1208.151603862989,677.9800748404799,-2193.5610989036386,830.8710879577579,-1605.273442819681,163.62467290098323
0.0224999999999999,-0.7137196822504536,-5.416314689615383,0.4638260507241279,-0.0955300348530853,-0.2177202794329257,0.0325228420579261,-0.0006912720421088,0.0032342205628581,-0.0990749994626111,0.99507382417414,0.0906812484718973,-0.1403590147949685,11.3499163820522,0.0549107338146423,-0.0363100590287785,0.994406971343638,-0.7796092446606878,1.747951145070476,0.213387810024953,1208.2438605204268,1156.6821955986668,1166.9574985488573,1204.3059717148183,812.3935110910222,-1976.7889999865467,975.9956126658834,-1476.013388898718,163.63712731442433
0.025,-0.82488568707604,-4.337671947500997,0.3567695238846095,-0.0985131404091545,-0.2284693641562921,0.0341635613841523,-0.0007846330851621,0.0028861968571913,-0.0990297626880019,0.9950793599617678,0.100382355328796,-0.1342775737928305,11.34429040533326,0.0558231024561925,-0.0367620216785307,0.9982379497136624,-0.7794828944868152,1.747837756996848,0.2158673221720267,1210.3088564016648,1152.0474034482988,1169.4805351146988,1200.7715369184955,744.2401432787844,-1667.265117215902,984.5232562783165,-1339.6941800408056,163.64911689983285
0.0275,-0.8031654039813826,-3.26924478526906,0.2129833813146475,-0.1017642735564965,-0.2371090697785043,0.0348566131209348,-0.000875465710933,0.0025383607109027,-0.0989932508492815,0.995083905617429,0.109850944247362,-0.1278699877701019,11.337222922348744,0.0567499063773514,-0.037196300847488,1.002092157804141,-0.7793541902433009,1.7477221255312316,0.2183553927950365,1211.9650612368207,1148.3458700125873,1171.8801148302489,1197.6075008146142,540.4830489547296,-1392.9366570339887,961.1024368769453,-1312.1428336005927,163.66055494876412
0.0299999999999999,-0.6037284091513508,-2.0447819111371968,0.0281267227753532,-0.1058089335329294,-0.2448640497872567,0.0344161645303272,-0.0009682006871887,0.0021922399817578,-0.0989662899851529,0.9950873655412704,0.1190200590295839,-0.1212325915839067,11.32852060818332,0.057686764674498,-0.0376192268156149,1.005963918084368,-0.779221919139264,1.7476043149567713,0.220852735738359,1213.0112716464384,1145.082720163129,1174.2860472990835,1194.2108227504923,192.5064986566667,-1010.4130809322212,770.6832695535466,-1183.5703511297195,163.6736548001716
0.0325,-0.299685560703792,-1.1045301375860412,-0.1188744884982159,-0.1088060050677138,-0.2486399665252364,0.033669809145406,-0.001064956432268,0.0018482418101006,-0.0989488914214026,0.9950897372723464,0.1278418013462558,-0.1144164394504556,11.318004840307847,0.0586305161604763,-0.0380326890644199,1.0098457777911942,-0.7790849875457175,1.7474846723352087,0.2233604564189075,1212.927593730104,1143.293804607926,1175.7335311780166,1191.6896490589656,-229.8193990196976,-563.623834124382,442.80737336739514,-951.5640776041428,163.6840585593694
0.035,0.1100341825220598,-0.2861265230765406,-0.2491382700931224,-0.1097230527623239,-0.2492529453505763,0.0332561318499652,-0.0011679612746754,0.0015119140827537,-0.0989386330266674,0.9950912537724598,0.1361520612992871,-0.1074968103965109,11.305517325131284,0.0595675358941311,-0.0384404666465131,1.0137290175839488,-0.7789451766851749,1.7473629245964049,0.2258805675903614,1211.86217465134,1142.2646009925068,1176.5000841659205,1189.4530023624718,-649.2852849089562,-352.040500398971,173.45132116834074,-930.9143795992899,163.69394053814946
0.0374999999999999,0.6536347950277429,0.521319366060841,-0.381654568970466,-0.1072458572555959,-0.2468284328903842,0.0327607348732918,-0.0012740592019735,0.0011862111129224,-0.0989301830629505,0.9950924506869055,0.143833118310126,-0.1004327544462951,11.290925692869054,0.0604885413136692,-0.0388357205607437,1.017603569928568,-0.7788047001352982,1.7472399044918343,0.2284148246209442,1209.6811673055593,1141.533602105931,1176.6007877838583,1187.0350771609692,-898.1907340827551,-245.48574579148416,-98.16259540798461,-853.7894563378818,163.70520787931864
0.04,1.1022231026574183,1.0429539757551616,-0.4661654659238902,-0.1033909868196163,-0.243354254845806,0.0317981936634597,-0.0013773235429395,0.0008697298416078,-0.0989217733241583,0.9950935220627573,0.1508600944237178,-0.0931215838246148,11.27412642827968,0.0613934986497909,-0.0392050116322841,1.0214580826050652,-0.7786642478002441,1.7471176649999538,0.2309621979015946,1207.371220980926,1141.0371722635496,1176.0092711888803,1185.1840550807824,-956.8943197291891,-240.54094800485447,-372.69001234749305,-720.8101949938275,163.71411369060752
0.0425,1.5147385510594424,1.4291393009651903,-0.5130618771140496,-0.099629697070415,-0.2396922044303949,0.030333323339267,-0.0014748610044413,0.0005650018919072,-0.0989087160356679,0.9950949461523588,0.1571263230976499,-0.0855490682704231,11.255048014279376,0.0622755333854065,-0.0395424317682018,1.0252808770248825,-0.7785242360177625,1.7469971219095295,0.2335210968203533,1204.8966957069133,1140.330897365907,1174.7373377221209,1183.431026186,-967.7492801785324,-350.67568790677814,-617.6815319290203,-695.0873218920609,163.72252793907563
0.0449999999999999,1.8898153640515327,1.734249272073808,-0.5220153484112908,-0.0965634544189127,-0.236357131608632,0.0287146365017077,-0.0015676814569063,0.0002768032267876,-0.0988874071388601,0.9950970898625632,0.1624844150353494,-0.0778037328786296,11.23365330399023,0.0631245827707866,-0.0398504374560548,1.0290600797954836,-0.7783841257217184,1.7468784775456454,0.2360898478516007,1202.5324745800335,1139.2837938240157,1172.9208635292355,1181.708618471322,-870.0451506015273,-516.4042287623035,-850.3412156731888,-693.4621704967872,163.73054190661472
0.0475,2.207749896287566,1.9809932203293024,-0.4820079678371947,-0.0935579203201145,-0.2331681760550569,0.0271981813793374,-0.0016581084746437,1.2991198616957668e-05,-0.0988553194201619,0.9951002099686462,0.1667223860416551,-0.0700197033852588,11.209941726120256,0.0639249128640203,-0.0401345234411986,1.0327841297964275,-0.7782442288015515,1.7467612258976897,0.2386674620543607,1200.5464699539057,1137.7488762220955,1170.4856316437547,1179.963715333516,-744.1039155095942,-777.779304507839,-1197.1377735430895,-789.7440114952125,163.7380812361972
0.05,2.478274888155747,2.242402403235836,-0.3799584681106117,-0.087587478768071,-0.2286140067775379,0.025759425425965,-0.0017501647535451,-0.0002286868115497,-0.0988140686113493,0.9951041477673572,0.1698595356913455,-0.0623545103165196,11.183947104724156,0.0646823906210924,-0.0404006691375137,1.0364401570157589,-0.7781047851507746,1.74664442839844,0.2412539265967434,1198.8119550024855,1135.3948973014765,1166.93517466152,1177.759898413846,-516.3626909320103,-924.1892553662642,-1386.2039134732192,-839.4320738977062,163.74658900816573
0.0524999999999999,2.5600588360180527,2.4370437586730103,-0.2550624649554157,-0.0800892696230467,-0.2236181675595902,0.0247449400690442,-0.001847837663457,-0.000456503050642,-0.0987637087420732,0.9951089003538288,0.1720491787054198,-0.0549597433832211,11.155737593261819,0.0654154311084808,-0.0406531564702239,1.040014514197292,-0.7779662201668057,1.74652715394887,0.2438510145206885,1197.9646564992456,1133.1279299452642,1163.5546120763888,1175.7665549640276,-227.4392840676684,-931.0419227831065,-1405.5006337433958,-842.3602960329849,163.75323524269515
0.055,2.4385740402455767,2.5988029416502982,-0.0982634193728998,-0.0715176865035722,-0.2171136297425922,0.0238432543634581,-0.0019549397396626,-0.0006725596518808,-0.0987055068477174,0.9951143460245524,0.1733076913823646,-0.0480033021088406,11.12541628671014,0.066129880386954,-0.0408963923943748,1.0434943562034993,-0.7778286725920687,1.7464085498399695,0.2464600359198558,1197.6747585821472,1130.7396876875607,1159.907671492803,1173.548096933681,-45.35204146809515,-1034.9264662785108,-1615.3852697402256,-1030.6074641629027,163.759427079987
0.0575,2.0377015263779232,2.743454602647616,0.1080169919044445,-0.0621134734710895,-0.208204576815919,0.0233110086248724,-0.0020701270277519,-0.0008727728408767,-0.0986381170651724,0.9951206301152175,0.1735060299052305,-0.0415584608786768,11.093119011400349,0.0668172235862685,-0.0411251773731214,1.0468685027577735,-0.7776925542498139,1.7462875001629372,0.2490818468213395,1197.7378962919051,1127.9532976138717,1155.4776857276877,1170.613517643213,41.95990460716532,-985.5280294077606,-1592.3687814688044,-1110.8738943503345,163.76633755431556
0.0599999999999999,1.512127481610454,2.8251846315323004,0.2745984656252001,-0.0560861365121382,-0.2007180943716854,0.0235433742560511,-0.0021958131420258,-0.0010577997513926,-0.0985613132079842,0.9951277740431904,0.1726338369748748,-0.0357748424781973,11.059007177096465,0.0674791196685449,-0.0413407400633963,1.0501258184548448,-0.7775581614873815,1.746162971494,0.2517173046585756,1197.884558105183,1125.812047540522,1151.945827585459,1167.9937274619294,11.162073923196663,-807.4914948185782,-1333.9205661503463,-1055.8651170548278,163.77166631426715
0.0625,0.8479831367148538,2.885413155539516,0.4057640317231596,-0.0525465785117086,-0.193920038846384,0.0245746266931234,-0.0023350573602022,-0.0012272199550089,-0.0984744616504168,0.9951358413451924,0.1706652779329307,-0.0308192667882946,11.02326444497004,0.068114364791899,-0.0415462324017203,1.0532569349177912,-0.7774260607887264,1.746033739348797,0.2543664306565339,1197.7937066615211,1123.9158401397788,1148.808082896936,1165.3341920579387,-123.30324686513438,-720.1323639941158,-1164.6073393623726,-1039.6738748689577,163.7765514560967
0.065,0.1303086004055679,2.9476110539064755,0.4848476610596864,-0.0511714976585307,-0.1876535034758837,0.0264046411138979,-0.0024915969115618,-0.0013753940450489,-0.0983786510915637,0.995144727708918,0.1674711575648398,-0.0268812514142585,10.986091773560856,0.0687100715822779,-0.0417480828348215,1.0562555928925788,-0.7772951731307673,1.7458993730768595,0.2570269267684101,1197.2680418708571,1122.2113857205516,1146.1227908886472,1162.7953580875846,-360.84496084131354,-644.81278370099,-952.6829813636589,-942.9303357445852,163.7810704284395
0.0675,-0.5709353993289261,3.030680071929094,0.4812651709928769,-0.0525933487261651,-0.1815586005683038,0.0289835044366598,-0.0026644542611135,-0.0015037369711906,-0.0982798495593295,0.9951538450842656,0.1630789355586991,-0.0240240180190058,10.947698839864708,0.0692663372268212,-0.0419424693897081,1.059118287063091,-0.7771640779283236,1.7457602089924356,0.2596962771923728,1195.9894818573143,1120.6917762212738,1144.0446679901177,1160.619540379216,-774.6600044110885,-635.1122414269861,-783.8087533845729,-818.7063956248032,163.78515072169927
0.07,-1.297094047851306,3.1605807210865287,0.3779552811762578,-0.0570877042919153,-0.1740920273736186,0.0317663940007871,-0.0028473977199495,-0.0016172956043338,-0.0981837264024864,0.9951626445128654,0.1575971775676928,-0.022178729183685,10.908298176898468,0.0697886570457477,-0.0421162245965763,1.0618451115889729,-0.7770321679040991,1.7456184267972452,0.262370994149388,1193.394741848802,1119.0358245134166,1142.2037471217243,1158.7018261094606,-1139.0457616950264,-579.0952831584957,-589.0691214685387,-555.5621509201056,163.78954517643697
0.0724999999999999,-1.752389520690602,3.2826479212384085,0.2260881521554788,-0.0622979924471131,-0.1675017604511425,0.0329206504290287,-0.0030290205925074,-0.0017275915429659,-0.0980968260181691,0.9951704957929398,0.1512782105658915,-0.0211376204524053,10.868098606825203,0.0702942156250912,-0.0422466947095253,1.0644393359969544,-0.7768988019780578,1.745477642366,0.2650479124515853,1190.2942530488394,1117.796299805481,1141.0993223827747,1157.8417296246155,-1426.375353111146,-457.4040203085141,-391.1384013275445,-169.06177440200767,163.79279392546633
0.0749999999999999,-2.01437247028581,3.386444033895916,0.0402385464023215,-0.0680533244055572,-0.1599009506704702,0.032866243490684,-0.0031975747007933,-0.0018499127279638,-0.0980242148493919,0.9951769104481836,0.1444694861435671,-0.0206622559567565,10.827300447518308,0.0708072067908052,-0.042312930152818,1.0669067804450703,-0.7767624396328162,1.7453414451075533,0.2677243094662844,1186.262865083246,1116.748804411874,1140.2480551150863,1157.8565172374504,-1949.316138201537,-398.24193022373,-363.81020313369805,207.53284660308944,163.79562089528915
0.0774999999999999,-2.091389187717937,3.436655705395511,-0.1815871367510187,-0.0752853574497894,-0.1492584617414474,0.032062771905781,-0.0033455229164756,-0.0019911886678752,-0.0979703885914023,0.9951814569164368,0.1373625261530458,-0.0206032142303094,10.786093059632636,0.0713342776676776,-0.042307426813098,1.069256078740954,-0.7766219718866643,1.7452128737049954,0.2703982123544813,1180.5476723578315,1115.8050901543627,1139.2802713671065,1158.8793938576307,-2192.02048556467,-279.4229270249159,-374.9688698135284,522.4413914491829,163.79853563770092
0.08,-1.9638045751695008,3.3801042645449577,-0.341992478437375,-0.0815433526487985,-0.1395337868585871,0.0310641514587983,-0.0034666716503255,-0.0021525992554392,-0.0979346968319726,0.9951842170373286,0.1300465592343079,-0.0208286088475991,10.744651190126616,0.0718691821821855,-0.0422293264419576,1.071497460353632,-0.7764768403367359,1.745093649475666,0.2730693714825542,1175.3027626554228,1115.3516897767495,1138.3732107660187,1160.4687241946965,-2116.351823889452,-98.79191586155679,-403.2445145807284,743.6464914797392,163.80057491611936
0.0825,-1.6649672744197477,3.1972780496740207,-0.4566636974662815,-0.0874567251656263,-0.1299594732161717,0.0298049223393556,-0.003560894960117,-0.0023344969448092,-0.0979140342144222,0.995185497266675,0.1226251423427025,-0.0213115294995145,10.703132381560547,0.0724047167950776,-0.042091897802873,1.0736403653439723,-0.7763264885771272,1.7449832814885549,0.275739772399326,1169.9659132383845,1115.311130575055,1137.2640487942028,1162.5976263150296,-2078.506473796231,56.22531217541104,-477.5896831051792,895.8636297167678,163.80222075230225
0.085,-1.2634557104549222,2.912412272466125,-0.522601810558632,-0.0919819519736512,-0.1212648661666681,0.0282952742217315,-0.0036328503726173,-0.0025345022581514,-0.0979045056323755,0.9951856739123324,0.1151717043402368,-0.0221041076482098,10.66167718206781,0.0729289254236154,-0.0419187207220553,1.0756927353188883,-0.7761705487570317,1.744879560233462,0.2784125755046425,1164.9102302864417,1115.6328163376263,1135.985262350493,1164.9480423432803,-1869.860549824578,209.6150380680681,-538.3246686104026,934.2107467360613,163.80354904712533
0.0875,-0.804647159839601,2.531269944249648,-0.5216612894349583,-0.0937538734956704,-0.1140477344248962,0.0264754361179649,-0.0036913314187812,-0.0027439326874681,-0.0979008653239128,0.9951852561183472,0.1076512413481233,-0.0233309825950154,10.620410594055132,0.073417747465497,-0.0417420295707385,1.0776609069610532,-0.7760101574322301,1.7447795982260559,0.2810915467337913,1160.6166104892616,1116.3592057653952,1134.5724254511508,1167.26868004871,-1628.7620196849307,387.00007779580193,-627.0198301071116,945.8981671034072,163.80450507961595
0.0899999999999999,-0.2746830146236834,2.0169380475049232,-0.4419105465324982,-0.0934097305200197,-0.1074328109262489,0.0242131738047321,-0.0037401770415569,-0.0029536403004939,-0.0978967029543301,0.9951848867336872,0.1000233592852037,-0.024987174600231,10.579443997281327,0.0738461118802458,-0.0415811632160896,1.0795495496337004,-0.775846833279733,1.744681153165212,0.2837771895847873,1156.766420188017,1117.5678167266055,1132.8501631999575,1169.6775331787971,-1164.5379413582782,467.25460254488183,-620.9821581508561,785.0613027356317,163.80523565391027
0.0924999999999999,0.1024894696432451,1.5863837999263255,-0.3181524365038322,-0.0922258259542496,-0.1038354822258364,0.0227081776494632,-0.0037856432338879,-0.0031539521732474,-0.0978866221288977,0.9951851024151912,0.0922521384507213,-0.0270995317458267,10.538877909764915,0.0741900007039036,-0.041457606118584,1.0813611114150865,-0.7756819983274876,1.7445823965593898,0.2864688765610864,1154.79392078247,1118.6954787781197,1131.4675146603963,1171.193986562388,-542.3678764706888,427.2602954217287,-537.2674686779187,484.3179947858057,163.80550719775985
0.095,0.3820024695010507,1.2022435892936028,-0.1556869766187103,-0.0907617144807403,-0.1018326599305428,0.0219835594986625,-0.003831395715118,-0.0033392656925109,-0.0978677448850093,0.9951861914439823,0.0843868132186179,-0.0296174286934066,10.498805476422875,0.0744357460079703,-0.041382947519583,1.0830958757152684,-0.7755172626141436,1.7444820183067524,0.289166164576109,1154.0545808056636,1119.704118203714,1130.1638258565679,1172.0991231527264,-106.19343192142868,359.11450340099657,-568.4103494837923,258.4736314704512,163.8054404809194
0.0975,0.5932925958732346,0.8294779974723223,0.0520457483329767,-0.0884345383130711,-0.1003396117214297,0.0220254970731072,-0.0038806877755295,-0.0035058848560582,-0.097841455617689,0.9951880210238808,0.0765140743219311,-0.0324701225430828,10.459316216938348,0.0745762082228326,-0.0413639116316193,1.0847522127872444,-0.7753530620621106,1.7443796290263889,0.2918687129159738,1154.262953622863,1120.4910512951246,1128.6254629129776,1172.4863547197403,185.11695362813023,186.32077413344612,-577.8440099514222,37.541833901332176,163.8049829887124
0.1,0.6691289588319085,0.6001392830778625,0.2124356685749179,-0.0857965882509347,-0.0994470143402823,0.022678771719159,-0.0039361523807283,-0.0036531259078997,-0.097808881093369,0.9951904775113865,0.0687742411684878,-0.0355664601227239,10.42049938224918,0.0746129034086207,-0.0414026346049836,1.0863266070103879,-0.7751898944818632,1.744274296125632,0.2945780018224967,1154.9801655738042,1120.6357220743814,1127.2746058068108,1172.286832322233,299.4156720078533,-64.20001032797694,-578.3283296516396,-168.3173095256278,163.80429711405122
0.1025,0.660445127654665,0.4476118319639988,0.3362135968759722,-0.0830139697478157,-0.0986646758354088,0.0238353518769865,-0.004005553749141,-0.0037862663301017,-0.0977733765499882,0.995193185904886,0.0614270321901186,-0.0389138986792971,10.38244647578076,0.0745638915763134,-0.0415085841145208,1.087812981094004,-0.7750290864762108,1.7441648356077333,0.2972959350613771,1155.7600319829023,1120.1700512434847,1125.7338212647192,1171.6447681721122,251.8991929515328,-332.55968200314845,-740.9570465471929,-359.96480012900133,163.803306765008
0.1049999999999999,0.5991181558650275,0.3310086363849453,0.4242242898670798,-0.0811339649960295,-0.0976746321193218,0.0255109820166493,-0.0040947786763583,-0.0039052446886886,-0.0977349698537444,0.9951961255717529,0.0545970882083603,-0.0424997286607899,10.345253374205944,0.0744374166245516,-0.0416872401119437,1.0892055245211638,-0.7748717588996749,1.7440508752894943,0.3000234239037775,1156.239661538562,1118.9729236643657,1123.5698205740748,1170.487008321588,46.11477661978833,-516.4639075190745,-848.6355667597779,-470.1483093476791,163.80177962412168
0.1074999999999999,0.5484452163974548,0.2691135682358638,0.4407110203070499,-0.0810386814735925,-0.0968332475763865,0.0269667677513801,-0.0042038447162522,-0.0040034570442991,-0.0976914088374876,0.995199546371976,0.0482386521544149,-0.0462158233965357,10.30902086356902,0.0742282641989298,-0.0419322460300161,1.0905000496946593,-0.7747195645353653,1.7439329903490457,0.3027603663483946,1155.9906058660013,1117.5877317058892,1121.4906434309205,1169.2940266253738,-257.23519490579724,-584.8396512955327,-876.3975693680541,-500.3366467154588,163.80023405684955
0.11,0.5388556962546575,0.2202397202602577,0.3981282133010671,-0.0813768289869428,-0.0960917381556124,0.0284425479528704,-0.0043354753630277,-0.0040771417084045,-0.0976447882584143,0.9952032471771208,0.0423436078379514,-0.0500205522299699,10.27385379075972,0.0739400364930006,-0.0422418032021169,1.091692730282765,-0.7745737017296598,1.7438121278488252,0.3055047945253346,1154.9534855640327,1116.048725407888,1119.1878327272343,1167.9853250880108,-530.1712347485131,-600.0118446912433,-938.8704492639127,-524.0017841244476,163.79841582368465
0.1125,0.575512936869539,0.1663654676184321,0.3121240878025713,-0.0814127522993728,-0.0952727013763829,0.0297887759403033,-0.0044859585276654,-0.0041289149719492,-0.097596425232818,0.995207103242363,0.0369917839086982,-0.0537456177415188,10.23986072702889,0.0735899799356422,-0.0425994741737387,1.0927813057577926,-0.7744349779390425,1.74368917111654,0.3082550936883935,1153.3397496922587,1114.5876724824332,1116.7962911846007,1166.6740177047516,-735.1853651699449,-522.5587321395774,-947.3112854520867,-505.0640511363322,163.7963790847576
0.115,0.6597142692768883,0.0915709990455729,0.1877717294082975,-0.0808824817785418,-0.094171139345891,0.0307576273857249,-0.0046464430630493,-0.0041591562641894,-0.0975437513480164,0.9952114041399414,0.0321756297866081,-0.0571418085921744,10.207151282563618,0.0731895715330346,-0.042979785358635,1.0937667590941615,-0.77430442662787,1.7435656180636077,0.3110094648774686,1151.2775587381832,1113.43593174719,1114.451276299974,1165.460004832329,-928.9598229694993,-401.2149721908824,-978.0899868836505,-494.5880931646111,163.7940876452268
0.1175,0.7829795479156085,-0.0296323952542136,0.0206012307864823,-0.0791073169481894,-0.0929024019415119,0.0312194850305913,-0.004807256924243,-0.0041696541088848,-0.0974842239111577,0.995216437335464,0.0278842817465654,-0.0599606589213482,10.17583291218554,0.0727527268809096,-0.0433566986356738,1.0946527403796544,-0.7741823037720285,1.743442909787324,0.3137652552873801,1148.6949505774112,1112.5815976214787,1111.9058412501827,1164.2010772389283,-907.1018786586153,-220.7353426518243,-857.8395832909353,-425.3996845402988,163.7910543038039
0.1199999999999999,0.871776399686945,-0.1493753741235001,-0.1107529216218589,-0.0765044264319924,-0.0923703359965808,0.0307987518235895,-0.0049593524619757,-0.0041696431819929,-0.0974192335694235,0.995222069745968,0.0242303398278178,-0.0619713288174033,10.146007981764871,0.0723085542948511,-0.0437051758269444,1.095444656500228,-0.7740664001254861,1.7433224997299916,0.3165200903448462,1146.74204934489,1112.332255033931,1110.1620783835194,1163.3330064096276,-689.3071315379087,-21.14183150301873,-586.2443263307352,-316.9300989928167,163.78829772493876
0.1224999999999999,0.9107648600310316,-0.2651236183444348,-0.2081947041090733,-0.0733218451732256,-0.0926886129086784,0.029601783550345,-0.0050959839950422,-0.0041655199918169,-0.0973504832558606,0.9952281394052426,0.0212476570878295,-0.0630123218519512,10.117769379021247,0.0718781078913655,-0.0440075318379463,1.0961506164330839,-0.7739534044030781,1.7432063751107034,0.3192718716377617,1145.2484149197217,1112.4758884639637,1108.974619618529,1162.6164267439644,-527.6062804758108,114.22881559537916,-364.37125010434073,-298.07398902380527,163.78531225516417
0.125,0.8767730057733819,-0.3623825953067403,-0.2682536821613728,-0.0694808124796122,-0.0939891234886564,0.0277718292823664,-0.0052172881535199,-0.0041656895505591,-0.0972808914163009,0.995234324196506,0.0190035161412722,-0.0630714259611788,10.091197478071148,0.071485387358668,-0.0442619433032742,1.0967796749750147,-0.7738394535388619,1.7430954419619005,0.3220184613038583,1144.104017942511,1112.903399111908,1108.3402221329975,1161.8426364645084,-319.19347947646173,165.6893424940334,-88.2980107419825,-283.63094933465595,163.7814745279497
0.1275,0.7791009971155405,-0.3826671252583632,-0.2704817101292544,-0.0664242368280814,-0.0956152078510218,0.0263607207164557,-0.0053280249184239,-0.0041795020223613,-0.0972146071174548,0.9952401565300688,0.0175780059684098,-0.0622391028235918,10.066358214391478,0.0711544136930412,-0.0444771174218253,1.0973412968636551,-0.7737212950381644,1.7429895836021598,0.3247595258029573,1143.6524475223391,1113.3043351764338,1108.533129564819,1161.1982719972912,-107.8347427141124,134.26935740467331,226.9256484189553,-270.2330368242653,163.77807035857936
0.13,0.6249465806208468,-0.3177513224582733,-0.2370153521587035,-0.0637443727456321,-0.0973491824694345,0.0255548747795283,-0.0054295239157241,-0.0042161201706531,-0.0971553931193178,0.9952452269600706,0.0170315315708518,-0.0605470777847805,10.043302798589764,0.0709052660046892,-0.0446543383282695,1.097845279510626,-0.7735979789836546,1.7428872901496015,0.3274961272208111,1143.5648442289405,1113.5747458989313,1109.4748503750925,1160.4914712803873,-5.949729744133942,68.85256382192887,486.63603096592806,-296.1936659829004,163.7744597729826
0.1325,0.4487635904605779,-0.175813338494356,-0.1908701004557005,-0.0618155018919089,-0.0987597203838518,0.0254150649108503,-0.0055216296464539,-0.0042765724428216,-0.097102370849095,0.995249621260314,0.0172564360608801,-0.0580217406022936,10.022066654078175,0.070737442077913,-0.0447931955592497,1.09830162283424,-0.7734713031929185,1.742786060754939,0.330230244821895,1143.6226988736187,1113.6485979955435,1110.9663097196487,1159.7173036673767,23.403820756448088,-25.6447650380778,692.5095270176365,-320.0685092704132,163.77068334556
0.135,0.2883121041346276,0.0538265041560449,-0.1484102669571166,-0.061353172485028,-0.0994711043030521,0.0259930706404933,-0.0056025980767104,-0.0043566295804395,-0.0970529996307109,0.9952536194592496,0.0180416715516103,-0.0546766561876392,10.00267077009947,0.0706369911386866,-0.0448898739517292,1.098719415819733,-0.7733439665711602,1.7426835429853644,0.3329644131965613,1143.6818633327227,1113.4465220737409,1112.9373980101807,1158.8911287340352,-5.3093844069280705,-146.7625594932541,909.767131734224,-355.8211962884794,163.76671311186547
0.1375,0.1695544903282844,0.4108886530521013,-0.1120442189482064,-0.0620108635182809,-0.099310284138824,0.0268864086364834,-0.0056723515030652,-0.0044534268015106,-0.0970071675537523,0.9952572501635422,0.0192166337432684,-0.0505650531733413,9.985123977816563,0.0705924329533332,-0.0449422816194043,1.0991052665257504,-0.7732179664604031,1.7425778295884735,0.3357017556558467,1143.596151951584,1112.9147851980772,1115.5151453783199,1157.9381976859343,-70.27868538498291,-230.21581210377897,922.8055610716627,-321.5417293736661,163.76173239332678
0.14,0.1619900661606354,0.754849881766279,-0.0868430725953002,-0.0626034225769663,-0.0982541422108976,0.0272291691568988,-0.0057330499784319,-0.0045594299182914,-0.0969630360083223,0.9952607153639552,0.0205362085833,-0.0458013107169689,9.969424611627183,0.0705815090433622,-0.0449535035172838,1.0994641078177676,-0.7730937416192128,1.7424680400610095,0.3384437894012887,1143.3304699057978,1112.295443013222,1117.551425815539,1157.2834200871669,-153.29834572657987,-263.84419720275196,725.797256924715,-203.00557808491232,163.75740673415467
0.1425,0.2673862840652371,1.115481915990571,-0.0446250439368215,-0.0626934225996088,-0.0962499629019056,0.0268241610294656,-0.0057900476018315,-0.0046744977034297,-0.0969237562824522,0.9952636749622796,0.0219251748450879,-0.0405569094621094,9.955564162450017,0.0705983473188573,-0.0449310560681045,1.0997979327213494,-0.7729689856191002,1.742353750529657,0.3411909312042828,1142.8296602229511,1111.5955642120634,1119.1441316629434,1156.9231697955097,-278.0577591313444,-303.7968791496965,541.4629340274157,-57.13689199328682,163.75290542573944
0.1449999999999999,0.5284012286511636,1.5249550519989172,0.0550461019072275,-0.0625692664546628,-0.0928541002251327,0.0255982103756116,-0.0058478114712995,-0.0047962955823106,-0.0968945950417208,0.995265599107186,0.0232813964655759,-0.0349963359287164,9.9435287731477,0.0706315613842481,-0.0448810702325717,1.1001080575127633,-0.7728412798697906,1.742236840605021,0.3439418461682554,1141.940181110141,1110.7764586174735,1120.258740485676,1156.9977356272004,-376.3545361267024,-285.18807927498653,253.35829412724823,129.35034908046023,163.74730768363523
0.1474999999999999,0.850809521124204,1.8114588183622669,0.1912472007114986,-0.0623003100019675,-0.0891567107282307,0.0244234038194267,-0.0059095958816676,-0.004923027708164,-0.09687677371741,0.9952663592535776,0.0245307579260514,-0.0292629986635921,9.9333012412252,0.0706701360390539,-0.0448083188056565,1.1003953204323351,-0.7727091502265657,1.7421187384912242,0.3466951306195559,1140.9478875423176,1110.1696238156885,1120.4109231335797,1157.569921540912,-450.26990883607107,-221.21501866845367,-103.5981661414552,340.0776358091659,163.74248455739152
0.1499999999999999,1.2554102384431405,1.994087213775596,0.3762839846779295,-0.0610420794808407,-0.0842896034895415,0.0239335037227685,-0.0059774525061301,-0.0050501925684292,-0.0968690394968955,0.9952660900268658,0.0255630426573425,-0.023484475734136,9.924861857928498,0.0706971407234566,-0.0447169888788219,1.1006608678229937,-0.772572731620943,1.7420001874890712,0.3494505966870239,1139.6888315659608,1109.6703835241312,1119.7407496549688,1158.6981238062463,-544.285886649413,-182.23509227409505,-391.40316384673457,531.3119532223477,163.73750339479625
0.1524999999999999,1.6916557610579759,2.055137434792167,0.5802136488477587,-0.0580327200758627,-0.0783438413869544,0.0244570688337848,-0.0060438065945263,-0.0051728661912923,-0.0968675967865139,0.995265231014912,0.0262599693671618,-0.0175999835557241,9.918189301411216,0.0706936820001575,-0.044591814277838,1.1009069487920813,-0.772434220872606,1.7418823084858195,0.3522073181698838,1138.2264581090703,1109.258448354318,1118.453907314346,1160.2264813070235,-618.4079861830918,-144.8003689596588,-633.7353195383905,671.4914455174943,163.73239605307472
0.1549999999999999,2.1089670589275977,1.937509082941156,0.7672225262878487,-0.0525064249570767,-0.0716423325822997,0.0262721583281351,-0.0061013746738692,-0.005285061056898,-0.0968642218192613,0.9952646582604542,0.0264997545011138,-0.0115553988053935,9.913260015191119,0.0706400298730099,-0.0444201519619153,1.101136128735176,-0.7722963193441761,1.741766095772836,0.3549658093723384,1136.5967916350453,1108.9463816793327,1116.5720730572768,1162.0555810338335,-718.8684040401306,-109.5640253376131,-915.19073227846,805.0522022761462,163.72714267452085
0.1575,2.520570581165328,1.5790579871517851,0.9177838027004512,-0.0441870820866636,-0.064238284590211,0.0296486201969322,-0.0061439750923957,-0.0053818004328572,-0.0968510166613923,0.9952652056718218,0.0261963446982657,-0.0053139036650012,9.910047855682429,0.0705209115737467,-0.0441925960303876,1.1013510849719588,-0.7721611621278928,1.741652411841696,0.357727571768515,1134.63211608887,1108.71062822763,1113.8779536529537,1164.2517423184045,-687.0524451410796,-53.34570770305613,-1018.1111993405912,746.5611384158813,163.72067800671383
0.16,2.7568971904931345,1.1188261800249184,0.9489908529675752,-0.0372017453222043,-0.0595366413611124,0.0332041266945909,-0.0061690951215274,-0.0054634925030108,-0.0968299097017788,0.99526669580942,0.0253858778340748,0.0011018690506906,9.90852353798833,0.0703362115115687,-0.0439062865508637,1.1015540518474118,-0.7720296333140558,1.7415424302497649,0.3604921237508791,1133.16152940934,1108.6796531408177,1111.4815170605739,1165.7883867259131,-513.4386159546916,40.01798803742528,-936.93513410767,486.9839883304389,163.7151631788983
0.1625,2.861709143458069,0.5425148063632304,0.8613090425764865,-0.03061639467373,-0.0568394825490617,0.0371913387025367,-0.0061773440769291,-0.0055375535450431,-0.0968035378599598,0.9952688239777954,0.0242546459675506,0.007627045446635,9.908653627185767,0.0701033061367031,-0.0435642906002524,1.1017470251630714,-0.7719010639532852,1.74143695528542,0.36325800414042,1132.0649230090964,1108.910718167817,1109.193277982415,1166.6866622600567,-365.4632407802179,184.08082773817097,-925.2191184109043,193.35609205977545,163.70952364876285
0.165,2.8173303077130254,-0.20040682911628,0.6278273575331565,-0.0224815085035237,-0.0563639685272826,0.0415683094308701,-0.0061742846732736,-0.0056113287553116,-0.0967706130852405,0.9952716371225409,0.0230003669970307,0.0141066926123835,9.910398711805168,0.0698411372432295,-0.043181348058286,1.101932771232458,-0.7717739851670296,1.7413357423220843,0.3660239522455037,1131.3342132054388,1109.6000572795083,1106.8554214685191,1166.755167186212,-165.1867997145017,332.6631991730207,-758.6562973147458,-157.00041628597305,163.70262128559776
0.1675,2.623906283344793,-0.7965727736228247,0.35930925870095,-0.014954204156332,-0.0584923366123661,0.0438471355707951,-0.0061676533106248,-0.0056882109992783,-0.0967278659734096,0.9952753838032056,0.0217472876068544,0.0203431133535812,9.913711597774297,0.0695609462093119,-0.042777911483738,1.1021156815340034,-0.7716476384521699,1.7412375607253308,0.3687888675327352,1131.238989010524,1110.574034163682,1105.3999964958416,1165.9016601786268,52.54919398116721,476.162233691593,-465.5358560659348,-511.5175851015461,163.696763627598
0.17,2.258559190130337,-1.299374308011934,0.0778869304938523,-0.0069205795139584,-0.0628225432783001,0.043910063954688,-0.006162768685796,-0.0057715962831366,-0.096671085136442,0.9952804200027432,0.0206126515804315,0.0261935266204243,9.918535891852976,0.0692739192319376,-0.0423687111567848,1.1023015770341635,-0.7715220333453142,1.7411417525503348,0.3715518045192339,1131.5969591753446,1111.9808684479665,1104.5277421881897,1164.1975792607043,192.03140090935432,628.9110691312993,-262.3533996593776,-785.0127152864835,163.69080428752906
0.1725,1.7628782334756827,-1.689800943088411,-0.1614472578344734,0.0001890907481764,-0.0682870289815178,0.0422720802980028,-0.0061590187036937,-0.0058654340784149,-0.0965961511447714,0.9952871265907636,0.0197084072486711,0.0316397192395197,9.924804386909559,0.0689916876138111,-0.0419545244876867,1.102497663123124,-0.7713974146484793,1.74104855837562,0.3743114653156522,1132.1991460150707,1113.7185895093387,1104.0882294975447,1161.9765966021944,257.3708437551884,757.6619236471281,-108.55398360004064,-949.5839813798275,163.6847666056231
0.175,1.1582968763673192,-1.9306444969750984,-0.3012822624627442,0.0044774854280328,-0.0743061305970832,0.0397426263419737,-0.0061550459192527,-0.0059731788809871,-0.0965056486545819,0.9952952402193636,0.019127344935905,0.0366814875616508,9.932438454752543,0.0687255553639781,-0.0415327544345528,1.1027116669759782,-0.7712752133408803,1.740957260087016,0.3770672894040524,1132.8838133941204,1115.769178066202,1103.9849722701895,1159.4496593538051,265.47282113142626,938.8856728145171,-36.12980247453396,-1095.7865523754713,163.67864169949445
0.1774999999999999,0.3977483939049807,-2.063351907327828,-0.3262968191823225,0.0059064883676544,-0.0812564712503249,0.0369822089966682,-0.0061559597830102,-0.0060986750841466,-0.096410073178574,0.9953036850165916,0.0189725726786405,0.0411943385538966,9.941348822854621,0.0684898876977919,-0.0411128322888971,1.1029504265238896,-0.7711559155708747,1.7408666235806896,0.3798198949854306,1133.5265101207278,1118.4130178734113,1103.907580485172,1156.497663840317,175.9208288350245,964.8167040355064,-73.06091908749329,-1013.792415679568,163.67120038285884
0.1799999999999999,-0.1978459501699477,-2.074679286185087,-0.2326044912996566,0.0047562102501905,-0.0863544790437767,0.0353659921848571,-0.0061673990980124,-0.0062419760485572,-0.0963189801076393,0.995311497197064,0.0192642657581655,0.0450395347231806,9.951435480892062,0.0682907790164977,-0.0407052386975923,1.103220413623563,-0.7710395677968818,1.7407749331091364,0.3825716510869994,1133.7634175382957,1120.5932615863796,1103.619667674752,1154.380697275407,19.42076085088045,817.2530520805587,-209.9723523641385,-730.521684517543,163.6649300165277
0.1824999999999999,-0.6916938608900663,-2.0293872766302234,-0.0460132577059336,0.0021713531281824,-0.0905969408406453,0.0347041342029579,-0.0061916220316026,-0.0063992033128815,-0.096238012477879,0.9953181389190828,0.0199296785460255,0.0481412464518961,9.962588498122033,0.0681244564002349,-0.0403135767460858,1.1035277160309607,-0.7709267397141699,1.7406806290765455,0.3853247114451438,1133.6236139249822,1122.499283133814,1102.8577187233511,1152.845055417729,-131.58886731230257,713.0499329776278,-466.0782855015892,-522.3490486619988,163.65859610178347
0.1849999999999999,-1.125669130032521,-1.9576394878273808,0.2416606236442359,-0.002059245814817,-0.09466483318006,0.0350827239947762,-0.0062315107228763,-0.0065660051323883,-0.0961683688769119,0.995323503436688,0.0208797858910715,0.0504138100909766,9.974690544012143,0.0679854660513972,-0.0399431906103289,1.1038771045367448,-0.7708164980776618,1.7405838418689514,0.3880795100855489,1133.105473201734,1124.1585112512676,1101.289276247244,1151.768952032097,-217.72414211882256,462.1023993327977,-670.3795768488357,-275.9233579186909,163.6509317671805
0.1875,-1.3450163386768503,-1.9037546005559765,0.5010407950613768,-0.0063300105492948,-0.0975652547783374,0.0363055673300289,-0.0062817791839978,-0.0067373219674392,-0.0961053542536079,0.9953281089598188,0.0219890527427642,0.0519364636107998,9.987618014776505,0.0678640335385522,-0.0395826479120387,1.1042729453842175,-0.7707077694447788,1.740486233416187,0.3908353216256298,1132.534993214388,1124.809795130478,1099.5058208391072,1151.4654386281359,-207.608057655443,73.97771591336088,-762.344589886515,-33.457884058088865,163.64449908549568
0.19,-1.4270114733637305,-1.8540363996358915,0.7449343193127682,-0.0108932180251307,-0.1009203387133195,0.0383540302506562,-0.0063372815414688,-0.0069027415564428,-0.0960431582931819,0.9953326197264788,0.0230191095381083,0.052779547670398,10.001244123125224,0.0677378672031713,-0.0392228556874072,1.1047190734871255,-0.7706001123744596,1.740389152630586,0.3935923532033988,1132.0674329134567,1124.5283998308344,1097.4775532978115,1151.601662611807,-130.57685007820498,-274.35843792281935,-795.7483995638988,87.9073448615599,163.6380278135776
0.1925,-1.4191089194030366,-1.7877468938075411,0.9548289067650994,-0.0150142744571275,-0.1051511172392447,0.0409322702256706,-0.0063967788914166,-0.0070493927076998,-0.09597623570765,0.9953376698916152,0.0236842733992931,0.0529355943570664,10.015442277142473,0.0675793792836984,-0.0388648087959798,1.1052181177583027,-0.7704934395182305,1.7402937136624095,0.396351715300203,1131.882108963997,1123.438002940864,1095.5270788412877,1151.9049753524437,35.931308327599226,-610.2640725744089,-684.1729916527123,108.45516689346358,163.63153132861183
0.195,-1.346364470085292,-1.6677169574092598,1.1065928553840523,-0.0180797376299368,-0.1102902064583783,0.043868306093132,-0.0064621740349467,-0.0071743230430849,-0.0959048059205177,0.995343247881892,0.023897486707217,0.0523577287903211,10.0300894215007,0.0673831117276009,-0.0385146871185665,1.1057701091905,-0.7703875391727484,1.740200774435674,0.3991137823424004,1132.2470894550947,1121.4770794679623,1094.056688339548,1152.1439384462742,325.66873701566664,-1000.6409753659672,-443.90737757012135,31.662168188586264,163.62501286671403
0.1975,-1.2435692483766783,-1.4281498818682872,1.2092061539462948,-0.020580550629962,-0.1165354007426626,0.04739235194469,-0.0065315816006635,-0.0072859249915294,-0.0958350664169266,0.9953487084252852,0.0237890551487211,0.0511017733661033,10.045067520568612,0.0671674484422772,-0.0381681900163715,1.10637310807726,-0.7702820568943785,1.7401114524175605,0.4018776404704844,1133.5104526490754,1118.434798064034,1093.307541953437,1152.0632861933866,611.790704915847,-1166.545850379997,-55.22254006627913,-116.0856882108418,163.61717649832687
0.2,-1.1793685448517148,-1.1424363107733264,1.2237743723915735,-0.0220152503017218,-0.1209720872612959,0.0502324543610531,-0.006605521109845,-0.007397122935016,-0.0957727186291008,0.9953534095098524,0.0235877281504248,0.0491924922434496,10.060265927360744,0.0669605595417757,-0.0378261463114284,1.1070236549056671,-0.7701767117259734,1.7400256428828635,0.4046434257976952,1135.3060429796742,1115.6443502160623,1093.7805756392163,1151.56351000522,862.0870499623827,-1089.1371026846164,447.1787991950801,-291.59741168077716,163.61064274284445
0.2025,-1.157309920797164,-0.7835374670233906,1.1597676088363051,-0.0234168902387482,-0.1238934587439157,0.053147746631189,-0.0066843305142569,-0.0075214971786451,-0.095717908557769,0.995357240683568,0.0235422053055815,0.0466699783638536,10.075582546177952,0.0667910700189329,-0.0374899137611416,1.1077175805747514,-0.7700716416350606,1.7399423302103951,0.4074121250325045,1137.8208878988871,1112.989112550611,1095.5434359494125,1150.6052991349827,1231.3178528323067,-1059.4122191927445,1066.7667521835929,-494.7409589242393,163.6041156892946
0.205,-1.1721930300411945,-0.3078491966900049,0.9864538625818352,-0.0256263394012325,-0.1250419034839659,0.056867236791111,-0.0067650036819527,-0.0076554700248941,-0.0956650219387338,0.9953607847079904,0.0235594019311885,0.0436197297187225,10.09092343852938,0.0666481481443389,-0.0371579393368133,1.1084526410072788,-0.7699677434584554,1.7398610398607919,0.4101842088367486,1141.4626322438355,1110.3472891200988,1099.1144094001345,1149.0898052105988,1393.248173912615,-840.0172765171639,1520.047600516817,-575.6955991120772,163.59630305382387
0.2075,-1.1971360746710182,0.0951197549523083,0.7615962002720567,-0.0279905048080526,-0.1243065646264521,0.0598953807099719,-0.0068435376809993,-0.0077912542148681,-0.0956072018871125,0.995364782740282,0.0234675935014862,0.0401500906365395,10.106204991205992,0.0665107784159541,-0.0368274926143089,1.1092268812894663,-0.7698655769306472,1.73978124271429,0.4129608313680813,1144.7871287684504,1108.7890261680252,1103.1436739519963,1147.7268211394223,1325.021054350606,-469.63574531300986,1766.2429413565487,-509.3592054183797,163.58981763450055
0.2099999999999999,-1.197187362392575,0.4799036464162743,0.4652374650997035,-0.0309169161378211,-0.1227220891951505,0.0621930278788504,-0.0069116411368002,-0.0079272508143467,-0.0955402348093417,0.9953697046569664,0.0232195870564801,0.0364778027278276,10.12135483273522,0.0663701762458749,-0.0364846770669795,1.1100379310116872,-0.7697646207309211,1.7397030114947103,0.4157417101334246,1148.0877375155887,1107.9991103935336,1107.9456241069172,1146.543009183507,1268.08491392531,-190.1404788790396,1987.9259923256636,-405.1772342165369,163.5833680878141
0.2124999999999999,-1.1452998081660433,0.8430224791062407,0.129667059696516,-0.0344498195304888,-0.1208540553351408,0.0634790297628533,-0.0069633146326171,-0.0080628850183097,-0.0954679153351685,0.9953752286527404,0.0228023200915282,0.0327840715596922,10.136312055496248,0.066220043064022,-0.0361194310523167,1.1108834362242537,-0.7696637003951,1.739627138985957,0.4185255279061813,1151.1275533380767,1107.83832377363,1113.0833039136248,1145.7009349683397,1105.47713693254,71.19909960611034,2057.4774333439545,-222.8238008590777,163.57695530283948
0.2149999999999999,-0.9992535160582972,1.1810108830545307,-0.2183920274604089,-0.0387565987145279,-0.1187896859819357,0.0633070288446287,-0.0069976972939675,-0.0081981281818643,-0.0953961270673851,0.995380794613102,0.0222350129373331,0.0291564119356705,10.15102675990296,0.0660557936177129,-0.035732531088177,1.111761128821105,-0.76956064038679,1.7395548502066152,0.4213118235082271,1153.6151232002514,1108.3551058915643,1118.2330112736367,1145.4288901792115,929.5099980677143,353.4518818920329,2175.955992151783,25.81565822961236,163.57059498209043
0.2174999999999999,-0.7002570303201638,1.5572801492203892,-0.6013428565973559,-0.0441593968967228,-0.1156921800202613,0.061619813531676,-0.0070213352912612,-0.0083322748780043,-0.0953267103722068,0.9953861839878192,0.021550246537422,0.0255400358288522,10.165459020484532,0.0658722295572673,-0.0353413355474011,1.1126689144287423,-0.769454739408211,1.7394856099721192,0.424100373908829,1155.7751033284155,1109.60558318309,1123.9630838743835,1145.8300132594875,647.9217283275369,539.3307341367286,1973.115505804524,258.5071400975719,163.56303336179923
0.22,-0.3671814867361579,1.8383595974289195,-0.8588763625260517,-0.0475638611417732,-0.1120079507991707,0.0592698772121271,-0.0070426479023474,-0.008466025842945,-0.0952624307787815,0.9953910669325932,0.0208236750037557,0.0218500940388988,10.179577319075895,0.0656677258704267,-0.0349662117390313,1.1136051255912955,-0.7693465221748556,1.7394174234208408,0.4268910461707864,1156.8547318418891,1111.051759562248,1128.0985888026596,1146.7214258796992,297.64861879748395,635.491082349062,1481.9051240550364,442.40465210095823,163.55679811610207
0.2225,-0.0082235296901147,2.0672226080445153,-1.0224782852140348,-0.0480635832317668,-0.1069401683189513,0.0562436718124513,-0.0070713955036397,-0.0085976794470695,-0.0952048718799295,0.995395239210516,0.0200948867672036,0.0179735674526883,10.19335692173384,0.0654360757493433,-0.0346302310389571,1.1145690282620524,-0.769236766654598,1.7393479961421885,0.429683984532946,1157.2633464224027,1112.7830385948355,1131.3726094946587,1148.0420365199925,63.78462137781747,800.1625417775806,1225.8679715995174,634.2548855464423,163.55063972293982
0.225,0.3587041495218284,2.2602573794150858,-1.0900883614369468,-0.0455137952455575,-0.0998751531104094,0.052291671169825,-0.0071126798697201,-0.0087265219457847,-0.095152194641995,0.995398849894156,0.0194224829842901,0.0138961922806178,10.206778658637244,0.0651731039840034,-0.0343454656782666,1.11556083296196,-0.7691263221181142,1.7392776919180053,0.4324779071902703,1157.1736549487782,1115.052572271136,1134.2279286606572,1149.8927003074316,-94.43069614271727,845.1774982023372,873.2500808868272,689.2375315056137,163.543347804092
0.2275,0.554521599149,2.345249208465188,-1.0351494029126307,-0.042090128205051,-0.0936669629441713,0.0490302234073925,-0.007165947055343,-0.0088492535066276,-0.0951014468382186,0.995402218355162,0.0188062170504075,0.0097136812243943,10.2198277561682,0.064869054686562,-0.0341114644291394,1.1165820489928515,-0.7690163549822667,1.739207522841105,0.4352722346896237,1156.7911929416891,1117.0089260858472,1135.738859899093,1151.4882241775204,-176.95975824331055,772.8695202433292,443.8005027857794,615.8492044687131,163.53735981941395
0.23,0.6029170688804234,2.354071102388496,-0.8721801634588621,-0.0387193976424973,-0.0874917170362513,0.0458872947382709,-0.0072305189909906,-0.0089594096009187,-0.0950486869625533,0.9954057896769344,0.0181822714353397,0.0055163944715259,10.23249346693791,0.0645086979087227,-0.0339278028260358,1.117634814954134,-0.7689079311674811,1.7391384581494607,0.4380669878214058,1156.2888561575617,1118.9169198723523,1136.446931174586,1152.9719463297752,-214.65930353378988,801.0088339505721,159.76878480246327,602.8364437343492,163.53147215383993
0.2325,0.4978444634214155,2.293025102517002,-0.5772998235801098,-0.0354625833710361,-0.0803927999071484,0.0425134961722726,-0.0073036586200591,-0.0090460845705271,-0.094989628692438,0.9954100977246628,0.017389429236461,0.0014239197561662,10.244768501919248,0.0640681366773761,-0.0337900419870717,1.1187218751757555,-0.7688018733090399,1.7390708234588943,0.4408633882935401,1155.7178964240204,1121.0139702556,1136.5377038231054,1154.5024063961923,-190.1577890373572,719.4321093294996,-63.14312172089552,514.317602185974,163.52453291246036
0.235,0.3034167879757834,2.2009018484485465,-0.2812425067415686,-0.033513580143139,-0.0750747388848217,0.0406494510849884,-0.0073801847643167,-0.009103098483877,-0.094922252333081,0.9954154363909468,0.0163511112228339,-0.0023919558863146,10.256649935832073,0.0635351593084962,-0.0336866030700031,1.119845233932926,-0.7686991574231712,1.7390050207031627,0.443662071520455,1155.3380672123749,1122.514080419,1136.1312155659816,1155.543534340705,-127.5283284181113,536.7127925922881,-221.54355576576543,377.3297452665244,163.51886266835064
0.2375,0.0523076682825459,2.090334422588517,0.0127334892762361,-0.03257802021394,-0.0705796804364677,0.0406381837932311,-0.007454329800193,-0.009133432349399,-0.0948455066460938,0.9954219267502272,0.01516721937849,-0.0057380084504146,10.26814008729335,0.0629192740603195,-0.0336020372529773,1.1210053634567811,-0.768601015876096,1.7389411696181976,0.4464631886817992,1155.0802547819299,1123.6975342185615,1135.4299860442763,1156.3890551225247,-86.53736312944643,421.83767072224526,-296.64552429671994,323.0819923010601,163.5133183405734
0.2399999999999999,-0.1954895226744374,1.9786777060781668,0.2603706137478737,-0.0330678825388745,-0.0665255069434617,0.0421354749984352,-0.0075277836164103,-0.0091487456292542,-0.0947658717509658,0.9954288311266152,0.0141172701552365,-0.0085690693194222,10.279247145608473,0.0622524145683066,-0.0335343737512639,1.1222006184276139,-0.7685069231408691,1.7388786219600691,0.4492669717526735,1154.9053803967277,1124.6232687726113,1134.647987944498,1157.1589443022103,-59.90881022985405,322.59513082676824,-295.5389568884143,318.06480222812894,163.50788551103844
0.2424999999999999,-0.37744365521398,1.8719237029907945,0.4093825262388788,-0.035379682194883,-0.0626151947020007,0.0445753387458026,-0.0076008177853231,-0.0091592776640121,-0.0946900407162052,0.9954354149244892,0.0134358476208306,-0.010826247921891,10.289984644514746,0.0615637785994631,-0.0334782837608386,1.123429127708853,-0.7684159658838702,1.7388168572726204,0.4520727420161585,1154.7807107307804,1125.310509872695,1133.9522912598345,1157.9793791336656,-59.40241373182284,279.52432423353434,-250.69696803443523,409.8200965276643,163.50259599728048
0.2449999999999999,-0.4606461099459543,1.7429405434884586,0.4471572602899687,-0.0391301863401675,-0.0577660799557711,0.0474082523100629,-0.0076715139271024,-0.0091672729901427,-0.0946178196825414,0.9954416863312496,0.0131752103758629,-0.0124330112384079,10.300371498654751,0.0608642503303357,-0.0334255018200902,1.1246895130272563,-0.768328702168863,1.7387551610915009,0.4548807472072204,1154.6083683280683,1126.0208903937787,1133.3945031043258,1159.2080447848487,-78.62756259505652,269.8717227306586,-145.25337057420967,512.4711839124298,163.49642579107467
0.2474999999999999,-0.4007343683342097,1.623107314986055,0.3621613741885705,-0.0420998847992716,-0.0536486806911422,0.0492288875205002,-0.007735428003807,-0.0091752042624541,-0.0945498307599935,0.9954475944688727,0.0133706031293388,-0.0132756524031691,10.310433604718297,0.0601648119848831,-0.0333616054829804,1.125979813713122,-0.7682456336288446,1.7386934807140835,0.4576923930337528,1154.3875729178053,1126.6598684863486,1133.2260244069635,1160.5417350532275,-115.07959469772676,296.7721667097064,-6.554358094854245,609.3000824181212,163.49143957135368
0.25,-0.2209317766122524,1.4749792346996493,0.1756289909505045,-0.0440692143133619,-0.0497549934783642,0.0503226377965758,-0.0077886717769504,-0.0091858491442559,-0.0944881286936515,0.9954529476173388,0.0140476887540973,-0.0132673030714608,10.320204439550611,0.0594770905164981,-0.0332730132815163,1.1272972168910032,-0.7681671622946518,1.7386323381993232,0.4605082782992302,1154.03297035458,1127.5047512273275,1133.3617313138516,1162.2545451969393,-191.88358774113092,442.82369433931274,113.39025343545462,831.7400031654862,163.48662350685544
0.2525,0.0833907284081982,1.2496033810162255,-0.1292986406603224,-0.0445602992533033,-0.0453743055549329,0.0507635923298864,-0.0078317724383452,-0.0092068743341916,-0.0944357598707327,0.9954573815036272,0.0153251149556258,-0.0124188232701679,10.329725840868493,0.0588240884007622,-0.0331549001913058,1.1286373519196933,-0.7680925778956225,1.738572584274362,0.4633281448498053,1153.4281549790996,1128.8739869580452,1133.7929756741407,1164.7004350690552,-248.02728831477884,566.3107214918905,185.9325872699172,939.9462675642089,163.4810498867269
0.255,0.3639315342287046,1.01545360059184,-0.4191482230494245,-0.0433622112518458,-0.0420156230707914,0.0503520577400338,-0.007868297261007,-0.0092477088807646,-0.0943938849696973,0.9954606720506451,0.0173496913234804,-0.0108162169828103,10.339047603520235,0.0582324114992882,-0.0330091765370241,1.1299949142564705,-0.7680207446381742,1.738514006480839,0.4661528236748311,1152.792833913006,1130.3363048347867,1134.2913942502012,1166.9542765347603,-266.67456324184946,644.7545066962441,209.43041659138524,907.6545748786876,163.4765824192771
0.2575,0.6207879206029666,0.7338689513010206,-0.7039986195985026,-0.0408025512988138,-0.0391786919779005,0.048981043904408,-0.0078991100870634,-0.0093129195305836,-0.0943630910078422,0.9954627169246004,0.0201506998327954,-0.0085156420744832,10.348226300181844,0.057715962931028,-0.0328328718857778,1.131365018195166,-0.767950688806447,1.7384565554161977,0.4689831337894916,1152.0947821628904,1132.0977594915264,1134.8401277570977,1169.2387079434486,-270.66962181143003,743.2359221022118,218.10271973604335,886.3444380686807,163.47230506396085
0.26,0.8319827271760895,0.4221911452332352,-0.951825379715415,-0.0376124097226052,-0.0369844440723058,0.0466777630444336,-0.0079235760278692,-0.0094023066028582,-0.09434104997358,0.99546374703435,0.0236466411865754,-0.0055665133912845,10.357324322589356,0.0572761318219646,-0.0326209991940645,1.1327433512507383,-0.7678815991383098,1.7384000151439498,0.4718202592477668,1151.4394858039489,1134.052484445298,1135.3819078488812,1171.3859987251035,-221.37147903113123,813.6121238467233,209.6065547576016,789.6863672030115,163.4681893878255
0.2625,0.9781692019944254,0.0972400983314397,-1.1181075068782456,-0.0345914716748634,-0.0359113814625138,0.0432321124032448,-0.0079425923803983,-0.0095045768534803,-0.094319838664032,0.9954646112580622,0.0275234891900436,-0.002084600930147,10.366407940375577,0.0568879944098283,-0.032374968106061,1.1341270226312388,-0.7678126913219359,1.738343918183844,0.4746639725142712,1150.9879247677347,1136.16582011076,1135.8881605308857,1173.1871397794637,-109.89130720968195,948.9808260256715,212.86635912433647,677.2982591214253,163.46427286113143
0.265,1.0875414771360088,-0.2664066524103204,-1.1892498279103951,-0.0317121241175302,-0.036516328965423,0.0383259011463795,-0.0079590910220178,-0.0096081618423374,-0.0942913665814818,0.9954661615061684,0.031460505574536,0.0017581902529568,10.375546405887656,0.0565251810842115,-0.0321009427302237,1.1355138291644726,-0.7677430687329049,1.7382878526479395,0.4775136311894164,1150.8900292679004,1138.7973885754263,1136.446239644503,1174.7724900207108,63.34846373615613,969.119775637636,195.5951504255607,470.9243482713642,163.4598077088152
0.2675,1.1356099100060832,-0.5158340445215613,-1.132770087526686,-0.0298326328980831,-0.0385690975532907,0.0344203796810295,-0.0079730299501501,-0.0097068020887868,-0.0942492479166933,0.9954690624387784,0.0352385104355459,0.0058493985483855,10.38480950398732,0.0561718293676148,-0.0317972345226344,1.1369024736220283,-0.7676725271408091,1.7382317257150095,0.4803681370301898,1151.3046670864155,1141.0114189889482,1136.8661362830135,1175.5417615208205,284.1240349234338,874.9215504471059,154.2848338527618,190.77336136324433,163.45628457285747
0.27,1.145850434383727,-0.6839785773831273,-0.966197749854978,-0.0280468590826186,-0.0414238438472209,0.0314217884880468,-0.0079827899527462,-0.0097919890075403,-0.0941916471221082,0.9954735835468695,0.038588812880375,0.0100941796283135,10.394263641735987,0.0558063049713322,-0.031458913253839,1.1382935539453845,-0.7676020643500264,1.738175464398434,0.4832259996368375,1152.3106494425176,1143.1719963276619,1137.2176638137669,1175.726356827527,571.3425527666454,915.4922460103527,128.77867952834083,-38.78427586555514,163.45296810159692
0.2725,1.1042123927041483,-0.7887616354889482,-0.667719557837179,-0.0251888512606939,-0.0445072531703592,0.02908689123203,-0.0079870246916579,-0.0098606385674674,-0.0941223054540837,0.9954794121454612,0.0413576342885441,0.0143947331461379,10.40396880410489,0.0554193045830906,-0.0310804025755446,1.1396887104610163,-0.7675331379158827,1.7381191258149824,0.4860864302005222,1154.1613798502487,1145.588880219,1137.5100296806552,1175.3478401414927,762.68422287826,834.6949155516987,77.47248764958377,-217.31320559638317,163.44922710707667
0.275,1.0080466285663083,-0.8085533811786672,-0.3610458885053637,-0.021784581123792,-0.0464242119919378,0.0280507738116776,-0.0079883014477431,-0.0099168678997062,-0.0940456185525675,0.9954860732296928,0.0435535071958144,0.018582883467428,10.413975119107638,0.0550186140763965,-0.0306640080891774,1.1410901307616188,-0.7674666028937097,1.738062349808207,0.4889491442855056,1156.1240705569087,1147.3454709054204,1137.6050262520148,1174.6397907995452,829.3003147018674,616.5430937761352,2.534244708749609,-329.9221432932424,163.44630725003415
0.2775,0.8328927850535633,-0.7807843643037296,-0.0208113969210043,-0.0178430984121987,-0.0478597890517245,0.0276176319307304,-0.007994482356878,-0.0099706688656647,-0.0939710546707401,0.9954925117775618,0.0453242121493432,0.0223907615316124,10.424319592968288,0.0546266305347667,-0.0302232745453614,1.142500462457672,-0.7674020525267681,1.7380048986202783,0.4918129245327346,1158.307881423758,1148.6715956878807,1137.5227009041987,1173.6982294250265,872.4727237342441,433.65720814062973,-57.61128941121564,-386.1118564933346,163.44358945758918
0.28,0.5967756487081434,-0.7278252388486854,0.3290363687470667,-0.014531805296932,-0.0490178558156897,0.0275657380840898,-0.0080129323069955,-0.0100282259831295,-0.0939047470903221,0.9954980315027304,0.0467482695770515,0.0255577142225247,10.435022651374886,0.0542566664077127,-0.0297729708885693,1.1439239608098957,-0.7673383194910162,1.7379478789979663,0.494676726923613,1160.48643417558,1149.5137569461235,1137.3169698049587,1172.7092315170785,826.78457685547,196.73303859949536,-93.5889977320584,-373.8973845749566,163.44103583160782
0.2825,0.3175454664694671,-0.653071290243905,0.6654355972312266,-0.0131798220320903,-0.0499513889522951,0.0281198132763784,-0.0080447985993874,-0.01009274719356,-0.0938448357189633,0.9955027688948213,0.0478433649679908,0.0279561253219811,10.446085573013397,0.0539133722860766,-0.029316452444741,1.1453663416235629,-0.7672745980209414,1.7378919308368477,0.497541305338068,1162.4418043080354,1149.655260880878,1137.0547559155386,1171.8287425021515,765.778734982677,-109.91791900805757,-91.76777667767047,-329.9987408098329,163.43867473705586
0.285,-0.0114775132804195,-0.535613126016606,1.0105596932558332,-0.013900302175507,-0.0510877968419291,0.0300367885818739,-0.0080883519202627,-0.0101693156548557,-0.0937915265509199,0.995506669735116,0.0486729197790378,0.0295334351134076,10.45748928868308,0.053605053926307,-0.0288513849290587,1.1468335526935969,-0.7672103535842772,1.7378379894760243,0.5004072938819507,1164.3153278504935,1148.9641673510832,1136.8581309215704,1171.0592378130293,590.1598683429705,-386.0507563977986,-22.37052610748831,-221.61372764962812,163.43605544200807
0.2875,-0.2448374606728049,-0.4041673777578544,1.2101559937299828,-0.0155134090352739,-0.0522508489172462,0.0331816432075579,-0.0081396487207223,-0.0102562503267506,-0.0937415344096213,0.9955100929297231,0.0491697272087404,0.030287280993095,10.469193488377678,0.0533240195776756,-0.0283735156682544,1.148332197042424,-0.7671463455967042,1.7377864656574626,0.5032755535666417,1165.3926036497503,1147.7250070988891,1136.9429032850012,1170.7206738639036,325.5120854629728,-598.8983464517394,117.78363473454311,-70.98427075984618,163.43404420818842
0.2899999999999999,-0.4127635611280437,-0.2215750993518709,1.272376536462272,-0.0171892369827827,-0.0537387185552098,0.0379417691290593,-0.0081856146961341,-0.0103499262812278,-0.0936972734776136,0.9955129489580732,0.0492208603973933,0.0304208700651268,10.481136491988265,0.0530565512009848,-0.0278588948547075,1.1498691933168612,-0.7670834452970735,1.7377372317224633,0.5061470437281909,1165.9428882778084,1145.9696756188243,1137.447049095243,1170.70431645923,131.81087892294403,-830.3226955400163,346.64618075230817,55.40909220862943,163.43220295285877
0.2924999999999999,-0.5351088728775297,0.0671862646730743,1.1590492325484087,-0.0188437110016164,-0.0556140127714975,0.0440393524481401,-0.0082167492340018,-0.0104462232983903,-0.0936584473600702,0.9955153798756246,0.0487249896911904,0.0300870429898828,10.493237309882591,0.0527885888354365,-0.0272931564743893,1.1514505975124039,-0.7670230859018062,1.7376900893340173,0.5090221037174029,1166.051658044365,1143.573393621189,1138.6761341887627,1170.9977193249467,-36.094019798974806,-874.6060438455053,567.3913189723858,145.56969340842429,163.43018100276095
0.2949999999999999,-0.5763147214788992,0.358392777440696,0.91462855421369,-0.0199305257715294,-0.0566052646816427,0.0481176353240878,-0.0082286864020099,-0.0105407783167143,-0.0936250747880031,0.995517462080286,0.0476003299383711,0.0293575708745871,10.505397555306464,0.0525066306268634,-0.0266747997903603,1.1530814259913171,-0.7669655671334243,1.7376452496603068,0.5119014167516671,1165.7624181788135,1141.596645399597,1140.284005690105,1171.4321649262722,-171.6037381913337,-725.3190836867809,768.7665661881958,195.22329157043697,163.428646071375
0.2974999999999999,-0.5604815125538501,0.6693004487302869,0.5539090044338671,-0.0208959239040777,-0.0558938294986595,0.0505873057905927,-0.0082241319007997,-0.0106276365736108,-0.0935964336462236,0.9955193025541504,0.0457605786744388,0.0281814484041386,10.517503894052057,0.0521947583740977,-0.0260200702405234,1.1547656909627035,-0.766910285852308,1.7376037010694918,0.514784654556829,1165.1936393534083,1139.9467982027552,1142.5199670197037,1171.9738357827987,-256.5094930379471,-568.4438607040643,991.7864442820238,223.9890791165633,163.4272597041573
0.2999999999999999,-0.4978443366147037,0.9586418735713108,0.1413370189264556,-0.0219134574088677,-0.0535276648259306,0.0516591247275634,-0.0082092030961106,-0.010700252674475,-0.0935702755503713,0.995521132813966,0.0431286539088988,0.0264638239555456,10.529430648211044,0.0518358694364017,-0.0253543631980519,1.1565065617379748,-0.7668554068045205,1.7375670313178764,0.5176711827113964,1164.4798707136235,1138.7544260960767,1145.2429379115151,1172.552110321855,-301.14224003095813,-339.4884659382112,1183.6376289042153,233.9332846740488,163.42599143359163
0.3024999999999999,-0.3743429976185603,1.1753653130980108,-0.2727400970655294,-0.0230718862109299,-0.0497540668201518,0.0509400954598897,-0.0081887001617497,-0.0107517198172212,-0.0935414534000063,0.9955234730579328,0.0396320871880133,0.0241654787600138,10.541042818066412,0.0514110378420392,-0.0247010779762098,1.158306547846893,-0.7667992062195759,1.7375368802229672,0.5205597822220172,1163.6879281532536,1138.249355873064,1148.4381551642248,1173.1435022061692,-344.75473711572675,-54.58955787767076,1466.4178128723036,262.90895760866965,163.42485969579633
0.3049999999999999,-0.1490959114796949,1.3085305502801992,-0.6969566578346448,-0.024447904363854,-0.0443731496223154,0.0480279468168913,-0.0081661880486184,-0.0107807082526956,-0.093508809997229,0.9955264183207694,0.0353257741162222,0.0213094393934283,10.552200289535488,0.0509135800116241,-0.0240793355022417,1.1601666527965202,-0.7667409875895,1.7375137600347748,0.5234497126648514,1162.7560970280451,1138.4814783066884,1152.5750269758767,1173.8666551098984,-325.2071189303476,214.35640640897847,1520.6770954579029,270.49222677414923,163.42365224295844
0.3074999999999999,0.1032546233784877,1.3015346421304843,-0.9483609711256888,-0.0251599426558152,-0.0398335165331103,0.0443399303903717,-0.0081432926954133,-0.0107931089862334,-0.0934696578851975,0.9955301455758558,0.0304259205291587,0.0179978812542362,10.56276247505121,0.0503528691938995,-0.0235015741165561,1.1620858657824635,-0.7666805297363372,1.7374971675564743,0.5263418739533295,1162.0618925586018,1139.321137905109,1156.0415406415143,1174.49596334004,-246.8889904643672,443.3499132434458,1327.7508392905916,261.5921449325467,163.4227667182261
0.3099999999999999,0.4137267004018659,1.182025727097063,-1.06967231541428,-0.0248585382828838,-0.0361928757417404,0.0402592835016947,-0.0081204333304369,-0.0108023177253925,-0.0934215632242016,0.9955347367137252,0.0253162019262634,0.0143927350935844,10.572593447209423,0.0497557032300194,-0.0229741411032986,1.164060716933956,-0.7666175183521907,1.7374863372074512,0.5292382236548009,1161.5216520757233,1140.6982278729056,1159.2137811723296,1175.174615834561,-187.928955521056,687.9005579900416,1255.8188459982364,312.8333466175715,163.42200141300845
0.3125,0.8329050462082527,0.9420719761791624,-1.072799025059234,-0.0232874716517401,-0.0332128591286428,0.0360039449519331,-0.0080950350546194,-0.0108236071580654,-0.0933646558832796,0.995540037565924,0.020423672820898,0.0107360635303521,10.581566524004167,0.0491534857324939,-0.0224933910906142,1.1660857144141807,-0.7665526253538798,1.7374794363301118,0.5321404472513523,1161.1222477809963,1142.7606406950592,1162.3206348715055,1176.0601300731275,-96.49543130631164,789.1555079304446,978.2938797723536,335.72548739939486,163.42121714978163
0.315,1.2024678591887619,0.6902695590548849,-0.9809867831408126,-0.0212560426518904,-0.0316501104546381,0.0334631222179074,-0.0080679092628923,-0.0108668179345434,-0.0932985718397108,0.9955459704651504,0.0160751361674415,0.007195763216529,10.58956838487706,0.0485670049673153,-0.0220617029671431,1.1681537024184658,-0.7664867317027662,1.7374748881795787,0.5350502096673961,1161.0391749191915,1144.6440054125578,1164.1052505711912,1176.853243271558,23.779484853321243,743.067992814803,512.9301024307547,322.34949329126687,163.42067243641017
0.3175,1.566432271444436,0.4143719655921258,-0.8286970781162457,-0.0186463883500477,-0.0308584540709936,0.032008862299903,-0.0080415856174463,-0.0109290175738812,-0.0932274606059312,0.995552153043844,0.0123342491893561,0.0038770917103747,10.596501689613303,0.0479893887069439,-0.021684580957251,1.170256856553078,-0.7664218501714338,1.737471164745655,0.5379681431257405,1161.2411452052631,1146.4759806591333,1164.8852853836593,1177.671877539584,126.89942111373954,691.7920363570369,138.9442530189625,321.42584611638057,163.4202379912211
0.32,1.8992061137104324,0.1348333829964471,-0.6507843136000092,-0.0153367403909388,-0.0305611455826481,0.0311225431872801,-0.0080173229125151,-0.0110060101829887,-0.0931556291590025,0.995558212915738,0.0092350430670066,0.0009025640150061,10.602288901889114,0.0474121632413696,-0.0213614508487323,1.1723861398985445,-0.7663601664623697,1.7374665820012054,0.5408948293383326,1161.6736720247604,1148.102965594343,1164.7999718362862,1178.46037250214,221.59214743055577,566.396979945102,-226.23796825987463,287.9515355888996,163.41989353520526
0.3225,2.1508890395577582,-0.1361390511254091,-0.4594649076273781,-0.0101767718889502,-0.0305858128935532,0.0303947905711362,-0.0079956407497369,-0.0110962578419731,-0.0930869245332081,0.99556380008934,0.0068623145210035,-0.0015980815387012,10.606875075725425,0.0468344931032317,-0.0210862688050114,1.174531410793138,-0.7663031904406222,1.7374593714227515,0.5438305840917148,1162.349105942416,1149.3079655588588,1163.75409554236,1179.1116352175286,339.15776261765103,398.39799536443894,-635.3130376778148,220.24960166741016,163.4196564936746
0.325,2.2994586065992366,-0.4379207933206727,-0.222600531003714,-0.0014335202039012,-0.0308285018828185,0.0295172949540294,-0.0079758765726565,-0.0111955168541143,-0.0930225809754352,0.995568850828952,0.0052344324284622,-0.0034943376114375,10.610228514027485,0.0462502987961743,-0.0208482730789531,1.1766824834905427,-0.766251993958517,1.7374483776019267,0.5467753214935814,1163.3694608378487,1150.0949555711652,1161.6234066478971,1179.561620510477,395.9955667686696,166.26560482159206,-881.0446453048819,81.54437300231614,163.4194956703742
0.3275,2.267920657966177,-0.6564670669116272,-0.0203745560397066,0.0065661484600726,-0.0315040888459466,0.0288892677838295,-0.0079575698640002,-0.0112995032069365,-0.0929636296359117,0.9955733215029045,0.0043587854092751,-0.0046847017691648,10.612341189612582,0.0456544661850906,-0.0206351965546918,1.1788293827994116,-0.7662068779995999,1.7374320855074132,0.5497293023555984,1164.3290837762593,1150.1392935829667,1159.3488723158355,1179.51935708254,388.3957336772706,-103.2326481558356,-953.5283962617078,-133.7728702266303,163.41946491403925
0.33,2.0802706585071014,-0.8153944111515465,0.1834436469716481,0.0131951082614112,-0.0331191451685511,0.0285670471009908,-0.0079482310329333,-0.0114035929488917,-0.0929097831440104,0.99557723196031,0.0042383467823125,-0.0052645477849151,10.61322779169872,0.0450434031220016,-0.0204526297335059,1.1809625749076635,-0.766167608978141,1.7374098560328528,0.55269257289901,1165.311439506235,1149.578792330386,1156.8557646665884,1178.892756159344,415.4101897184315,-349.636326202062,-1083.3103523842046,-430.5913512429011,163.41954239765937
0.3325,1.72224571418807,-0.8995697764495897,0.416804552385786,0.0186802406457368,-0.036376043342839,0.028797333611153,-0.0079554230732134,-0.0115019185033016,-0.0928594863887873,0.995580735455839,0.0048348628187319,-0.0053624332599846,10.61292343635928,0.0444107890178279,-0.0203067929536886,1.1830740328854152,-0.7661337995071584,1.7373827419520196,0.5556637737133052,1166.4061347248514,1148.3911119519564,1153.9323205539145,1177.3664003263257,373.4839457407812,-477.39302409095177,-1023.4710561225248,-686.4312480706752,163.41976270835528
0.335,1.3580975652800955,-0.8568459334075577,0.5847644023435193,0.0213426862403376,-0.0399638430829122,0.0296104233615278,-0.0079788947204117,-0.011594317330067,-0.0928125622580499,0.9955838531355226,0.0061983887650063,-0.0049612259433416,10.611481540731823,0.0437619431387945,-0.020185301491483,1.1851575139632768,-0.7661048418864754,1.737352358150419,0.558641007337568,1167.1788592349387,1147.1918272099313,1151.738409385976,1175.4605999189905,270.79509686463985,-461.39864799279127,-798.8031098222102,-867.6922319748874,163.42005465104583
0.3375,0.9699963403999908,-0.6860855386766158,0.6971674228002605,0.0226920123097031,-0.0434785341236275,0.0312446867966218,-0.0080122041015123,-0.0116801584855981,-0.0927701106949091,0.9955865434007946,0.0083391768735795,-0.0039431355980067,10.608969419283632,0.0430993783195846,-0.0200630540082709,1.1872092811553443,-0.7660803755877715,1.7373201155193563,0.561623037967734,1167.7601102091746,1146.0841187119925,1149.9383050048032,1173.0279391664512,213.5087734482111,-402.45274475205366,-688.116789648256,-1135.587837524098,163.42046247555157
0.34,0.5018750341335141,-0.3537802880529105,0.7324255520158433,0.0236761005834308,-0.046311266000314,0.0343407167411052,-0.0080518608477046,-0.0117541025997173,-0.0927320514203362,0.9955889076726632,0.0111561506940035,-0.0022875606228628,10.605463858184512,0.0424144271615003,-0.0199254382098687,1.1892280381151807,-0.7660584566524362,1.737288513361497,0.5646080646725234,1168.24640310218,1145.1795634861708,1148.2978254377347,1169.78266073137,152.56602875556368,-232.346238085074,-516.6341407369596,-1192.385868387463,163.42109069157445
0.3425,0.1115254281343999,-0.0053799993672371,0.6596163997161959,0.0243284848087564,-0.0471041943880706,0.0376260454160978,-0.0080978413832788,-0.0118082732788507,-0.0926941662251809,0.995591433901716,0.0144845030193438,-7.271962175022569e-05,10.601047406573311,0.0416922000658252,-0.0197695647764628,1.191214525522433,-0.7660376134048383,1.737258959446587,0.5675952145740637,1168.5229403529524,1144.922387521567,1147.3551343011184,1167.066009824514,100.43054291568288,3.6305370115769593,-300.8842608146094,-1025.963650399989,163.42173404825087
0.345,-0.2860468516913989,0.3639969358568286,0.4786389576572971,0.0247555463779903,-0.0463039144556197,0.0406766193738319,-0.0081462249200503,-0.0118429885401943,-0.0926561180423002,0.995594180900966,0.0183070347256171,0.0027023545258322,10.595805542167575,0.0409356312464417,-0.0195839665063838,1.193170646084009,-0.7660172002840172,1.737232343453459,0.5705835786635427,1168.7485558167584,1145.1977161712289,1146.7934041336616,1164.65284247937,93.67048739413795,177.7084889462001,-175.76372220696595,-874.7586997498265,163.4225074635859
0.3475,-0.6919550748341349,0.7106591236178713,0.2272079743696332,0.024665353702749,-0.0442876505217688,0.0427044614521333,-0.0081908779741526,-0.0118650639549283,-0.0926185243692089,0.995597060765045,0.0227223422696503,0.0060846296809357,10.589822784943038,0.0401620329629248,-0.0193528329120992,1.1950990563541968,-0.7659972131288298,1.7372094865038437,0.5735723411038531,1168.9912927899231,1145.810929966298,1146.4763156900835,1162.6922163257648,108.75170847953076,281.76796654583967,-88.75060520317666,-643.4151965770064,163.4233932742013
0.35,-1.0977079968004604,0.9900319521044684,-0.0643978335269955,0.0235581027627865,-0.0409009489302733,0.042863382608036,-0.0082284421811572,-0.0118834536372406,-0.0925834879403329,0.9955998002482696,0.0278628799586781,0.0100577420914165,10.583179387736275,0.0393941145966962,-0.0190684101848108,1.1970026823802349,-0.7659762689315281,1.7371920527453386,0.576560981401793,1169.292314359156,1146.606556003958,1146.3496511076455,1161.435766496485,142.0931757184022,328.0746899932671,-38.693445799208746,-375.36819965853664,163.4244200997802
0.3524999999999999,-1.550344689264994,1.217290695439578,-0.3933104193540294,0.0206478495974343,-0.0359438449019892,0.0409235038666216,-0.0082585955130666,-0.0119009245554389,-0.0925501759680766,0.9956024473682648,0.033721382772034,0.0145262031865349,10.57594872099129,0.0386403437025634,-0.0187331750939512,1.198884651831264,-0.7659540253939141,1.7371802626342563,0.579551175247663,1169.7017586685151,1147.4513034162644,1146.2828484610875,1160.815375327472,146.66393748034503,254.2995784663188,-26.32884262216093,-87.59727247384124,163.42582225855824
0.3549999999999999,-1.8610279900990043,1.3146337531042835,-0.6084321446448218,0.0166495212074692,-0.031758886396694,0.0381349384193771,-0.0082838659520392,-0.0119181156448985,-0.0925164624968346,0.9956051723389936,0.0402368596015519,0.0193304783049537,10.568196724557168,0.0379048514347104,-0.0183577505368137,1.2007473784577067,-0.7659315466487555,1.737173566926869,0.5825443246177983,1170.0256340465576,1147.8780538962897,1146.2180068945347,1160.9977801341158,108.01228084787898,93.27108160214256,-38.01012236190214,189.33956108326112,163.42713732453632
0.3574999999999999,-2.0506468272774288,1.3363684909487037,-0.7356572784946903,0.0110366745986993,-0.0280509953571659,0.0351571468470203,-0.0083047335705553,-0.0119268271029268,-0.0924815149226688,0.9956081446559828,0.0471443529621606,0.0243391197694862,10.559981154336464,0.0371705471353943,-0.0179499343090701,1.2025928737148548,-0.7659107326818785,1.737171092430364,0.585542143193016,1170.2418200727543,1147.9176588242751,1146.0927978492782,1161.7620731328884,53.51249460354661,-61.75904553865615,-65.40644029532808,419.0710754013249,163.4286103475739
0.3599999999999999,-2.0870002634438585,1.3160916387884563,-0.787139661450238,0.0031640832621557,-0.0244494137045575,0.0322174913024023,-0.0083246088912759,-0.0119186086240626,-0.092442723761989,0.995611677234776,0.054167451291857,0.0293638848288176,10.551352767846229,0.0364206797853896,-0.0175243303296363,1.2044217583598211,-0.7658928780979843,1.7371717959137107,0.5885460527391024,1170.2931965195755,1147.5692586685964,1145.8909746930583,1163.0931355111225,-19.896296617389435,-170.56712703133584,-69.23572466403124,512.2006616530593,163.43056713571443
0.3624999999999999,-1.9383085780875364,1.293040126267223,-0.75994350186456,-0.0035510657746524,-0.0221873390132041,0.0304039443045079,-0.0083448890702906,-0.0118903220729016,-0.0923995315256912,0.9956158461931373,0.0611257859174378,0.0342747107472817,10.542355480528427,0.0356510522772117,-0.0170887916173311,1.2062332442961308,-0.7658783378286893,1.737174978082623,0.591558311548613,1170.1423385896676,1147.0648231891184,1145.746619225958,1164.3230764411535,-91.74975431078556,-212.523582896574,-27.80628938971856,462.7775621093402,163.43236008456248
0.3649999999999999,-1.6096707049210155,1.2934830875963599,-0.6816487153177208,-0.0096313551684099,-0.0202697042053389,0.0290430475222921,-0.0083667467824158,-0.0118445280020547,-0.0923529412414186,0.995620517005872,0.0679476174108366,0.0389636482047387,10.533026489503706,0.0348711868043936,-0.0166484828303413,1.2080254875316367,-0.7658678495034751,1.7371799383044464,0.5945794642098262,1169.8344477480216,1146.5066407541135,1145.7519432461097,1165.4070233216692,-132.41428905089367,-210.16828102269733,46.607959153516234,374.6017052150816,163.43432685562232
0.3674999999999999,-1.1597784015513943,1.3230708665747288,-0.5748145036920702,-0.0145875524377035,-0.0180997584795988,0.0278399599816575,-0.008390171188892,-0.0117832340189401,-0.0923055433575366,0.9956254254970492,0.0745381020679548,0.0433529982261725,10.523396303108102,0.0340888268941031,-0.0162049562994899,1.2097966967196316,-0.7658614643727216,1.7371860843201952,0.5976091184046572,1169.4802671444131,1146.0139817840047,1145.9796590217256,1166.1960849672291,-125.13545786841848,-164.6452467548896,159.5231354877795,217.5680978068156,163.43644140774663
0.3699999999999999,-0.6237584625312643,1.3833973364653809,-0.4451925877608567,-0.0175157673095686,-0.0151617563813116,0.0266788442379225,-0.0084180536145427,-0.0117141257623371,-0.0922610669881998,0.9956301107249552,0.080919956597778,0.0473217715018207,10.513489241819324,0.0333255140988459,-0.0157647201349956,1.211545211185995,-0.7658578403394749,1.7371931083070915,0.6006446322647628,1169.2087704586795,1145.683414520339,1146.5495589235486,1166.4948638107032,-67.41954791796155,-101.48599039162028,327.49921231575144,9.293720940058838,163.43873772858416
0.3724999999999999,0.0187912126343798,1.474193340074576,-0.2750096432204783,-0.0178334801968751,-0.0107407206165884,0.0254285841545966,-0.0084542687947688,-0.0116461457907483,-0.0922223139822802,0.995634175660097,0.0871397187835794,0.0507376281742144,10.503323414826095,0.0326052834831329,-0.0153358545120858,1.213270312981959,-0.7658552047568061,1.7372014901975295,0.6036831266322975,1169.1431694048233,1145.5065518320469,1147.6171550833044,1166.2425535719294,32.39742591204046,-32.83151228324638,436.693116646256,-181.40009742619424,163.4417069367609
0.375,0.4778010701251672,1.5525698351871207,-0.1304680584646672,-0.0153937185118403,-0.006783051775233,0.0246480213702834,-0.0085005756128429,-0.0115817773486463,-0.0921851112659757,0.9956379611101468,0.0931049510234858,0.0535075669810379,10.4929110845155,0.031935168626383,-0.0149225497279074,1.2149728394815402,-0.7658531070608247,1.7372111472364755,0.6067225244871918,1169.3707575882397,1145.5192569589228,1148.7330245067799,1165.5878633235723,144.37162078579587,25.727563669761345,455.582021698228,-320.5053938571379,163.44436102106553
0.3775,0.7868684179003286,1.6240929946203062,0.0017432731364735,-0.0114461836745674,-0.0031106409422276,0.0243490553364608,-0.0085558310013397,-0.0115176211424247,-0.0921474312488077,0.9956417023971555,0.0985962355340619,0.0555927126702504,10.482259385538018,0.0313064854191285,-0.014522751818116,1.2166547827772445,-0.7658523537689952,1.7372213995994512,0.609761885166661,1169.8650275087523,1145.6351896503957,1149.8950651917955,1164.6400266026435,244.49138093100353,56.982494499470654,471.0582897048876,-434.32878839244,163.44720270485726
0.38,0.9478312432773573,1.693047230437241,0.1240080843200805,-0.0067048146174932,0.0011425093006427,0.0248704240451335,-0.0086191567882013,-0.0114487827962692,-0.0921047599877701,0.9956458822356998,0.1033700052138967,0.0569513222553996,10.471371394932667,0.030706046997707,-0.0141350888729595,1.2183183106786408,-0.7658541192452633,1.7372316178855705,0.6128009693211796,1170.5932144928947,1145.80416943142,1151.0883159553043,1163.41621938161,249.05672254126307,54.46865563449132,372.1917136079807,-427.2771620211184,163.4508294801322
0.3825,0.9103158773412712,1.725959670549294,0.1802732514603574,-0.0031671940634356,0.0050184971995289,0.0259181706623427,-0.0086869600508942,-0.0113743741441131,-0.0920542031656067,0.995650812819818,0.1072698085536039,0.0576107412306767,10.460246450997683,0.0301287847652104,-0.0137504853087319,1.2199648974153878,-0.765858339156853,1.7372411199932796,0.6158408825702762,1171.1103111214586,1145.907532928568,1151.7560237598354,1162.503640792538,131.6320979553892,20.937049400072265,178.50643257588655,-309.2104915082925,163.4540314420726
0.385,0.7250098422392863,1.7155895764350735,0.179102710566514,-0.0001383289721656,0.0096550667008822,0.0271330656829822,-0.0087519107396739,-0.0112984624661104,-0.0919920879573905,0.9956568551489504,0.1102477426885419,0.0576910482654271,10.44888120449812,0.0295796897309998,-0.0133498316890751,1.2215947446812376,-0.7658647022123736,1.7372498010679247,0.6188837336420044,1171.2513749826717,1145.9088546784203,1151.9808481181835,1161.8701669240684,-45.74126343841267,-23.10970706112128,18.544785608764847,-192.03480299192944,163.4574176898929
0.3875,0.4550710398681415,1.6575053136915818,0.1319385371036021,0.0024093048266163,0.0147732340536125,0.0281931586672646,-0.0088008434491738,-0.0112316903778933,-0.0919223095183309,0.995663642743523,0.1123944381866729,0.0574506222892798,10.437270837142451,0.0290772837380063,-0.0128985754989467,1.2232064333466015,-0.7658713468850721,1.7372593815722428,0.6219316261361825,1170.8816048042663,1145.7919843932625,1151.8487476878793,1161.5434667775785,-304.20803247948214,-77.46530645367777,-114.41010160838222,-51.862341499418065,163.46095465633428
0.39,0.1454614786886974,1.53975029465658,0.0424026432312518,0.0035536235783529,0.0197301784326606,0.0287734620084718,-0.0088243870339984,-0.0111827898120766,-0.0918507954117193,0.9956706107761956,0.1137853038286695,0.0570711585005479,10.4254128483598,0.0286351053175292,-0.0123724602850246,1.224797069995485,-0.7658763661889542,1.7372714308325692,0.6249860565824387,1169.7303348202743,1145.521528146152,1151.4087976101418,1161.6108552165715,-698.3088853424755,-146.435008957951,-213.00615241020728,110.89671375329988,163.46467083188406
0.3925,-0.1773550983672175,1.3486596280784116,-0.087166991496467,0.0019560671860295,0.0246479757144729,0.028735854750862,-0.0088202827705934,-0.0111561773428863,-0.0917820402409074,0.9956773144662024,0.1144408096645439,0.0565862824078863,10.413309394593828,0.0282567247233587,-0.0117663286550534,1.2263625709133452,-0.7658790148684651,1.7372859618738958,0.628047578876117,1167.390060377554,1145.0598093484728,1150.7837169258282,1162.0979503463448,-999.4392801895619,-177.9904276614614,-202.92465957318183,229.41725614250552,163.4693343383617
0.395,-0.3429138232293889,1.17465505180086,-0.1911907694957322,-0.0014879161422156,0.0275577363133619,0.0281109706157474,-0.0087925370404414,-0.0111522304580866,-0.0917166697893745,0.9956836561496676,0.1143337449566708,0.0559019781880147,10.400968346287629,0.0279365274424542,-0.011092004723357,1.2278981059086258,-0.765879400987981,1.7373023895698732,0.6311156565531345,1164.7331384193265,1144.6315760078448,1150.394174312276,1162.757941497284,-1158.9844797175815,-156.71516771149055,-87.34991336314117,289.39458400191114,163.47338855358268
0.3975,-0.3611118797035614,1.021531610810979,-0.2668897527975825,-0.0053130581740831,0.0293456241203138,0.0270454929012577,-0.0087484237624823,-0.0111607349760142,-0.0916553185928698,0.9956896240533444,0.1132485742481426,0.0548474734535646,10.388404129675331,0.0276433885295558,-0.0103722828213018,1.2293990020947327,-0.7658781733230559,1.7373196570423264,0.6341899238457677,1161.5951379789662,1144.2762335099153,1150.3469673590123,1163.5449232663543,-1409.391076176142,-111.94743035371164,77.67926032693133,342.50388913228534,163.47761471703473
0.4,-0.2275191209950256,0.8939091305103695,-0.3055636416601237,-0.0081374835053625,0.030768777572042,0.0255134471479302,-0.0086935909595304,-0.0111704068953874,-0.0915973912883554,0.9956953473360552,0.1109711504632099,0.0532962882022591,10.375635820996258,0.0273431464538118,-0.0096268527199421,1.230860777331657,-0.7658764435203232,1.737337373251075,0.6372705833045627,1157.6861830384455,1144.0718388560763,1150.7825706139104,1164.4704609429455,-1391.5588080964415,-24.65734257862093,231.16875594732824,316.8032223861698,163.48288228264627
0.4025,-0.0302176561036661,0.8440575824066905,-0.2879335212241908,-0.0083540889482946,0.0318474105220718,0.024238057413192,-0.0086336396558451,-0.0111720402664087,-0.0915440997816153,0.9957007681253311,0.1073559197308024,0.0511397978807846,10.362685910661323,0.0270069720616657,-0.0088754556595951,1.2322793330273758,-0.765874231594169,1.7373565788184715,0.6403574364422256,1154.637343938484,1144.152946797022,1151.5028111387492,1165.1289393782852,-1104.276888931735,85.60144920888881,322.40024484385657,227.37235496083463,163.48743356902256
0.405,0.1917488443319129,0.8467546485154906,-0.2206464642629625,-0.0069550026929011,0.0333237195089478,0.0231506413155569,-0.0085741999438028,-0.011159146171559,-0.0914953036262253,0.9957059238647336,0.1023390609950654,0.0482878646148271,10.349578542498872,0.0266131828258318,-0.0081380606253897,1.2336513219446363,-0.7658721239675794,1.7373793922675664,0.6434495290854175,1152.164798593787,1144.4998461021207,1152.3945718381299,1165.6073227177496,-851.6556687015046,171.0357794790069,341.91951537932226,160.39530593884578,163.49215054026445
0.4075,0.3934104602026031,0.8784039943897594,-0.1203962403035442,-0.0049696937250619,0.0353441726227374,0.0223566690664992,-0.0085200887748342,-0.0111277410867477,-0.0914508476875189,0.9957108336975776,0.0959303027466029,0.0446856600866378,10.336337310376557,0.0261466859379453,-0.0074326523964851,1.2349745140029815,-0.7658702352709562,1.7374067900841934,0.6465459655800901,1150.3790655949765,1145.0081256944172,1153.2124087156456,1165.9309159079796,-518.7596335043959,216.59492075573303,253.83410873232583,97.29070288649373,163.49700337933336
0.41,0.5403243284055017,0.9229265566127804,0.003144457166658,-0.0026632929259546,0.0378900125911181,0.0220573872424311,-0.0084741539402321,-0.0110796822863569,-0.0914109796372531,0.995715431734011,0.0882767848184418,0.0403431084292016,10.322982601495674,0.0256069989263068,-0.0067712576955776,1.2362478790657505,-0.7658681662231464,1.7374379541311795,0.6496465013700053,1149.571000426265,1145.5828207058992,1153.6637423817915,1166.093776232182,-121.02295075142126,230.4166783646904,54.46438917720111,42.23323940996121,163.5020182429444
0.4125,0.6385944534868961,0.9669412424808324,0.1520591011721542,0.0001100052143092,0.0411671720798401,0.0223624512769847,-0.008438552719078,-0.0110208357505407,-0.0913815600225128,0.99571909562572,0.0796232600091256,0.0353026850824237,10.309529683516702,0.0250041125615864,-0.0061629877074211,1.2374718250047063,-0.7658657591789934,1.7374722353134355,0.6527507131901618,1149.7739508412194,1146.1602090862407,1153.4847306615316,1166.1420821050294,253.9847689750784,168.05145415942192,-212.0503585955246,-4.67240615498667,163.50822106950403
0.415,0.6594826041171556,0.98418573082027,0.2568177237939365,0.0021239836964999,0.0439468822636454,0.0232166490912493,-0.0084122097232423,-0.0109560201140987,-0.0913655780595546,0.9957215050597112,0.0702022498661856,0.0296818277634927,10.295986523553204,0.0243456221900327,-0.0056087830789529,1.238648598053036,-0.7658632838611511,1.7375095270702263,0.6558570654439664,1150.8409242711405,1146.4230779766965,1152.6034905888139,1166.0704142014072,570.8614608312531,38.36253932599941,-509.5985122639429,-55.8905650138064,163.5135425500498
0.4174999999999999,0.6331725180152644,0.9752790849827137,0.3215691283199659,0.0035482158463329,0.0465795107050406,0.0245227473678902,-0.0083961791112594,-0.0108904491337229,-0.0913624450706599,0.9957226464859752,0.0602704062153831,0.0235636475903209,10.28235206172592,0.0236416385617124,-0.0051140270673981,1.2397820732012328,-0.7658606050955364,1.737549492015456,0.6589628421183387,1152.6282581453756,1146.3520217828707,1150.936738100212,1165.8626292799604,881.8753399460182,-117.7639104364983,-887.1804854971377,-133.1300332247806,163.5190202228904
0.4199999999999999,0.5692397412893173,0.9353204078152452,0.3403652437203336,0.0046439370024038,0.0494104740228774,0.0262937500145649,-0.0083945866391291,-0.0108285378090876,-0.0913698670802815,0.995722646564261,0.0500814354244373,0.01697289220466,10.268614549079167,0.0229021890603251,-0.0046908808462906,1.240877495193952,-0.7658582233947169,1.737591476778401,0.6620671927322661,1155.2503009708705,1145.834258424514,1148.1675881613282,1165.4047640352833,981.0620785276104,-255.69968471686457,-1105.1465248221111,-209.4439987115036,163.52577155450518
0.4224999999999999,0.5004555212442178,0.880898799761309,0.3068080020714072,0.0054294737868987,0.0515847755868479,0.0277145857686733,-0.008409984608579,-0.0107702914765584,-0.0913831564471266,0.9957219130114514,0.0397997860834084,0.0099618435615062,10.254750035201006,0.0221273630112031,-0.0043474602834494,1.2419411317751519,-0.7658563326493883,1.7376356180868295,0.6651688074036811,1157.5335685380137,1145.0735233592864,1145.4110054761015,1164.8154092864029,861.416542060123,-350.48590403107454,-1137.8669612523472,-280.51020409848184,163.5315442539277
0.4249999999999999,0.4203848021397883,0.8090317704923352,0.2330979224064463,0.0064122046297249,0.0537617940877173,0.0287611938928695,-0.0084371711944968,-0.0107111479226815,-0.091397628405631,0.9957209670350468,0.029481922898666,0.0027321169580862,10.240721829088455,0.0213055446659625,-0.0040723458802689,1.2429795714916445,-0.7658555757932665,1.7376821416387078,0.6682670277190955,1159.5573836811711,1144.0818289043586,1142.4782533550665,1164.0022130147909,717.7525643455276,-411.71601493615486,-1157.4553585363435,-356.28184523156926,163.53746682413484
0.4274999999999999,0.3303423822658722,0.7269564976332042,0.1410470981728885,0.0073239213936335,0.0559376637216352,0.0293341278852442,-0.008465914000312,-0.0106424955262375,-0.0914083576434737,0.9957204379898874,0.0190888894563439,-0.0044242107657239,10.226481602489695,0.0204153027735925,-0.0038409671944454,1.2439987537228603,-0.7658566133642783,1.7377308576435027,0.6713628129925928,1161.122331359741,1143.0149432846056,1139.6237286834198,1163.034000060245,469.57868385238686,-417.2499845452872,-1076.1235501083763,-408.1000148874406,163.54351198014484
0.4299999999999999,0.2264090594987169,0.6414232879717371,0.0488854399971526,0.0077094900918175,0.0577229020752587,0.029289243919924,-0.0084856747816172,-0.010557174440272,-0.0914072897318772,0.9957212300234932,0.0086045063361764,-0.0112134477803112,10.211971908698276,0.0194400518414898,-0.0036258907590614,1.245002849408452,-0.7658610715583853,1.7377806116838448,0.6744586673283332,1161.905277100433,1141.9955789816322,1137.0976356045246,1161.9617129403537,128.41847846184453,-412.4519622425847,-992.7038564409022,-466.17350775577466,163.54970309656002
0.4324999999999999,0.0804217249252086,0.5507523178529389,-0.0354571949659741,0.0080930064597446,0.0589463387815759,0.0285831278644273,-0.008489658282734,-0.0104507595543056,-0.0913897964385416,0.9957238727526552,-0.0019353741259704,-0.01742543600525,10.197129237979617,0.0183719315310954,-0.0034064416613559,1.2459936270984395,-0.7658702837996547,1.7378302497501117,0.6775566107472915,1161.7644237520503,1140.9526834733927,1134.6602094012153,1160.703132521466,-237.96214539775045,-345.62091006478084,-778.2774541787596,-433.10586954912606,163.55729905726696
0.4349999999999999,-0.0651458513627425,0.4950228609000007,-0.0707861322125922,0.0089632230602995,0.0591276484841581,0.0275903480500616,-0.0084772202294032,-0.0103253557684181,-0.0913540932608369,0.9957285137710418,-0.0123641107900616,-0.0229775529280527,10.181887927614177,0.0172214923371091,-0.0031740500055041,1.2469701110399618,-0.7658848536983813,1.7378778450933956,0.6806580717767394,1160.7154663734443,1140.2674744313083,1133.2062483336308,1159.796183592608,-598.5823965724643,-242.36720405478968,-459.303056374301,-309.0486768736807,163.5637665096368
0.4375,-0.2362913772028895,0.4591917756930629,-0.0666976282853097,0.0102323899580851,0.0590271807140885,0.0265307143049821,-0.0084513150494117,-0.010191826977892,-0.0913042608738126,0.9957346388084638,-0.022347079885911,-0.0278614610349379,10.166184522512912,0.016022285475541,-0.0029258804688444,1.2479286860382959,-0.7659040674688569,1.737922144309318,0.683764756209968,1158.7715117691882,1139.7408474531187,1132.3636941193436,1159.1578891370975,-1024.15066077965,-216.39371168716917,-245.83219996384264,-203.26030933833843,163.57037522532477
0.44,-0.4458603127450965,0.4141331813078004,-0.0312595131036319,0.0107620017133092,0.0598999588455158,0.0258106277970231,-0.0084138713312411,-0.0100611223179675,-0.0912484176859425,0.9957413720638792,-0.0315679303173577,-0.03206592950253,10.149960256268423,0.0148079863465646,-0.0026560313189349,1.2488638230360345,-0.7659276843166274,1.7379635982268156,0.6868784000681756,1155.594713069546,1139.1855058728725,1131.9770873338116,1158.7798820459163,-1268.4697447870335,-210.3186921614904,-59.30592951171997,-74.05197231132652,163.5784675078177
0.4425,-0.58467148845754,0.3455636195602857,0.0029613378556158,0.0092119818579005,0.0617843524354063,0.0260235242592519,-0.0083699327197471,-0.009938210489104,-0.0911897372830542,0.995748327229148,-0.039843152093804,-0.0356679654772271,10.133162396009887,0.0135980917237739,-0.0023679549744029,1.2497687765553442,-0.7659556816023437,1.7380022728807367,0.6899991715835555,1152.429163045253,1138.6892539923113,1132.0671644717852,1158.7876292755411,-1323.7348411831579,-225.89042088779917,90.87419816701177,56.90400765220142,163.5853449371278
0.445,-0.6313976779187511,0.215305984561425,0.0154010740874908,0.0057731656457782,0.0640656510398385,0.0269655612584768,-0.0083238768800602,-0.0098238633391792,-0.0911301763020656,0.995755282010618,-0.0470928660703285,-0.038752704805598,10.115746307227996,0.0124011754738333,-0.002065266933371,1.250636213173071,-0.7659876002529638,1.7380388487421812,0.6931259790078041,1148.9760388636303,1138.0560537684335,1132.4314583246467,1159.0644020841771,-1390.1044653332508,-285.0238180281392,169.2305658381882,138.23860604456956,163.59236017605497
0.4475,-0.5740996167332113,0.0277235997530153,-0.0032048325242606,0.0020979522920122,0.0657129104203707,0.0280407181947054,-0.0082770445045828,-0.0097220771621392,-0.0910695564505717,0.9957622068526772,-0.0531946449800655,-0.0413493525603412,10.097678436542799,0.0112326233238908,-0.0017446992642702,1.2514586766117413,-0.7660234265346262,1.7380741365640724,0.6962579478972643,1145.4786407185868,1137.2641349021703,1132.913317300976,1159.478822305764,-1365.0040909020831,-355.9883133180389,199.43130280184943,174.49220776343267,163.59948863940517
0.45,-0.3893879163534906,-0.2141637164450562,-0.0599619964063696,-0.0003788634868017,0.0659309013811073,0.0287787126005442,-0.0082258640623955,-0.0096418930081904,-0.0910148235070848,0.9957684124514492,-0.0579506338002979,-0.0433919443814252,10.078937541150047,0.0101184499899815,-0.0013914716422634,1.252229140983072,-0.7660622676501945,1.7381094702053523,0.6993950849958817,1142.1510184091198,1136.2761122018433,1133.428614838656,1159.9368631229945,-1376.3735026489471,-470.14206479802806,214.3522771345031,181.69294856470495,163.60675169641456
0.4525,-0.0517558969031586,-0.5315918234253689,-0.1549484234904363,-0.0014819837181498,0.064398897872151,0.0289306740941813,-0.0081668552468203,-0.0095873628315749,-0.0909733710094292,0.9957732173691864,-0.0612782683241488,-0.044832462603493,10.059511549649516,0.0090713805857052,-0.0009943472292531,1.252941700328508,-0.7661033771875402,1.738145192785998,0.7025373740261711,1138.596773205342,1134.9134245781804,1133.9850786866486,1160.3872870485875,-1205.6067923801936,-517.1752796918095,185.03499131702463,131.26118868085527,163.6156194761516
0.455,0.2914035806665613,-0.7922976941431502,-0.2353956801928433,-0.0011496419194183,0.0620175689290927,0.0283437556999414,-0.00810795196259,-0.0095498790686794,-0.0909466858139588,0.9957764993539377,-0.0633400286078436,-0.0458741489621958,10.039393404057952,0.0080742958059339,-0.0005757487578459,1.2535920930228992,-0.7661458284139054,1.7381822814050567,0.7056832206708489,1136.1229844472189,1133.6902358033842,1134.353789795241,1160.5931690663988,-876.5016616574022,-493.6405887480301,123.67907483253464,33.623143876229705,163.62313277009818
0.4575,0.6551445856501,-1.0278720363171054,-0.2899773372844909,0.0005916126870793,0.059302459071511,0.0270542829491232,-0.0080551265086455,-0.0095130201030546,-0.0909303967526145,0.9957787615490667,-0.0644671264977318,-0.0466893303730631,10.018581169953828,0.0070892812519294,-0.0001572622952038,1.2541779755960951,-0.7661887691706674,1.7382225138268916,0.7088304052184345,1134.214264897055,1132.4452216344403,1134.603474060811,1160.5554027679686,-720.1886510646993,-545.772997014546,81.05836926506518,-80.65394568830008,163.63076941061283
0.46,1.0722883483072951,-1.2711599962032367,-0.3024232396191324,0.0044225186768848,0.0558590822088836,0.025049882049588,-0.0080129022531179,-0.0094642056001001,-0.0909175037158606,0.9957807267062404,-0.0649231259208634,-0.0474068293621467,9.997079447595214,0.0060869522825624,0.0002419914328033,1.2546988320685835,-0.7662311897688165,1.7382681033563143,0.7119764567402457,1132.5220411918951,1130.9613708183115,1134.7590816415664,1160.1898993379573,-544.0481560018266,-546.8069948071384,29.135270387723697,-190.14629909074736,163.64006920278896
0.4625,1.3846936104718937,-1.437935141306817,-0.2631928298907956,0.0084623303797915,0.0526974139846207,0.0235187949157108,-0.0079807871546595,-0.0093961467360551,-0.0908991319508943,0.9957832824332512,-0.0648806002905143,-0.0480366831943581,9.974898324210756,0.0050495154970126,0.0006151625295828,1.2551557980181371,-0.7662730484873829,1.7383203493043875,0.7151200873094063,1131.494024117046,1129.7111866604043,1134.74915041275,1159.604671272515,-372.17075115922813,-518.2870521102353,-48.139433042433616,-296.08881247845574,163.647926458563
0.465,1.6570534638500412,-1.5640958623949397,-0.1813151904872759,0.0126203256488482,0.0491925202755971,0.0226811166056085,-0.0079559156904397,-0.0093129802986378,-0.0908680415082512,0.9957870767023052,-0.0642944708674692,-0.0485128004947426,9.952053374180895,0.0039869176938484,0.0009632415607081,1.255551180047778,-0.7663146870328128,1.7383792288150903,0.7182595099945491,1130.6611874360992,1128.3699355577603,1134.518384476354,1158.709455275565,-371.1159227225377,-632.3943317907828,-187.23602003556132,-473.2011552772288,163.65588742974808
0.4675,1.950668028362986,-1.6631297837778243,-0.0562325350275828,0.0171918116267691,0.0443140252018697,0.0225946706272588,-0.0079372970670755,-0.0092184537451136,-0.0908222393153246,0.9957922708845968,-0.0631295551480724,-0.0488003861597335,9.928561071408753,0.0029084159583983,0.0012825530135248,1.2558879754092525,-0.7663570451573185,1.7384440258551643,0.7213944864744338,1129.6384445034332,1126.5492150014506,1133.812970312572,1157.2386654961288,-407.0167616441264,-711.6800454870365,-362.8219817179339,-612.1589837778623,163.66555090501143
0.47,2.177049815747724,-1.6987806981679199,0.0533265157196765,0.0207345827556571,0.0396169566655094,0.0230569021722318,-0.0079248335453155,-0.009123014991115,-0.0907667471859729,0.9957983179117758,-0.0612217057431799,-0.0488650005241957,9.904440218391809,0.0018401393680811,0.0015695693824526,1.256169053815782,-0.7664000229620996,1.7385140351208768,0.7245247501272706,1128.6261036278784,1124.8115353303251,1132.7042745677643,1155.6486603566757,-452.4516547394792,-734.8652738209232,-588.2842887040164,-717.2689723578053,163.6736888113234
0.4725,2.3796426916145705,-1.6892792205473803,0.1540237407083181,0.0246157919063639,0.0347851023386871,0.023598219269441,-0.0079120451240123,-0.009047945703754,-0.0907085973593348,0.995804431839784,-0.0582104299060098,-0.0485214961001503,9.879713505530985,0.0008339440179862,0.0018408249105163,1.2563963907559283,-0.766443181949591,1.7385880202871185,0.7276520153989487,1127.3761862297358,1122.874888632346,1130.871548869052,1153.6523206343395,-533.9642431684747,-789.5085352271501,-870.2434037100821,-865.6102960567742,163.68190687408213
0.475,2.5403101698384414,-1.6541260260295605,0.2415881770670641,0.0294484905409082,0.0304974546283797,0.0240123303893669,-0.0078989313859265,-0.0090085159937944,-0.0906554311437145,0.9958097724679796,-0.0538489311290691,-0.0477205114276862,9.854402773075106,-7.165891307919087e-05,0.0020974764783335,1.2565705355535175,-0.7664873856379061,1.7386632130945903,0.7307788999422687,1125.9562824120362,1120.8639926541891,1128.353057549214,1151.3206088763918,-588.4778212128816,-790.5064537529134,-1173.0239351553323,-1006.0078113666796,163.69018546589635
0.4775,2.603781869788339,-1.6102022064694943,0.3081219681377561,0.0360117941970359,0.0271351921032555,0.0244528965809115,-0.0078822103629708,-0.0090074748578627,-0.0906118048073085,0.9958139198328996,-0.0481476372401052,-0.0463690411399197,9.828529200930673,-0.0008698360070998,0.0023486138415844,1.2566901691830323,-0.7665334814190851,1.7387377160665896,0.7339082544945265,1124.4337971236714,1118.9223563635815,1125.0064291932752,1148.6222815775063,-662.6492046235467,-800.4768686390515,-1635.0380947922697,-1253.528354354934,163.69852994748362
0.4799999999999999,2.5029223966375675,-1.5724803204756104,0.3540734617906727,0.0455447838572598,0.0237259891728078,0.0254952489599622,-0.0078554108557083,-0.0090340399220334,-0.0905747841464765,0.9958172797492704,-0.0413904278684659,-0.0443366368578542,9.80211501009018,-0.0015877723511565,0.0026108831997708,1.2567520722485164,-0.7665824792004137,1.7388100881090307,0.7370423640745414,1122.6430363889183,1116.861608310994,1120.1778670752528,1145.0529671046172,-632.9779017625762,-695.0217863331616,-1865.4330575417775,-1345.287442367694,163.70861040073515
0.4824999999999999,2.239959487492704,-1.561219926785302,0.3560622704314246,0.0537880506393441,0.0209870282671655,0.0268022186810867,-0.0078139591679535,-0.0090756396531789,-0.0905426208507668,0.9958201547382132,-0.0338939697679684,-0.0415418702096614,9.7751878829506,-0.0022563206374283,0.0028978728008668,1.256751596707828,-0.7666351561721905,1.738879648349452,0.740181940910653,1121.2689076148583,1115.4472474319157,1115.6792639055664,1141.895844365668,-515.9982060390116,-504.7331205566929,-1832.5377127200663,-1274.635117611068,163.7170600599021
0.4849999999999999,1.790651018668381,-1.5633804925840116,0.3151609337180288,0.0607413643347549,0.0179581760161373,0.0281331949948474,-0.0077536882361905,-0.0091263750232037,-0.0905141172362409,0.995822737889234,-0.0258456469015355,-0.0379109964844987,9.747783918119488,-0.0028892461421637,0.0032252266936954,1.256683448026374,-0.7666917085592022,1.738945985342817,0.7433266440097623,1120.0630453587235,1114.3379427082107,1111.0151785116525,1138.6797915165619,-496.39321553659056,-444.48061235461824,-2003.6316222451187,-1397.8355092890968,163.72555299432224
0.4874999999999999,1.0850127961440195,-1.5546572860897871,0.2207980600548017,0.0661977175091534,0.0135609189433668,0.0293652259227446,-0.0076710172089573,-0.0091882280788196,-0.0904896362903368,0.9958250074636614,-0.0172817624414031,-0.0333823434070927,9.719947734789047,-0.003480349977954,0.0036097835716363,1.2565425449539132,-0.7667518365639318,1.7390090295287244,0.7464753978661475,1118.7869415371756,1113.2248443701424,1105.6611057943408,1134.9066668192224,-450.03575931518714,-401.8627886841838,-1861.3583609966536,-1349.6236638576636,163.73578572172627
0.4899999999999999,0.4170203578961598,-1.5129126228104304,0.1139861372015344,0.0680265322220827,0.0091997699838928,0.0299946464584348,-0.0075625631059896,-0.0092636228418162,-0.0904699100733381,0.9958269050854311,-0.0082339075978191,-0.0279130623725093,9.691730400208838,-0.004022331015359,0.0040682101093927,1.256324720254956,-0.7668155043005335,1.739069237305938,0.7496257984293891,1117.8128665621475,1112.3286287647895,1101.7083867066692,1131.9316731972735,-387.35970485795366,-389.5654114495297,-1416.9647164470448,-1138.6943842892367,163.74434140966943
0.4924999999999999,-0.2553663176616466,-1.4108042033179609,-0.0056813263014571,0.0672213193810159,0.0046668268755902,0.030196261828484,-0.0074372047591804,-0.0093527131675824,-0.0904536104766001,0.9958284812671772,0.0012402426082728,-0.021715867453569,9.663187992403529,-0.0045109393880561,0.004585651577674,1.256027284491095,-0.7668823106916591,1.7391274199334232,0.7527745682784547,1116.8501430128858,1111.2770173128947,1098.5762822121055,1129.2131948977762,-394.7462985719536,-468.2757975973341,-1091.0466584923588,-1039.4324950691944,163.7529201971867
0.4949999999999999,-0.878230218421267,-1.2509954605894067,-0.1217739313391004,0.064620525473,0.0005378959115668,0.0300420407269545,-0.0073038685293524,-0.0094560745981514,-0.0904415584935522,0.9958295866642776,0.0110876830681646,-0.0150175783680844,9.634381781737368,-0.0049412783879001,0.0051462742599585,1.2556490548668182,-0.766950709518018,1.739184801596494,0.7559189178973234,1115.8391350692875,1109.987249776803,1096.2531534142074,1126.7345107219276,-425.14140425409965,-585.0443284447459,-728.7866988660419,-934.5537830925869,163.76151386881324
0.4974999999999999,-1.394170503069826,-1.027397335075618,-0.215836956628697,0.0605609469380665,-0.0028300748540878,0.0294402731439299,-0.0071707242132665,-0.0095625496923039,-0.0904307444087403,0.9958305333576856,0.0210272336794904,-0.0080616051488795,9.605375878360011,-0.0053382861798799,0.005732391208902,1.2551899130335582,-0.7670202159637697,1.7392422211970024,0.7590577961382179,1114.724435991615,1108.3517956706712,1094.9323487177755,1124.5404259823133,-515.9169523966734,-793.1340998903571,-372.384855771406,-906.1203419766109,163.77012090953323
0.5,-1.854246080588812,-0.7080916749819126,-0.2826148191467207,0.0547286684611095,-0.0057108371124422,0.0281885894717928,-0.0070455964264195,-0.0096598214467206,-0.0904167642384631,0.9958317787920904,0.0307560432338816,-0.0010963800145758,9.576237939133021,-0.0057301797119993,0.0063256070931006,1.2546503090420886,-0.7670905131627194,1.7393008723820165,0.7621919612570062,1113.2595503073044,1106.0215792773513,1094.3912291353504,1122.2039090120445,-551.0764774750376,-898.1238829310206,-57.3249353083604,-812.4701929704672,163.7804596007781
0.5025,-2.095054420228722,-0.4231731397562654,-0.2892506322639041,0.049315001042951,-0.0068295163123339,0.0267739236736255,-0.0069352621815802,-0.0097388952949127,-0.0903954692324349,0.9958337382462628,0.0400347278766774,0.0056477561370121,9.547038226768926,-0.0061373720356715,0.0069095262201415,1.2540307305508396,-0.7671615837419937,1.7393610305207596,0.7653233600315856,1111.96905360424,1103.861176256016,1094.6457240412335,1120.4780750174607,-514.0927340082721,-880.9618045341715,199.27019372439628,-648.5266541179493,163.78908038362803
0.505,-2.1898372111580167,-0.1473160316743499,-0.2422512957844646,0.0435340919766107,-0.0066127835945017,0.0252965679549283,-0.0068396514273481,-0.0097963932616824,-0.090371028382048,0.9958360666576328,0.0487196928494973,0.0120732251005711,9.517847807971178,-0.006568240385777,0.0074845184514125,1.2533312771916518,-0.767233250348834,1.7394231124793764,0.768452836789361,1110.689086637263,1101.6167702546804,1095.3875801039724,1118.9612757414548,-537.1911410901243,-976.3270734567859,382.93841007261983,-621.9284104060984,163.7977031073787
0.5075,-2.1513168596195538,0.1521945588290585,-0.1372479857071661,0.0366293529611325,-0.0053899122090608,0.0241415692973432,-0.0067517647125602,-0.0098285781590566,-0.0903513016467424,0.9958381380656006,0.05664995488661,0.0182093738401842,9.488736338373165,-0.0070339140658111,0.0080668094369132,1.2525514356589724,-0.7673060206732698,1.7394875619146923,0.7715816513621384,1109.2830978987895,1098.979540888732,1096.5604160915968,1117.3684329654304,-478.12305172315024,-943.7362448562901,444.16485049146064,-548.5219329297247,163.8080488962574
0.51,-2.012751576003524,0.373641175719183,-0.028576704249289,0.0315282555639287,-0.0042311578049474,0.0240382404375989,-0.0066688996843031,-0.0098266976530529,-0.0903383323229766,0.9958398753873888,0.0635815023867932,0.0239965163831447,9.45977119542976,-0.0075570332807605,0.0086599257188594,1.2516902644565455,-0.767380927344058,1.7395539656429646,0.7747111323015224,1108.2984713786473,1096.8980890303988,1097.6084043564297,1116.218666076806,-342.43740850843824,-805.3030420134918,409.0033477401535,-428.1517157540384,163.81666624862143
0.5124999999999998,-1.793272557150082,0.5769230172825524,0.0757308351700315,0.0275649942573845,-0.0032613786022677,0.0247131529359485,-0.0065989507932952,-0.0097829168085895,-0.0903302260510498,0.9958414773611644,0.0693119897821934,0.0291814833739871,9.431017076134385,-0.0081556346246714,0.0092404560901369,1.2507469018817707,-0.7674587344117088,1.7396215862680569,0.777841366388449,1107.570910856247,1094.9530256786647,1098.6054328302976,1115.2276743866603,-246.02874859019695,-761.8934095004527,382.2088925079694,-376.6779682853208,163.82527541160167
0.515,-1.5261716570508643,0.7762631019505373,0.1609239544351679,0.0243332702986149,-0.0022569880538676,0.0256083420188174,-0.0065473566951073,-0.0096953985130243,-0.0903220199529125,0.9958433796583012,0.0737544279292691,0.0335763410034793,9.402533629758167,-0.0088336923107845,0.0097917937107251,1.2497208655695016,-0.7675395014542522,1.739689891814274,0.7809718925181856,1107.0683276356963,1093.0886219828967,1099.5194488189695,1114.3352762353795,-154.30475698194627,-739.7685215748872,343.16055142753584,-345.1357158436164,163.83387451480402
0.5174999999999998,-1.2151070176997407,0.9785048254264562,0.2135627349227919,0.0213167906014748,-0.0006818362346591,0.0263482608009959,-0.0065127614116595,-0.0095765294718655,-0.090309215362213,0.9958458768002016,0.0770825053200134,0.0371545167199125,9.374372642238173,-0.0095620546190855,0.010316547201649,1.2486125519462483,-0.7676209279576806,1.7397596589809148,0.7841014810211422,1106.7993870713376,1091.2541830707903,1100.3212355874352,1113.501995807442,-87.10148004656723,-816.4172861052969,324.1407281518602,-372.591216995988,163.84245705883924
0.52,-0.7991338774204141,1.2232789727414404,0.2353506275244806,0.0177175712470981,0.0022334195462531,0.0270610805819431,-0.0064928674037863,-0.0094405832982261,-0.0902891696373065,0.9958490879909768,0.0795079952145475,0.0399210278361447,9.346576588956696,-0.0103080975395699,0.0108190364803217,1.2474235474087438,-0.7677009126623014,1.7398318689342915,0.7872287668456308,1106.6328202354634,1089.0065355523702,1101.1401524597288,1112.4723201503996,-59.20247649992229,-838.071301596482,269.73398340119246,-398.43213028962015,163.85273059756463
0.5224999999999999,-0.4254117323196305,1.4227897103975256,0.218644870311352,0.0151512489235091,0.0055315825473158,0.0275860430048468,-0.0064834765168018,-0.0093038461850132,-0.0902607259259228,0.9958529981057535,0.0812822552082638,0.0419322929389274,9.319177093499874,-0.0110355236182957,0.0113078207880046,1.2461567882946287,-0.7677786968379106,1.7399075709406389,0.7903512893042371,1106.503374688838,1087.063826562808,1101.6699055044412,1111.509835155994,-83.67887447561763,-788.5785174481946,163.49233435512346,-425.0829356634309,163.86126547426042
0.525,-0.0476136304393836,1.6098937510951377,0.1654771831461027,0.0139387351696528,0.0094745371167174,0.0280431832628447,-0.0064746529510198,-0.009188126401764,-0.0902238974557646,0.9958574717227964,0.0827553725432731,0.0433738932720415,9.292193177632392,-0.0116962386473128,0.0118062898429818,1.2448164463184748,-0.7678533415511425,1.7399876807867716,0.79346725193842,1106.2144258630851,1085.0636429651292,1101.9576141315044,1110.3469054720824,-203.77088992759107,-876.036398811947,41.73729093954531,-574.7564456147752,163.86976624950356
0.5274999999999999,0.3644610272369063,1.8157759109465528,0.0589882439542972,0.0151220151033329,0.0144242503846429,0.028646160924077,-0.0064571491432504,-0.009102196147327,-0.0901796567139996,0.9958624022412847,0.0840439917474233,0.0444100010139987,9.265631711657592,-0.0122745373855111,0.0123329814544007,1.2434072990624907,-0.7679252689796242,1.7400723601685795,0.7965752822903222,1105.4845202392,1082.683644568748,1101.8785919591387,1108.6360529279202,-356.32336919297774,-850.2589871545742,-122.78999078289404,-686.0463026462179,163.87991982533825
0.53,0.6393211028618038,1.9709520154592033,-0.0641249657893692,0.0181028161524881,0.0186681935640234,0.0290820369838641,-0.0064289854754789,-0.0090411940225399,-0.0901300925684907,0.995867661022997,0.0850352233264138,0.0450617690281569,9.2394878958063,-0.012786544086371,0.0128857330809075,1.2419342316667883,-0.7679969288715072,1.7401604596766058,0.7996754805739502,1104.4328090171205,1080.8123480293564,1101.34366417759,1106.916673958851,-531.6689192614372,-702.7281141243742,-333.8004593641469,-745.4753990115925,163.88833624665975
0.5324999999999999,0.8226613881362597,2.106064060454277,-0.2159882318808523,0.0216189123469422,0.0231518800472462,0.0291310158086868,-0.006392200144076,-0.0089965078049079,-0.0900757545156596,0.99587327039323,0.0855666666038435,0.0452852382707058,9.21374471731775,-0.0132560189070512,0.0134526182326694,1.2404017260848093,-0.7680706968644829,1.7402502374967483,0.8027700254715014,1102.8261756428928,1079.1700039981263,1100.209589662318,1104.9086759328623,-737.4636925488168,-608.3921694075792,-561.1384456492938,-839.5270149000218,163.89670012546725
0.535,0.9373157494284412,2.2181329750919336,-0.3813382863127975,0.0245099557817355,0.0279551187167996,0.0286905991940379,-0.0063520428399112,-0.0089684529598031,-0.0900226558838851,0.9958786541547368,0.0856564232260367,0.0450057722673275,9.188372831207772,-0.0136835457713911,0.0140166687907377,1.2388137191262825,-0.7681468250136261,1.7403405021285447,0.8058606318589236,1100.7454905543764,1077.7703871823185,1098.5379719493435,1102.7190388843512,-934.0568577162222,-500.382983971394,-794.8183855113704,-896.6855809867403,163.9050163647946
0.5374999999999999,0.9969240667522474,2.2889149528308392,-0.545497752463498,0.0262279428432232,0.0332434585887431,0.0275753972222522,-0.0063116226801362,-0.008951839290822,-0.089977279505453,0.9958832578449256,0.0852293790109685,0.04419133834137,9.163331630389587,-0.0140834631436856,0.0145660860310043,1.2371729569827123,-0.7682247093940149,1.7404314038259163,0.8089476674887656,1098.1558913543115,1076.6680890782693,1096.235497734761,1100.4252480279283,-1222.0885603539034,-427.82106892618646,-1140.108980368176,-999.4687780715584,163.91327065276323
0.54,1.04065966202546,2.304497415104872,-0.7163004102627603,0.0274818506284807,0.0402531746908783,0.0255529371961087,-0.0062725377177374,-0.0089394451081737,-0.089937688898578,0.9958873168675064,0.0841845418403145,0.0428454068511855,9.138570467587106,-0.0144748895761591,0.0150937765483918,1.2354811038679487,-0.7683041259016687,1.7405227263710348,0.8120320574416406,1094.6350477526069,1075.6312818376875,1092.8374270475026,1097.7216949939934,-1323.9879814394487,-345.76305606296927,-1332.077521411428,-960.883947874844,163.9230988392096
0.5424999999999999,1.0656700197205207,2.2455606620316004,-0.8198755826302543,0.0289328447113453,0.0464175054567877,0.0234684934481722,-0.0062391867159235,-0.0089247862080359,-0.0899007401925538,0.995891151002345,0.0824511728095397,0.0409296542404803,9.114030474647123,-0.0148743388623289,0.0155868596186429,1.2337391101428117,-0.7683846222645978,1.7406144782980435,0.8151143298911551,1091.5359514471145,1074.9392737979545,1089.575110127704,1095.6208282885543,-1225.0359235168603,-257.55859739974744,-1369.654903270565,-790.0263912029907,163.93122127078107
0.545,1.0716777884533668,2.1041032191346885,-0.8666466806115737,0.0314638160187668,0.0524151035317436,0.021210784155738,-0.0062100467036951,-0.0088965795235896,-0.0898640804658706,0.995895082621741,0.0798733982192063,0.0385110511294174,9.089645573686225,-0.0153114246945092,0.0160466611234219,1.2319470318333403,-0.7684663091738646,1.740706961212602,0.8181928778069557,1088.5098681350223,1074.3434888506888,1085.9891525311496,1093.7715630379785,-1259.8873741400882,-256.31561258883244,-1627.842567676133,-745.5155230410122,163.93926947032327
0.5474999999999999,1.0370032587648153,1.846024637190412,-0.8430800647767496,0.035281842640336,0.0590436539053311,0.0183888131773911,-0.0061839463498943,-0.0088530421439545,-0.0898305497967104,0.995898869474502,0.0764789491576019,0.035667794364983,9.065344250401001,-0.0157926057834906,0.0164760596743206,1.2301048135254091,-0.7685492277064953,1.7408000363321863,0.8212665188066003,1085.236514576414,1073.6576957350103,1081.4358972893235,1091.8932506733493,-1108.5057295350443,-255.95177364943967,-1696.8182365998002,-632.039760087809,163.94883767298995
