t,ang_acc_x,ang_acc_y,ang_acc_z,a_vel_x,a_vel_y,a_vel_z,quat_x,quat_y,quat_z,quat_w,acc_x,acc_y,acc_z,l_vel_x,l_vel_y,l_vel_z,pos_x,pos_y,pos_z,mot_1,mot_2,mot_3,mot_4,dmot_1,dmot_2,dmot_3,dmot_4,vbat
4.415,-1.2649447961949387,0.0510887619876806,-0.2165351090438367,-0.0243064208347779,-0.0010181486513163,-0.0020089417424489,0.0002440179331603,0.0063395304069729,-0.9107309484412948,-0.4129575447114066,-0.0345014784402169,-0.0597191646773603,9.701590013145273,-0.0070772003378384,-0.0182317691684081,-0.0108756436962158,0.4710981452480028,-4.790506823319897,1.1344632019035743,1137.3741258095447,1137.165213974568,1123.0578011224427,1126.988595122232,-248.72702833504795,211.23607551394792,615.6924278884293,-38.24983305403375,151.7408587158807
4.4175,-1.5518022223885892,0.231858500900159,-0.0814516019639608,-0.0289109087208195,-0.0011106399241166,-0.0025987186709716,0.0002606493371163,0.0063536065646162,-0.910740325211833,-0.4129313667480551,-0.0362342626387108,-0.0614025207284112,9.698856762107507,-0.007300893451475,-0.0180654294843493,-0.0111647113815696,0.4711456030212262,-4.790497631746953,1.1344399675566663,1136.2400952388011,1137.5901438834949,1124.831753886778,1127.0699460054743,-579.1050939463854,108.09258579506835,664.9417819880597,112.95624057525185,151.73878880709256
4.42,-1.6760934354702146,0.3739622722399662,0.0269583401037623,-0.0340832798369818,0.0004437329080939,-0.0016486108327064,0.0002804306943909,0.0063641919500794,-0.910748435314368,-0.4129100027473187,-0.037731676464378,-0.063137555802483,9.696390185425619,-0.0075293743519797,-0.0179138495740807,-0.0114694300249047,0.4711928826405606,-4.790487435508661,1.1344147100380717,1134.4786003398128,1137.7056769035432,1126.3825100323832,1127.5533763251083,-855.6107665275885,6.352584581054678,611.348837515938,268.3708959923536,151.7370474897072
4.4225,-1.6397910229179236,0.4639510902285189,0.0910491742703261,-0.0398463679546501,0.0029985648203637,-4.060330059448941e-05,0.0003064687514023,0.0063727797539015,-0.9107549096064126,-0.4128938375562011,-0.0390082469976293,-0.0649428751981066,9.694227919862042,-0.0077625394619247,-0.017776615109724,-0.0117881355137909,0.4712386152322559,-4.790475500755868,1.1343877683190247,1131.9620414061635,1137.6219068064,1127.8884980743578,1128.4118004854363,-1238.2197949514457,-77.9641793946683,618.8460349966267,416.8212827762179,151.73528527817516
4.425,-1.3954837505254218,0.4863998173003229,0.09634147429734,-0.046553535888178,0.0056883282504023,0.0018024723913708,0.0003313396952602,0.0063770214312762,-0.9107588152934232,-0.4128845773743344,-0.0399275482824382,-0.0666838276252743,9.692404721335054,-0.0080009548651534,-0.0176530583944566,-0.0121184063354104,0.471281619457437,-4.790462030225314,1.1343597670856667,1128.2875013650555,1137.31585600657,1129.4767402073662,1129.637482738989,-1409.2133288472114,-148.9359656859083,515.857245746076,434.4020044804076,151.73314231966674
4.4275,-1.039981529397884,0.4339471498655676,0.0456691302247715,-0.0511069268375281,0.0070905912098123,0.0029574034836013,0.0003472222798266,0.0063756604050856,-0.9107592166760978,-0.4128839690545148,-0.0403422298480781,-0.068242247671,9.69094981367827,-0.0082452829380883,-0.0175420231998501,-0.0124575730094585,0.4713224004984019,-4.790447519191316,1.134330605142674,1124.9159747619276,1136.8772269779706,1130.467784303088,1130.5838105078383,-1342.939670293828,-221.56443054992013,288.5996134004988,308.13420726518166,151.73133014494985
4.43,-0.5746996758241802,0.3195566915737036,-0.037587700917711,-0.05365641415212,0.0081784195766339,0.003637818285908,0.0003512771909198,0.0063716700789772,-0.9107563022345324,-0.412891276888242,-0.0401646082478831,-0.0696158955109636,9.689884926446096,-0.0084958115074956,-0.0174416027900547,-0.0128030028499814,0.4713623256023249,-4.790431715008845,1.134300417944812,1121.5728030135867,1136.2080338538203,1130.9197382743687,1131.1781537753152,-1378.593293391834,-356.27834998363903,37.80762638107343,138.66122851382283,151.7294875559327
4.4325,0.031351957192665,0.1301114592674397,-0.1292078094324991,-0.0541109117906874,0.009554245310577,0.0034698617474708,0.0003471969931376,0.0063706901404332,-0.9107509756541584,-0.4129042048911295,-0.0394073887593461,-0.0709044637193346,9.689223434288163,-0.0087519654697982,-0.0173491474778917,-0.0131521459759205,0.4714028571029216,-4.790414463669958,1.1342692938404395,1118.0230082949683,1135.0958352280525,1130.6568224349935,1131.2771166504072,-1168.5598077963723,-459.40743371513327,-240.7822313308394,-74.49052402724848,151.7272381417239
4.435,0.5157084655816813,-0.0513324182431286,-0.1598462125249878,-0.052622108188737,0.0102556806737254,0.0020347982773943,0.0003424856692937,0.0063786540111971,-0.9107438347947184,-0.412921176294961,-0.03815555071177,-0.072247106034795,9.688970481029482,-0.0090119920439252,-0.0172615290743904,-0.0135024309050826,0.4714457547872132,-4.790397208530165,1.1342368734144512,1115.730003974604,1133.9109966852443,1129.7158271177143,1130.805701155179,-729.933191549223,-515.2748870264187,-508.22370411316285,-288.3223903660171,151.7253296685254
4.4375,0.9164863997419552,-0.223654203729403,-0.1053676085485691,-0.0497285592590159,0.0096338326857668,-0.0003920428632714,0.0003436211346262,0.0063994379180226,-0.9107359990067304,-0.4129395299215152,-0.0365008158941775,-0.0737425610840251,9.689123743931056,-0.0092730986255661,-0.0171754825664701,-0.0138511148345536,0.4714923967587204,-4.790381465793273,1.1342026857386358,1114.3733423372223,1132.5194607929204,1128.1157039144275,1129.835504698577,-368.1418895920239,-571.9528361830393,-711.0552472142141,-445.6167613779693,151.7233838244512
4.44,1.2140911221791504,-0.3608385455522802,0.0284870514812541,-0.0459033388618819,0.0079605367450936,-0.0026406349477083,0.000353067354986,0.006434702827186,-0.9107284244733238,-0.4129570105217489,-0.0344909726492619,-0.0754227823064774,9.689674055942737,-0.0095317485518324,-0.017087985542856,-0.0141952887246261,0.4715427148389859,-4.790367649600707,1.1341666689817815,1113.8892945266439,1131.0512325043292,1126.1605508816433,1128.577617348289,16.39736761098937,-574.5719440097341,-798.8272562859208,-534.5162132956034,151.72140564626335
4.4425,1.3650569860753397,-0.4317628536461659,0.2369414316544068,-0.0412878467609459,0.0058422176562391,-0.0034485443508521,0.0003735357844866,0.0064827712148183,-0.9107208670481596,-0.4129740475451695,-0.0322144772301563,-0.0772671454890545,9.690605556854226,-0.0097839047463177,-0.0169965776279293,-0.0145321184623238,0.4715955166531671,-4.790355644599368,1.1341291278032597,1114.4553291752775,1129.6466010728718,1124.1215676329982,1127.1629236320991,461.1018933310432,-560.3761564918506,-821.861755987283,-610.3619754342747,151.71938714989852
4.445,1.375632858842807,-0.4306634952418438,0.515416560929252,-0.0357744766728724,0.0034648814171402,-0.002300113124341,0.0004077320786783,0.0065410502516716,-0.910713739240374,-0.4129896066515058,-0.029776790128432,-0.0792419612467889,9.691896337602943,-0.0100256378529888,-0.0168994267152157,-0.0148590211092284,0.4716499887805016,-4.790344864348925,1.1340901817733045,1116.194803993299,1128.24935172187,1122.0512421017067,1125.5258074711176,772.1316972974528,-436.68416181986714,-640.8475536753167,-560.0553305922068,151.71691701832285
4.4475,1.2613732409663443,-0.3656242412466705,0.7213957045199576,-0.0319040921589907,0.0018236154537861,-1.3798755092886128e-06,0.0004561340893027,0.0066055175281106,-0.9107081885228052,-0.4130010128077405,-0.0272648986347294,-0.0812726240997316,9.693519863922,-0.0102534854302045,-0.0167954956980548,-0.0151736838038138,0.4717057274814633,-4.790335112119975,1.1340497730488983,1118.3159876617647,1127.4631802637723,1120.9173298646217,1124.3626469791384,919.6046020500685,-214.02059850279784,-297.0776209066634,-397.01634522421887,151.7148179505544
4.45,1.058862735199795,-0.2567383889041178,0.8489154959463411,-0.0290470977208944,0.0007959472058188,0.0032285835237744,0.0005167726098223,0.0066712201796351,-0.910704967539468,-0.4130064214173569,-0.0247384877533323,-0.0832497629877481,9.69544625382386,-0.0104645779407694,-0.016684684977005,-0.015474167251925,0.4717626340661538,-4.790326335362766,1.1340077044462047,1120.7928270035493,1127.179248729356,1120.5658539971737,1123.5407257449967,1083.876774231317,-3.062341162058212,18.498265570315592,-265.4313974420404,151.71267625675216
4.4525,0.7681601359611007,-0.1119456942897923,0.8747885115081417,-0.0267340329378312,0.0003718977580758,0.0076543440775386,0.0005843970696367,0.0067342785453835,-0.9107044641530831,-0.4130047178621037,-0.0221978579476234,-0.0850566792239911,9.697643559399983,-0.0106568459254982,-0.016567866360896,-0.0157590405498474,0.471819843041472,-4.790317977272315,1.1339639726448132,1123.7353715329211,1127.4478685579622,1121.0098211924733,1123.0354899919282,1014.9183320681676,189.64800910730847,275.7281863374432,-100.70485467172362,151.7100568670271
4.455,0.5247231582417857,-0.0076175358856747,0.7846644433986184,-0.0257130834319461,0.0006689661942332,0.0113352705425354,0.0006524532473288,0.0067909933023926,-0.9107060049834892,-0.4129970745952144,-0.0196242825379455,-0.0865684203132478,9.70007918501568,-0.0108289676868073,-0.0164469561744051,-0.0160275567837918,0.4718756039764585,-4.790310198204591,1.1339191663334232,1125.86741866389,1128.1274887748923,1121.9444949288609,1123.037201471638,734.2777285302634,338.6037593242616,437.63862311504886,85.9663904108722,151.70783316364952
4.4575,0.3191924174636594,0.050843513786835,0.599336838151661,-0.0255488882032669,0.0015492467476074,0.0141756957078589,0.0007172646113548,0.0068394069418805,-0.9107079373240256,-0.4129867671116542,-0.0170395520605809,-0.0877119592367238,9.702720806951223,-0.010980221044588,-0.0163247167604768,-0.0162799154873203,0.4719289822298495,-4.790304234502548,1.1338742405233229,1127.406760175573,1129.1408873545838,1123.1980143080489,1123.4653219439826,511.4109427709191,478.1280667422936,563.6415167440766,276.41518588675945,151.70556770627863
4.46,0.1472584975749384,0.0479418256648636,0.3211046739625694,-0.0260922390854429,0.0030382249305329,0.0156330027178616,0.0007782788834247,0.0068801406022062,-0.9107093851390756,-0.4129753404907615,-0.0145019556021925,-0.0884822782062656,9.705537739731213,-0.0111105239065677,-0.0162043298842048,-0.016517268589427,0.471979826950882,-4.790301381260598,1.1338301638819075,1128.4244733777443,1130.518129108604,1124.7627025125812,1124.419277401072,234.29268536988772,497.1813345455408,549.814725473664,410.4775444799176,151.70280215830294
4.4625,0.0759858588542904,-0.0163488301824285,0.0914279963934499,-0.0268071561061198,0.0042740971938017,0.0150308230910347,0.0008359574728672,0.0069149902338267,-0.9107109228497294,-0.4129612310556483,-0.012078400906537,-0.0889007968038448,9.708502675870294,-0.0112204932537892,-0.0160889457473393,-0.0167414612733775,0.4720280419956708,-4.790301610011223,1.1337876206570778,1128.5782236024224,1131.6267940273115,1125.9470879354171,1125.517709666382,-65.55968290640661,399.7400901069881,426.9667190218661,480.69919349096494,151.70045962818915
4.465,0.0745898183243662,-0.126907294960055,-0.0865555834903974,-0.0271942106908139,0.004732070276086,0.0129431233167661,0.0008865008310438,0.0069456170744765,-0.9107133426769912,-0.4129426322899136,-0.0097595461074471,-0.0889508876615381,9.71159338624624,-0.0113115084091815,-0.0159813108354151,-0.0169545539444297,0.472073752933982,-4.790303908542013,1.1337466105582272,1128.0966749632123,1132.5168295591388,1126.8975361076905,1126.8227733685267,-277.7326117129237,301.5954310335083,337.6217798691941,535.3395041835597,151.6980796564518
4.4675,0.1175817243095284,-0.2506003691059899,-0.2040808958206679,-0.0269784092266269,0.0041008416980002,0.0104282699202742,0.0009216896978906,0.0069726712424898,-0.9107165571184708,-0.4129200925307133,-0.0074619169310644,-0.088562400117115,9.71479347655112,-0.0113856117068403,-0.0158833613190571,-0.0171584868724381,0.4721175111483253,-4.790307354073528,1.1337062349304616,1127.1895605438579,1133.1347711824787,1127.635196834763,1128.1944071873,-439.1087691840861,172.52172238236565,248.42809338365967,535.5119788725574,151.69567036621396
4.47,0.1936053477163131,-0.3563652766910403,-0.2593018330843624,-0.0259728639445963,0.0025264458048397,0.0087190905781233,0.0009392477708123,0.0069950625754549,-0.9107194550776512,-0.4128970157492541,-0.005215380554966,-0.0876834473284495,9.718091932328687,-0.0114450924963636,-0.01579573780965,-0.0173551732494315,0.4721599904244582,-4.790310859817609,1.1336656200070976,1125.901131117292,1133.3794381710507,1128.1396765746088,1129.5003332628892,-624.9152647307843,26.196039712977484,177.5032636178859,521.2664627487468,151.69322819838163
4.4725,0.3035982945891009,-0.4299769232047077,-0.2982157252669015,-0.024247349853764,0.0001829899272433,0.0084427299250331,0.0009475785087077,0.0070106437411842,-0.9107212252050062,-0.412876932129277,-0.003240443113763,-0.086332285286841,9.721482755155902,-0.0114923047730137,-0.0157174195031623,-0.017546553756607,0.4722021068681153,-4.790312907784733,1.133624528888404,1124.064984220204,1133.2657513810439,1128.5227131528525,1130.8007395010436,-703.9961042279438,-96.03110664723636,109.1839626390822,407.7767186812525,151.69026328792285
4.4750000000000005,0.4072891638829557,-0.4361149474787497,-0.3453448741377817,-0.0228535010089052,-0.0019120771880062,0.0094026692277433,0.0009571992492466,0.0070195773842366,-0.9107226465282344,-0.4128608680868697,-0.0017687421536006,-0.0845901645965858,9.724964862562349,-0.0115298780051938,-0.0156456801355263,-0.0177343346290852,0.4722449009482356,-4.790312485840605,1.1335832080654316,1122.3811505961519,1132.8992826378144,1128.6855963878043,1131.539216856296,-688.6395426030649,-180.13470860933396,36.4364098606537,203.15739333450867,151.6877670069514
4.4775,0.5311146954691006,-0.3894831918438503,-0.434168896129134,-0.0217875572697298,-0.0039136435560578,0.010636122153654,0.000970510397901,0.007023981424331,-0.9107256805702664,-0.4128484699259308,-0.0008636435882692,-0.0825148766029781,9.728542145695588,-0.011560776087295,-0.01557651106333,-0.0179196101428378,0.472288840208511,-4.790309069791721,1.1335417874823959,1120.6217865071887,1132.3650778379972,1128.7048952021555,1131.816526467716,-772.728816136003,-247.2505247115403,-24.31546348689205,8.269621929730596,151.68524834395075
4.48,0.7171372349079576,-0.2997112412067334,-0.5788678029039697,-0.020738468358754,-0.0056160387089756,0.0109662998443096,0.0009814860760074,0.007025054505142,-0.9107315566072836,-0.4128396723495214,-0.0004368062867784,-0.0800889299854218,9.732222887547511,-0.0115879758549724,-0.0155051754995173,-0.0181027645412563,0.4723345303104914,-4.790303098361999,1.1334998658100508,1118.517506515472,1131.6630300142567,1128.5640190703696,1131.5805649659446,-752.9591956161472,-252.60868497680883,-80.12053532752532,-172.96363773375927,151.682205420328
4.4825,0.9090168630471128,-0.2280009914940442,-0.6980781774020884,-0.0197486086786287,-0.0058240660511095,0.0094557444641195,0.0009846192008312,0.0070223361112993,-0.9107395833312648,-0.4128339724492912,-0.0004121058662343,-0.0772792287478648,9.736018203043196,-0.0116140195492123,-0.0154265735778242,-0.0182837514818368,0.4723833504323247,-4.790296129460746,1.1334570855445667,1116.856990529108,1131.1020344131132,1128.304292525518,1130.9517082790471,-616.0980486799094,-208.7727209248032,-133.809733285446,-315.18669521297613,151.67965683887624
4.485,1.133126280899304,-0.198213425217825,-0.7640266738938992,-0.0181692412008256,-0.0048305703237073,0.0061539478045524,0.0009792084257363,0.0070162648862866,-0.9107486257691328,-0.4128297811643646,-0.0007810689217451,-0.0741169066036853,9.739940327431091,-0.0116409816553761,-0.0153355551992981,-0.0184623221838001,0.4724357180192328,-4.790289085787493,1.1334135427235332,1115.4370162720725,1130.6191664096327,1127.8949704039424,1130.0046314898796,-526.1588880771909,-189.99354976486248,-210.31824308147853,-444.3469437326807,151.67710056026257
4.4875,1.4135349569655455,-0.2356233035183883,-0.7377067132034885,-0.0151142194588534,-0.0035161611485401,0.0015066705725902,0.0009666541199775,0.0070088130546354,-0.910757792668808,-0.4128260388214035,-0.0015499222563583,-0.0706863088495676,9.744001607879783,-0.011670755518549,-0.0152274290968509,-0.0186379945203277,0.4724903934979498,-4.79028176084373,1.133369704782204,1114.226196088722,1130.152066664289,1127.2527013101108,1128.729973560384,-328.1902919780875,-152.09017261686637,-252.7015068225464,-452.62621006964815,151.67403123900843
4.49,1.628408062783898,-0.3239973708801642,-0.6213763436684488,-0.0114797147859777,-0.0030943699103176,-0.0018083026192819,0.0009492463649351,0.007000374514486,-0.9107659102187924,-0.4128234547929325,-0.0027432746983063,-0.0670589655426223,9.748213865591495,-0.0117052428329132,-0.015098504079804,-0.0188099702990414,0.4725458005109685,-4.790273784462837,1.1333257233692036,1113.796064812182,1129.8587155465484,1126.6314628698299,1127.7415004395316,-18.31688542720297,-96.06586581344547,-250.7134951335555,-339.4903481697456,151.67147751071286
4.4925,1.786234953416445,-0.4448645691123225,-0.4306359293546243,-0.0068920498967071,-0.003809861838287,-0.0035797434381032,0.0009296971531651,0.0069889868614324,-0.9107723725898916,-0.4128223714591842,-0.004402375354586,-0.063274192251068,9.752587356647037,-0.0117465141344349,-0.0149463391349311,-0.0189770854079921,0.4726004988111583,-4.790264855697371,1.1332812701541504,1114.134611661586,1129.6717373352217,1125.999133834443,1127.0325218195353,343.73334850848374,-51.10451028344978,-256.96724961822474,-216.63362091394907,151.668934584051
4.495,1.8717518720966793,-0.5828146714350213,-0.1662131769302431,-0.0007659815934991,-0.0059211237452007,-0.0038266919054387,0.0009097287083015,0.0069728733361541,-0.9107778093622309,-0.412821023215343,-0.0065398948778356,-0.0593706032871288,9.757129481875127,-0.0117968585712905,-0.0147697722975058,-0.0191377949195626,0.4726537136142915,-4.7902553087737605,1.1332362277612522,1115.5147315547244,1129.6031929951312,1125.3466266217388,1126.6583323349619,658.7847522884538,9.499421369126472,-203.89038064451137,-50.13993100587084,151.66590287456137
4.4975,1.8374617936628308,-0.6616016894492726,0.0468406873784099,0.0045715437100146,-0.0082342204385355,-0.0029645175299847,0.000890447577013,0.006953321745042,-0.9107833698446643,-0.4128168636492419,-0.0091237793269098,-0.0554379580722292,9.761843650864515,-0.0118585804812163,-0.0145688587734802,-0.019290246835952,0.4727055663865907,-4.7902466038736415,1.133190671900879,1117.4285354230287,1129.719234442067,1124.9796819312203,1126.781822164506,883.433977859541,95.24591840390916,-94.68005571175328,131.85294463360432,151.6633980293462
4.5,1.6847253101486148,-0.678263502223426,0.2213486832292918,0.0098858749481284,-0.010283552617603,-0.0016657185810714,0.000875020901401,0.0069353570784927,-0.9107905373453256,-0.4128067949203049,-0.0121200130395053,-0.0516483661145348,9.766728581263882,-0.0119337692597686,-0.0143446988942331,-0.0194323952139655,0.4727561946553511,-4.7902396565412335,1.1331446879217504,1119.931901444022,1130.0794225871507,1124.87322634318,1127.3175970581299,1050.4451313276827,193.67304404986913,4.361205704708575,267.08253011575493,151.6609213444258
4.5025,1.4397128896640103,-0.6333429736085477,0.3532618941614755,0.0146420574766236,-0.0120627666826108,-0.0002888875011503,0.0008668301740097,0.0069234829509868,-0.9108002744764532,-0.412789005028237,-0.0154950466652029,-0.04816356887764,9.7717785004042,-0.0120242121417064,-0.0140994674919556,-0.0195618770462406,0.4728055588781822,-4.790234171878037,1.1330978746776652,1122.6807610796673,1130.6875996623166,1125.0014879597438,1128.1172348150847,1089.946859961788,310.04857742869467,101.47331781945684,358.53407626805927,151.658472100999
4.505,1.1064752057956095,-0.5072594902081619,0.433596845753261,0.0179593434294833,-0.0140753462005306,0.0010419938464783,0.0008613276479658,0.0069170513119911,-0.9108111813059898,-0.4127670306424044,-0.0191094221369806,-0.0449850341742063,9.77698385665225,-0.0121315058268675,-0.013836599601502,-0.0196757216840459,0.4728532199809388,-4.790230208146756,1.1330492564505283,1125.3816357438309,1131.629665474294,1125.3805929322773,1129.11026743947,1097.1886171431158,491.9034404422396,205.5380445927811,448.42816688225,151.65606064646352
4.5075,0.6461904708140223,-0.2621205126548409,0.4801953413868667,0.0201355006627214,-0.0165388255386994,0.0024361993439888,0.0008459383318209,0.0069118548692948,-0.910820211924484,-0.4127480902861146,-0.0227041321925189,-0.0419795418447157,9.782331441597266,-0.0122571427879083,-0.0135604534299079,-0.0197705371185377,0.472897980628967,-4.790228212432689,1.132998312058698,1128.1667041653827,1133.1471168645276,1126.0291781827077,1130.3593756494959,905.9710721002568,613.2636166315153,252.5235228216442,445.8803879476458,151.65321635344807
4.51,0.2427478820884875,0.0077176074226414,0.4878252472376755,0.0206952498530104,-0.0179171380707362,0.0032094350721067,0.0008120178422193,0.0069044650060723,-0.9108251420546501,-0.4127375131236908,-0.0260794910790941,-0.0390512072204912,9.787804004533632,-0.0124022566218238,-0.0132754634647537,-0.0198432416107737,0.4729392089882225,-4.790228178987436,1.1329448820289842,1129.911491104332,1134.6959835574517,1126.6432105463855,1131.3396693792083,563.6183546919376,660.1806384032584,242.56899219013184,359.00704411611366,151.65089130270175
4.5125,-0.1520745161299061,0.3124372400216402,0.4725882471327065,0.0202736323297507,-0.0179947482083316,0.003483005031516,0.0007618851249361,0.0068940297439801,-0.91082514158862,-0.4127374185376163,-0.0292074697741532,-0.0362295825376073,9.793380630919293,-0.0125672967843052,-0.0129854738985613,-0.0198916497470223,0.4729785940592355,-4.790229986587043,1.1328885772924386,1130.9847959388424,1136.448020056544,1127.2420231436583,1132.1544108700764,338.8950480474777,786.7879945871377,248.54103849293625,303.99380544964254,151.64861751484125
4.515,-0.5928447915641935,0.6640551510812561,0.4256741068366534,0.0189200057735793,-0.0162859900591303,0.0039424775894088,0.0007048343551296,0.0068822258868228,-0.910820754887598,-0.412746771035979,-0.0321627813453101,-0.0336365681815222,9.79903833149915,-0.0127520761807469,-0.0126934275207541,-0.0199147070843024,0.4730189043173981,-4.7902336239901695,1.1328298232250664,1131.6059663445694,1138.6299235303873,1127.88591573885,1132.8596384064565,149.96458228861547,786.4382699856545,222.94939356079811,206.17488969419796,151.64595253683171
4.5175,-0.9209347447331722,0.9040946783767336,0.3500316880364806,0.0172165498032068,-0.0134010469934738,0.0048996624406354,0.0006504790896105,0.0068725181382528,-0.9108145367400596,-0.4127600114474929,-0.0350116510158355,-0.0314195391897133,9.804754199622982,-0.0129561234868277,-0.0124013211872351,-0.0199126153241064,0.4730611992314078,-4.790238512803726,1.1327704080451684,1131.7346188502854,1140.380211406472,1128.3567701114623,1133.1852853185471,15.869872022901536,652.8413996091219,180.67866982452773,73.1589702386713,151.64378730093893
4.52,-1.1958420731817592,1.0508773213533475,0.215670183248888,0.0147258056468741,-0.0095472673014249,0.0064799598280213,0.0006025814282927,0.0068673142878782,-0.910809768133102,-0.4127699560302523,-0.0377262466374894,-0.0296513759402787,9.810507732378513,-0.0131789822518745,-0.0121105851052517,-0.0198868010507263,0.4731044388106268,-4.7902431328156,1.1327121990490812,1131.685315704684,1141.8941305284332,1128.7893090879727,1133.22543325765,-22.38550511388032,577.473428780116,192.43097175695263,-44.041212212051526,151.64168224196445
4.5225,-1.4485546436049193,1.1014447782010883,-0.027753746131344,0.0106076621718767,-0.0050457641702839,0.0083313964047003,0.0005570164023549,0.0068654101718643,-0.9108078405532228,-0.4127736201671242,-0.0401707326866401,-0.0282695589233628,9.816282680853005,-0.0134201871598771,-0.0118225884007161,-0.019839786652656,0.47314695632106,-4.790246421433163,1.1326565066852936,1131.622691324716,1143.2675785503727,1129.318924970247,1132.965079257487,-10.088355715152135,412.3138994386497,203.8684338965184,-138.72717488848434,151.63922785282077
4.525,-1.5848577212460995,1.044763592690124,-0.2938524351805595,0.0065990707271888,-0.0020193273629809,0.0090986064063882,0.0005088083741006,0.006864593217218,-0.910807120021621,-0.412774680480123,-0.0422075472320684,-0.027180795832036,9.82206765896014,-0.013678855642913,-0.0115387079646509,-0.0197751952942291,0.4731880225298573,-4.790248876319322,1.1326043586772157,1131.634873926108,1143.9557000256264,1129.8086512574555,1132.5317973832075,14.059425920777656,173.2696677322602,212.59192806174264,-203.17477272688367,151.63724329928647
4.5275,-1.6377414086432587,0.9059855673983548,-0.5989409948082652,0.0026355396452919,0.0001693536673264,0.008805195834175,0.0004601273190295,0.0068646818594193,-0.9108048148799668,-0.4127793036096762,-0.0438170843014683,-0.0263807752442576,9.827856096333651,-0.0139532801077328,-0.0112600821347747,-0.0196976102063405,0.4732279905524394,-4.790251565226932,1.132556419329726,1131.69298845432,1144.133926889034,1130.3818846105555,1131.9492053938527,16.728630346779383,-6.710358031159701,244.09771227097343,-243.79865079563908,151.63532247187356
4.53,-1.6200770330100942,0.7168917852592936,-0.9042019759820276,-0.0012123773184364,0.0018395859541624,0.0076153610352888,0.0004190070228502,0.006865840068247,-0.9107989607968424,-0.412791809772568,-0.0450897992689925,-0.0259142238008109,9.833646444383978,-0.0142408140446531,-0.0109875756819437,-0.0196119495244169,0.4732675105070048,-4.790255779338444,1.1325126504420011,1131.718517077842,1143.9221482354708,1131.0291398188103,1131.312804129229,-19.802720605185154,-157.51280771437783,270.67702179011246,-249.4210760164204,151.63345457718893
4.5325,-1.5163312789136951,0.4855370734624197,-1.1604349820185935,-0.0051459701468079,0.0030872718833797,0.0050785506992334,0.000393287844434,0.0068669712061738,-0.9107883146743752,-0.4128149529471307,-0.0461322757208336,-0.0257980695934866,9.839442173022146,-0.0145379722403388,-0.0107218797164608,-0.0195226388324076,0.4733072845636573,-4.790262827995203,1.132472467774556,1131.593974851294,1143.346362850462,1131.7352697195063,1130.7021000137706,-114.42622141626332,-300.4769229290624,306.74842146737063,-240.76303138281733,151.63165057569705
4.535,-1.2928584131966336,0.1784365798374914,-1.3436077994818767,-0.0100168199926015,0.004064861595882,-7.122293522843867e-07,0.0003881779936496,0.006867128471352,-0.9107735085978828,-0.4128473591087074,-0.0470128736396489,-0.0260274659318336,9.84525077619725,-0.0148407157700466,-0.0104633009504187,-0.0194329746139408,0.4733480881164034,-4.790272987383363,1.1324348784275207,1131.1463859707608,1142.4197636208255,1132.5628819261472,1130.1089889723153,-224.1477774232512,-351.92946160986094,282.5043454212859,-180.76493274772375,151.62956038820911
4.5375000000000005,-1.0308812772155656,-0.0889516471950645,-1.3523511185659485,-0.0137050047764587,0.0041538123893638,-0.0055266669137849,0.000406261450746,0.006866588345764,-0.910757826311082,-0.412881797671642,-0.0477535862919072,-0.0265957985877377,9.851081999050823,-0.0151447698204665,-0.0102115488126583,-0.0193446902180442,0.4733906712164466,-4.790285505147799,1.132397978418528,1130.4732359641775,1141.5867155424123,1133.1477914466127,1129.7982753500319,-330.4262886450558,-320.714436812666,191.15952641082407,-74.57008832980294,151.62788187934757
4.54,-0.7114902535808845,-0.3528388569113609,-1.1932794075444635,-0.0161483513595517,0.0034310921732346,-0.0109744782014891,0.0004454612167552,0.0068659330037444,-0.9107447926967543,-0.412910518769612,-0.0483015628109752,-0.0274634325802969,9.856945908817218,-0.0154458774856286,-0.0099659531021887,-0.0192576603543185,0.4734354980169561,-4.790299694982483,1.1323594183947392,1129.4942545275355,1140.8161914367622,1133.5186795582013,1129.7361385306663,-481.70961862502855,-307.79633013176607,98.70379965646161,37.07367731108285,151.62627115392667
4.5425,-0.2996712707648098,-0.6498296079872485,-0.836395128208205,-0.017306779843882,0.0020442022925267,-0.0157726488420462,0.0005008049975924,0.006866439464941,-0.9107354916859308,-0.4129311451688814,-0.0485577488108666,-0.028580833580662,9.86285042714197,-0.0157399448431364,-0.0097257362537005,-0.019170061893999,0.473482920992688,-4.790315786233792,1.132317603256096,1128.0646878710525,1140.0477338917535,1133.6413104448952,1129.9836437365873,-541.5968998794258,-249.74204088194327,-8.543075348461754,144.47083133809736,151.62441994979457
4.545,0.0386867868499466,-0.8703594692894501,-0.4489835050229903,-0.0169941145068778,0.0005230891264115,-0.0177521216005696,0.0005652612877405,0.0068687518470018,-0.9107288888739484,-0.412945957592162,-0.0484018395421193,-0.029872167722627,9.868799061485213,-0.0160233640749204,-0.0094902130653901,-0.0190787793513021,0.4735324765595605,-4.7903341279820895,1.1322722911351784,1126.7862700281385,1139.5674812323523,1133.4759641814587,1130.4584926873567,-491.21288974052874,-154.33448424860546,-107.3910738008658,238.75747497600568,151.62294834976635
4.5475,0.3455163662566271,-1.047718116262775,-0.0419293772519493,-0.0159313657807807,-0.0015754675444435,-0.0175854973136631,0.000628691950716,0.0068703156547432,-0.9107239104850968,-0.4129573706057685,-0.0476928262365098,-0.0311804258823618,9.87478916790865,-0.0162934618675285,-0.0092588878957693,-0.0189798795945149,0.4735825200368417,-4.790354091180452,1.1322245866924328,1125.6086234223499,1139.2760614705107,1133.104355075891,1131.1774311114673,-446.66052450275896,-78.80981345843051,-182.95919592224368,355.2286805505067,151.62155484015346
4.55,0.6593079289354997,-1.1881646516554851,0.3870657252012623,-0.0142902718305018,-0.0050583621096538,-0.0153077468820148,0.000681536984579,0.0068684616846203,-0.9107202224374836,-0.4129661789332252,-0.0463085678564316,-0.0323529145674968,9.880810073162847,-0.0165486822198985,-0.0090312731010407,-0.0188692387107233,0.4736318144709534,-4.7903741175161985,1.1321759126779385,1124.5529674056247,1139.1734321650604,1132.5611682018475,1132.2346360901092,-294.3593232876145,7.94660887313529,-193.29004334077084,401.9740137018375,151.6199786747923
4.5525,0.867437002839324,-1.2285928894723497,0.6505171158584371,-0.0125606326878639,-0.0087704568002092,-0.0122693487435354,0.0007148437044585,0.0068621845217741,-0.910718433631218,-0.4129710738936415,-0.0441302960007931,-0.0332737899537329,9.886842068885407,-0.0167885980325632,-0.0088068046501976,-0.0187428579340255,0.4736796009033594,-4.790392768833457,1.1321269248160115,1124.1368268059118,1139.3157945148764,1132.137904859187,1133.1873011799764,-38.59121213658992,107.03076775748968,-142.63935038252689,371.66448232965985,151.61874926350603
4.555,1.0113317987241413,-1.1788637439308962,0.7910387989764881,-0.0102454635494588,-0.0127252307235306,-0.0089930930878998,0.0007235363941917,0.0068500845505946,-0.910719131341798,-0.4129707832446097,-0.0411169984743077,-0.0338543337968774,9.892855702501747,-0.0170134473863249,-0.0085849537912763,-0.0185971457630826,0.4737254353498057,-4.790409763332668,1.1320777491843537,1124.3600113449415,1139.7085860038478,1131.8479714499351,1134.0929585017575,209.24799907229945,196.44267103195,-86.72441719095517,337.9044601227705,151.61761073182657
4.5575,1.095163868970732,-1.0582138429944115,0.8319756805584305,-0.0075039474306264,-0.0161489740381454,-0.006061128841947,0.0007130884723359,0.0068331746406442,-0.9107221235880484,-0.412965663218285,-0.0374017289178137,-0.0341385082352292,9.898811328470519,-0.0172235060573108,-0.0083651234495239,-0.0184292779772243,0.4737696921672756,-4.790425727708823,1.1320287518992342,1125.1830668012733,1140.298007870036,1131.7042827732323,1134.8768234805902,474.6544197971329,273.0946121274911,-25.08368458738522,270.8170435007136,151.61654926430654
4.56,1.1004814843377968,-0.8702497915276052,0.7747502256660393,-0.0045673495545137,-0.0185059199418252,-0.0038912837832177,0.0006944816415812,0.006815837370798,-0.910726646379288,-0.4129572222766883,-0.0331921413054222,-0.0342793024688311,9.904660551125872,-0.0174188935782615,-0.0081467095823491,-0.0182370647377521,0.4738133774468437,-4.790441776634166,1.1319801785080472,1126.7332834439278,1141.0740590644855,1131.722553026998,1135.4470437192613,827.7266832893196,362.8181785274669,30.820574507971035,196.47181177793263,151.6155815622281
4.5625,1.0135421542443137,-0.5973735096817966,0.6320100398606283,-0.0012815022798219,-0.0201398948599162,-0.0021327625099571,0.000674581833643,0.0068019036123926,-0.9107316385979471,-0.4129475838862441,-0.0286280828320927,-0.0343893431231938,9.91034855631833,-0.0175996093104025,-0.0079293766282803,-0.0180185989126549,0.4738571391593334,-4.7904589992972255,1.1319318166295889,1129.3217002177198,1142.1120987626734,1131.858385645772,1135.85918253948,1037.7086497139082,378.9289600576548,54.6886306991394,110.732279043989,151.61452825089577
4.565,0.8650149043931273,-0.3504908823490487,0.4801881790364786,0.0011529345253809,-0.0207073528638813,-0.0011151914120514,0.0006546457711551,0.0067927353205315,-0.9107363053322964,-0.4129382596633674,-0.0237692612668464,-0.0344937062449465,9.915815841884353,-0.0177655284327096,-0.0077130820030305,-0.0177722304528496,0.4739010961490056,-4.790477948473935,1.131883085015801,1131.9218266924972,1142.9687038647735,1131.9959961804939,1136.0007051144812,1077.8537959685084,318.3541985843089,45.2578012071636,26.902723199146408,151.613738978526
4.5675,0.6426536364129846,-0.0987941195161072,0.3238429788776036,0.0033384785840525,-0.0206951716786764,-0.000516192411529,0.0006314363070246,0.0067870850600698,-0.9107394313843208,-0.4129316434517057,-0.018615786715779,-0.0345363855508669,9.920999985704023,-0.0179164257579362,-0.0074980634698339,-0.0174967142110627,0.4739449989908687,-4.790498768019363,1.1318332445802723,1134.7109691975622,1143.7038697555947,1132.084674651808,1135.9936961554756,1198.175539297088,275.7742105084221,19.977417296104676,-23.23600870468048,151.6130385023717
4.57,0.3026138217180283,0.2026989616009356,0.1581159200068471,0.0055635616172555,-0.0201941424877574,-0.0003091129045118,0.0005991408056905,0.0067835731465289,-0.9107402731257233,-0.4129289874704747,-0.0131217062477257,-0.0344404083670452,9.925837570606205,-0.0180521177859849,-0.0072845525930687,-0.0171914814518518,0.4739884295295906,-4.790521106983054,1.131782538745612,1137.9127043889823,1144.3475749173156,1132.0958832669744,1135.8845250709578,1097.816174565674,188.113425438591,-7.77055820990443,-50.886575673486,151.61229543260083
4.5725,-0.0249800349649124,0.4548219940049456,0.0527681198128937,0.0066878548688721,-0.0194351695208199,-0.0005253070206649,0.0005571474523999,0.0067824675181196,-0.9107380661366122,-0.4129314468763805,-0.007320542693183,-0.0342039504403277,9.930266177482345,-0.0181723318631993,-0.0070725281941345,-0.0168571714839668,0.4740313380070592,-4.790544562925458,1.1317322121684927,1140.2000500703905,1144.6444368827879,1132.0458218607585,1135.739263277108,783.9435411227154,66.41364895936164,-15.592009428019415,-69.02042780875638,151.61175297194347
4.575,-0.3661989060686545,0.7119255014526431,-0.0086125690726287,0.006525023658059,-0.0183734476220802,-0.0010509636898161,0.0005123854186968,0.0067849781421778,-0.9107325276900902,-0.412938996001862,-0.0013730674482519,-0.0339069971155693,9.934227222225305,-0.0182767150960705,-0.0068615686791286,-0.0164958645970598,0.4740741478663365,-4.790568890061888,1.1316834289559927,1141.832422094596,1144.6796431621124,1132.0179232198343,1135.539422931914,526.538608626481,-40.83081583521648,22.760607341434056,-105.78413266967117,151.61128486019578
4.5775,-0.7426324652062115,1.0270916625043736,-0.0309397468551883,0.0047110943436823,-0.0169051925501516,-0.0018299520477089,0.0004732470364969,0.0067912715979245,-0.9107241846841566,-0.4129497919686375,0.0045267202849958,-0.0336258293630316,9.937669161156828,-0.0183650598502969,-0.0066509263064206,-0.0161108305936694,0.4741170207619315,-4.790593921571021,1.1316371746551572,1142.8327431135228,1144.4402828036118,1132.1596248974656,1135.2103426137598,193.8149963792553,-128.67968454357015,103.49961424758696,-139.49139486826724,151.61080336087207
4.58,-0.9921539757532272,1.287454259149699,-0.0145853807735436,0.0021096520828942,-0.0155664579372771,-0.0023243296989816,0.0004457121235499,0.0068010408626563,-0.910713726903682,-0.4129616727064963,0.0102268299083379,-0.0334117063897573,9.94054996836139,-0.0184374548341147,-0.0064396253782229,-0.0157062039735241,0.4741603848539314,-4.79061932431236,1.1315941728772012,1142.8014970764923,1144.0362447393948,1132.5354212910722,1134.8419659575727,-186.58041795917407,-195.71356919370044,221.1491867759487,-166.552658550719,151.61046512707847
4.5825,-1.137664474157545,1.5175853064565799,0.0202609541133724,-0.0012653925719835,-0.0131863715928516,-0.0021532979018367,0.0004309694400739,0.0068132497212388,-0.9107025111810404,-0.4129711739624052,0.0156589049782441,-0.0332666402724162,9.94283906755411,-0.0184944136875323,-0.0062265244096144,-0.0152866090266754,0.4742047962704716,-4.790644834993373,1.1315539387185247,1141.8998410237268,1143.4617149576432,1133.2653708313455,1134.377579321006,-484.89215508972063,-252.4065639977888,350.72291543161396,-194.62523462171208,151.61018810127695
4.585,-1.177333277283947,1.686579544492237,0.0550315131865662,-0.0051537719357059,-0.0089258772454377,-0.0013301105989563,0.0004249290964545,0.0068277826448212,-0.910692128762741,-0.412974635890873,0.0208610647767628,-0.0331691621775611,9.944518580522868,-0.0185369438685726,-0.006010453978938,-0.0148568489823914,0.4742497465117846,-4.790670194610259,1.1315152396719252,1140.3770363010435,1142.7742119194058,1134.2890358682303,1133.868839784464,-717.5354217744069,-297.7019775062281,461.8305072024312,-196.92078569446917,151.60995898743468
4.5875,-1.0805116220389968,1.7347088668012103,0.077882022381281,-0.0093414441152345,-0.0025410567126149,-0.0003272337628268,0.0004199883012392,0.0068440861733744,-0.9106828446673702,-0.4129719028538498,0.0259348855489484,-0.033063925624637,9.945584337859447,-0.0185664592389978,-0.005790534672505,-0.0144218082281449,0.4742940368620451,-4.790695732992937,1.1314776936884687,1138.3121639148549,1141.973205070112,1135.5745233673576,1133.3929753925336,-966.0223393787624,-377.0641023005817,584.5987298591024,-174.18536819714436,151.60978456154052
4.59,-0.8209141649665409,1.6208957409590692,0.0917784068595939,-0.0136612332158882,0.0056200566928751,0.0003613965963558,0.0004115630285267,0.0068599487684297,-0.9106741395478394,-0.4129654428234788,0.0309172554093666,-0.032892730775746,9.946046650729816,-0.0185845794189077,-0.005566154114875,-0.0139866524850115,0.4743362879993141,-4.790721512730829,1.1314414716275418,1135.54692460415,1140.8888914079027,1137.2120295175257,1132.9979129434785,-1008.6471041368656,-419.73792442591713,581.4526464442803,-97.8425266312136,151.6096349480611
4.5925,-0.5153562211264969,1.3955754478945757,0.1007862432439935,-0.0158702896326558,0.0113510532914947,0.0004604512024732,0.0004059018580835,0.0068763924269297,-0.9106658062365232,-0.4129581653157687,0.0356790868996485,-0.0327468377778687,9.94593039818652,-0.0185929126723221,-0.0053365919044592,-0.01355705686851,0.4743762630427315,-4.790746934243051,1.1314077170803367,1133.2689283941706,1139.8745154479825,1138.4817865995788,1132.9037627593775,-846.9851013852074,-432.11718338862744,453.0808601346604,22.23445180216051,151.6095578636625
4.595,-0.1690171808582504,1.0906021452039372,0.1194769749369676,-0.0163531699127679,0.0148525608774226,0.0003146325017073,0.0004114343207447,0.0068967624779737,-0.9106589718287108,-0.412951596663419,0.0400745335864725,-0.0327788628305254,9.94527445380612,-0.0185930835241795,-0.0051009647791299,-0.0131387230168966,0.4744147377749957,-4.790771097808204,1.1313777106663971,1131.311999097224,1138.7283054909599,1139.4774338181987,1133.1090852024893,-734.4498690166503,-536.4206500198294,352.0022056405271,155.3685568166235,151.60952832681912
4.5975,0.2308031317518097,0.7252049103932262,0.1618356306734189,-0.015210269655264,0.0163275158086191,0.0001093311071963,0.0004315371297805,0.0069222410489157,-0.910655626363461,-0.4129472061641125,0.0440347629381434,-0.0330613218961565,9.94413045746096,-0.0185865540213339,-0.0048584386922955,-0.0127368193181039,0.4744526777655108,-4.790793465270848,1.1313518141283256,1129.5966790490875,1137.1924121978834,1140.2417976277816,1133.6806055434608,-500.2092757530263,-586.4075503171073,205.6294240370468,249.50350932541107,151.6095467152562
4.6000000000000005,0.5132270344855395,0.4861810151682524,0.2136891476363276,-0.013013636799344,0.0157751060710562,6.32383274922003e-05,0.0004643541791077,0.0069525380102308,-0.9106576574875868,-0.4129466904053304,0.0475763323566953,-0.0335969215924494,9.9425607160684,-0.0185743299483502,-0.0046083513761742,-0.0123555470506277,0.4744908553188762,-4.790813778077418,1.131330038024284,1128.8109527184583,1135.796267739374,1140.5055809383844,1134.3566027491163,-172.61289316952937,-569.9937713705489,36.99091272651537,284.9666093724015,151.60960674452795
4.6025,0.7167346966094068,0.3677982230963316,0.2743620805649812,-0.0100585840022318,0.0144774036128314,0.0003069747135338,0.0005042487407693,0.0069843667491767,-0.9106648030503206,-0.4129518340896832,0.0507616974825101,-0.0343021846904427,9.940635969100915,-0.0185566756216405,-0.0043505097913156,-0.011997754587584,0.4745306723022303,-4.790833780611518,1.1313110872096352,1128.7336145832398,1134.3424433410307,1140.426752191414,1135.1054385903228,116.27092659832915,-627.2797868555377,-96.60963881433624,308.87805816005965,151.60971379181683
4.605,0.8686568278988319,0.3811317587682323,0.3389401039800973,-0.0068647637120177,0.0135236531513322,0.0010982087552505,0.0005431080984128,0.007012330955204,-0.9106748669736616,-0.4129647876273426,0.0536821135534,-0.0350332002375114,9.938432630502136,-0.0185330745727963,-0.0040854646263477,-0.0116646311664594,0.4745730673724745,-4.790855893076106,1.1312925630143345,1129.39230735145,1132.6598688050963,1140.0225327443127,1135.9009930399168,345.1557108382604,-582.4263322978037,-187.78714671607705,247.59160147814856,151.60989832853954
4.6075,0.9332092854605272,0.5056045327841096,0.3695104581437666,-0.0050200141061634,0.0136762717672776,0.0022472035537462,0.000572803367473,0.0070303754338699,-0.910682501363352,-0.4129866002706046,0.0564245506908394,-0.0356313496404109,9.936029884489894,-0.0185025016194397,-0.0038146546599649,-0.0113556866641984,0.4746168629430006,-4.79088168491715,1.1312725888087467,1130.459393137431,1131.4303116795415,1139.4878164578336,1136.3433965977135,499.5346562940192,-424.95708376828577,-243.5842146954708,105.14758965610096,151.610100766456
4.61,0.9548456708641226,0.7075214485654658,0.3584217017893383,-0.0037506540624428,0.0151193686045219,0.003842558234755,0.0005931867842575,0.0070378542674316,-0.9106840982043112,-0.4130142068851728,0.058976594648642,-0.0360976842743562,9.933506747822637,-0.0184638659123495,-0.0035400642649182,-0.0110691796910441,0.4746601025800249,-4.790911702312995,1.1312501380169426,1131.8899806329202,1130.5350833862549,1138.8046116708351,1136.4267309881973,602.9335818145811,-281.1851502137929,-290.7729770058329,-37.245435284831615,151.61035676486017
4.6125,0.9493760430347264,0.9373739885445757,0.3058515617261909,-0.0023100509605976,0.017807679195976,0.005538036683469,0.0006153398227627,0.0070373331470941,-0.9106809478876255,-0.4130427548230828,0.0611495186673955,-0.0365783140284474,9.93093998632321,-0.0184164125492734,-0.0032640662000476,-0.0108026289498879,0.4747013185776857,-4.79094430544122,1.1312250941472892,1133.474061046504,1130.0243859284728,1138.0339515728047,1136.1571694212892,634.538832280864,-92.36201581939184,-320.35924968377685,-192.41437845662807,151.6106597779394
4.615,0.907929445110824,1.1627211276986789,0.2070218576529742,-0.0002383806564201,0.0213266042908507,0.0067705862591945,0.0006466094539075,0.0070282422898243,-0.910676147554946,-0.4130671097577225,0.0627971914505076,-0.0371262920373094,9.928401328311665,-0.0183602225349398,-0.0029894295851754,-0.0105527951156116,0.4747398081267605,-4.790977587325431,1.1311977558192838,1135.0626747943245,1130.073273307158,1137.2028154224165,1135.464659095914,657.6501532296928,162.02403616294197,-366.0016589429311,-383.6872000325084,151.611022400034
4.6175,0.8036926487211424,1.3960925008610414,0.0542968094611259,0.0027988026930431,0.0254936722068534,0.0073588456970405,0.0006835544793528,0.0070079123896741,-0.9106729261339048,-0.4130820350227953,0.0639523423988278,-0.0376625474957158,9.92595478862617,-0.0182963176738536,-0.0027190418323117,-0.0103159037624445,0.474774813488538,-4.791010188083071,1.1311686557596898,1136.7623118126523,1130.8345061092875,1136.20394327809,1134.2387334211269,563.2515370435278,393.2420193342379,-354.71807358236066,-491.2091277272443,151.61152967891044
4.62,0.6643334795492819,1.5464352496781872,-0.0817006242527558,0.0055308736115501,0.0287279869319598,0.0070460268301822,0.0007232945406216,0.0069744830067108,-0.9106725216925472,-0.4130865582273836,0.0646450998331226,-0.0381214367243332,9.92365599312437,-0.0182261652674789,-0.0024556478667776,-0.0100884460153293,0.4748064904852962,-4.791042367073278,1.131138390697181,1137.878932479542,1132.039483403829,1135.4292250545047,1133.008613457278,362.2640182158991,585.0760424819778,-282.6839735014359,-500.4933119560192,151.61201447058033
4.6225,0.4741427917402206,1.6365686921534808,-0.2043838203678458,0.0078626822186679,0.0320947447319858,0.0059126600609818,0.0007652997193095,0.0069301733451579,-0.9106743894336408,-0.4130832883291749,0.0648978369596572,-0.0385251291765954,9.921551184116877,-0.0181513406622459,-0.0022015068242286,-0.0098675099153551,0.474835956370665,-4.79107519977961,1.1311083951309504,1138.573631903732,1133.7598863216979,1134.7905234105826,1131.7362668613464,194.3655010908556,847.6096600491654,-234.2795536923909,-531.0318396468688,151.6125655283357
4.625,0.2117822533261156,1.6514320468520267,-0.3216598533067155,0.0093389948667886,0.0369387053059355,0.0040777006790108,0.0008107913502565,0.0068789320189384,-0.9106781846180528,-0.4130740599992682,0.0647172337234875,-0.0389375347407859,9.91967711169976,-0.0180733071207559,-0.0019580396731377,-0.0096509102481175,0.4748636487938006,-4.791108964036022,1.1310808762757214,1138.8507599849963,1136.2775317040748,1134.2578272860428,1130.3534542590437,7.460096290424349,974.1481661136484,-150.3248792784266,-461.1981729099269,151.61330495116368
4.6275,-0.0074902851273729,1.5664210108182512,-0.3956886396555956,0.0092032789300312,0.0418435857099277,0.002625566871902,0.0008606176169187,0.0068279857000107,-0.910683967257155,-0.4130594869729411,0.0641454590717373,-0.0394761231884699,9.91806063080896,-0.0179933667344956,-0.0017256099203493,-0.0094369758508226,0.4748909646647881,-4.791143056575543,1.1310563590326588,1138.6109323851842,1138.630627152266,1134.0388990141903,1129.4302759967968,-185.26015436855627,963.8421996202147,-43.24232593558101,-305.0763760782112,151.61398699000435
4.63,-0.1942444099582361,1.3665258596129288,-0.4592402944093008,0.0079939986328367,0.0470408928198188,0.0015957254023249,0.0009131643819642,0.0067831120565352,-0.9106902038745532,-0.4130434795168803,0.0632588745142779,-0.0402102848827211,9.916719311939211,-0.0179126188123172,-0.0015037311325141,-0.009224225744485,0.4749190773512795,-4.791176148850453,1.131034311857509,1137.9244592131536,1141.0967427021756,1134.041615656365,1128.8280723786527,-385.5543705046412,1076.4454877314847,37.02057561131448,-180.850339684461,151.61473776797897
4.6325,-0.3563378474770962,1.0067546741281383,-0.5461267408079312,0.0061704353277541,0.0520293831495213,0.0008154512595925,0.0009642192701347,0.0067456191906778,-0.9106958562183968,-0.4130287228157243,0.0621459669386704,-0.0411075039714991,9.915662187774116,-0.0178319576576141,-0.0012910786801611,-0.0090110839813734,0.474948469809735,-4.791207333706788,1.131013896195548,1136.683160532661,1144.012854590923,1134.224001892247,1128.5260242983743,-507.19349711094935,1037.202742592239,79.8074917354387,-36.59545833616072,151.6157179196934
4.635,-0.4345278320206875,0.6377480167956328,-0.6401636946587294,0.0046276072543832,0.0542132116494842,0.0003400859713963,0.0010040537009989,0.0067153150003786,-0.9107014800576884,-0.4130142580462084,0.0609844250109298,-0.0420645210728529,9.914889662060524,-0.0177521059490997,-0.0010856932456783,-0.0087955274814944,0.4749785757683158,-4.791236537633074,1.1309941718154684,1135.3884917275989,1146.2827564151369,1134.440653115042,1128.6450950869719,-552.1832964036665,846.2286660362405,78.70174447171105,127.92291656337784,151.6165999037455
4.6375,-0.4596570634479195,0.2460677748780434,-0.7595105524908081,0.0031885171237665,0.0544259769208401,-0.0003146885876402,0.0010271403020954,0.006691898439339,-0.91070707547004,-0.4130002156799963,0.0598767035900426,-0.0430124191396294,9.914394815655676,-0.0176733647977548,-0.0008854468679783,-0.0085753125507394,0.4750093279868906,-4.791264870146502,1.1309737187785438,1133.9222440506428,1148.2439979211044,1134.6175106146056,1129.1656388811912,-603.3044052967981,714.0430594979232,51.09133652354212,275.47552876658887,151.6175476792696
4.64,-0.4515354924867788,-0.1309038564920395,-0.8898288853247855,0.0019517510653779,0.0535893675490838,-0.0014222059763272,0.0010401147382065,0.0066740409693452,-0.9107113713827382,-0.4129894234981602,0.058698694589936,-0.0439655748028733,9.91416486247996,-0.0175954541827399,-0.0006883691214138,-0.0083483321528817,0.475041404712465,-4.791294046273068,1.1309513644649147,1132.3719697011147,1149.8529717126264,1134.6961097976598,1130.0224727308048,-629.9766403870442,540.4477453451478,-0.7549227125309859,419.60529745702826,151.61854793628865
4.6425,-0.4201401011980095,-0.46322975294882,-1.0072081845897711,0.0011512919335267,0.0518845250343314,-0.0033944694039945,0.0010550038813093,0.0066593720778268,-0.9107142635029964,-0.4129820823315132,0.0572222788729182,-0.0449666311489801,9.914181474464888,-0.0175177745696681,-0.0004926967172769,-0.0081126535314441,0.4750748507685668,-4.7913245517995495,1.1309269704364056,1130.7723608487076,1150.94623664783,1134.6137360010428,1131.2636653684765,-703.3845011777695,348.58123616735617,-72.97141654242972,620.3867914898577,151.6196081422874
4.645,-0.3758103549695989,-0.7948006647848866,-1.0889287462388135,0.000706572099468,0.0493747545713834,-0.0069049806711045,0.0010812062446605,0.006645755403678,-0.9107158023980542,-0.4129780267356503,0.0552706681425777,-0.0460435449855386,9.914421195190815,-0.0174398080352073,-0.0002971303932837,-0.007866605400687,0.4751095884045444,-4.791356198943264,1.1309015726168947,1128.8550471952256,1151.5958778934635,1134.3312527149476,1133.1244066882543,-692.0987870134616,127.52466352749524,-126.32208686204916,726.7195964120829,151.6209443300463
4.6475,-0.3422967498373529,-1.0146395770750678,-1.0763584264706008,0.000640764336418,0.0473899212853337,-0.0105407574684799,0.0011192972838232,0.0066300087112935,-0.910715975470248,-0.4129772565587821,0.0528201424623312,-0.047135377991814,9.914856687693447,-0.0173614908328463,-0.0001010133613425,-0.0076089114488833,0.4751449007694103,-4.791388741272163,1.1308767842124918,1127.3118669136404,1151.5838599654676,1133.9821255667327,1134.8972633505368,-587.3852985927113,-107.96441464126704,-148.9001836028851,727.3178462526784,151.62210642583966
4.65,-0.3114656404702731,-1.1789925723119379,-0.9549590400327364,0.0006398182137861,0.0453836213372826,-0.0142790919373017,0.0011647442187698,0.0066130849246706,-0.9107157156959632,-0.4129776340293573,0.0499760428657386,-0.0482160067643621,9.915458132630745,-0.0172834168438889,9.578612271522387e-05,-0.0073388847657854,0.4751799279594712,-4.79142193991184,1.1308528928506363,1125.918120702262,1151.0560558202571,1133.5867517969332,1136.7609959195179,-547.9590662498257,-325.4138884767668,-167.92432329607794,801.6745318942583,151.62331249447587
4.6525,-0.260025902904927,-1.3076824720392095,-0.6792192285091687,0.0003114049595887,0.0420992395229298,-0.0179769611459868,0.0012092527216156,0.0065972645139484,-0.9107148814914318,-0.4129793936158176,0.046925920905907,-0.0492535442256021,9.91619557175528,-0.0172069067321283,0.0002926708683124,-0.0070565157258839,0.4752122784136684,-4.791455491664468,1.1308300949740804,1124.5720715823911,1149.9567905230836,1133.1425039502524,1138.905636010008,-412.7112780497188,-458.00536519883354,-148.67095675063274,739.9373181289934,151.62480248743924
4.655,-0.1839189913029444,-1.3485195442258373,-0.3550554668594167,-0.0005795486210581,0.0384348715650917,-0.0200426421751614,0.0012445686842158,0.0065843162734353,-0.9107125421451202,-0.4129845369476427,0.0438564732100489,-0.0502079058825763,9.917041165134918,-0.0171338769522833,0.0004884986811746,-0.0067625637776637,0.4752400914825441,-4.7914896019508495,1.130809071262913,1123.8545643120135,1148.766028994263,1132.84339701318,1140.4606825101628,-173.1209799525496,-507.99153175436174,-99.43087805677561,537.5267848195223,151.62607446856438
4.6575,-0.0475738409709165,-1.3114218009289107,0.0344937117399146,-0.0022180099144833,0.0343942626648945,-0.0209342555628883,0.0012728867417478,0.0065765853265591,-0.9107082988353156,-0.4129938633278357,0.0407749875733463,-0.0511356605429151,9.917971004255406,-0.0170664620129812,0.0006821189786598,-0.0064587359393546,0.4752645506838923,-4.791523720041951,1.1307904179370352,1123.7064666826286,1147.416832864312,1132.6453495599685,1141.5932699341056,89.12129338209715,-607.5705707776381,-65.52884295679317,366.66971221989894,151.62737316760075
4.66,0.1972085673831824,-1.1805382241963125,0.5256389544550362,-0.0043883129995234,0.0299423778242768,-0.0205443322040106,0.0012983299224759,0.0065754554552699,-0.9107029158223936,-0.4130056385548013,0.0376508512164329,-0.0520924005993167,9.918965987574976,-0.017006807513557,0.0008727082331038,-0.0061472367966583,0.4752881807829633,-4.791557200125688,1.1307738421530995,1124.300170778924,1145.728176140375,1132.515752798396,1142.2940310712622,348.67129777911947,-618.9969133802093,-35.69202629227572,133.96610176771625,151.62895898632823
4.6625000000000005,0.4536331876754104,-1.0133760196808657,0.9105695563023368,-0.0055218665190144,0.0268263544747449,-0.0188414804206245,0.0013283113248148,0.0065798971260838,-0.9106982334735324,-0.4130158069772207,0.0343789500455521,-0.0531176363579549,9.920012931703,-0.0169568264055618,0.0010598873158865,-0.0058306147991948,0.4753124464621269,-4.791589676805658,1.1307588652698295,1125.4498231715245,1144.3218482974105,1132.466889428507,1142.2631004429443,577.9146073327532,-552.2355471037035,-17.133115118531716,-135.56911342357415,151.63030208123948
4.665,0.7142337460972717,-0.8125017512601762,1.2152263684229732,-0.0046238215616716,0.0245710370967349,-0.0154692004882591,0.0013655382975838,0.0065826368136758,-0.910695400250058,-0.4130219731108109,0.0308922779096869,-0.0540999839306866,9.921105368723904,-0.0169181770983874,0.0012433806808252,-0.0055114311934383,0.4753371669740823,-4.791620937313322,1.1307445187648963,1127.1897438155877,1142.9669984048564,1132.4300872228034,1141.6161855041444,765.2132688510553,-527.0685365340454,-18.14773325832032,-340.5959969411542,151.6316676617193
4.6675,0.9247283105917028,-0.607452326364452,1.416915571759099,-0.0015491490567982,0.0231961988475398,-0.0107556327029691,0.0014055227685294,0.0065751047852513,-0.91069578774708,-0.4130212934442466,0.0272470725704964,-0.0548463269937851,9.922243370485667,-0.0168922770913001,0.0014229289316852,-0.0051920769672722,0.4753614380114196,-4.791652425908406,1.1307302103012482,1129.2758895157797,1141.6865056147403,1132.3761507622155,1140.5601204582383,869.6036237659613,-485.8937119082488,-25.342679925825532,-478.44969305252664,151.63305311700253
4.67,1.0148114020811616,-0.4242344889655896,1.4686182280263267,0.0032059907583451,0.0227176406550638,-0.0052566257346929,0.0014435182141355,0.0065547481890216,-0.91069950677331,-0.4130135344482455,0.0235570638434787,-0.0552712931666105,9.923432735532865,-0.0168802055882154,0.0015981902252503,-0.0048749337890967,0.475384396359173,-4.79168619749146,1.1307167672515543,1131.5377619344174,1140.5375298453152,1132.3033738231743,1139.2239370388816,967.1550721133121,-461.62715959818416,-25.015828510777812,-584.695708699486,151.6344654206566
4.6725,0.9424975621168958,-0.2534437084466251,1.3597731178327124,0.008692505994105,0.0225726771994458,0.000690384711954,0.0014812349610567,0.0065256566765892,-0.910705858742702,-0.4130001118404592,0.0198753962570141,-0.0554648093327527,9.92468390841483,-0.0168825906365893,0.001768973962221,-0.0045625221088127,0.4754062938925916,-4.791722833074947,1.1307056479954483,1134.111664876346,1139.3783698167495,1132.2510716196616,1137.6366419147412,874.2943166565242,-376.34658154316526,0.9855882100964872,-530.3102957731537,151.63619636272523
4.675,0.7344269179381232,-0.1594976453015374,1.153802965895478,0.0120405155561748,0.0225414905155262,0.0043586782740399,0.0015215545092733,0.0064933649974325,-0.910713740365759,-0.4129833272221903,0.0162467229861938,-0.0555545382410829,9.926012063278396,-0.0168999854434479,0.0019354179291973,-0.004257306313056,0.4754277012424072,-4.791761040511389,1.1306983719657775,1135.9092335177,1138.6557969375995,1132.3083017642248,1136.572385560016,606.5810563597227,-222.4479226247288,62.32089747891356,-327.6334541571102,151.6376730348468
4.6775,0.405564139099427,-0.1151013825749804,0.8788360857637966,0.0140583356944205,0.0226310352149744,0.0063917906107166,0.0015644393338699,0.0064604230666367,-0.9107222282433428,-0.412965159212196,0.0127437502863183,-0.0555932111730695,9.927436044985663,-0.0169329645037636,0.0020982320517076,-0.003961306587318,0.4754483211001784,-4.791798937286217,1.130694985734694,1137.1445701581447,1138.2661302036258,1132.562676107056,1135.9984746439557,394.0351718135928,-76.83251730782267,171.27206042201033,-117.96094436899944,151.63918995690494
4.68,-0.0695686299718701,-0.1090804889448839,0.5305777943981635,0.0150641194338195,0.022691004626696,0.0069724897678087,0.0016061736316393,0.0064279723240443,-0.9107300175451712,-0.4129484759732746,0.0094925239681958,-0.0555813361076306,9.9289765065966,-0.0169821203312528,0.0022587434082877,-0.0036756032250124,0.4754678543861523,-4.7918348046565535,1.1306943338103712,1137.8794093767679,1138.2716343510604,1133.1646620663348,1135.982580838171,150.6649906067228,90.49518561974048,269.87319332466205,98.26440202728216,151.6410620643262
4.6825,-0.4815584783161092,-0.131075269901968,0.2588179316781264,0.0143482685152319,0.0224073535317816,0.0064070795764154,0.0016406204714897,0.0063975810958467,-0.910736760024834,-0.412934048464869,0.0066633448091194,-0.0555110124606232,9.930653709731203,-0.0170478031819117,0.0024189530876705,-0.0033999711680208,0.4754864463956086,-4.791867836760954,1.130694249418433,1137.8978951111783,1138.7186061317243,1133.9120420736795,1136.489796654092,-89.14166047942187,275.4443419321912,335.3260605227591,276.2011413805817,151.64266901400615
4.685,-0.8468262790173497,-0.1638043496549088,0.0233832625463387,0.0117712519348174,0.0217756983477771,0.0056437435510986,0.0016654858892261,0.0063709622827801,-0.9107424594031868,-0.4129218598465104,0.0043534790956647,-0.0554122261725163,9.93248520492538,-0.0171297106882165,0.0025813057158496,-0.003132934967657,0.475505821926747,-4.791898478391364,1.1306928562457876,1137.4337010743707,1139.6488560607215,1134.8412923689489,1137.3635865450742,-271.31040113345654,515.7663038339816,419.95726418741447,407.40456054973913,151.6443288233802
4.6875,-1.1689961325843738,-0.1983970848086966,-0.2244980061474734,0.0071635029326077,0.0209224176608598,0.0052491232982868,0.0016873789494505,0.0063484154599372,-0.9107463505483074,-0.4129135726289093,0.0024809445498632,-0.0553659587238598,9.934483567519937,-0.017226573436781,0.0027482767401943,-0.0028720991570564,0.4755275579900288,-4.791927851974942,1.1306894437481358,1136.541343105511,1141.2974376508944,1136.0118283946165,1138.5268194568407,-350.59391338223406,681.1004696717791,412.4166707284164,395.82933606230586,151.64638635752402
4.69,-1.3121471069998067,-0.2147787218836095,-0.4156726561020567,0.0028882294664886,0.0202255986138028,0.0053561882401512,0.001712126467257,0.0063276252674613,-0.9107466347155536,-0.4129131733310789,0.0009480119374753,-0.0554024191859669,9.93665484801458,-0.0173361370323857,0.0029218969648753,-0.0026142360191826,0.4755517700841508,-4.791956816356658,1.1306843435607647,1135.6807315074595,1143.0543584090804,1136.903375722591,1139.3427332253857,-338.5218786632849,757.0260993223818,312.28037911733486,242.6043521157732,151.64815899019743
4.6925,-1.3143020703899293,-0.212162939837613,-0.6004768457751039,-0.0012957497868585,0.0195244412431375,0.0052601506309609,0.0017401718425513,0.0063084781122459,-0.9107425984237592,-0.4129222436304367,-0.0002374861764966,-0.0555493914487763,9.938996826463454,-0.0174552601737125,0.003103537719451,-0.0023554446354815,0.4755778020091707,-4.79198644730717,1.1306776739824482,1134.8487337121946,1145.0825681475062,1137.5732302902031,1139.7398412174196,-315.24516033978887,828.8628849340688,218.469939089032,64.86766862685865,151.64999521054042
4.695,-1.206409185517832,-0.1917820182823278,-0.7749389720624823,-0.0053002973739268,0.0187774170162803,0.0043860749998873,0.00176710549364,0.0062924903989669,-0.91073594545002,-0.4129370286451311,-0.0009776074627784,-0.0558248778412759,9.94149815505363,-0.0175800687103654,0.0032937453182002,-0.0020915315723902,0.4756046989884832,-4.792018787433141,1.1306695544696703,1134.1045057057606,1147.1986728337506,1137.995725418036,1139.66707156852,-271.96120810240825,825.7405942174676,105.60705610505688,-147.004253683875,151.65188584324736
4.6975,-0.9895775651991982,-0.1510707508446216,-0.916648004701102,-0.0088202756227734,0.0179833179271423,0.0024736660537357,0.0017876290660657,0.00628074261859,-0.9107291409835864,-0.4129521064456556,-0.0011739833366704,-0.0562308442397394,9.944137980775098,-0.0177062330431173,0.003492057679545,-0.001818498911867,0.4756318131205918,-4.792054829137059,1.1306603415624163,1133.4889276716826,1149.2112711185935,1138.1012655707284,1139.004819949,-243.75331747128777,803.0016502408841,-16.95158297679918,-400.35441365663195,151.65384279648802
4.7,-0.6522860814919079,-0.0866058363303037,-1.0149203919684249,-0.0117013234559721,0.0171885666273859,-0.0006913831938054,0.001801375883236,0.0062735589311308,-0.9107243081316542,-0.4129627985678664,-0.0008364204731334,-0.0567938639377417,9.94688579469354,-0.017829324513852,0.0036970877246847,-0.0015330137358433,0.4756587976078935,-4.7920937194087,1.130650761367992,1132.8857391184042,1151.2136810849547,1137.910967503152,1137.6652995002369,-202.4685030300632,625.5672398120756,-106.29553818339672,-543.1643521603862,151.6562670020662
4.7025,-0.3520858187139605,-0.0310507567492507,-1.013572442448112,-0.0124964250769616,0.0170271178080719,-0.003940195648355,0.0018084655367482,0.0062689836162925,-0.9107226243821556,-0.4129665409736553,-1.4976395430000254e-05,-0.0574997805431652,9.94970235370828,-0.01794517493695,0.0039066931585494,-0.0012325256198723,0.4756853645291067,-4.792134750789684,1.1306415266752463,1132.4765851565323,1152.3391073176535,1137.5697878798114,1136.2889981881983,-147.15795516085876,300.47199997052945,-147.61923437568245,-547.9874474472243,151.6583485526399
4.705,-0.0857484509674293,0.0098357733834436,-0.9075672841064768,-0.0118091942867878,0.0176774222233166,-0.0076085321948191,0.0018163957195281,0.0062667436668367,-0.910724609490722,-0.4129621536664244,0.0011081957028403,-0.0584210896840989,9.952540029969482,-0.0180500931629971,0.0041182345926646,-0.0009154876492597,0.4757111862623671,-4.792177807133557,1.1306339330218875,1132.1499493426,1152.7160410848076,1137.1728713312737,1134.9253622630008,-122.94805620956949,-30.6553430429128,-154.07086859242875,-535.9947468984118,151.6604901320653
4.7075,0.1493836975416965,0.0297073897707496,-0.6614761619093206,-0.0101893869299507,0.0188665311228294,-0.0116309334332592,0.0018308349292762,0.0062653862540447,-0.9107297606387796,-0.4129507371399773,0.0023631076728998,-0.0595887039876513,9.955344858269914,-0.0181410547447276,0.0043287177331888,-0.0005811049050349,0.4757361826900015,-4.792222990672266,1.1306286171319335,1131.8618448754844,1152.1858306024392,1136.7994335368492,1133.6090244537058,-82.9530782446472,-360.52521776014913,-99.116185160576,-396.9067561726745,151.66312326604475
4.71,0.2590030841118516,0.0243725096462695,-0.378982997974113,-0.0083456106257004,0.0197431174710096,-0.0137727542184495,0.0018523960052335,0.0062642399950568,-0.9107369664909456,-0.4129347480075382,0.0036680839364188,-0.0610005176595649,9.958057991701985,-0.0182158140318867,0.004535051949717,-0.0002290217789633,0.475759733494586,-4.792269814870704,1.1306257928300187,1131.7351839513767,1150.9134149960068,1136.6772904054708,1132.9408284821375,-16.852438263595463,-666.4443585446094,5.840957041073249,-159.3059633450627,151.66536449153764
4.7125,0.2820546310869568,0.0138887327628892,-0.0614687267385853,-0.0059609629746146,0.0201158792804204,-0.0142243958820025,0.0018746779276564,0.0062627127801668,-0.9107445881952266,-0.4129178383772159,0.0050614260462701,-0.0625925075620075,9.960617470134794,-0.0182729422026879,0.004734309020354,0.0001409486284853,0.4757806154369712,-4.792317892911662,1.1306247023993847,1131.7775826841664,1148.8536088097162,1136.8286383220543,1132.8124946369803,70.30259518146671,-1049.6360495020094,134.5667944877306,65.3316036639367,151.66764630797087
4.715,0.2457731244083047,0.0275957066413066,0.2988054138895196,-0.0037723221690841,0.0196330801107418,-0.0131685378513436,0.0018894980086779,0.0062576491144197,-0.9107501585951266,-0.4129055348710212,0.0065868718342478,-0.0642341276144655,9.962960049662287,-0.0183117566656512,0.0049240087801342,0.0005287763880074,0.4757991847615643,-4.792367002052116,1.1306236944898307,1132.086696927284,1145.6652347484967,1137.3501243779094,1133.2674865004572,162.56369926514145,-1247.4331653208349,244.09051094335675,251.88923946212157,151.67042179728867
4.7175,0.2092962993886965,0.0836395308459941,0.5415510861823445,-0.0036926413965334,0.0185038465041147,-0.0111044856852394,0.0018944997456781,0.0062457794097974,-0.9107524164567709,-0.4129006780510882,0.0081777851488258,-0.0658360234025688,9.965022465841258,-0.0183321608760062,0.0051026076056218,0.0009340406794552,0.4758173394530211,-4.792416684678251,1.1306215547008196,1132.590401180492,1142.616442983112,1138.0490908767713,1134.0719408342911,253.82669551800603,-1239.6193982090415,324.74791755281115,378.24246905252846,151.67275950242183
4.72,0.2285783426705261,0.1989194885658163,0.6908329912369935,-0.0050950171492155,0.017501037276775,-0.0080856342960315,0.0018902863524439,0.0062263939033411,-0.9107509507483504,-0.412904184266337,0.0097331785862206,-0.0673760338602849,9.96674304086168,-0.0183345966164544,0.0052696139258658,0.0013558743260254,0.4758361005144765,-4.792466092328561,1.1306185099744328,1133.355830404874,1139.4671377574518,1138.9738639656734,1135.1586988457195,390.85085631928376,-1328.6327435050964,444.8957898651865,499.2472039715828,151.67511642397622
4.7225,0.3634476288419126,0.3936582797681685,0.7502491879616779,-0.0066295423658246,0.0175576562931964,-0.0044821328616404,0.001884021474692,0.0062007673257463,-0.9107465470980424,-0.4129142730994985,0.0110496684984629,-0.0689195420517557,9.968063451492055,-0.0183200552889957,0.0054255533497287,0.0017925683689597,0.4758557156584096,-4.792514736206317,1.130615888784702,1134.5446554620885,1135.9732792655868,1140.2735698260972,1136.5681768541488,472.1023283984949,-1175.0088297093935,497.1268002883467,503.57528692130785,151.67796061274694
4.7250000000000005,0.576165155777868,0.5801955557403731,0.7111545288224813,-0.0071669087068736,0.0185367081017035,-0.0021421494792315,0.0018859104593275,0.0061702317594378,-0.9107412446700422,-0.4129263856024431,0.0118715039554413,-0.0705565821936057,9.968930854216238,-0.018290083981845,0.0055717750217783,0.0022414474187304,0.4758756169981012,-4.7925617365577615,1.130615214319595,1135.7163420468669,1133.592093608904,1141.4594979671156,1137.6765752803267,492.3072695538499,-782.5825626936132,481.6149714538472,400.9886202510728,151.68034019271929
4.7275,0.8715088662944023,0.7581742580285769,0.6088594883258251,-0.00687276392483,0.0201071540176584,-0.0006774353213154,0.0018975886652441,0.0061347318738892,-0.9107364893332648,-0.4129373288526567,0.0120915688237418,-0.0722807107600034,9.96929999802668,-0.0182467015542028,0.0057100523905393,0.0026991812213926,0.4758953138779818,-4.7926057826263175,1.130617873186956,1137.0061918098577,1132.0603664521188,1142.6816446833664,1138.5731199554043,523.3996560041417,-441.9556099671448,483.36773297970586,310.6126726043906,151.68272595033795
4.73,1.199769454625576,0.9024235305878656,0.4791812110968668,-0.0054973916432592,0.0222961123690405,0.0001696253602221,0.0019115459450141,0.0060918579793397,-0.9107335981309957,-0.4129442696410713,0.0117557759369959,-0.073967151723058,9.969134725475136,-0.0181921185871553,0.0058423476290587,0.0031619871155334,0.4759151669650502,-4.792647155222435,1.1306242628937315,1138.3333403268875,1131.3823155590683,1143.876336632014,1139.2296386433486,523.6864519478897,-54.319928051610326,456.0730897980745,199.9712575511737,151.68511483988888
4.7325,1.5058156378668768,0.9754235597486384,0.3424561119112327,-0.0023628337231127,0.0254316256437247,0.0004978865221429,0.0019237595770803,0.0060409103908061,-0.9107337926975893,-0.4129445433788979,0.0108687568476386,-0.0755508289926934,9.968408044875689,-0.0181284977925852,0.0059704568043355,0.00362571413285,0.4759356043683652,-4.792688056809129,1.1306340301056494,1139.624624069597,1131.7887668118608,1144.9620101323567,1139.57297624316,537.5973553367772,409.823600756508,431.77815704390025,84.01131207410978,151.68750582325168
4.735,1.7574611813445529,0.9529448534523544,0.1927023713258526,0.0037049214547664,0.0301277947396066,0.0005650215787772,0.0019405683865533,0.0059870812506773,-0.9107374148794766,-0.4129372814371926,0.0093049887686604,-0.0771587785100555,9.967101772342817,-0.0180579125923519,0.0060956268164548,0.0040861188792629,0.4759569068961487,-4.792730126048909,1.130646312545851,1141.0213271035711,1133.4314335628508,1146.0352274172335,1139.6496952037191,470.1499732037618,759.5045231362909,339.9479018116908,-18.18301694779659,151.6903754505711
4.7375,1.8124040404509447,0.8398329753866433,0.087615308689128,0.0104349314973691,0.0340954520093091,0.0004946216950816,0.0019679996155745,0.0059360733009463,-0.9107435698396116,-0.4129243358075853,0.0069597523068713,-0.0789241367646747,9.9652076849408,-0.0179824479976286,0.006218446067918,0.0045393089145845,0.475979042192439,-4.792773979222312,1.130660432689047,1141.9753739356158,1135.586289427542,1146.661749641415,1139.4820611584212,319.9993999751837,967.0466693070673,177.66371631046619,-100.42373678379803,151.69276549337272
4.74,1.6673301319723275,0.654069522798794,0.0039131811848031,0.0173237347438621,0.0367232307095316,0.0003929617696601,0.0020070141887278,0.0058890072145351,-0.910751285325384,-0.4129078212637439,0.0037947544879367,-0.0808540801841429,9.962728216490166,-0.017904404359313,0.0063390005056094,0.0049819121531497,0.4760013321624701,-4.792819215551392,1.1306765109257944,1142.6213241034473,1138.266666909386,1146.9235459987858,1139.1475765198,196.92034384116107,1225.846726934177,14.618224346759543,-167.25228993810006,151.69515178920219
4.7425,1.2709253309971142,0.4042454924787002,-0.0772326654895295,0.0238637884661724,0.0375457980022461,0.0002672263225856,0.0020562936623892,0.0058460970298994,-0.910760017753877,-0.412888937573719,-0.0001811424053401,-0.0829190008531552,9.959675297875009,-0.0178265220991195,0.0064569521413329,0.0054112170417544,0.476022774062406,-4.792865057508508,1.1306944644883832,1142.9599756548216,1141.7155230622127,1146.734840763149,1138.6457997087307,44.48775386190486,1250.7769931635987,-159.44014149004374,-187.14908172005775,151.69800776347972
4.745,0.7945084931392035,0.2171601250708941,-0.1342329040713572,0.027182931278951,0.0366451199160445,0.0001392906139909,0.0021094722621275,0.0058080078755477,-0.9107694367664322,-0.4128684386842892,-0.0048496104784013,-0.0850538710406505,9.956069621401,-0.0177520461293229,0.0065716136205606,0.0058254034582452,0.476042633665901,-4.79291033723978,1.1307141742797795,1142.8437628727568,1144.5205518752039,1146.1263452913356,1138.2118311112,-129.83659059261998,1054.22534301876,-334.9635942287409,-162.09691332616978,151.7003787257729
4.7475,0.2357029931820499,0.0850585217500509,-0.1858037374247059,0.0281849824491267,0.0353119976810545,-7.28845623375377e-05,0.0021576279316372,0.0057724661263365,-0.9107790432288108,-0.4128475067634167,-0.0100552610625694,-0.0871168927958223,9.951940270172404,-0.0176846831244164,0.006682041411666,0.006223481401135,0.4760606277406413,-4.79295483876969,1.1307344543035769,1142.3107927018584,1146.9866497773075,1145.0600227920047,1137.8353151420995,-319.1226344515667,962.1153076785251,-558.1840989810308,-140.25738833738913,151.7027367087369
4.75,-0.4432382821105377,-0.0063793819470524,-0.2447964894498577,0.0271292389758991,0.0343587082391461,-0.0005151219391019,0.0021995106112611,0.0057354352384795,-0.910787948949128,-0.4128281643540999,-0.0157809093507779,-0.0889947336664375,9.94732275998536,-0.0176285202296054,0.0067870596812936,0.0066050464522025,0.4760769065401687,-4.792999185488897,1.1307536282790775,1141.2481497004987,1149.3311284135964,1143.3354247964303,1137.5105441695127,-442.61455775605134,738.1884564981804,-684.8888830000906,-94.40079907062884,151.70554656394938
4.7525,-0.9583840665744364,-0.0420449176592673,-0.2917456698136354,0.0247693010357185,0.0343664328263229,-0.0010926775668849,0.0022390438622839,0.0056965031748691,-0.9107951885832184,-0.4128125256480084,-0.0220576704216218,-0.0906794454675618,9.942257134631488,-0.0175877761412635,0.0068853482286624,0.0069703016947691,0.4760913762561425,-4.793043528784554,1.1307705597513216,1140.0977199130782,1150.6775920597984,1141.6355783770043,1137.3633111467464,-486.3953483927265,405.6581681999064,-699.4635469374465,-36.044425027285655,151.70786792211416
4.755,-1.3640342594054984,-0.0607195579665492,-0.3349408979131775,0.0210362005022039,0.0349149180265803,-0.0018803355727872,0.0022787957102302,0.0056573889856207,-0.9108005209598282,-0.4128010851512379,-0.028859221954041,-0.092187606712215,9.936787901409057,-0.0175665291056447,0.0069756991228247,0.0073198097765359,0.476104133747408,-4.793087495722835,1.1307854259322867,1138.8161729585352,1151.3594192545959,1139.8381070617431,1137.3303220443763,-511.1731403496488,167.32523495671003,-704.7317340632767,-0.241812338026653,151.71016393707535
4.7575,-1.6466601480298426,-0.0798700764427021,-0.3737284929442186,0.0162321647472444,0.0353400061648788,-0.0027280531104976,0.0023230256135154,0.0056201114728497,-0.910804606293639,-0.4127923350427443,-0.0361727650448034,-0.0935522787663072,9.93096345484682,-0.0175685710515195,0.0070571713125505,0.0076539132762091,0.476116125569699,-4.7931307549797095,1.1307992062161505,1137.54185421133,1151.514218234582,1138.1119197066882,1137.3621020850564,-483.9409552350492,-50.429882094477925,-636.7367891279308,19.83212877858065,151.71243614917947
4.76,-1.75849990473107,-0.1077823336523974,-0.4058034545600816,0.0104580896977746,0.0353363522818771,-0.0033512268323956,0.0023768854183643,0.0055872478295413,-0.9108072027468168,-0.4127867460390495,-0.0439831716061936,-0.0948218215710668,9.924835739826749,-0.0175972908205591,0.0071289893071371,0.0079723895429723,0.476128349208432,-4.793173577989549,1.130812832642821,1136.39646818236,1151.1072698441235,1136.6544231161035,1137.4294826882694,-454.2109204614104,-281.7447665119804,-541.4052907426255,30.199102074084937,151.71467702191694
4.7625,-1.6952907445221714,-0.1543188984532294,-0.4314209933505924,0.0033523200854301,0.035336345232182,-0.0039491071707338,0.002442120388972,0.0055598896895439,-0.9108085447514443,-0.412783777261418,-0.0522136323086391,-0.0959882678468439,9.9184610306146,-0.0176554833358087,0.0071906754545358,0.0082742758102377,0.4761407877237473,-4.793216486796277,1.1308271133322898,1135.270799609023,1150.105494402022,1135.4048932529752,1137.5130975954269,-367.1287046089752,-429.24596706830926,-359.7012200369668,29.91860069159948,151.71732735886098
4.765,-1.5025463942247648,-0.2022507034807218,-0.4324629832042908,-0.0016463858345847,0.0354387964580367,-0.0048577734658263,0.0025132181932212,0.0055361707945603,-0.9108086591492328,-0.4127834232109046,-0.060669993797815,-0.0969304547044449,9.91190094784858,-0.0177452895628968,0.0072419935398591,0.008557841000304,0.4761526475214132,-4.793259594315707,1.1308429592534193,1134.5608246593151,1148.961040008782,1134.8559170159187,1137.5790756917274,-244.002578250416,-492.88543136668653,-117.93424327202298,29.29950852690189,151.71950256481043
4.7675,-1.2178654142685035,-0.250773016863607,-0.39576289842208,-0.0044835484704592,0.0351277548392869,-0.0064994794778474,0.0025863423978396,0.0055145497476339,-0.9108075529900092,-0.4127857064846798,-0.0691775795752102,-0.0975477867102334,9.905220561905802,-0.017868255906124,0.0072828769990515,0.008820506427621,0.4761633634159191,-4.793302731779068,1.1308616765782267,1134.0507867177707,1147.6410672451887,1134.815222036615,1137.6595951380611,-197.09720974016463,-590.551173067432,75.90667086068329,46.38710844027812,151.72164249380293
4.77,-0.8396824781820151,-0.2916430470114711,-0.2944927644259635,-0.005480687242719,0.0338717745869578,-0.0088831538874194,0.0026625899986849,0.0054948338455877,-0.9108064572666617,-0.4127879010826371,-0.0776340090202245,-0.0978061018551179,9.898486937323037,-0.0180252345909769,0.0073135753222995,0.0090590372597833,0.4761728308205976,-4.793345942671085,1.1308849201309714,1133.5753386106144,1146.0082841434444,1135.2354503702225,1137.8110112339289,-166.4994996283475,-587.6842649130265,203.4543929195068,69.68475617091066,151.724169890262
4.7725,-0.530507757091261,-0.2993794604790238,-0.1653038149040657,-0.0053953593149059,0.0325224871042064,-0.0105796576128665,0.0027429115235124,0.0054774289181885,-0.910807327465643,-0.4127856778010509,-0.0859259069343139,-0.0976838549719349,9.891769126106984,-0.0182161870668543,0.007334777147115,0.0092701287391541,0.4761816358851141,-4.79339010284538,1.1309137217926852,1133.2182892196292,1144.7026459206236,1135.8324940012124,1138.008018918916,-146.7611836098544,-492.4679087939799,249.20112111013245,96.01915631196992,151.7262430805415
4.775,-0.2424745284495175,-0.2744771389872002,-0.0122941585800722,-0.0054694271686613,0.0313723516774769,-0.0114076056406649,0.0028266517666499,0.0054638928775173,-0.9108115189786862,-0.4127760300714087,-0.0939004538412551,-0.0971721343442245,9.885137123769455,-0.0184401201661514,0.007347638638542,0.0094511271854212,0.4761907216944783,-4.793436036848345,1.1309473710473212,1132.8415326925651,1143.5459445994743,1136.481455975773,1138.2911070154887,-171.87388276820823,-460.8556889356904,251.2550910479657,140.82626634576928,151.72828338038374
4.7775,0.0882614063895484,-0.2123117968551191,0.1541994531658217,-0.0061369891000368,0.0304142498777606,-0.0108154554226027,0.0029080892320743,0.00545381255793,-0.9108193557092772,-0.4127582896402617,-0.1013312029971834,-0.0961921546707547,9.878661365335656,-0.018695123776964,0.0073539617497764,0.0096007254659311,0.4762005918733801,-4.793483840163558,1.130983363934182,1132.3589198057882,1142.3983674759452,1137.0887694564524,1138.7121502506448,-175.5562581253381,-377.3945270484172,166.55462764884203,161.14002420631894,151.73069524742408
4.78,0.3615024824404459,-0.1423673265276969,0.2438810067591972,-0.006834671577351,0.0299531254604511,-0.0089787923009642,0.0029772269484578,0.0054437826839848,-0.9108297627115272,-0.4127349473098496,-0.1079433221909078,-0.0945855431080737,9.87241060685244,-0.018978571025813,0.0073562810258479,0.0097193779129781,0.4762116469138878,-4.793533288127676,1.131018391904553,1131.9637514019385,1141.6589719642325,1137.3142291140173,1139.0968071365203,-145.2796152466848,-253.91117774821024,12.09848642070054,149.96973541424586,151.73267574098952
4.7825,0.6310159186286189,-0.0660478539045502,0.2552877329922656,-0.0067016703111484,0.0297568957240191,-0.0066679377205791,0.0030259967414674,0.0054311407224131,-0.9108403533142876,-0.4127113683138757,-0.1134972690419678,-0.092233834607172,9.866447531287463,-0.0192873985693206,0.0073578004191251,0.0098092902040254,0.4762246999078456,-4.793583610318961,1.131050116529674,1131.6325217295548,1141.128811587204,1137.1492618885559,1139.461998927716,-115.26539230858609,-182.0869417547822,-132.88480865876693,134.4552491453243,151.7346268016172
4.785,0.8821012924691402,0.0062891903783695,0.200365006820246,-0.0054470351544065,0.0297139534500269,-0.0047103975153889,0.0030560238232554,0.0054152097484782,-0.9108484739049084,-0.4126934082246639,-0.117920468287259,-0.0891445565884827,9.860823937075617,-0.0196183969395051,0.0073623235234808,0.0098738807514255,0.4762406778235002,-4.793633451771832,1.1310781425582683,1131.3874244403955,1140.7485372554584,1136.6498050707235,1139.769083382247,-74.87832685450222,-118.84076134945605,-266.9646710915041,100.2214499584468,151.73655415537664
4.7875000000000005,1.0802318834073814,0.0631966282126902,0.0872149936530268,-0.003082022341943,0.029802485128774,-0.0035737023785175,0.0030774926525142,0.0053947373119777,-0.9108531157502366,-0.4126832351193616,-0.1213095865899342,-0.0853953221558557,9.855578971976632,-0.0199683045077896,0.0073742225166702,0.0099171730561333,0.4762602102781204,-4.7936821939671965,1.1311036374119339,1131.2581300952822,1140.5346077804568,1135.814438533098,1139.9631061775083,-33.367021658569485,-50.494920375468766,-412.2877465047256,52.28070776979733,151.73845363419295
4.79,1.2126117313672864,0.1001979586019576,-0.0672120722007701,0.0006498754733554,0.0300325788450979,-0.0035917921295144,0.0030992491938152,0.005368896798324,-0.9108553400464596,-0.4126784541784727,-0.1237460766931632,-0.0810710871676287,9.850740412465901,-0.0203337184916711,0.0073981189699633,0.0099436098608525,0.4762827733153766,-4.7937297522429585,1.1311281548784182,1131.2205893321027,1140.4960626535812,1134.5883663381999,1140.0304869210959,1.3592103413884904,31.717125508794872,-457.88811970197526,-2.6366040124685806,151.740701521213
4.7925,1.2053103159775551,0.0950467219525666,-0.170573199266549,0.0044410491088444,0.0303265478682148,-0.0048710702772355,0.0031220394719173,0.0053380459200054,-0.9108566939784468,-0.412675641136501,-0.1251701066196591,-0.0762234914455749,9.846325881292726,-0.0207110829475477,0.0074383069554832,0.0099579873526831,0.476307158016715,-4.793776585533318,1.1311523612498289,1131.2649261469892,1140.6931934080008,1133.5249979345883,1139.949923157446,28.8938626295482,137.85870689330588,-403.05341809422254,-50.93990148043412,151.74254892184297
4.795,1.0509810456731603,0.0411050382542686,-0.2078280902672957,0.0087926286230246,0.0307210877931438,-0.0071003249325132,0.0031401236817609,0.0053027969530643,-0.910857439171872,-0.4126742531170612,-0.1254186834671121,-0.0708678297551416,9.842342189411305,-0.0210967825356813,0.0074982119793591,0.0099652613770498,0.4763317409693698,-4.793823598962656,1.1311760539793898,1131.3650586452504,1141.1853561880475,1132.5730992477288,1139.7757874136937,55.61520735564164,287.09368046962186,-371.92774899713976,-75.40809041534136,151.74436980951387
4.7975,0.6940404110474496,-0.090208705645835,-0.1591320688171462,0.013791228779265,0.0312450916895251,-0.0096659217634333,0.0031468229338023,0.0052664867930066,-0.9108569973599075,-0.4126755767740323,-0.1243066615107206,-0.0650711987733832,9.838783848389296,-0.0214871253712146,0.007580185223433,0.0099703795870963,0.4763546652211807,-4.793871233980035,1.1311989630869157,1131.5430021837672,1142.1286618103488,1131.6653591896027,1139.5728827053692,77.08414629064627,394.0783389313394,-291.984308088883,-53.41027929221241,151.7465243517462
4.8,0.278482994130194,-0.2575388432470618,-0.0527720203660092,0.0167504109536256,0.0315905708225272,-0.0106522769243295,0.0031387460068798,0.00523272752351,-0.9108544948432477,-0.4126815310010629,-0.1217236494885282,-0.0589411606673977,9.835632708522864,-0.0218782422236504,0.0076856533871998,0.0099779667314254,0.4763752598777958,-4.793919562841236,1.1312208440932152,1131.7504793767037,1143.1557478827044,1131.1131777072844,1139.5087360172326,99.76437922873842,433.3686284528632,-191.84961477499607,15.051379186434454,151.74829430434394
4.8025,-0.1979957719514623,-0.4776818825253868,0.087333453741588,0.0176115551772741,0.0315212866135822,-0.0100840723296821,0.0031207637252008,0.0052031401918483,-0.9108491455244808,-0.4126938071520314,-0.1177424384957887,-0.0526236801689273,9.832858063173044,-0.022265920476424,0.0078154008155703,0.009991930506102,0.4763943904515864,-4.793968601062398,1.1312413979307216,1132.041824079911,1144.295504952613,1130.7061111157277,1139.6481396013014,149.7509776331785,483.68038045238,-172.66802076915525,113.85242807168893,151.7500375191692
4.805,-0.7419651918850146,-0.7781601191708688,0.2521819222054956,0.0158372560284695,0.0303463632155005,-0.0085503240838205,0.0031056339735809,0.0051787997039059,-0.9108413446088276,-0.4127114293188425,-0.1126010921871851,-0.0463237357278377,9.83041902363767,-0.0226452926855476,0.0079699057300123,0.0100153133964621,0.4764131315093799,-4.794018339018559,1.1312606712433717,1132.4992342648695,1145.5741497849663,1130.2498376034387,1140.077998157591,181.65428535258275,421.2206652492658,-181.47340805394765,191.03527760512807,151.75209789648977
4.8075,-1.0972138073334468,-1.0313540600780844,0.3658213478861294,0.0120537264620411,0.0280553437346443,-0.0072969095194563,0.0031053756576861,0.0051605490074982,-0.910831926082024,-0.4127324600476823,-0.1065462867503855,-0.0402397851856411,9.828269430934371,-0.0230105558460272,0.0081494628650778,0.0100503881767666,0.4764329444647094,-4.794069662917728,1.1312790894829057,1132.950095506674,1146.4016082788592,1129.798744075458,1140.603315989327,181.91999190600535,250.03069533455076,-209.52398877858647,217.53696981460288,151.75378805313144
4.81,-1.2781168394658429,-1.2518789337331486,0.441745367581371,0.0064880954801482,0.0244551539564315,-0.0060625388535283,0.0031256987559093,0.0051471588983023,-0.9108210068839852,-0.4127566201188095,-0.0997488516199739,-0.0344846056211952,9.826361681290871,-0.0233549767074051,0.0083541593053773,0.0100986274869284,0.4764554965406884,-4.794124254673241,1.1312969305940717,1133.4088342243997,1146.8243032616392,1129.2022176595456,1141.1656830066643,171.12415614169913,88.20381534847189,-263.41003923940315,204.82095040429596,151.75544944594773
4.8125,-1.2865764884363573,-1.424657457505598,0.4818206272881603,0.000406684910605,0.0201259220879517,-0.0046264626903263,0.0031623928031623,0.0051358138510929,-0.9108090486231982,-0.4127829626183486,-0.0922348810227693,-0.0290625329503521,9.824649730714018,-0.0236711110726112,0.0085839786489322,0.0101607304034705,0.4764812038396688,-4.7941830455387935,1.1313139119933733,1133.8057162873824,1146.8426273556015,1128.481693879261,1141.6274207413485,128.10293008947428,-92.38681997603832,-306.25903021560333,131.57342243858065,151.7570861346284
4.815,-1.096601857969824,-1.5300914295141133,0.4778404881477405,-0.0050988118913464,0.0154966776652897,-0.00308003312697,0.003206443791031,0.0051257697321989,-0.9107973555079752,-0.4128086939073977,-0.0839465813628955,-0.0239745949927206,9.82309031154341,-0.0239514055268053,0.0088387173100687,0.0102364448483954,0.4765096931375362,-4.794245417236157,1.1313298038615636,1134.049348874847,1146.362369161759,1127.6709225084676,1141.8235501188572,60.17314919640868,-310.93637494769365,-349.6225716980536,2.6476352898044406,151.75869188852275
4.8175,-0.7061937171800112,-1.5879257079554778,0.428244393603393,-0.0095165317398573,0.0104397818742156,-0.0014918451648071,0.0032526312703121,0.005119306852488,-0.9107869665770336,-0.4128315456019037,-0.0748867151097835,-0.0193040097030498,9.821644018915336,-0.0241889940543859,0.0091177269620579,0.0103241370085576,0.4765404035983289,-4.79430999837549,1.1313456106534723,1134.1065820333645,1145.2879454808633,1126.7335810207708,1141.6406589177975,-17.387675856344146,-453.5851385714165,-311.82717968504886,-138.74577467768472,151.76058165979757
4.82,-0.3238307430986177,-1.5968018256983516,0.3584757612110061,-0.0103668719154159,0.007150937430698,-0.000555979390951,0.0032989077168285,0.0051195375880371,-0.9107776097877958,-0.412852114072796,-0.0651229435056845,-0.0151703486197958,9.820278207145185,-0.0243782349887184,0.0094197384453008,0.0104206432982026,0.4765724047844931,-4.7943759590034,1.13136363465504,1133.962410495565,1144.094443468902,1126.1117866100424,1141.1298212454687,-85.64940594387917,-501.4458453929472,-183.14271369154477,-265.2256583023756,151.76212466940675
4.8225,0.0154109993806355,-1.586139537977877,0.2716553734173696,-0.0083037801614489,0.0045090055413894,-6.4723445331513245e-06,0.0033419743358207,0.0051283966473865,-0.9107683895447826,-0.4128723982820838,-0.054721737216136,-0.0116554945602077,9.818969777595484,-0.0245149331238337,0.0097428922721622,0.0105214972067398,0.4766047208819484,-4.794443394789081,1.1313857983149067,1133.678335003645,1142.7807162538986,1125.817867452313,1140.3145306262857,-134.81437684281732,-559.5265941321151,-21.02123550262194,-398.82900080166047,151.7636338202468
4.825,0.2837421692768365,-1.5581879115409518,0.1600513019083129,-0.0041792326667572,0.0010649723995745,0.0003336081571932,0.0033746983621302,0.0051463248195455,-0.9107596455017994,-0.4128917171183014,-0.043700644462827,-0.0087749148641884,9.817706678711913,-0.0245963975870256,0.0100849246362096,0.0106214356585029,0.4766366719857016,-4.794512602674031,1.1314123604267639,1133.2883386113513,1141.2968104982415,1126.0066804325293,1139.1356762414605,-134.27327135055123,-501.7456772328039,174.02233781272488,-438.41057131545335,151.7654048742537
4.8275,0.3653631101516237,-1.5134618502476151,0.0668142903106239,-0.0008821890268242,-0.0023419974675306,0.0004460219547969,0.0033884746316455,0.0051732147644066,-0.9107528352283925,-0.4129069305588071,-0.0320588045945739,-0.0065125232702154,9.816488020265245,-0.0246216071446606,0.0104431504214265,0.0107149271153908,0.4766676294051571,-4.794583166466379,1.1314424677984032,1133.0069686468923,1140.2719878677347,1126.6879791413767,1138.1224777697084,-89.86659067027368,-349.90572343964067,380.9479117092077,-379.11590770864575,151.76684703863063
4.83,0.3150626464284101,-1.4265562596934311,-0.0229472554869545,0.0012172393913253,-0.006366657946024,0.0004542952901862,0.003379354638638,0.0052085251389808,-0.9107492275620892,-0.4129152619245083,-0.0198817936431802,-0.004871428493494,9.815323485337421,-0.0245914607029104,0.0108143418446694,0.0107965071003657,0.4766970429313357,-4.794654216960153,1.1314749925635472,1132.839005658,1139.547281881043,1127.9114199910753,1137.2400967029173,-46.901070228015605,-254.60190785552757,635.3008977835914,-328.3922524468322,151.76825382929255
4.8325,0.1602379892097744,-1.2532900542492316,-0.1244627811907004,0.0021516556727156,-0.011539938343607,0.000356472929159,0.0033504839019369,0.0052511790126439,-0.9107488800075928,-0.4129165248652251,-0.0073822641389894,-0.0038906978040915,9.814232786497705,-0.0245088633145919,0.0111946754184338,0.0108611168503576,0.4767249024883372,-4.79472534129871,1.131508863557238,1132.7724632957522,1138.9989783284568,1129.8644836302951,1136.480516507474,-12.838445616307855,-165.27496236235845,757.8600165510286,-217.1732113855388,151.7699008080546
4.835,0.0052488934635251,-1.0482903086392543,-0.2018681940225439,0.001884025627936,-0.0154099494738114,0.0001448044457026,0.0033083145348914,0.0052994211565248,-0.9107507317733003,-0.4129129384567527,0.005170347408424,-0.0036109418475688,9.813244599110346,-0.0243785535642515,0.0115798392233956,0.0109045200217951,0.4767507755027805,-4.794795867408629,1.1315436080970207,1132.7748134299184,1138.7209070692315,1131.7007200738303,1136.1542306459896,-11.2888983127507,-105.87398479742886,716.1707899233686,-67.8024406441651,151.77123879325245
4.8375,-0.1164409697679996,-0.795269092106693,-0.267167538216567,0.000905034449889,-0.0181414953010859,-0.0002963104266578,0.0032568558214602,0.0053491963068647,-0.9107538594902728,-0.4129064134984393,0.0175429850973122,-0.0039981173894494,9.812394200337192,-0.0242067326818905,0.0119653021069428,0.0109236211332716,0.4767727908749847,-4.794864043913373,1.1315798053739052,1132.7160188041885,1138.4696084044697,1133.445337579912,1136.1415043042532,-55.71817595114344,-121.57763382465676,634.0427363706248,36.10068893990577,151.77254053478407
4.84,-0.1735190975783506,-0.5243461845007465,-0.3170704560873205,-0.0005470227026498,-0.0198429556849877,-0.0010106324643091,0.0031956933324877,0.0053934895242593,-0.9107582617035704,-0.4128968381143721,0.0295716987068028,-0.0049158463099186,9.811720036500441,-0.0240005360831761,0.0123464875160079,0.0109166831847566,0.4767887956074696,-4.794928608419142,1.131618143786032,1132.4962225501627,1138.1130189001083,1134.8709337556832,1136.3347340906892,-149.73227620116947,-192.39051979057376,445.1376001189696,105.24161693206447,151.77381167516225
4.8425,-0.1228942054911608,-0.2634197804350994,-0.3412126585366193,-0.002528843179858,-0.0204471861945207,-0.0021125604687363,0.0031204336749785,0.0054248269668259,-0.9107639484316924,-0.4128840384595721,0.041175254809205,-0.0061741497536229,9.811259788359854,-0.0237673083438275,0.0127187405275534,0.0108836628323574,0.4767980539336937,-4.794990308748451,1.131657824708293,1131.9673574231826,1137.5076558055168,1135.6710255805067,1136.6677123889135,-317.30779387454044,-338.4697948557077,173.6735133766652,145.45301349626553,151.77504497884607
4.845,0.0734394363832303,-9.280885986115427e-05,-0.3347672492484296,-0.0051638397504936,-0.0201342222319837,-0.0037771530601114,0.003027619123543,0.0054382984809432,-0.910769897018388,-0.4128699971675101,0.0522921573499615,-0.0076238211605407,9.811046594347257,-0.0235138436593208,0.013077365431098,0.0108264177647069,0.4768018204643343,-4.795051268265771,1.1316968422997082,1130.90968358079,1136.4206699258295,1135.7393013225667,1137.0619991581705,-450.3143927715069,-454.6095957969652,-122.24701767068188,119.14128123903792,151.77647963481715
4.8475,0.3316785534885726,0.1560740813086821,-0.3020539065605705,-0.006571722003111,-0.0191395584099706,-0.005120467706162,0.0029218567658946,0.0054319264300813,-0.9107757605464536,-0.4128550315943267,0.0627565035359399,-0.0092224075006036,9.811106135135583,-0.0232457066007764,0.0134181220341462,0.0107485773464375,0.476802768944545,-4.7951135251298656,1.1317335581556367,1129.7157854593252,1135.234607826532,1135.0597904921533,1137.2634187951087,-511.14362109170736,-511.8457413890264,-392.2839297079304,29.13625996333848,151.77763602071727
4.8500000000000005,0.6331804413633989,0.2322595248509984,-0.2531236562639839,-0.0056129613748745,-0.017530360049288,-0.0057289544961624,0.0028144781337992,0.0054060593941783,-0.910782640663896,-0.4128361339591896,0.0723162534508462,-0.0110147232199242,9.811453703577502,-0.0229668488095107,0.013737688647585,0.0106554113989512,0.4768035861241789,-4.795177931604009,1.1317671654011348,1128.353965475331,1133.8614412188842,1133.7778816740267,1137.2076804579872,-582.7873866590959,-609.7116039606265,-635.790951093454,-101.97226532241292,151.77874976849927
4.8525,0.9600149835370654,0.2353435914794503,-0.1950097436829706,-0.0014089382869657,-0.0152280095012629,-0.005279233382782,0.0027172386570106,0.0053637427175439,-0.9107907064889562,-0.4128123169673653,0.0807467695681527,-0.0130898321008328,9.812090838248189,-0.0226797510002828,0.0140336591988199,0.0105536887766982,0.4768055860460679,-4.7952443925978,1.131797016528276,1126.8018485260295,1132.1860498067288,1131.880835736686,1136.7535574684966,-511.9375930286988,-587.6962617330389,-695.7273128870077,-234.1073009980441,151.78003427109567
4.855,1.1511818135926335,0.1847970721879882,-0.1543099393887445,0.0035123279187146,-0.0135435023445753,-0.0045314009517162,0.0026374877764918,0.0053102288425221,-0.9107985269156526,-0.4127862032036766,0.0879314861722455,-0.015535008080263,9.813002441778945,-0.0223857640465611,0.0143045845513401,0.0104513042704945,0.4768086413506035,-4.795312623813267,1.131822552312585,1125.7942775101876,1130.922959910219,1130.2992451095915,1136.0371439529968,-299.73392663678806,-442.122084453977,-561.6540567525709,-348.09063189455463,151.78105922017247
4.8575,1.2298272948763445,0.1245054379334766,-0.1127618805120063,0.0080332786360166,-0.0131068874667099,-0.0043609491433013,0.002576790213212,0.0052506536052043,-0.9108045419456862,-0.4127609278355027,0.0938666513740696,-0.0183859142880962,9.814155439938927,-0.0220854468844227,0.0145501674017104,0.010356618583533,0.4768120617539045,-4.795381985332284,1.131844021749409,1125.3031788928458,1129.9754393844592,1129.0725654529233,1135.013104309024,-67.17971649004683,-311.9497520072467,-390.00098100742355,-499.51395218364416,151.78203443059402
4.86,1.2040910668096791,0.1062610859202272,-0.0345456520968147,0.0120168109604031,-0.0143497114953695,-0.0052829321115636,0.0025332159753509,0.0051884884928487,-0.9108074060970072,-0.4127395546630848,0.0986066881514196,-0.0216200140472636,9.81549935951396,-0.0217789620924969,0.0147712687687142,0.010277701252073,0.4768155473248411,-4.795451860594947,1.1318620367885979,1125.4583789277372,1129.363211150183,1128.3492402045547,1133.5395741920788,184.06941076505453,-124.39461875219688,-109.93712480895061,-560.6062827378656,151.783144336924
4.8625,1.1042764157892633,0.1750281833947783,0.0735019335533132,0.0145505755873008,-0.0160008035612632,-0.0068127097520437,0.0025053800504979,0.0051263345677716,-0.9108063039154334,-0.4127245611713181,0.1021974717884497,-0.0252058072038104,9.816968406974024,-0.0214663817564413,0.014969839317008,0.0102216900202414,0.4768200793784863,-4.795521969491769,1.1318768180026313,1126.223525946671,1129.353466290698,1128.5228798288783,1132.2100728953346,419.9870074941462,97.23555939176755,236.63843919367127,-528.5548140475041,151.78401696560027
4.865,0.9502130435880456,0.3497724229954456,0.2309593031239671,0.0168228217991606,-0.0170413536847245,-0.0082227603568096,0.0024944865833903,0.0050667682277763,-0.9108021729935982,-0.412715355767688,0.1046460599328421,-0.0291369619645993,9.818484371064743,-0.0211478708756663,0.0151488718888709,0.0101942805046169,0.4768274829355041,-4.79559171095265,1.131888790901298,1127.558313965208,1129.8493889471415,1129.532432400523,1130.8968001218411,601.826690430211,265.23843189139023,522.3377900505624,-507.64482649243456,151.7848330018106
4.8675,0.7689210209944111,0.603458796486134,0.4122512532801625,0.0187374175805941,-0.0169829839930322,-0.0084827391028643,0.0025009310301289,0.0050130472474389,-0.9107971715384668,-0.4127097527996606,0.1059865631687348,-0.0334184315803562,9.819959456782824,-0.0208239698946595,0.0153120194258536,0.0101994106670386,0.476838970342642,-4.795659973800367,1.131899149197503,1129.232659398822,1130.679658450155,1131.134568779131,1129.6718487628723,710.2297896622681,376.4590788042904,733.2688654115528,-456.7532479181506,151.78560043600675
4.87,0.5736533767339973,0.9210517638665344,0.5808422123600938,0.0200666480058387,-0.0152697109250277,-0.0067466463411617,0.0025188869809035,0.0049681383072052,-0.910793193967845,-0.4127074191840416,0.1063687840987325,-0.0380050076977336,9.821299694441132,-0.0204959632995396,0.0154629443318888,0.0102390200171882,0.476853908212716,-4.795725530812076,1.1319095409595414,1131.109462913519,1131.7316843411631,1133.1987767275807,1128.6130338822506,816.6062361564032,455.9310659531744,928.7014154003741,-419.6849452623864,151.78630730412314
4.8725,0.3433546085305086,1.325547660336776,0.7122816402800564,0.0209749185956839,-0.0114076324557173,-0.0031128620527058,0.0025358592437137,0.0049323024530234,-0.9107906128137356,-0.412710193574464,0.1060468013224805,-0.0427544241029027,9.822410071167763,-0.0201661552705714,0.0156046681206415,0.0103127959406294,0.4768693234542403,-4.795788000617952,1.131921259456974,1133.3156905796047,1132.959313779921,1135.778075856134,1127.5734240365603,764.450008280999,401.5525657646862,895.4535487008534,-341.133679047296,151.7870830495376
4.875,0.1653680008924002,1.6483273608319553,0.7359862128216388,0.0211878224185023,-0.0072390833632892,0.0002291069084616,0.0025415959004544,0.004903465814885,-0.9107877984025184,-0.4127199258451469,0.1052226831049993,-0.0475063316065559,9.823201052425796,-0.0198379581865441,0.0157390305223094,0.0104180324092785,0.4768816777653941,-4.795848212855932,1.1319349646084467,1134.9317129549243,1133.7394471699863,1137.6760444710849,1126.9073654870142,567.2680589348722,221.4416249819398,636.8018832136065,-226.10537887354013,151.78766713352607
4.8775,0.0082141308097506,1.926273577676597,0.6646591444445484,0.0210114910233276,-0.0027480595708412,0.0030418159033227,0.0025360453466264,0.0048799892471903,-0.9107839289965066,-0.4127350513532075,0.1039263909843154,-0.0521964800730169,9.82359402036032,-0.0195155821613204,0.0158665640887918,0.010549805551012,0.4768885875430241,-4.79590702348053,1.131951258153323,1136.152030874279,1134.066521904831,1138.9620852722019,1126.4428971421924,425.7647863133661,18.28683665248757,373.41640137415993,-161.10399030695024,151.78818352519707
4.88,-0.1570355116721573,2.182308446870736,0.491334537384413,0.020594958259195,0.0030790932188116,0.0053884652884428,0.0025248715331535,0.0048621091409596,-0.910780573572694,-0.4127504338441433,0.1021070631701421,-0.0568452234693984,9.823524141754215,-0.0192034083989061,0.0159867401401615,0.0107014974211881,0.4768891738026821,-4.795964564820883,1.1319711810220139,1137.060536886491,1133.8308813532487,1139.5431264779556,1126.1018455354795,238.42912677210333,-184.8623772548802,43.68515266251145,-90.71157442240484,151.78872053465602
4.8825,-0.2795592167928979,2.3134148259341303,0.3019548703078657,0.0201580205416342,0.0086143274183648,0.0064012602248502,0.0025151169206453,0.0048508593463,-0.9107796341149222,-0.4127619410575349,0.0997009702861864,-0.0615009683439982,9.822943057824002,-0.0189054667891224,0.0160982753484842,0.0108653032219119,0.4768845497411522,-4.796020929802544,1.1319958059574635,1137.3441765081395,1133.1422100185566,1139.1805110355144,1125.9893392700803,23.78581613229522,-345.48014086850173,-296.9390169914795,-7.824842197305937,151.7890952936145
4.885,-0.3921500957819725,2.3392029076198217,0.1044807338747932,0.0196424394290914,0.0149115934518479,0.0064351184079172,0.0025144659995294,0.0048447587137014,-0.9107823060451278,-0.4127686511969933,0.0966168013982338,-0.066173640826046,9.821821773721586,-0.0186249532892514,0.0161995861070602,0.0110326853533071,0.4768769968457911,-4.796076756997738,1.132025292755709,1137.1794659671525,1132.1034806489065,1138.0584313929983,1126.0627213244927,-158.297673253586,-477.5430322664863,-608.6607478342232,82.99318231584215,151.78938915234795
4.8875,-0.5185689312511624,2.2351802842012294,-0.1013277004720525,0.0189244599371999,0.0227683090620507,0.0054861180393971,0.0025269462179747,0.0048385563829458,-0.910788893343977,-0.4127729442026539,0.0928011627402487,-0.0707769697357055,9.820151804604832,-0.0183637840599754,0.0162891977190023,0.0111950592903735,0.4768688441993439,-4.796133184449679,1.1320583847465984,1136.5526881418716,1130.7544948572242,1136.1372072963431,1126.4043051816595,-286.4833034997052,-461.19143869201326,-747.1194158324738,175.87769470274372,151.7896410195904
4.89,-0.6131542733149785,2.039216992803629,-0.2259488659211751,0.0182006016720019,0.0289326984912441,0.0042859104422221,0.0025510337692738,0.0048255593686157,-0.9107986750488292,-0.4127780907383987,0.0882897924103011,-0.075155344170924,9.817945055251405,-0.0181223930586524,0.0163659824683824,0.0113444923803224,0.4768618189323546,-4.7961912443669,1.132092940377731,1135.747049449654,1129.7975234554465,1134.322834313836,1126.9421097980066,-363.39176044799245,-292.7823954187778,-713.1557803192361,276.41357358621144,151.7897610098895
4.8925,-0.6831943799631347,1.751392737894009,-0.290500085905677,0.0169288176648445,0.0340586230300875,0.0032085312210753,0.0025799624726709,0.0048015365835445,-0.9108088050936408,-0.4127869330678565,0.0832320004686994,-0.0791567517178685,9.815232658169345,-0.0178999074041259,0.0164291625413192,0.0114741928487688,0.4768567041215766,-4.796251371712224,1.1321276095153892,1134.7357293396317,1129.2905828801304,1132.5714283947473,1127.7863730495908,-426.03471969998895,-98.63377898862659,-661.186262692387,389.5813497989212,151.78977990246392
4.895,-0.7169846582022882,1.4142692916267143,-0.3049190950056994,0.0148833905166767,0.0379116076103146,0.0022828160109789,0.0026086209638752,0.0047669768083321,-0.910815440583288,-0.4128018825728744,0.0777840621436607,-0.0827294420192332,9.812063740330967,-0.0176946827755206,0.0164782082353081,0.0115785697559329,0.4768527565998031,-4.796313654642076,1.1321626637817148,1133.6168758511535,1129.3043545605033,1131.0169030003735,1128.8900165470016,-459.0680219540088,145.58030080757217,-560.2310585933202,493.89481378681154,151.78970906874616
4.8975,-0.6887029479761109,1.0550632655220746,-0.2636489256145006,0.0121468271637663,0.0398821104883835,0.00138823282424,0.002636313815264,0.004724508566048,-0.9108158179874865,-0.4128231533056529,0.0720376750426628,-0.0858988643374734,9.808503673495872,-0.017504768304673,0.0165129689679768,0.0116530909129139,0.4768484800395259,-4.796377492786236,1.1321990141539202,1132.4403892298617,1130.0184843841682,1129.7702731017807,1130.2558471185248,-513.3237563442999,466.3184758829274,-482.7496498739595,633.7033797109733,151.78952382466568
4.9,-0.5740623129893835,0.6368375879016539,-0.1599677906096089,0.0090522809668129,0.0408069584892229,0.0004777653587625,0.0026638035289193,0.0046763339765046,-0.9108095377109812,-0.4128479131790371,0.066051237585914,-0.0886983723247079,9.804631214054623,-0.0173281611470826,0.0165339071424053,0.0116943261903677,0.4768430202556485,-4.79644210080366,1.1322373228920817,1131.0502570694323,1131.6359469399179,1128.6031547510036,1132.0585334455563,-494.0641563794193,695.0801122024279,-388.720928711845,660.637600259784,151.78916277356416
4.9025,-0.4197082786018193,0.3114976665812162,-0.0391145420126193,0.0071577800087649,0.0413824110603993,2.0695417723080068e-06,0.0026908430687197,0.0046254321046668,-0.9107989104242004,-0.412872637152246,0.0599034574217813,-0.0911707997254421,9.800534610267114,-0.0171629615569575,0.0165421934203467,0.0117002541430846,0.476836895185957,-4.7965067807178645,1.1322771893411288,1129.9700684479646,1133.4938849451803,1127.8266684582215,1133.5590351198236,-403.3249743421124,805.6975125256657,-293.3380171070502,565.5473696066231,151.7887426423014
4.905,-0.2290745150578284,0.0096429215581793,0.100912979341796,0.0059718438144899,0.042088758489134,-7.457295081442206e-05,0.0027150253133978,0.0045753830620506,-0.910786663487287,-0.4128949738868126,0.0537126596362538,-0.0933563798023833,9.796307918215327,-0.017007480741011,0.0165397518419153,0.0116705009301312,0.4768312270863535,-4.7965706189906365,1.1323170713761848,1129.0336321977215,1135.664434502546,1127.1364646654683,1134.8862702935894,-368.02070393083216,969.4475046221421,-305.84850235018814,512.4384506301903,151.7881957214724
4.9075,0.0010222084020453,-0.3285386992367255,0.2678811894381705,0.005535385523613,0.0425395557448298,0.0004015236586909,0.0027305023205182,0.0045277049454189,-0.910774720652017,-0.4129135558655082,0.0476384461619228,-0.0952355990643626,9.792047806965249,-0.0168602672546457,0.0165292914765958,0.0116063402368529,0.4768266478062389,-4.796633143854177,1.1323549698414068,1128.1299649283103,1138.341122468291,1126.2974259464706,1136.1212273729743,-289.68897350746994,952.0831967024353,-316.59595466363265,380.3608608211188,151.78739101476816
4.91,0.1605027461953571,-0.5846934234540053,0.3877444610729716,0.0063350345528602,0.0419503751861238,0.0013484700771096,0.0027344884195614,0.0044817669947592,-0.9107634894181644,-0.4129295303790432,0.0417657832256848,-0.096780590077198,9.787849976328376,-0.016720326691452,0.0165140066877388,0.0115104404155473,0.4768239003583678,-4.796694530872171,1.1323898812879385,1127.5851873301845,1140.424850486058,1125.5534848921504,1136.7880745976947,-172.0472543766122,760.5181336922388,-302.4723003888521,190.243950577876,151.7865965340067
4.9125000000000005,0.2511856777887994,-0.7971004386011488,0.4668567843194209,0.008331976774288,0.0398398105522359,0.00289824022751,0.0027323341309047,0.0044371318845404,-0.9107525497346962,-0.4129451189863766,0.0360344222262445,-0.0980382144903913,9.78380487708678,-0.0165872230419655,0.0164972514542699,0.0113865527676588,0.4768238719896156,-4.796755015000429,1.1324221216343575,1127.269728656427,1142.1437131367527,1124.785064444526,1137.072447125864,-87.14960137385974,637.0889979315187,-325.5991556059213,51.447438405604046,151.78567449715567
4.915,0.2618350755955942,-0.9812307504232228,0.4980807550528921,0.0110879006004183,0.0361626642940714,0.0052410783051938,0.0027322689084806,0.0043938054851916,-0.9107417644408772,-0.4129613576594837,0.0303356237475213,-0.0990917744436036,9.779994257780434,-0.0164610286031382,0.0164823183786179,0.0112392277759861,0.4768260397140249,-4.796814318444778,1.132452177759831,1127.1494393233152,1143.6102954757157,1123.9254891141209,1137.0453117897227,-5.623889342314334,424.5715684253445,-287.4713647751894,-53.11225471637157,151.784423251639
4.9175,0.1976584383564352,-1.0707099946637515,0.4681765987821548,0.0126384453076104,0.0330707987661893,0.007176474217601,0.0027427547143974,0.0043515025362838,-0.9107316939697248,-0.4129773380462296,0.0245543346955845,-0.1000256769561573,9.776488821874135,-0.0163424041160547,0.0164721396724685,0.011073487761086,0.4768292332658577,-4.796872356114921,1.132480064176036,1127.2416092097155,1144.2665709788791,1123.3477076206502,1136.8068858522822,66.7112846595515,141.7693137348154,-182.67122846914776,-115.32554641271663,151.7832624324251
4.92,0.0904199452378648,-1.101228868028688,0.3899558895544091,0.012902512692136,0.0304357325939879,0.0085086429868817,0.0027661534627878,0.00430903982653,-0.9107234304489245,-0.4129907382510054,0.0186779749673133,-0.1008621649350826,9.773346844149575,-0.0162325644782554,0.0164690376351928,0.0108946027990366,0.4768323499910431,-4.796929143226003,1.1325053893262047,1127.4829957466127,1144.3191420443895,1123.0121329717751,1136.4686840576594,124.94016535356688,-106.9559137472902,-74.58255379369962,-146.74413811922335,151.78198254985296
4.9225,-0.0403761565624133,-1.085567296241215,0.2627843259755379,0.0121552878629824,0.0276265701455358,0.0090362325888954,0.002797664338338,0.0042659802250383,-0.9107184700411703,-0.4129982054945572,0.0128292192041543,-0.101580471713069,9.77061316683255,-0.0161332212478279,0.016474493051216,0.0107078591991534,0.4768352097791058,-4.796984545023522,1.1325277284657913,1127.8663100364836,1143.7317914101427,1122.9747948516815,1136.073165161686,144.74657449486895,-310.91452931519353,54.55889925242562,-131.6244613595728,151.7803137511638
4.925,-0.1216753693060247,-1.0388754777285083,0.1452227914048727,0.0109598719769525,0.0254044540243925,0.008844878018491,0.0028318936728229,0.0042261706508653,-0.9107177162661656,-0.412997551420315,0.007178187923631,-0.1022309633138692,9.768318113345192,-0.0160466520240556,0.0164888170449027,0.0105182459051352,0.4768378856320245,-4.797038691821338,1.1325473329233608,1128.2067286190872,1142.7645693978138,1123.2849274680373,1135.8105617508616,130.65722695096434,-466.7282153923778,197.1273090289784,-88.08126173144235,151.77881614423507
4.9275,-0.1532694929027288,-0.9640333249050954,0.0262830159480597,0.0097370284042445,0.0233523834605503,0.0088501316387122,0.002868891243847,0.0041959062043624,-0.9107211281109994,-0.4129885660032951,0.001820423480409,-0.102949371785962,9.766477686149416,-0.015975714959923,0.0165110170601265,0.0103299312083524,0.4768392354217269,-4.797091448617832,1.1325657525029076,1128.5195961712384,1141.398150333181,1123.9604313968266,1135.6327588530287,117.55961331628237,-596.5948252477701,327.7610559535857,-63.0686828426419,151.77721260579023
4.93,-0.1400345466491148,-0.8668206571302388,-0.0916993804769196,0.0090824108998613,0.0215935720825773,0.0092728583590228,0.0029112073814113,0.0041781359888765,-0.9107277803582188,-0.4129730050219905,-0.0032178134882256,-0.1038283932207277,9.765095335167507,-0.0159236094560047,0.0165389110982056,0.0101458468829588,0.4768367797367007,-4.797142530559009,1.1325846520235094,1128.7945266856686,1139.781595271575,1124.9237327478052,1135.4952183366483,102.83216078751356,-686.0399423651562,447.3844704389289,-60.229188056201934,151.77552537772618
4.9325,-0.0772583449907103,-0.7378911992815063,-0.203813856644734,0.0090779329035338,0.0201419295001624,0.0095271562564181,0.0029570130132142,0.0041710948664495,-0.910736393497758,-0.4129535078124997,-0.0078692692730658,-0.104836640973896,9.764163729665203,-0.01589330486839,0.0165693851282157,0.0099677491123146,0.4768290689045742,-4.797192306644265,1.1326051999002864,1129.033756975176,1137.9679506213552,1126.1973537490212,1135.331612912748,105.0785130380354,-815.6641617677993,622.0036086963711,-101.87902541750417,151.7737427062556
4.935,0.049869988795571,-0.5317504289385032,-0.31469097531777,0.0094949324511255,0.0184593997707015,0.0085517727184582,0.0029997727719023,0.0041692805588324,-0.9107461140881198,-0.4129318828974888,-0.0120137870631015,-0.105832511916264,9.763666005548664,-0.0158868861681647,0.0165987753194377,0.0097964838698665,0.476816445599796,-4.797241828643898,1.1326275144660152,1129.319919250859,1135.7032744627354,1128.0337507912875,1134.9858232095607,111.9188675082138,-824.7151746879985,717.817255436982,-168.17904038444243,151.77150061637775
4.9375,0.1994529460973235,-0.3022875572273686,-0.372147371364689,0.010200485274279,0.0168848915940971,0.0067493289660642,0.0030295699866077,0.0041647130557186,-0.9107568800858588,-0.4129082806930529,-0.0154938970641755,-0.1065967853685084,9.763576827282906,-0.0159049712335703,0.0166233383364844,0.0096323367974472,0.4768001923435408,-4.797292458415688,1.1326508001920554,1129.593351312717,1133.8443747479155,1129.786440026206,1134.4907177108255,122.08257232564652,-713.8821783923656,736.5078413254806,-252.8804314213684,151.76955184466996
4.94,0.4016913188781282,0.0010450770354113,-0.3850062083255615,0.010768025710015,0.0150732276618304,0.0049149798601823,0.0030432064236649,0.0041503239803422,-0.9107688133086606,-0.4128824203742361,-0.0182693956206622,-0.1069744233835618,9.763861873990848,-0.01594652593344,0.0166395871179884,0.0094753079379152,0.4767817472955264,-4.797345183854703,1.1326745524376731,1129.9303321124871,1132.1338635707737,1131.7162899979148,1133.721421052454,160.6662538638409,-691.7747724475396,867.104260047536,-397.7595494574956,151.76752576298827
4.9425,0.7163237387309678,0.4451378325977065,-0.3590343057161309,0.0109373513585893,0.0132869151048104,0.003508741702568,0.0030476918789746,0.004124501025684,-0.9107824490948792,-0.4128530030202153,-0.0204454608537759,-0.1069842660703534,9.764477491612823,-0.0160087316697055,0.0166446951835917,0.0093254486897884,0.4767629705351222,-4.797400243465822,1.1326986622947484,1130.396682582036,1130.3855008856779,1134.1219613264436,1132.5019199635383,172.54467017874416,-572.3008616033105,869.814528952584,-479.18991441784897,151.76501177583958
4.945,1.0370322897730373,0.8534149924857782,-0.3187269671497385,0.0113133176016568,0.0132903605653186,0.0030745619231748,0.0030501451360433,0.0040886850241381,-0.9107975870770944,-0.4128203477753862,-0.0221146384980191,-0.1066962611377217,9.765373254486496,-0.0160870343599269,0.0166368883744436,0.0091830426199628,0.4767462849281452,-4.79745777221257,1.1327229415835447,1130.7930554633808,1129.2723592627572,1136.0653626426777,1131.3254714803647,142.3275597996083,-355.46432272231715,720.2073645469835,-468.73217870134886,151.76285250572607
4.9475,1.3929945379001212,1.2379906049530223,-0.2770663465973345,0.0132917071742495,0.0160065434249287,0.0030028261799922,0.0030535569978519,0.004044614431343,-0.9108125604535992,-0.4127880592018567,-0.0233056278293477,-0.1061501249719832,9.766494050993215,-0.0161755028552331,0.0166156063507192,0.0090486461229056,0.4767335749507307,-4.7975177749205615,1.1327470089023524,1131.1083203810342,1128.6081792720663,1137.7229981491785,1130.1582590700316,95.01931622776486,-174.54509019112635,603.7427275432166,-461.9903484061168,151.76063174302854
4.95,1.8041323943818008,1.585079069168414,-0.2359728909585402,0.0180167284747114,0.0220384915567411,0.0025912412614409,0.0030564645283567,0.003989988169872,-0.9108246570249244,-0.4127621352874849,-0.0240140604301883,-0.1052774849377792,9.767781893507562,-0.0162673758526922,0.0165815273604875,0.008922948509759,0.4767249157179133,-4.797580296821834,1.1327700540882164,1131.2681520445196,1128.3996338118016,1139.0840762803937,1129.0155197383342,6.074902267073542,23.62675016306689,353.4865035916558,-343.37453280901,151.75790144815284
4.9525,2.086324791304453,1.7284515267813845,-0.2104641765047089,0.0234167268491098,0.0283691877571883,0.0019182335154547,0.0030559764512553,0.0039219277872686,-0.9108318390192284,-0.4127471117501737,-0.0242295979754093,-0.1039896561169401,9.769175872937124,-0.0163555933449825,0.0165364378032518,0.0088068257897767,0.4767196957949059,-4.79764510269904,1.1327912276180956,1131.1386948923696,1128.7263130228816,1139.4904306671367,1128.4413864059863,-117.37108310290093,224.27988687577928,-22.878598182388064,-127.89377105805488,151.7555756602288
4.955,2.257541800430832,1.6939989364158248,-0.1945504418157951,0.0296683174131979,0.0345737335013466,0.001262181192229,0.0030560912417251,0.0038409280582865,-0.9108328927009351,-0.4127456240269801,-0.0240520284330371,-0.1023167639513835,9.77061144915541,-0.0164335000430947,0.0164829482795424,0.0087012111359316,0.4767173020372184,-4.797711121567721,1.1328106786903471,1130.6812966290051,1129.5210332461804,1138.9696832894815,1128.376050883044,-236.9101612755542,378.6085799623697,-369.4448557743603,58.815821612633854,151.75320185423655
4.9575,2.3120146239061463,1.5207567885998543,-0.1888847667320334,0.0363371064992992,0.0396329921594916,0.0007693502016877,0.0030634532377242,0.0037485536203082,-0.910828183179147,-0.412756795822649,-0.0236335379260665,-0.1003340442978542,9.77202254865535,-0.0164952171028866,0.0164244489598366,0.0086068458530236,0.4767173134999232,-4.7977768655497375,1.13282969447175,1129.9541440859916,1130.6193559226936,1137.6432063882646,1128.7354655140496,-343.8732424470873,485.4200062135181,-705.8891807356908,226.1651063272032,151.7507913609363
4.96,2.2131748267853646,1.2156286621297523,-0.1999232662977793,0.043145919657619,0.0431058442792937,0.0004952393397594,0.003078528077617,0.0036463509703665,-0.9108188659143404,-0.412778054566027,-0.0230283263371665,-0.0980724682245202,9.773344085841327,-0.0165358821139204,0.0163648890676493,0.0085242499517345,0.4767195746925078,-4.797841414978312,1.1328489526385923,1128.9619304167695,1131.948133277248,1135.4402373858031,1129.50687641468,-469.5419066833538,602.72491589309,-1112.909482807414,389.7287191025126,151.74834020097916
4.9625,1.9269930238455448,0.755521797610227,-0.2363474298858505,0.050594590202329,0.0460904458407549,0.0003248693033471,0.0030966391688166,0.0035351706432734,-0.9108066427612292,-0.4128056705201195,-0.0222138869865742,-0.095515633537464,9.774513214005832,-0.0165518385205628,0.0163084408823713,0.0084536752556123,0.4767238319151535,-4.797904281272566,1.132868215238944,1127.606434552575,1133.6329805021592,1132.0786589742277,1130.6841091095623,-497.7740265315894,611.1631267828345,-1290.1635353670192,434.6175789483461,151.7453561496906
4.965,1.5746669449483488,0.3390648971238538,-0.2848921129105176,0.055629307562289,0.0475621633964571,0.0001894790915526,0.0031127564076341,0.0034169430748137,-0.9107925648639308,-0.4128373502837332,-0.0211586435023532,-0.0926701048286203,9.775469832036595,-0.0165408380811326,0.016258976968021,0.0083951311371899,0.4767299291670426,-4.797965559158691,1.1328868454754366,1126.4730602841119,1135.003948911162,1128.9894197089684,1131.6799643094216,-421.2587033710496,521.9099157652747,-1210.655703146702,357.07638609224733,151.74283688836024
