t,ang_acc_x,ang_acc_y,ang_acc_z,a_vel_x,a_vel_y,a_vel_z,quat_x,quat_y,quat_z,quat_w,acc_x,acc_y,acc_z,l_vel_x,l_vel_y,l_vel_z,pos_x,pos_y,pos_z,mot_1,mot_2,mot_3,mot_4,dmot_1,dmot_2,dmot_3,dmot_4,vbat
8.1225,0.0528652802293213,-0.3435398559595825,-0.5839315423741848,-0.0173311175737188,-0.0273718699293789,0.0149652652566027,0.0061108558767814,-0.0044220983023615,-0.9910006788738858,-0.1336390537814301,-0.080156753916948,-0.0208418811527308,9.819691309270047,0.0265295028285049,-0.0005063123238782,-0.0017232986987217,3.6338170354484336,4.899928856997804,1.232958752327055,1133.2113189148492,1115.501018128132,1144.5453822024792,1147.7732561270116,-734.300907196403,-267.2851416891339,-264.1342124507971,390.25600389098634,156.83741111188812
8.125,0.4771992669692579,-0.4948423121430421,-0.445084172748679,-0.0171903381685146,-0.0282540362765856,0.0114299269968563,0.006039959506846,-0.0044143307313419,-0.9910022193819562,-0.1336329031476951,-0.0827199189334823,-0.0199935962383702,9.819417607434099,0.0264031656761083,-0.0006438288394942,-0.001741889446824,3.6337457790776058,4.899947187521273,1.232955116219893,1131.3398761524668,1114.7696833988907,1143.6925992876022,1148.7602692431992,-609.5452023048286,-259.03235858978104,-347.1254448511226,320.10621754472595,156.8362432786326
8.127499999999998,0.811197614324687,-0.6405969727449738,-0.2477227822237861,-0.0159169344908035,-0.0291775272303143,0.0090526217682932,0.0059784270489663,-0.0044096189462188,-0.9910041636731816,-0.1336246704465115,-0.0852166364767279,-0.0192320696191213,9.819288551255118,0.0262544227120602,-0.000779041264045,-0.0017622330251572,3.633676086731481,4.899966995247029,1.2329510987405548,1130.1635929033257,1114.2058563351832,1142.809754978224,1149.373787214735,-365.97580945834767,-202.19350511571545,-364.31483994305137,189.16057027242232,156.83527779336217
8.13,1.0899512577492683,-0.7893545607771081,-0.0041866856727003,-0.0132798794439936,-0.0304838891508947,0.008269295155903,0.0059298273161033,-0.0044067515396463,-0.9910070721646664,-0.133610496892636,-0.087663966302377,-0.0186098228843956,9.819312542604878,0.0260863040044871,-0.0009118837245435,-0.0017822038188982,3.633608875658007,4.899987360621971,1.2329462099203394,1129.5099971051748,1113.758715873312,1141.8710250878867,1149.7060720945615,-155.26238762929398,-155.0583624643635,-389.6688788003148,68.2558482339921,156.83432455310063
8.1325,1.3213488657294998,-0.9426044503970414,0.2755434945107291,-0.0089042776234324,-0.0328368062612703,0.0093005023910312,0.0058962996532227,-0.0044059087027639,-0.9910112244158492,-0.1335886086610144,-0.090062920712438,-0.0181468392711387,9.819491619802545,0.0259027103119152,-0.0010420633058366,-0.0017996118459141,3.6335448522267138,4.900007781670701,1.2329407086766284,1129.3872809651791,1113.4305645228615,1140.861410584222,1149.7150664559051,59.93006608156348,-79.00757769422604,-324.0711335852856,-69.08244226530324,156.8332000706686
8.134999999999998,1.4073132225658431,-1.0246538158274134,0.4503756409383118,-0.0047479724183291,-0.0356235699566782,0.0114803842431011,0.0058723278645928,-0.004409137058491,-0.9910162427629786,-0.1335622757558164,-0.0922798042675625,-0.0178054962769875,9.81982373527352,0.0257080703193489,-0.0011690438411913,-0.0018126159235389,3.6334838922107138,4.900028769022683,1.2329346624100928,1129.8096474355823,1113.3636779848407,1140.2506694199603,1149.360659883235,256.3432679720391,15.544581277893847,-172.91383659797958,-219.27345162730305,156.83228322320159
8.137499999999998,1.371299312930792,-1.0328679292836103,0.5233597860250782,-0.0006613550363537,-0.0390953367758039,0.0142923459595337,0.005848508295441,-0.0044187721029219,-0.9910217072569124,-0.1335350321413937,-0.0941164904819054,-0.017529815234793,9.820302076018882,0.0255069749068634,-0.0012924245316686,-0.0018196207157415,3.633425744816124,4.900050445279994,1.2329281378609405,1130.668997305039,1113.508287429251,1139.9968414012324,1148.6186991977688,442.0375895260568,99.46842804700546,-20.072772971749647,-404.1795612740139,156.83139246130776
8.14,1.1918938405967412,-0.9420350125582498,0.4763515980225376,0.0039312164919257,-0.0431457041682374,0.0172891710201954,0.0058187117563739,-0.0044357398722973,-0.9910274518380096,-0.1335080569599053,-0.0954457762239212,-0.0172962085643252,9.820913327438529,0.025303861505875,-0.001412218622843,-0.0018190120880635,3.6333695882757215,4.9000725961018645,1.2329206718047308,1132.0198353832131,1113.861020125076,1140.1503055551016,1147.3397620768646,520.2696846499845,143.35277800075835,126.38111761696408,-513.217802982819,156.83035995642803
8.1425,0.9430790642786288,-0.785502566852814,0.3332430640715891,0.0073778098553931,-0.0458411081627996,0.0190052971567818,0.0057812755922332,-0.0044623085695044,-0.9910333684743932,-0.1334812983376869,-0.096241531598773,-0.0170626939619563,9.821637834326868,0.0251027646562138,-0.0015289226341364,-0.0018091989685685,3.633314671867904,4.900094007163146,1.2329117523027595,1133.2703457282892,1114.2250513192548,1140.6287469893173,1146.0526101828543,498.50968383840075,139.78737609202707,246.0255556322898,-525.1463326584279,156.82953466592843
8.144999999999998,0.6214741655994339,-0.5623138089197964,0.1088091352317678,0.0098808303473206,-0.047721045882936,0.0197497253093987,0.0057373270629338,-0.0044945870747141,-0.9910394978728714,-0.1334528828268538,-0.0965257220668904,-0.0169097898579852,9.822451798679726,0.0249071267353505,-0.0016435208936958,-0.0017889607435328,3.633260912159927,4.900114557968156,1.2329015533378616,1134.5123838024047,1114.559957005536,1141.3804333332628,1144.714030413573,482.49578611554807,117.87734276183959,329.5217684138546,-514.2664665645149,156.8287518275588
8.1475,0.2718489613508631,-0.3026646607873579,-0.1568657645553766,0.0110619469510925,-0.0488661228235978,0.0196971967226753,0.0056870364013656,-0.0045264067445446,-0.9910453081590828,-0.1334242486509218,-0.0963042956727749,-0.0169558277774494,9.823329603034397,0.0247196693330498,-0.0017571537674939,-0.0017578036761424,3.633208041435215,4.900134797249428,1.2328910439613034,1135.6828246588675,1114.814438033064,1142.2763558313868,1143.4812778500311,444.57434457501546,78.54138854080382,375.47798047970485,-437.26278367960253,156.82800887259182
8.15,-0.0671611682589474,-0.0246305410640077,-0.4390531208774317,0.0103926293061606,-0.0491078073628627,0.0187411500679013,0.0056317698509968,-0.0045535044847816,-0.9910498412378478,-0.1333986070997846,-0.0956186701953052,-0.0172803300535372,9.824244095360823,0.0245423020410917,-0.0018711381684234,-0.0017159288931279,3.6331560529706906,4.900155552376986,1.2328819543201968,1136.73525552528,1114.95266394824,1143.2578232356618,1142.5277164951747,434.5798618710388,42.34218273787452,434.5213243836452,-333.6197725994434,156.82731990095232
8.1525,-0.4133907018012213,0.2979125344619396,-0.756644343238719,0.0080914696272799,-0.0485189691934282,0.0166882274642494,0.0055705207671716,-0.0045749851808033,-0.9910521003469664,-0.1333794124997034,-0.0944784313927281,-0.0178854308745245,9.825169107656732,0.0243760468256183,-0.0019870546408755,-0.00166431890532,3.633104674135244,4.9001767727557,1.2328749871999367,1137.8557239682223,1115.0261489467534,1144.4489624533046,1141.8131789870345,386.9491759494255,24.557617159967204,429.3475640500164,-191.30174503883777,156.8265630939404
8.154999999999998,-0.6318911630317184,0.5358755268134376,-0.9781001895224748,0.0058142772459321,-0.0474448818242337,0.01428062874324,0.0055037045612727,-0.0045924979268143,-0.9910520243707122,-0.1333698619607119,-0.0929312060245409,-0.0187215749688614,9.826079457925104,0.0242210280551245,-0.0021068063749454,-0.0016043306230033,3.6330529973547745,4.900197713940869,1.2328695128109823,1138.6700014050268,1115.07545203404,1145.4045610559115,1141.5712077699807,297.3679932991207,35.1217177799244,362.3422526841639,-42.86792294637292,156.82599585853583
8.1575,-0.7745424261465738,0.7184857260340224,-1.129608678106198,0.0036262803374321,-0.0456264497095121,0.0110960112790298,0.0054319127665692,-0.0046072260047056,-0.9910499700566384,-0.1333715915259692,-0.0910289436157926,-0.0197425699649656,9.82695273205162,0.0240765135030698,-0.0022326269771565,-0.0015375487626854,3.6329997017055233,4.900217623372213,1.2328643773017636,1139.342563934718,1115.201757535653,1146.2606737167257,1141.5988393723023,253.4733917803864,89.90776167355266,334.7545776376068,37.74769307137241,156.82550005054406
8.16,-0.8706676047770506,0.8510138709235444,-1.212228422017006,0.0010600013183098,-0.0424353952661715,0.0068098692581873,0.005356215047056,-0.0046198444398235,-0.9910463970966324,-0.1333841048706282,-0.0888322239058674,-0.0209074058091435,9.82777006682148,0.0239410803240464,-0.0023669271555131,-0.0014656505909091,3.632944593431728,4.900236415635392,1.2328591374964433,1139.9373683639287,1115.5249908424075,1147.0783339440995,1141.7599462353376,173.97373104298643,153.47415629383573,248.56889614252796,53.124446094772445,156.8249934407631
8.162499999999998,-0.90210987355,0.8803984187051764,-1.1950567736998616,-0.0009955129869777,-0.039308136732037,0.0032742724191791,0.0052765444106777,-0.0046318553574399,-0.9910418018743994,-0.1334055394962414,-0.086380989763739,-0.0221508598309276,9.828517251934707,0.0238128609427324,-0.0025119937163616,-0.0013904611097381,3.6328882346272553,4.90025404113776,1.23285370058697,1140.2124325899329,1115.969128317122,1147.503518197438,1141.8644616027764,56.4558860051332,214.76822127921247,99.15986657509434,14.222635753410536,156.82464866204336
8.165000000000001,-0.9004374106700849,0.8303859422430401,-1.0965063911699715,-0.0029488286700151,-0.0365083484571357,8.106307110426075e-05,0.0051971905777849,-0.0046403638654885,-0.9910364773619345,-0.1334346841516583,-0.0837867956457712,-0.0235011289062232,9.82918358134269,0.0236897991657336,-0.0026695979451782,-0.0013137925787208,3.63283089120744,4.900271300071229,1.2328488946617104,1140.2196477939547,1116.598831948804,1147.574133276975,1141.8310594141046,-58.717131828225234,315.43569545937845,-61.873820034169846,-45.46256527773238,156.82438816927822
8.1675,-0.877582023891447,0.7030273360985104,-0.9052661211963408,-0.0051798800362492,-0.0340762836314102,-0.0033253589845369,0.0051243530518786,-0.0046428580472389,-0.9910309360912168,-0.1334679939149262,-0.0811972810098795,-0.0249808626437983,9.829762517607552,0.0235698229181608,-0.0028409438250641,-0.001237495306394,3.6327724821075,4.900288788154747,1.2328456200826183,1139.9188469307917,1117.5463067944193,1147.1941490972672,1141.6371487763877,-153.6568351614129,374.6094003260004,-214.53687628363417,-75.6507337375447,156.82417692560665
8.17,-0.850592403247927,0.5652715592784319,-0.7068681070144465,-0.0070645432121438,-0.0329762310451637,-0.0057781984948294,0.0050573875712215,-0.0046348955283095,-0.9910259405191472,-0.1334999854445601,-0.0786193301599102,-0.0266308094068611,9.830254498856576,0.0234510182102282,-0.0030265304861783,-0.001163759994251,3.632713219176408,4.900307372712176,1.2328439298792797,1139.4513636181475,1118.4718789504336,1146.5014488955571,1141.4528057454168,-213.73483356264543,392.54382388711366,-338.397738646403,-34.824425182939756,156.8240877394622
8.172499999999998,-0.822782405700389,0.4218287502992161,-0.501761346332001,-0.0088243741688387,-0.0325810240282249,-0.0073954090556701,0.0049903049064216,-0.0046153531625445,-0.9910220222169152,-0.1335267158338759,-0.0759619240362505,-0.0284137303547831,9.830665532887394,0.0233318728323625,-0.0032259871186718,-0.0010947762403113,3.632652997487351,4.900327496442412,1.232843790383288,1138.8501727629787,1119.5090259138544,1145.5021604040355,1141.463026650473,-246.47511998737863,428.7223877144027,-428.0841256872704,73.22061035755489,156.82409082581552
8.175,-0.7973232236685321,0.2866678666245205,-0.3209929875346685,-0.0103310789288093,-0.0323487079445876,-0.0077623398359535,0.0049227497231393,-0.0045862995055531,-0.9910195117637736,-0.1335452835042617,-0.0732501573264452,-0.0302470718723979,9.831002953487108,0.0232115261561491,-0.0034381695895028,-0.0010320228571857,3.632592610265615,4.900349444497861,1.2328441147131048,1138.2189880182107,1120.615490889006,1144.3610282671207,1141.8189087972048,-243.92720320411905,452.32559061975934,-454.7559826122068,259.47314153605055,156.82417115616477
8.1775,-0.773408104525485,0.1667860929478016,-0.2021389942512589,-0.0119106869477048,-0.0320060441011687,-0.0067253058973851,0.0048592215242758,-0.0045492753307487,-0.9910184798477616,-0.1335545211731954,-0.0706008396752796,-0.0320749348074404,9.83127503696696,0.0230899499670068,-0.003661272838662,-0.0009762262198372,3.6325333726845632,4.9003734498922285,1.2328445657100675,1137.630536746958,1121.7706538669536,1143.228380490974,1142.7603923581535,-239.5627244865431,507.33981154718185,-446.5916840641036,561.6897530510167,156.82434427705167
8.179999999999998,-0.7380407008200209,0.0400880362375879,-0.1498319920552758,-0.0141150722735576,-0.031481514215899,-0.005226741716331,0.0048051948493674,-0.0045086596799062,-0.9910184990694336,-0.1335568430118763,-0.0681562245843538,-0.0337938366856456,9.831491037288474,0.022967999500572,-0.0038929775915047,-0.0009274576228338,3.632476727887432,4.900398947697737,1.2328451626602035,1137.021174395778,1123.1521899467411,1142.1280698468004,1144.627357562459,-208.5324972319669,494.42713454574454,-327.5213135751925,787.2063451137498,156.82465725341876
8.182500000000001,-0.695185117052214,-0.051441799320713,-0.1719769431337569,-0.0159154738542514,-0.0312197154372515,-0.0046743188903168,0.0047648897037988,-0.0044641309493639,-0.9910190157536172,-0.133555853938071,-0.0660215155562603,-0.035394188391762,9.831660932231054,0.0228472419303818,-0.0041307972083221,-0.0008853290815765,3.6324233219787008,4.900425502512428,1.2328460754589712,1136.587874260798,1124.2427895396827,1141.590773923098,1146.6964240837228,-165.01495539066275,408.0973387496032,-108.1750840322742,877.486793399975,156.8250031290858
8.185,-0.6302722802511628,-0.1247616175832674,-0.2294003832934045,-0.0175884762352276,-0.0313927203919666,-0.0052441541170854,0.0047404252937557,-0.0044149407653228,-0.9910197824986756,-0.1335530509490239,-0.0642602935898842,-0.0368748224555792,9.831794206595472,0.0227296074909426,-0.0043724610935147,-0.000848957036936,3.632373438163624,4.900452699044461,1.2328476032987863,1136.1960996188247,1125.1926766404897,1141.5871944266391,1149.01479152946,-170.87082939245863,366.30424841380784,133.4975489512355,985.7620757772253,156.82543280586188
8.1875,-0.519398387011969,-0.1842602124341453,-0.2920507274391986,-0.0194250007713924,-0.0321749741638123,-0.0068676552224193,0.0047278457551005,-0.0043643066808757,-0.9910207582515728,-0.1335485599426413,-0.0628287095034556,-0.0381475646677592,9.831899747229965,0.0226169752869921,-0.004616054243478,-0.0008170274899003,3.632326345172247,4.900479772904137,1.2328488696406592,1135.7335201138355,1126.0743107817511,1142.258261667854,1151.625234462608,-170.1199695881198,266.10323026080385,350.2863597764432,859.6165414823535,156.8260383805018
8.189999999999998,-0.3959064608673759,-0.2063027829183073,-0.3105815826055476,-0.0207071580527104,-0.0331892044879348,-0.0084307100081438,0.0047200356680708,-0.0043196557307135,-0.9910218725815864,-0.13354276251582,-0.0616326271995449,-0.0390406957012352,9.83198404559574,0.0225107963598822,-0.0048600166322084,-0.0007876522045412,3.6322806248380255,4.90050689486374,1.232849131200409,1135.3454997708843,1126.5231927917935,1143.338626225521,1153.3128742368708,-151.32180316661467,103.80479850462702,509.1899110753843,509.68067817831286,156.8266118288674
8.1925,-0.238598883024669,-0.2021193206516157,-0.2736214027232072,-0.0216604887892098,-0.0341505009816195,-0.0098968975128242,0.0047121195802998,-0.0042846234264857,-0.9910232855950032,-0.1335344268316789,-0.060611530839466,-0.0394687652330774,9.83204916173304,0.0224118194622588,-0.005103204279011,-0.0007583673873392,3.6322351385091727,4.9005339441517135,1.2328473893244039,1134.9769110980023,1126.5933347742744,1144.8042112232313,1154.1736378535,-146.56538485089624,-73.93585907556125,675.2684822149457,155.9551156710524,156.8272483989179
8.195,-0.0130079323802738,-0.1799859982469572,-0.15841023006897,-0.0222426943965144,-0.0344877030573912,-0.0113423833646918,0.0046999964308033,-0.0042586956770043,-0.9910246715002948,-0.1335260785222103,-0.0597078586010375,-0.0394366879644363,9.832092869654886,0.022320060973041,-0.0053445771648479,-0.0007264636631669,3.632188563096809,4.900560437647255,1.2328428903186255,1134.6126728466295,1126.1535134964156,1146.7149686365963,1154.092649815226,-111.61451561031247,-258.64810847102177,675.7335022558417,-203.69820214700167,156.8280755528686
8.197499999999998,0.2012585075262602,-0.1589598410593066,-0.0087157241405914,-0.0220927306713426,-0.0341109510742158,-0.0119354662935103,0.0046781922598511,-0.0042442593851348,-0.9910254968269694,-0.1335217639901993,-0.0588430790559239,-0.0388961318197794,9.832109282392542,0.0222348793196295,-0.0055831583385984,-0.0006893368426295,3.632139862068776,4.90058622679555,1.2328358193167044,1134.4188385199511,1125.3000942319195,1148.1828787345098,1153.1551468427651,-47.48789833025548,-448.5326216069535,505.7914506991989,-503.60156564689544,156.8288107560244
8.199999999999998,0.4356238988173839,-0.1411187510863885,0.181621627660122,-0.0213407518083735,-0.0338153831292385,-0.0114928370219176,0.0046473032557715,-0.0042388751991269,-0.9910256253267236,-0.133522526747815,-0.0580420460066512,-0.0379146746710518,9.83208749384513,0.0221551728728373,-0.0058179887127745,-0.0006447031871668,3.632089496262492,4.90061197532272,1.2328273182466172,1134.3752333549785,1123.9108503883813,1149.2439258900915,1151.5746419869922,8.206521639202574,-641.9930559640667,327.4701587847573,-680.4783507400616,156.8295858052739
8.2025,0.6808286596291598,-0.1212587686962631,0.3930769844080237,-0.0201488411398213,-0.0339693035070348,-0.0102904565298609,0.0046106404900589,-0.0042370285365581,-0.991025107559901,-0.1335280425589538,-0.0573712918296713,-0.0366329985146841,9.832013596850564,0.0220796672653278,-0.0060478441655351,-0.0005910395434792,3.6320386110274065,4.900637921615097,1.2328186425998706,1134.4598711281471,1122.090128952099,1149.8202295284339,1149.7527550890643,59.99873149361491,-817.7591656989166,99.37883085293187,-710.8251221428671,156.83038831093742
8.205,0.931015128134555,-0.0872569850455438,0.6204549134287659,-0.0183568616057661,-0.034652832163465,-0.008728493785029,0.0045672073561922,-0.0042323274838876,-0.9910243512908682,-0.133535521555569,-0.0568073369435795,-0.0352031416963809,9.831873999680612,0.0220070812569004,-0.0062711690798852,-0.0005279950553126,3.631988322106248,4.900664731897091,1.2328104398565283,1134.6752270124466,1119.822054559886,1149.7408200443565,1148.020516376277,115.72366797965996,-1067.8481298088475,-177.41698196281396,-660.8881905552558,156.83121745828925
8.207499999999998,1.2239789735725857,-0.0183516172655381,0.907634541478098,-0.015435739317889,-0.0355143499799573,-0.0070622851479638,0.0045170506977752,-0.004220425610075,-0.9910237952544444,-0.1335418531035426,-0.0563478682042361,-0.0337455675085438,9.831655328086175,0.0219362088309078,-0.0064859805196492,-0.0004561126342968,3.631939444064823,4.900693247579652,1.232803560469267,1135.038489468045,1116.7508883030555,1148.93314461862,1146.4483141362887,145.4010732879624,-1152.0007562844075,-392.42978473842646,-458.4835573745942,156.8322352464723
8.21,1.450577923058595,0.063822833966607,1.1551971046759308,-0.0124914172959719,-0.0358930061275135,-0.00562550819266,0.0044631384254173,-0.0042020514094953,-0.9910236660832952,-0.1335452424558346,-0.0560556726236958,-0.0322947140667675,9.83134530253315,0.0218658733079786,-0.0066899479293068,-0.0003765756158958,3.6318929486323386,4.900724446573045,1.232798477030644,1135.4022323788863,1114.0620507784631,1147.778671120664,1145.728098589404,157.65455639068287,-1060.7950633978523,-524.0314289809793,-161.77489780390914,156.83309684506028
8.2125,1.6423650799784166,0.1648019606357116,1.395055182588324,-0.0091343831700737,-0.0358475679367401,-0.0033118449758329,0.0044083749468361,-0.0041801063215825,-0.9910238860856156,-0.1335460923916717,-0.0559924129106883,-0.0308469500190342,9.830935024969392,0.0217947857638916,-0.0068806539216274,-0.0002911835048233,3.631847908443168,4.900758046405591,1.2327945587673936,1135.8267622499989,1111.4469129860656,1146.3129874737147,1145.639439647269,210.5666928651281,-1090.7966671961171,-669.5210477165315,70.54982783794497,156.83396605862976
8.215,1.8071687807561088,0.2927792993249738,1.6371285565950493,-0.0040620969867737,-0.0351792873770513,0.0011398822815579,0.004353822316408,-0.0041594086868296,-0.9910245010947768,-0.1335438950916572,-0.0561832367687683,-0.0293590772862147,9.830420627990486,0.0217213623264888,-0.007056079588385,-0.0002022329199296,3.6318033482088103,4.90079303560655,1.2327916882439711,1136.455065843212,1108.6080674424836,1144.431065882082,1146.0808477285937,263.47048749826865,-968.00619061247,-679.5831061433532,208.75283542208825,156.83501094794016
8.217499999999998,1.8700379748282945,0.3926098231907872,1.7692718634709823,0.0011876089995612,-0.0340249957782736,0.0060545015243375,0.0043023361731065,-0.0041438390123183,-0.99102589018058,-0.1335356424866611,-0.0566800421626938,-0.0278116492494052,9.829803231149306,0.0216436586382964,-0.0072149253091605,-0.0001122628425811,3.6317585850250658,4.900829593650007,1.2327906703235985,1137.14411468749,1106.6068820330042,1142.9150719429983,1146.6832038243792,327.2515695383788,-707.9659537343363,-568.3816358826355,231.0694929447075,156.83587837954545
8.22,1.8398622179626605,0.4734466413768825,1.7997586146950393,0.0067485423781128,-0.0325814216953728,0.0115097918562054,0.0042578071089368,-0.0041395898708909,-0.9910282270233626,-0.133519738505859,-0.0575549390406111,-0.0261425536525513,9.829089535057907,0.0215594892789323,-0.007356610195336,-2.382765303903975e-05,3.6317129023279544,4.900867557557782,1.232791676149998,1138.091323690904,1105.0682376738112,1141.5891577026684,1147.2361951933171,486.6110744964466,-559.6075929059715,-524.8254892976636,177.4153753688729,156.83673689594903
8.2225,1.6987012722180088,0.5424898760584989,1.7062648622251473,0.0126014476492743,-0.0309027831066669,0.0178599373838192,0.0042170270449069,-0.004149747132367,-0.9910314318058288,-0.1334967748891532,-0.0587277654746802,-0.0243294098940924,9.82829446703075,0.0214666100199596,-0.0074813681771585,6.031158452007176e-05,3.63166590325818,4.900906406283469,1.2327940318257595,1139.5771700599723,1103.808844068474,1140.2909444965098,1147.5702807012235,597.2919152161289,-358.6251584070655,-428.38812108252,47.462787637378256,156.8377508141604
8.224999999999998,1.5079925829859275,0.5764400740125565,1.5268709010949693,0.0163733834888385,-0.0295725376597598,0.0225503780093479,0.0041757295083987,-0.0041748566813605,-0.9910357309324354,-0.1334651874129425,-0.0600860524753149,-0.0223915014004962,9.827439299194802,0.0213628913310739,-0.0075904996667759,0.0001376604877831,3.631617770885087,4.9009450611553484,1.2327966875789342,1141.077783266984,1103.2751118817764,1139.4472170972563,1147.4735091315042,630.606780094278,-100.82689044860004,-301.07316493840534,-112.9659378975526,156.8385780247297
8.227500000000001,1.263305260054426,0.587106760163074,1.266290094350599,0.0190417064718261,-0.0282073637078423,0.0261869464756987,0.0041307856498628,-0.0042160614067935,-0.99104133279127,-0.1334234993027192,-0.061536645080669,-0.0203328557416961,9.826550316600066,0.0212465717659342,-0.0076862290027766,0.0002062431566931,3.631569090375868,4.900982940734961,1.2327991224899195,1142.7302039604444,1103.3047096162309,1138.7855786718176,1147.0054510117359,658.8007359014562,107.76372891594428,-249.75796507438375,-228.73148097533948,156.83938218255798
8.23,0.9862627930622704,0.5792363117825241,0.9639192855286022,0.0211796308223567,-0.0267676334787003,0.028748074673848,0.0040816713332746,-0.004270411825781,-0.9910475311506108,-0.1333770648168807,-0.0630226332312133,-0.018237034741793,9.825657778386852,0.0211165141064291,-0.0077712847345227,0.0002645550616965,3.6315200127328326,4.901020277813518,1.2328016294327095,1144.371786946492,1103.8139305263562,1138.198427271884,1146.329851726627,618.1271353165678,316.8831641254831,-237.4764041813268,-284.6243795375924,156.84016394938092
8.2325,0.676475282821029,0.5501151044048018,0.6434699971986672,0.023198197134062,-0.0253585757978368,0.0300813983878761,0.0040301338996542,-0.0043325653885358,-0.9910534325180206,-0.1333326485690716,-0.0645228226426283,-0.0162306429265669,9.824794804128862,0.0209722152884242,-0.0078489895860623,0.0003115575577685,3.631470979166609,4.901056909848929,1.2328048494594857,1145.8208396370267,1104.889125436858,1137.5981966509112,1145.5823291140482,553.0733560496819,590.1233147638133,-290.9069435429625,-299.62151306050646,156.8409150438432
8.234999999999998,0.2707611210798415,0.493154459751114,0.2724967417410325,0.0253687458432708,-0.0237912935084186,0.0305571168355533,0.0039818290318159,-0.0043934962566254,-0.9910585577009836,-0.1332939507677955,-0.0660816858645705,-0.0145107329218592,9.82399565337384,0.0208137723615774,-0.0079233086428937,0.0003467497519035,3.631422781386812,4.901092079834023,1.232809134172255,1147.1371537267398,1106.7645471001747,1136.7438925541696,1144.831744161325,391.0107833862938,766.850976265476,-348.1113705346526,-226.1484693778685,156.8417767634685
8.2375,-0.0874897576219606,0.4300202912963031,-0.0089683626305002,0.0263302398441329,-0.022538366458458,0.0302325517694326,0.0039447031312962,-0.0044429014484235,-0.9910628766732484,-0.1332613068607596,-0.067785402827072,-0.0132930084066657,9.823294530246375,0.0206418161109613,-0.0079986834449894,0.0003702517318149,3.6313761348459423,4.9011257428361725,1.232813939903798,1147.7758935539584,1108.723380318186,1135.8576397982376,1144.4515867671587,144.8028096008103,834.9892459553816,-396.35173207119067,-89.05522036728571,156.84245940749437
8.24,-0.4453776046768954,0.3554653470957379,-0.2536220978941444,0.0258009871364946,-0.0215374450820387,0.0293561922570701,0.0039183134458334,-0.0044764087136322,-0.9910660140530012,-0.1332376545540476,-0.0695737430249439,-0.0126448011071321,9.822726604912832,0.0204574478193777,-0.0080795674857328,0.0003826321759942,3.63133064820202,4.901157203968549,1.2328183657941336,1147.861167774744,1110.9394933299523,1134.7621338938131,1144.3864680594886,-97.8941480548396,989.7089217725955,-520.2407257526953,35.95751865996851,156.84310298677488
8.242499999999998,-0.841018975245798,0.2606086802391021,-0.507980533234793,0.0233468668422303,-0.0207978892773091,0.0278745311303582,0.003896002373612,-0.0044946438041655,-0.9910678018816838,-0.1332244113861912,-0.071281287762203,-0.0125087505691142,9.822325910577998,0.0202619818309676,-0.0081703395562094,0.0003849867903984,3.6312853543463066,4.901186468666569,1.2328219440808212,1147.2864228136843,1113.671924927048,1133.2564361694747,1144.6313743604585,-322.4322239759609,977.5133687401485,-563.4735335598208,127.42809095277887,156.8438283408076
8.245000000000001,-1.1207493923652223,0.1824168965544423,-0.6957250315694213,0.0201181029652649,-0.020527075897297,0.026507245527361,0.0038706817398747,-0.004502863790693,-0.9910687797424595,-0.1332175960299947,-0.0727502338701452,-0.012725426127,9.822122254352205,0.0200567671230657,-0.0082751323170667,0.0003790667150066,3.631239232045381,4.901213754600545,1.2328244194225753,1146.249006654864,1115.8270601736535,1131.9447662260138,1145.0236085142526,-520.820332124104,793.476711180541,-498.42276114310545,173.17455100839675,156.84439294491972
8.2475,-1.3345412764327131,0.1082651327532962,-0.8706347990038532,0.0165051605779276,-0.0204502477394206,0.0252143911921215,0.0038387114250269,-0.004504665518993,-0.9910697225112703,-0.1332114394029026,-0.0738901253559399,-0.0131685180861041,9.822139303206407,0.0198432684879069,-0.0083973316131936,0.0003671404260145,3.6311924222233545,4.901239805226179,1.2328258802500829,1144.6823211530634,1117.6393084829513,1130.7643223637588,1145.4972471155006,-787.2822248744999,676.834367394802,-436.04970625210206,206.16661720595863,156.8449159532351
8.25,-1.5148373628108802,0.0221396310456839,-1.07312241477897,0.012617147261566,-0.0203316753996112,0.0234175799116948,0.003799480102387,-0.0045075874018767,-0.9910710695527972,-0.1332024450896679,-0.074684844638191,-0.0136378771809219,9.822393282311385,0.0196232346400934,-0.0085391046632542,0.0003519302251762,3.6311461173458297,4.901264975935116,1.2328261740867428,1142.3125955304922,1119.211232010627,1129.7645176947535,1146.054441600282,-923.5935142929992,457.7251446224637,-260.70937484060505,193.9154020650152,156.84549603285063
8.252499999999998,-1.6048512947879356,-0.0508080951669858,-1.231103374598744,0.0094842262606479,-0.0201607670308724,0.0213699818229898,0.0037560068590672,-0.0045122613368779,-0.9910730705910153,-0.1331886452960215,-0.0751764308131675,-0.0140747939425483,9.822892916232398,0.0193987280107422,-0.0087012390206607,0.0003362213706602,3.6311017832557417,4.901290293434662,1.232825346952913,1140.064353581599,1119.9279342060631,1129.460775489556,1146.4668241258255,-913.9812041694248,161.71804756338335,19.965960223086373,151.7440481229859,156.84594062061933
8.255,-1.6300131221426872,-0.128017243063808,-1.3598452510909262,0.0056932424805552,-0.0200428720200022,0.0185181339484009,0.0037118197146538,-0.0045142210865573,-0.9910750020829788,-0.1331754634926588,-0.0754090151696706,-0.0145228712149126,9.823639874655667,0.0191721278268812,-0.0088828593429665,0.0003226070230347,3.631059970039411,4.901316277276568,1.2328238361003248,1137.7426895096444,1120.019822248444,1129.8643474958692,1146.8131618408972,-904.617679816642,-52.481223507803385,289.3694742912887,129.39341246945128,156.8463456961885
8.2575,-1.5952510383818,-0.2077869397788653,-1.4446459562497767,0.0013566731756316,-0.0200752944187414,0.0148616812175572,0.0036702576045932,-0.0045095319344477,-0.9910761977638334,-0.1331679007367217,-0.0754302994836531,-0.0150175973991654,9.824628503610748,0.0189457853871805,-0.0090818198185814,0.0003134509053457,3.6310205981577615,4.9013434180223445,1.232822000248018,1135.5412651825154,1119.665528088524,1130.9076228610127,1147.1137911881729,-808.9113544777565,-218.2521293585503,567.1978153431374,112.63398703802036,156.84671815812166
8.259999999999998,-1.4838485558820529,-0.2841891161953208,-1.4533326161072897,-0.0030723086836962,-0.0204089260642635,0.010278841047239,0.0036333626517818,-0.004494408240799,-0.991076634532568,-0.1331662138257874,-0.075268939300086,-0.0155924833133714,9.825846439251983,0.0187217075131955,-0.0092950401918035,0.0003107604793816,3.6309835083840087,4.901372676704923,1.2328199292079725,1133.6981327372564,1118.9285616016516,1132.7003365725843,1147.3763317760872,-685.5714867242568,-368.6823270608608,936.0473591218168,111.60540666585293,156.8470509158387
8.262499999999998,-1.2683576636678393,-0.3577328933270477,-1.3609466349763206,-0.0077145563178335,-0.0212888464747889,0.0045543258722511,0.0035989323673268,-0.0044735666448178,-0.99107675841932,-0.1331669794831183,-0.074898455355313,-0.0161111461910507,9.827275418862,0.0185013824886444,-0.0095187128715355,0.0003162414738562,3.630947395484175,4.901404395571832,1.2328175260242988,1132.1134077488948,1117.82211645322,1135.5878596566208,1147.671818221502,-460.44935758579487,-416.5596040244767,1149.8204481290506,110.41942388235933,156.84740312146164
8.265,-1.0350437801773926,-0.3914080281584538,-1.2053636059322723,-0.0104203854757202,-0.0224603663005078,0.0006459835301702,0.0035642394160106,-0.0044526796223393,-0.9910771092507484,-0.1331660693791237,-0.0742890931774609,-0.0164264631127629,9.828891366089207,0.0182857627950877,-0.0097485101180521,0.0003312305497616,3.630912122663657,4.901438927367988,1.2328152389581948,1131.395885949327,1116.845763581529,1138.4494388132305,1147.928428895499,-163.25336839465484,-384.0473826151392,1189.3145441734719,113.79575812432488,156.84765598006413
8.2675,-0.7674908494814123,-0.3835940411864534,-0.9953079729849496,-0.0119620174681023,-0.0239589054993263,-0.0016008138073767,0.0035272606428894,-0.0044359874202753,-0.9910776809282332,-0.1331634525822362,-0.073424475296423,-0.0164326596009368,9.830664984616188,0.0180754023791635,-0.0099797471052715,0.000356664158893,3.6308773190657457,4.901475674330248,1.2328129286105867,1131.2971409069214,1115.901879540144,1141.534432377489,1148.2407970121235,75.83442090614571,-403.18459959952474,1340.7776008298636,158.16776282202645,156.8478643744058
8.269999999999998,-0.425205747982957,-0.3202884829195918,-0.7166017633182291,-0.0133787519360498,-0.025603143798819,-0.0029309486482519,0.0034943315689469,-0.0044222486836827,-0.9910783694805634,-0.1331597599224955,-0.0724395289642955,-0.016164057016953,9.83256057593117,0.017870479167504,-0.0102078242201421,0.0003932298634555,3.6308427423231695,4.901514354829615,1.2328112291098294,1131.7750580538575,1114.8298405835317,1145.1533268173785,1148.719267709609,249.12591770217404,-385.6147831699525,1260.9488260152675,190.36706100779816,156.8480596374148
8.2725,-0.1299291012033541,-0.2259755757043747,-0.4794686534939077,-0.0142624108763783,-0.0263528812534541,-0.0036702368156255,0.0034705091568318,-0.0044102098894135,-0.9910790216094366,-0.1331560280284099,-0.0714463173972154,-0.0156631967722554,9.834539650692735,0.0176709063619087,-0.0104284776328978,0.0004412086574266,3.630808336791728,4.901554682325872,1.2328104920336702,1132.5427704954325,1113.973805624294,1147.8391765075664,1149.1926323171629,352.92251307918315,-338.32096872378486,948.9375938879101,188.0706287486807,156.84817384131767
8.275,0.167133001951035,-0.0976078048827829,-0.2440671608872677,-0.0143757010013819,-0.0262557106368471,-0.0046031767242536,0.0034581423008723,-0.0043982267266788,-0.9910798517540352,-0.1331506554319223,-0.0705045833394506,-0.0149831194188762,9.836562362291124,0.017476386080599,-0.0106380795859785,0.0005005225938397,3.630774322771272,4.901596498796732,1.2328104719012327,1133.539670619254,1113.1382357399125,1149.8980147868187,1149.6596208533526,463.4697888910081,-361.5402437625826,714.340240717371,170.1807539663034,156.8482345138516
8.2775,0.5117889328980219,0.089413753178022,0.0348476609178026,-0.0136506468346942,-0.0255263021577004,-0.0059812650639932,0.0034543547865571,-0.0043840037555575,-0.9910811816758828,-0.133141406550139,-0.0695711926515009,-0.0141851644098718,9.83858921129411,0.0172865491865182,-0.0108337270305067,0.0005707574503523,3.630740771861996,4.901639637636904,1.2328106361839384,1134.860119439887,1112.1661044054815,1151.4108777111524,1150.0435360869942,490.7248217186019,-344.30426269188985,382.3568777901834,83.63862723446645,156.8482425164891
8.279999999999998,0.776271769808171,0.2759059712938756,0.2560803749698684,-0.0124124894087144,-0.024866614661357,-0.0068404212145627,0.0034551793222781,-0.0043690738305665,-0.9910829212817224,-0.1331290142199261,-0.0685917261911461,-0.0132616592164757,9.840580329179716,0.0171010950962408,-0.0110132573433835,0.0006514693197206,3.6307083547556305,4.901683723576018,1.232810845460312,1135.9932947278464,1111.4167144264532,1151.8097991757693,1150.0778139895249,448.5356342232744,-271.34659106059496,-3.3520510439752105,-73.41800815655677,156.84819359573774
8.2825,0.9977915200631616,0.505346724666549,0.4384789827699466,-0.0104328627415012,-0.024461517910089,-0.0063081953936424,0.0034611148325374,-0.0043562679160977,-0.9910850322909146,-0.1331136623003292,-0.0676020202581053,-0.0121970161685489,9.842494826479523,0.0169197067038361,-0.0111755011324752,0.0007422948460974,3.630677571272399,4.901728401568756,1.2328112340736457,1137.1027976110036,1110.8093714501783,1151.3941174559327,1149.6764460462111,433.4603638872754,-203.93216415015095,-267.1412757074032,-244.37204483243292,156.84808572499878
8.285,1.1664427986217711,0.7775021383220996,0.5582815418528528,-0.0080005231354265,-0.0240922461724119,-0.00426527767462,0.0034698211368634,-0.0043498642571254,-0.9910870027476584,-0.1330990793620026,-0.066585635491597,-0.0109444528643934,9.844293772071405,0.0167420611267344,-0.0113202268627785,0.0008427145146137,3.6306476061137607,4.90177233378797,1.2328118450747363,1138.1605965472831,1110.3970536057025,1150.474092797232,1148.8559537653623,404.6670172581694,-99.4098959626824,-430.23048388217296,-426.7658945440356,156.8479285164602
8.287499999999998,1.24831349288945,1.0971845831081823,0.5699394832116746,-0.0047857893960013,-0.0232068192401818,-0.0012481101919593,0.0034794781743032,-0.0043496602321704,-0.991088476909715,-0.1330879618521889,-0.0655238414806954,-0.0095472411199279,9.845940387833249,0.0165676288639629,-0.0114482705932996,0.0009519928926594,3.6306172555656513,4.901814559779684,1.23281281810275,1139.1261326972942,1110.312321970365,1149.2429650365223,1147.5426165734916,397.6247956848344,55.60207506540832,-532.2055095490746,-665.4017878045903,156.84771184812234
8.290000000000001,1.2189618844193386,1.50596164224838,0.4423229802344845,0.000226896797501,-0.020800026265071,0.0022449835705756,0.0034916880425454,-0.004350189840305,-0.9910893409719524,-0.1330812852818926,-0.0644501547910101,-0.0081594407287387,9.847400033924487,0.0163956376942189,-0.0115613525523431,0.0010692432823253,3.6305860138411807,4.901855399456764,1.2328143887035643,1140.1487205257076,1110.6750639810296,1147.8130652494863,1145.528944826339,348.97954052798013,215.07356005496425,-466.23116570669464,-778.31983757084,156.84738389087738
8.2925,1.0792308110659397,1.8284734464047911,0.2292675017025878,0.0047817212018352,-0.0172950689765434,0.004615683243306,0.0035070301814867,-0.0043485091187648,-0.9910894198814504,-0.1330804265394653,-0.0633839917941479,-0.0068809257025046,9.848641573071674,0.0162252188561011,-0.011661709386584,0.0011935351767424,3.630553590217268,4.901895707590337,1.2328168869094212,1140.8710303999344,1111.38768977064,1146.9118092079884,1143.6510173856368,259.24143563243587,365.58200181510074,-264.39273016363387,-745.0920091939342,156.84705501960306
8.295,0.8343898076990883,2.0729368357474294,-0.0542356984989459,0.008600243163904,-0.0118924918368945,0.0057918522965041,0.0035218241473116,-0.0043454328570373,-0.99108866901694,-0.1330857797389566,-0.0622709417798872,-0.0057228167438512,9.849638729096487,0.0160555632838626,-0.0117519032641175,0.0013238999554143,3.6305197189275416,4.901935915727686,1.2328195105910271,1141.4449277038696,1112.5029739901047,1146.4911015986684,1141.80348478037,216.82659187940536,567.5775708142047,-71.12738401312123,-751.0086354648722,156.8466700843337
8.297499999999998,0.4707746226357026,2.2107843175069943,-0.4027778719221979,0.0109186298744123,-0.0033627754400303,0.0048500292559915,0.0035324602478906,-0.0043440142622273,-0.991087342742753,-0.1330954409202777,-0.0610636880381517,-0.0046469842609684,9.85036944919257,0.0158861135336451,-0.0118347074546597,0.0014594416981908,3.630485379985553,4.901975490864936,1.2328214734687464,1141.9551633593312,1114.2255776247105,1146.556172287923,1139.8959742083132,157.19093889131088,679.0401049904478,96.6579560620934,-613.5154160775023,156.84614551913555
8.3,0.1607946661730943,2.167574532886295,-0.6415987137774802,0.0106052021416594,0.0044751883431502,0.0019365004700028,0.0035370826823503,-0.0043464033825204,-0.9910857729415908,-0.1331069176465808,-0.0597470731904839,-0.0036313426242597,9.850816206624133,0.0157167780426432,-0.0119129212109704,0.0015992200725915,3.6304515139776408,4.902014223978826,1.2328231026152017,1142.2308823983262,1115.8981745150575,1146.974391378979,1138.735907699982,78.92506956030633,695.8590205632212,197.45859557207592,-345.01779241653884,156.84565794733433
8.3025,-0.1016164180997416,1.96471027158052,-0.773153616989232,0.0086725591263706,0.0112398019209879,-0.0019717010354345,0.0035354262115513,-0.0043530417158248,-0.9910840246306744,-0.1331197227243083,-0.0583332910910636,-0.0026852401835125,9.850966617507492,0.0155480397876935,-0.0119891476617114,0.0017421015555221,3.630418272170524,4.902051768128308,1.232824650157451,1142.3497887071328,1117.7048727275271,1147.5434652657834,1138.1708852462302,14.604734080015255,799.9540941517125,226.572289065643,-93.72035052335423,156.84512035501712
8.304999999999998,-0.3301872799171194,1.5884015308478503,-0.7854193456389092,0.0058604567407182,0.0169387313265175,-0.006008486740996,0.0035297309558026,-0.0043616420305762,-0.9910821147457752,-0.133133753563578,-0.0568776222187877,-0.0018713089528512,9.850813729641414,0.0153808655074266,-0.0120657001551859,0.0018866718391926,3.6303860123928975,4.9020886305764755,1.2328270881253192,1142.3039060687263,1119.8979449858152,1148.107252824307,1138.2673059473655,-49.271529527406095,791.1452108541325,151.6542836873431,164.7073101442599,156.84442039689642
8.307500000000001,-0.4525639476746066,1.2182251331365423,-0.6843452731047939,0.0039056019960131,0.0196992556921112,-0.0084926538657971,0.0035241723515002,-0.004366186283729,-0.9910801274901768,-0.1331484801674871,-0.0554650536298626,-0.0013235450200634,9.850356644314017,0.0152165862923611,-0.0121445159656289,0.0020311885599541,3.6303556528843544,4.902125710723171,1.2328304042559923,1142.1034310594955,1121.6605987817984,1148.3017366842203,1138.9944217969517,-112.82506158766463,675.3397744736811,-2.7946622569738966,411.12798227157265,156.84379375428975
8.31,-0.5326897752569834,0.8525749119140626,-0.4980050556316547,0.0027791008098012,0.0209126207120606,-0.0101784954513589,0.003524171950105,-0.0043611547425289,-0.99107796613198,-0.1331646730660113,-0.0542080408481343,-0.0011636770017114,9.849600513794025,0.0150567808759517,-0.012227080408397,0.0021737399517201,3.6303270799194536,4.902163362395315,1.2328342619135095,1141.7397807607879,1123.274643858184,1148.093279513022,1140.3229458587236,-168.52630036395283,613.1547998254829,-151.40990375424107,610.4479674829995,156.8431251634626
8.3125,-0.6059452390076031,0.5268209985922484,-0.2702085944984362,0.0022489901998909,0.0213035227995177,-0.0112440340002937,0.0035340877130778,-0.0043467426935275,-0.9910757150973588,-0.1331815857599104,-0.0532150584333335,-0.0013932931015878,9.848556657576578,0.0149030193935857,-0.0123145726742896,0.0023123879683639,3.6303003827527367,4.90220119103706,1.2328389819038854,1141.260799557676,1124.7263727809252,1147.5446871654492,1142.046661634366,-209.0225526378124,537.4898744129201,-285.15774857388567,748.2409804806716,156.8424242085404
8.314999999999998,-0.69837492049596,0.273986678595033,-0.0309308001635542,0.0019780983186841,0.0211628653152414,-0.0115764517123718,0.0035525245450413,-0.0043265875671938,-0.9910731262737028,-0.1332009703622734,-0.0524926853549594,-0.0019275162616885,9.847243825394289,0.0147567856619669,-0.012407829509098,0.0024450470744164,3.6302753915543486,4.9022385625426095,1.2328447495445471,1140.694667997599,1125.9620932302482,1146.6674907701529,1144.0641507611263,-248.09854658243,493.2248592819317,-425.5800912791773,897.7058834992439,156.8416871787796
8.3175,-0.8456842906379886,0.0643502777018616,0.2189767838806831,0.0012125609119873,0.0207823891707989,-0.0108304672351414,0.0035783999643643,-0.004305524498535,-0.991070020893082,-0.1332240151450214,-0.0520576096929717,-0.0026550325465654,9.845686415326867,0.0146191690811649,-0.0125074666397218,0.0025696775904037,3.6302518783436977,4.902275281097897,1.232851633724542,1140.0203068247636,1127.1924970773352,1145.4167867090528,1146.5351910518627,-227.24677646116191,409.8624166118312,-460.4333238690477,869.7185804870973,156.84076466654267
8.32,-0.9916221470863492,-0.0377150489386226,0.3621587317305962,-7.976028185336288e-05,0.0204557059754463,-0.0091946168460048,0.0036082188289887,-0.0042864979859689,-0.9910660221282164,-0.1332535103685243,-0.0518744680197823,-0.0034925920528643,9.843914906759345,0.0144907398752017,-0.012613780360699,0.0026842363003587,3.630229013479752,4.902311544833677,1.232859257352204,1139.558434115293,1128.0114053133077,1144.3653241508073,1148.4127436635624,-141.76585494304254,284.05121036658977,-388.4470931596161,666.0104143809765,156.83996666901047
8.322499999999998,-1.1357614097497828,-0.0797845641466393,0.4084878371532474,-0.0022654615705877,0.0202092573858954,-0.0069197361449344,0.0036402366859651,-0.0042698851851099,-0.9910608540908044,-0.1332915386217293,-0.0519343700997122,-0.0044096176166396,9.841963994936041,0.0143713555457553,-0.0127267591501196,0.0027868628971468,3.630205864403579,4.9023484597311136,1.2328680554018094,1139.3114775500487,1128.612753129168,1143.4745512432553,1149.8652431237672,-41.467376994168326,208.68529225358148,-327.71101404480004,504.0243877318155,156.8391411177662
8.324999999999998,-1.263626067875996,-0.0835417662921278,0.3422954548750809,-0.0060998249615295,0.0200300248679397,-0.0042518869615206,0.0036746348043253,-0.0042536833888713,-0.9910547857235256,-0.1333361605551617,-0.0522577601034345,-0.0054252563842461,9.839871470572302,0.0142600890010571,-0.0128461649526499,0.0028759926795445,3.630182302160661,4.902386436777891,1.2328778859533636,1139.3510972303222,1129.0548317745754,1142.7267690805836,1150.9328656022208,73.72156609434326,108.25632408635228,-211.15111023297115,269.44010577977105,156.83812161913255
8.3275,-1.300968540248945,-0.0644795801610092,0.1971366358047734,-0.010143802776303,0.0199711488722805,-0.002627982446161,0.0037133630077714,-0.0042374140209302,-0.9910485684784562,-0.1333817556164877,-0.0529004911478046,-0.0065327048348216,9.837676671498064,0.0141553488052816,-0.0129715608705598,0.0029505844230394,3.630158222308696,4.902425793096341,1.2328882647212864,1139.6800853805205,1129.1540347495995,1142.4187956920903,1151.2124436526663,182.30487561269788,-25.889324716668444,-55.90989348624169,-2.205980154212394,156.8372500627598
8.33,-1.2398057476273083,-0.0407890072494697,-0.0087830096706624,-0.0143749619492314,0.0199915454267736,-0.0019637383106392,0.0037550411225673,-0.0042200534735658,-0.9910426900329948,-0.1334247782657595,-0.0538478465958508,-0.0077280283444432,9.835420644520859,0.0140552172208267,-0.0131022663619913,0.0030100306261499,3.6301336451982023,4.902466694825008,1.2328994800914927,1140.2626216083859,1128.925385150992,1142.4472196131524,1150.92183570145,283.15968392231474,-184.9820024531168,86.96329248657005,-217.7976605821165,156.8363579840934
8.332499999999998,-1.0446124941030657,-0.0254740252819635,-0.2733453096523862,-0.0189402265267295,0.0200927399433939,-0.0022248721477692,0.0037924998130269,-0.004202547104874,-0.9910373918216542,-0.1334636094082831,-0.0549724369977907,-0.0089552488241317,9.833145178911993,0.0139576406100224,-0.0132374931951029,0.0030542607742072,3.6301083493501576,4.902509223849584,1.2329112264275075,1141.0958838001316,1128.2291247373344,1142.853612154523,1150.123455349756,294.1515554956363,-328.6091659780081,208.33104499230484,-325.3893349383762,156.835266257109
8.335,-0.7906082718833511,-0.0349413541424375,-0.4658528080069275,-0.0218413692518206,0.0202295763316511,-0.0032750375202661,0.0038203196842669,-0.0041870959571561,-0.9910331165833715,-0.1334950532910853,-0.0561788213918622,-0.0101398520447377,9.83088943947562,0.0138604833948491,-0.0133766008065608,0.0030839884111051,3.630082502509513,4.902552307591667,1.232923257611463,1141.7333793858643,1127.2823393211015,1143.488874838114,1149.2948890267578,197.4785489043516,-454.2838997617964,311.75158719824725,-310.99432534255953,156.83434066098803
8.3375,-0.4683906013026143,-0.0778739180754131,-0.5794295438648848,-0.0232996951412584,0.0203947813780975,-0.0053789876790911,0.0038342802507234,-0.0041760080335296,-0.99103031508428,-0.1335158277311855,-0.0573892516101252,-0.0112103549965654,9.828688819753085,0.0137617305838423,-0.0135191373114737,0.0031007035467741,3.6300569614354994,4.902595134504699,1.232934660340946,1142.0832765446537,1125.957705238525,1144.4123700905143,1148.5684837230428,60.936595108672314,-589.8637443804355,410.3916933012804,-236.6795306963029,156.83340111006802
8.34,-0.1141051477645502,-0.1532172327612749,-0.5962637624080114,-0.0235827338830728,0.0205415003493428,-0.0083046203832418,0.0038361371495561,-0.0041686689316844,-0.9910293039759464,-0.1335235593569009,-0.0586284740847203,-0.0121702705476156,9.82657259828176,0.0136595502361627,-0.013664804857019,0.00310664072533,3.6300321145903194,4.902637191832054,1.2329442634047316,1142.0380623614076,1124.3330205992,1145.54083330462,1148.1114913732763,-138.392898538614,-717.9861993118329,482.16651558532743,-84.75269058505414,156.83245203159106
8.342499999999998,0.2526745064162203,-0.2678525298732895,-0.4765647695785238,-0.0229195823250749,0.020567276495166,-0.0115649365571483,0.0038307984196466,-0.0041686518970496,-0.9910300891212168,-0.1335179485651634,-0.0599871827089242,-0.0129525519264981,9.824563148266808,0.0135522930144387,-0.0138132802420851,0.003104732391506,3.630008127824397,4.902678500380928,1.232951642661476,1141.3913120519608,1122.3677742419663,1146.8232026684407,1148.1447202701177,-430.1369417732313,-937.2040900624496,559.2672589397388,147.64496074155852,156.83149418449187
8.345,0.6824669340347537,-0.4417575580195884,-0.1839986971292884,-0.021395269792947,0.0202492177638141,-0.0145587930971842,0.0038248908741861,-0.0041760181550654,-0.9910320210673226,-0.1335036088842337,-0.0615738450866703,-0.0135665244851199,9.822676265525693,0.0134385015131897,-0.013964057336669,0.0030980471976264,3.629984454555345,4.9027195570117295,1.2329578380063675,1139.887377652541,1119.6470001488872,1148.3371695993192,1148.8497161769844,-656.3974668786497,-1051.3395179409774,511.74800557693027,362.987858762233,156.83033846448694
8.3475,1.0182646831630844,-0.6025254189982823,0.1516280341427924,-0.0194818468886459,0.0194826155701551,-0.0153378413748806,0.0038250436575673,-0.0041899163918766,-0.9910344463482164,-0.1334852176344899,-0.0634885443158628,-0.0140417998433681,9.82092118181613,0.0133167287124804,-0.0141164680399713,0.0030895716512928,3.629961077666741,4.902761189520463,1.2329634301235988,1138.109324717567,1117.1110766522609,1149.3819426963255,1149.959659563929,-778.754822887477,-1055.7545942949955,322.3827911813901,519.6464739003328,156.82937314180776
8.349999999999998,1.3151698881696932,-0.7539436016324516,0.524357528612012,-0.0166700673941451,0.0179177435209422,-0.0136467163779065,0.0038326670394332,-0.0042094093702351,-0.991036580794114,-0.1334685767794314,-0.0657239590718555,-0.0143987124053779,9.819302183621309,0.0131856038587829,-0.0142696261428334,0.003081958743155,3.6299376453009025,4.902803939873968,1.2329678085028395,1135.9936035381045,1114.3682271774132,1149.9490835552256,1151.4479485464856,-943.8669724131048,-1225.3296941127603,89.1304614511543,679.9766671939169,156.82840940743867
8.352500000000001,1.607669795054815,-0.889568771079464,0.948802488086342,-0.0121117584978888,0.0149134100765955,-0.0096898615167134,0.0038454826888062,-0.0042335875551147,-0.9910380119594336,-0.1334568388391593,-0.0681963000251325,-0.014649245332107,9.81781879496907,0.0130437855281301,-0.0144225909275266,0.0030774198324769,3.62991348304594,4.9028477986069054,1.232970439316694,1133.3899898555007,1110.984428181696,1149.8275950035816,1153.3595428998992,-915.6214777756237,-1225.2515057928936,-200.2085585963556,669.7413532898598,156.82725954433096
8.355,1.7866977902983987,-0.9418039826836552,1.2525773719100588,-0.0076101344604234,0.0115896135433703,-0.0060263073493702,0.0038582051543579,-0.0042615161285457,-0.9910387737127384,-0.133449933251752,-0.0707593011872956,-0.0147994667592341,9.816466552185876,0.0128900865136097,-0.0145744749960452,0.0030775308549677,3.629888853113556,4.902893260691134,1.2329717569690593,1131.4154961492256,1108.2419696484478,1148.9480407622439,1154.7966553129352,-698.1897887477796,-1035.9326180113624,-515.1884713278948,486.1127814253053,156.8263101989114
8.3575,1.891223569870052,-0.9183209350913584,1.4897591915428543,-0.0030560272694718,0.0081296827761808,-0.0026568799309344,0.0038679817462799,-0.0042902141481986,-0.9910394292116772,-0.1334438511893655,-0.0733057652926815,-0.0149025237893476,9.815236695421074,0.0127236020760332,-0.0147245953596466,0.0030830747160656,3.629864448940893,4.902939915783678,1.2329728492844925,1129.8990409117623,1105.8047650916403,1147.2516526469426,1155.7901068070253,-523.9136175825612,-947.9991384350864,-904.319347448334,290.44091623637865,156.8253735760152
8.359999999999998,1.928462197101056,-0.8129167923804943,1.6923678328106897,0.0022218926502744,0.0047560073306934,0.0012785595121365,0.0038721157830253,-0.0043189113873274,-0.991040394438366,-0.1334356047510717,-0.0757352427003425,-0.0149704481598484,9.81411780795214,0.0125439903066464,-0.0148724515438146,0.0030940246882723,3.629841059476112,4.9029873612133565,1.2329752867825037,1128.7959280613131,1103.501973956273,1144.426444025003,1156.248859894117,-275.732968063087,-707.1913935684083,-1125.9546903629655,32.29500022725411,156.82426772630197
8.3625,1.884334012779575,-0.6820988894709493,1.7859910461920963,0.0065788975840605,0.0027435135245563,0.0049151804316175,0.0038672770956624,-0.0043472319681705,-0.991041561018454,-0.1334261090524152,-0.0779348963200094,-0.015007610760647,9.813097505949488,0.0123515871876316,-0.0150177699740294,0.0031095587690755,3.629818596557501,4.903034517099826,1.2329801954465291,1128.520376071447,1102.2688081237975,1141.621879195127,1155.9515818081616,14.646791524362454,-324.36736496956127,-1150.544741865044,-256.07064581473054,156.8233632891883
8.365,1.757042403846246,-0.5399866538032463,1.7846484798046507,0.0108683325158453,0.0015985193353705,0.0093040181240134,0.0038535012842449,-0.00437691055437,-0.9910429996107047,-0.1334147864070426,-0.0798631275495925,-0.0149859803259931,9.81216223541125,0.0121471556205068,-0.0151606543402501,0.0031284703038865,3.629797681248344,4.903081031112657,1.2329873934163562,1128.8691620189352,1101.8801371314253,1138.6737203156767,1154.9685066650432,225.069335688476,-8.450212470826816,-1149.8841187411483,-492.83227375872946,156.82247849012717
8.367499999999998,1.5552872425225448,-0.4132838649307739,1.689060478291583,0.0150397689262249,0.0011672667265193,0.0141500479123367,0.003835269911777,-0.0044089955335292,-0.9910450304745038,-0.1333991005387209,-0.0815643142065511,-0.0149015924551779,9.811298080749824,0.0119317271616473,-0.0153015546587768,0.0031494278304475,3.629778905618168,4.903127340802399,1.2329959183714598,1129.645722749889,1102.2265570614436,1135.8724586014223,1153.4874204393684,383.3517786249869,306.7826846482578,-1024.3323730416923,-686.6663030644594,156.821610990643
8.370000000000001,1.258220038054726,-0.3273537367995671,1.4671216043637672,0.0188884020462617,0.0014010771807577,0.0188921863659574,0.0038176035320357,-0.0044429204680586,-0.9910474435256448,-0.1333804928344207,-0.0830910698260281,-0.0147832463648631,9.810492853942819,0.0117066021255291,-0.0154410846939913,0.0031711195005866,3.6297620894689584,4.903173673507297,1.2330047169288083,1130.7859209120604,1103.4140505546668,1133.5520584504677,1151.5351751497203,541.7550733298475,682.2339296948328,-847.6828657743266,-926.1150799003105,156.8207651068724
8.3725,0.7917602356778248,-0.2817456076876675,1.0551046610078951,0.0227076678796581,0.0019971173287583,0.023910283855203,0.0038038424066132,-0.0044771126159045,-0.9910501321822044,-0.133359723678649,-0.0844637243695674,-0.0146732332246528,9.809737342766494,0.0114730028461888,-0.0155801332797432,0.0031923500470891,3.6297466761779265,4.9032195368532205,1.2330133407006196,1132.3544981165387,1105.6377267099183,1131.63404427255,1148.856845039866,576.9593599002529,908.1079099302757,-531.6740780015755,-1002.1272475222931,156.81977541393
8.375,0.3202236124353567,-0.2828761332592106,0.6056813133442854,0.0249855110708356,0.0022603742503123,0.0272124212385581,0.0037943348622416,-0.0045067845637864,-0.991052812269188,-0.133339064375139,-0.0856396795364119,-0.0146670150922267,9.809026287513074,0.0112319898708291,-0.0157197966284369,0.0032119518148906,3.6297313752042895,4.903264599453782,1.2330214923799763,1133.670717711561,1107.9545901043173,1130.8936880604604,1146.5245389121098,495.3504347349357,963.4086643374856,-111.4018870566946,-907.0888068005373,156.81897165828195
8.377499999999998,-0.2132466229585355,-0.2963162289174764,0.0845538734019602,0.0259968253603671,0.0015141929365339,0.0289068812147023,0.0037909415654855,-0.0045278925581381,-0.9910557414161926,-0.1333166863866003,-0.0866122557053419,-0.0148463743430565,9.808356733686407,0.0109842100792875,-0.0158613708259367,0.0032289485879902,3.6297152634959993,4.903308766488739,1.2330291055443323,1134.831250290213,1110.4547700316048,1131.0770348372666,1144.3214010058643,445.7061137652757,1072.291263507546,271.1589845040665,-887.6117077119011,156.8181890053816
8.38,-0.8779690282057062,-0.2849979112558622,-0.55637882149417,0.0251413066164175,-0.0008794379112074,0.0283410255400641,0.0037907370513055,-0.0045369322822604,-0.9910590853390356,-0.1332915584938595,-0.0872880870327051,-0.0152681023945043,9.807730119485216,0.0107301945354074,-0.0160060478387155,0.0032423589900771,3.6296977589412727,4.9033525082028495,1.2330364935903733,1135.8992482803878,1113.3160464218558,1132.249482982981,1142.0864803735496,323.9997729372083,984.2663476755033,556.7781393394437,-720.9361840287111,156.8172727964937
8.3825,-1.4073578075612787,-0.231982238824397,-1.0473350544825588,0.0224486342147673,-0.0033278579892895,0.0257432062179015,0.0037901805546829,-0.0045351699794133,-0.9910625378846472,-0.1332660104179174,-0.087579779081787,-0.0158934941138149,9.807150389151646,0.0104706372297568,-0.0161546466670885,0.0032513697815534,3.6296789791920534,4.903396067258168,1.2330443542670768,1136.4512491548992,1115.376101769983,1133.8609255339643,1140.7167200857202,144.07408987479496,728.0454902530975,729.1193990123332,-424.7941176929025,156.81652698362964
8.384999999999998,-1.8529375897308265,-0.1352259403886754,-1.4321266796772583,0.0179863038437784,-0.004746200826861,0.0214656425541237,0.0037858217135184,-0.0045284068378246,-0.991066149713398,-0.133239559882271,-0.0874199367356832,-0.0165934866549295,9.80662344688133,0.0102064538813638,-0.0163075988602209,0.0032553603355727,3.6296603562797034,4.90343978795474,1.2330529795575118,1136.6196187297617,1116.9562738731206,1135.8950799780418,1139.9625097850856,-10.550892014409609,583.0362799943282,936.3793404096712,-189.91442390514888,156.81579731962125
8.387499999999998,-2.228858434565401,0.0003781858520742,-1.7211677768088123,0.0111018197084852,-0.004824042806786,0.0151373179311953,0.0037745245740161,-0.0045215334871828,-0.9910697258864576,-0.1332135772211994,-0.0867517081707116,-0.0172567206878769,9.806157037370834,0.009939101001185,-0.0164648160011419,0.0032538043837712,3.6296437888021194,4.903484752553349,1.2330623802582736,1136.3984946948271,1118.291283169954,1138.5428222360115,1139.7671479661947,-141.2521335886374,413.6276624510437,968.0124192718573,30.696780163629885,156.81493720933807
8.39,-2.3741957600371713,0.1008185154264217,-1.8010720988285411,0.0040631275045205,-0.0041396669774971,0.0094090877452069,0.0037563097274096,-0.0045170793191359,-0.9910730405162383,-0.1331896584529135,-0.0855809320033519,-0.0178251546514512,9.80575928197472,0.0096704793147637,-0.0166258265312716,0.0032463660835729,3.6296300837207154,4.903531214639741,1.2330719704247244,1135.9133580618184,1119.024412185376,1140.735142074402,1140.1159936859035,-235.74427220656568,248.24662251740605,837.5940651015353,214.70060090179055,156.81423063283464
8.3925,-2.3228509915225777,0.1596586342896431,-1.7187867775809476,-0.003867285166871,-0.0031991398645458,0.0039732805074697,0.0037349380666288,-0.0045103348070574,-0.99107577471064,-0.1331702171684631,-0.0839752224735925,-0.018390921606615,9.805438132632787,0.0094027698371539,-0.0167900188520937,0.0032327927748262,3.629618801872488,4.9035789538834695,1.233081399097376,1135.219773333794,1119.532516282541,1142.73079256152,1140.8406509707036,-291.09749290279404,192.84717646050208,745.5262046934087,326.4261925739641,156.8135309517151
8.394999999999998,-2.1154727228236982,0.170062211599231,-1.5231550435282604,-0.0114289663646065,-0.0021308205001034,-0.0007372853079934,0.0037142570202528,-0.0044980333933528,-0.9910776410087778,-0.1331573805925245,-0.0820160504877861,-0.0190180493346968,9.80520123311578,0.0091381962123816,-0.0169568447700475,0.0032131712427354,3.629608924455839,4.903627469505516,1.2330907503941704,1134.4578705973047,1119.9886480676785,1144.462773097868,1141.7481246487732,-292.7784794208944,196.00136418008904,613.9287251525225,380.59878333491224,156.81283422974485
8.3975,-1.762601034111159,0.115057590266135,-1.2318943711589052,-0.0171235139740495,-0.001136715840971,-0.0042550114405456,0.0036955393710641,-0.0044804232750345,-0.9910785804425004,-0.133151535408149,-0.0797526852816376,-0.0196951631505713,9.805055887427494,0.0088788505392658,-0.0171259982876192,0.0031879610028264,3.629599745133513,4.903676550135476,1.2331000767935827,1133.7558809366894,1120.512523103442,1145.8004361872831,1142.7436448873787,-261.2716922860774,264.1862328015164,489.4677312108032,437.14053423607294,156.81213831133155
8.4,-1.256857679562235,-0.0227258806268589,-0.8343558108350386,-0.0208778312847533,-0.0003555662918443,-0.006791761654282,0.0036794161575416,-0.0044598850587482,-0.991078661517984,-0.1331520749727026,-0.0772361000881656,-0.0203678664205858,9.805007746959129,0.008626676698968,-0.0172974864927038,0.003157973676845,3.6295903316349287,4.90372555656139,1.2331090333092027,1133.151512135874,1121.3095792316863,1146.9101117539224,1143.933827319954,-164.46476684403567,319.1586724087936,326.86195527132577,430.98025643161617,156.81130149005344
8.4025,-0.8337480815548907,-0.1862721834664158,-0.5079422357476809,-0.021675119949005,-0.0001744488187517,-0.0076001894854949,0.0036672717379942,-0.0044380121232082,-0.9910779546350288,-0.13315839312338,-0.0745382031988768,-0.0209996354383986,9.805059841542889,0.008383573021065,-0.0174716007793662,0.0031242649719192,3.629579898538948,4.903773520093895,1.2331176171038323,1132.9335571024694,1122.1083164654856,1147.4347459636394,1144.8985461695363,-20.199590528959032,328.193173853171,138.89909286015643,384.4891586293526,156.810601443168
8.404999999999998,-0.4699469001054471,-0.3793952370275304,-0.2301700940475752,-0.0211847940871363,-0.0005702743070159,-0.0076649409285486,0.0036593954739573,-0.0044145701318505,-0.9910763593556268,-0.1331712498395922,-0.0717127197143728,-0.0215878219689716,9.8052125953106,0.0081516044844904,-0.017648730575768,0.0030880263975849,3.629569090176828,4.903820006735598,1.2331255797170528,1133.050514183229,1122.9505451009516,1147.6046072182232,1145.8562731131003,120.35123983739987,340.5412022936084,15.797681540331983,428.81633382805944,156.8098978873181
8.4075,-0.1335210122082189,-0.6135844849963916,0.0133138093198634,-0.0203337374982932,-0.0017645850751639,-0.0070837904241436,0.0036535026923174,-0.0043919024811975,-0.9910738394039048,-0.1331909051604896,-0.0687774420190316,-0.0220740674792562,9.805463467765657,0.0079330634513227,-0.0178290976945661,0.0030506647740494,3.6295594739632873,4.903864641555955,1.2331326665418672,1133.5353133016563,1123.811022476954,1147.5137343713411,1147.0426278386767,220.82142517411924,256.3923731153008,-62.51007563918325,444.4649486199284,156.80904974862827
8.41,0.0643421074764381,-0.7842273360095233,0.1273578192198341,-0.0197145124588082,-0.0033444628736102,-0.0059947562235672,0.0036503372825972,-0.0043682039395512,-0.991070707611144,-0.1332150643969609,-0.0658048041979183,-0.0224896831713319,9.805805270780205,0.007730318688383,-0.0180125545664417,0.0030135166857687,3.6295529038784298,4.903908648689123,1.2331390655927768,1134.1546213091,1124.2325069665285,1147.2920568400273,1148.0785978562003,272.9524069782289,71.49892474773482,-96.39030231444035,418.576510758377,156.808340545394
8.412499999999998,0.1954493317179131,-0.8957433695577419,0.1462248957443836,-0.0192273054220283,-0.0056693930486163,-0.0046680267874724,0.0036525537848181,-0.0043428875704675,-0.9910676985699092,-0.133238201341384,-0.062913040579751,-0.0228488298958189,9.806226078194,0.0075455204118281,-0.0181984098983858,0.002977930412728,3.629550200976415,4.903953720756115,1.2331455749934244,1134.9000753365472,1124.1685171006925,1147.031782859769,1149.1355103924684,339.6714794947835,-164.45012282922266,-103.97404418166128,448.38138341399184,156.8076305393927
8.415000000000001,0.306702814990264,-0.9249032715092992,0.0755202223856264,-0.0188606915711048,-0.0094981051794477,-0.0033721131555165,0.0036598805821306,-0.0043176989756531,-0.9910653014264806,-0.1332566221784653,-0.0601732713961594,-0.0231158009056762,9.80671061694607,0.0073804107508553,-0.0183854230908342,0.0029452295344901,3.629550292744288,4.904000288389236,1.2331525764922076,1135.8529787065743,1123.4102563523822,1146.7721866191189,1150.3205047732706,352.2138326213639,-393.4265143613924,-77.97966238598437,396.70750999824287,156.8067799669044
8.4175,0.3826588991847522,-0.8447839749774361,-0.0364583064243995,-0.0187701026629104,-0.0131064150438442,-0.0029716232351594,0.0036669414621065,-0.0042963557052061,-0.9910634460105529,-0.1332708668181678,-0.0575642263313673,-0.0232070587111123,9.807241004944435,0.0072360789632071,-0.0185720012171939,0.0029167292450898,3.629551326056572,4.904048241278844,1.2331594170835867,1136.6611444996545,1122.2013845288852,1146.641884547839,1151.11904794246,323.7085513134578,-586.0292123618167,-29.149547933235567,247.90228873226096,156.806073817078
8.42,0.4583896778567263,-0.6565418612819597,-0.1646134281097615,-0.0185538323400078,-0.0160765648362282,-0.0035909113068044,0.0036678554649536,-0.0042827100008684,-0.9910616622200547,-0.1332844652748851,-0.0550548435297519,-0.023038731444935,9.807795802830015,0.0071127377724105,-0.0187564533111539,0.0028937408052847,3.629552250110725,4.9040975384695935,1.2331653289260835,1137.4715214631412,1120.4801102905735,1146.6264388794527,1151.5600162169317,323.6865077420778,-747.9870645650985,15.852383197128315,95.73668438449289,156.80537172466833
8.422499999999998,0.5372275200031243,-0.3957253917491436,-0.276871249611872,-0.0178317633385696,-0.0179776013444432,-0.0049846970061762,0.0036600352343064,-0.0042779237101793,-0.9910594679120882,-0.1333010387030545,-0.052668702568451,-0.022590773465672,9.808349640891649,0.0070096341457052,-0.0189372087679406,0.0028774203234771,3.629552566869768,4.904148136642228,1.2331697417648095,1138.2795770383643,1118.4614492060605,1146.7211464638247,1151.5977313643823,316.6125091363443,-838.2790749718476,70.11107363099468,-96.85210851301541,156.8046736277062
8.425,0.614484469497611,-0.0816133586115798,-0.3439640632661857,-0.0162237405862411,-0.0184181019854427,-0.0067914852100591,0.0036460976021426,-0.0042805448059728,-0.991056909993028,-0.1333202150229871,-0.050519413593074,-0.0219094658621939,9.808873483036368,0.0069250265300031,-0.0191129851401919,0.0028686128743078,3.629552232096248,4.904199570698155,1.2331729905358335,1139.0545840088232,1116.2887149157139,1146.9769942476075,1151.0757556743663,313.1759046244462,-934.1551133697426,158.71132784197718,-356.1761615602234,156.8039807061686
8.4275,0.6971034934372234,0.308807117862018,-0.3577196618850582,-0.013573466109452,-0.0173843298129482,-0.0084758681708114,0.0036326064380572,-0.0042864376196776,-0.9910543206782596,-0.1333394851551757,-0.0487837700511729,-0.0211054958844468,9.809335941011884,0.0068564250006297,-0.0192828245105062,0.0028676486539369,3.6295517751512736,4.904251596789749,1.2331759650415477,1139.845456561487,1113.790673639211,1147.5147031030347,1149.816850556581,243.58660026155417,-857.6375032052852,238.50599018737935,-547.8979095074645,156.803155132706
8.429999999999998,0.7577633675300509,0.6152249385762876,-0.3142987913165032,-0.0112690953872572,-0.015516032318968,-0.0091933132872892,0.0036259638593934,-0.0042916588938683,-0.9910520457223598,-0.1333562514208778,-0.0476273231889419,-0.0202870960496118,9.80970520921745,0.0068008086279684,-0.0194460730914849,0.0028743189981407,3.6295513185385873,4.904303991513275,1.2331795668841803,1140.2725170101307,1112.0005273996883,1148.1695241985444,1148.3362661268295,92.14051088577811,-615.8385501015292,296.06284960541336,-643.8412070640783,156.80247169483303
8.432500000000001,0.820539550312984,0.8777265894600746,-0.2187972777794626,-0.0092108004900835,-0.0132071241484036,-0.0098025690935189,0.0036299450056486,-0.0042961393125696,-0.9910503736996676,-0.1333682948297593,-0.0471643594770401,-0.0194813357669146,9.809950436519312,0.0067547193189398,-0.0196023576187459,0.002888032632105,3.629550700038717,4.904356757237833,1.2331843183129034,1140.306159115916,1110.711480888703,1148.995017351062,1146.59764452126,-101.02513271820737,-423.2454428887897,371.38691630019474,-772.8669523453091,156.80179206356905
8.435,0.9183523484211598,1.1274890957251444,-0.0488190997506308,-0.0075255376859023,-0.0101518042461485,-0.0108763729028314,0.0036401115368835,-0.0042992314573719,-0.991049202674221,-0.1333765355236303,-0.0473360980641318,-0.0187057344825801,9.810044311120192,0.0067144706554221,-0.0197515587045281,0.0029077218117151,3.629549004357999,4.904410063670495,1.233190160796756,1139.7673913465396,1109.884300185244,1150.0264587800457,1144.4719313651024,-296.5952783833153,-179.35373738718155,349.7265691675025,-750.1943729676569,156.80097954742308
8.4375,1.029772831571643,1.2751306568657557,0.1315000545710335,-0.0066809636480676,-0.0070696604090249,-0.0114990237571107,0.0036465561182078,-0.0043018459681491,-0.9910483141881424,-0.133382855138369,-0.0479687589666733,-0.0179326696677317,9.809963134358188,0.0066761834084651,-0.0198938085744464,0.0029321130922291,3.629545672432057,4.904463773646385,1.2331965765947024,1138.8231827239997,1109.8147122017672,1150.7436501968991,1142.8466726564225,-460.0273387804015,84.2459199182653,208.4524328683943,-585.5020978867543,156.8003041566807
8.439999999999998,1.1677939686401773,1.3556661599781343,0.3325006111641826,-0.0055284487888368,-0.0036384032386865,-0.0109848870199135,0.0036457995529398,-0.0043048483703656,-0.9910475716156776,-0.1333883422158908,-0.0490002052474809,-0.0171505843623841,9.809684698201856,0.0066358664065969,-0.0200294953427068,0.0029598728762318,3.6295417435555377,4.904518120888721,1.233202773318595,1137.467254652638,1110.3055297848352,1151.0687209443875,1141.5444208756694,-642.5730670296521,303.9938810421952,1.5249643966851525,-474.23046835130526,156.79962995567308
8.4425,1.3284165858895656,1.375066409829559,0.5673466939450725,-0.002638100840242,0.0005110305298874,-0.0091326504721505,0.0036354490749547,-0.0043135030298271,-0.9910468602901747,-0.1333937469937441,-0.0503875000359381,-0.0162629322774465,9.809190077281581,0.006589655447929,-0.0201592042918165,0.002989772526371,3.629537302349062,4.904572896694745,1.2332085693907249,1135.6103173888507,1111.3346816069784,1150.7512750188823,1140.4755203146656,-674.8073270733439,411.74390778972264,-257.7442663648123,-303.64598286618985,156.79882214796197
8.445,1.417629959674651,1.330358906989625,0.7386849802239022,0.0013247663570623,0.0040236597403023,-0.0070165658610385,0.0036201666060386,-0.0043284831880409,-0.9910462234133977,-0.1333985925940877,-0.0521996691107866,-0.0152777675454009,9.808463116946935,0.0065338825015438,-0.0202837856978219,0.0030203211580388,3.629532473745332,4.904628194925698,1.2332145270983343,1134.0932180172708,1112.364249323784,1149.7799996125632,1140.0261909613382,-550.9220567013657,399.5044798450066,-537.7710954127157,-93.02154999360968,156.79815025378397
8.447499999999998,1.4134282343539983,1.23056421742874,0.8708777772812499,0.0063470359019202,0.0075872478294659,-0.0046633667542933,0.0036088382476489,-0.0043454768741483,-0.99104557838384,-0.1334033832112241,-0.0545620792633133,-0.0143078036995021,9.807491525823025,0.0064652819817897,-0.0204043346704722,0.0030497011151803,3.6295277307881664,4.9046841025646,1.2332214022133317,1132.8557071053447,1113.332204006203,1148.0624195418195,1140.0104125646976,-422.6715229482056,346.05103575752366,-790.5144457281702,55.29355284694437,156.797480409949
8.449999999999998,1.3105159401377307,1.0959659100664412,0.9666418198748766,0.0114169724903999,0.0108403016215428,-0.0023038311280578,0.0036071694282267,-0.0043634993423565,-0.991045095729338,-0.1334067241612086,-0.057535248178586,-0.0133883728404313,9.806268447051217,0.0063809667143223,-0.0205221963151455,0.0030761308484627,3.6295236508580455,4.904739951909784,1.2332298171619802,1131.9798604025302,1114.0945045025715,1145.8274273839231,1140.3026587255729,-252.32964160027825,231.05211358662044,-969.6118985115694,174.2948198161412,156.7968131248616
8.4525,1.0887303966744095,0.9397351992692846,1.0182067034581355,0.015461313990573,0.0130875270607238,-9.20381344545905e-07,0.0036152744302396,-0.0043844219942888,-0.9910452379326468,-0.1334051110121791,-0.0610679792248146,-0.0124799109009032,9.804793188691391,0.0062784241768669,-0.0206389641061099,0.0030980002420967,3.6295196902775806,4.904795248541992,1.2332394969595875,1131.594058897343,1114.4874645741363,1143.214360049261,1140.8818866637785,-68.84375511280102,78.44756276712043,-1155.1060754395635,298.644780012454,156.79615035289805
8.455,0.7138544898522144,0.755663169667168,1.0293890532911367,0.0185068913810265,0.0146707966194803,0.0029079282296281,0.0036268638784516,-0.0044133707783594,-0.9910460505643802,-0.1333981847529137,-0.0649839194757629,-0.0114591254345861,9.803071428994462,0.0061557157292799,-0.020756330684862,0.0031140781958779,3.629515294592281,4.904849703836401,1.233249426460434,1131.635641626966,1114.4867423164071,1140.0518970067244,1141.7958826256352,77.02701560325917,-69.81541378633234,-1103.3457432290027,358.4439278645536,156.7953625870036
8.457499999999998,0.3427938202182393,0.6196783509378377,0.9960772112975266,0.0195822985849958,0.0156274739508312,0.005587364861625,0.0036357700087612,-0.0044501044372751,-0.9910470486697828,-0.1333896707565548,-0.0690875356091166,-0.0103041470298413,9.8011139089169,0.0060115179495433,-0.0208759807624771,0.0031232913566147,3.6295104001275713,4.904902816605516,1.2332582141618702,1131.9791939753593,1114.1383875052047,1137.6976313331168,1142.6741063031009,170.58604039754815,-187.3397262299184,-825.9781143001492,367.70945080664814,156.79471448623056
8.46,-0.0500048662621032,0.5074384562235242,0.9199766398103904,0.0194463109819484,0.0167528112735023,0.0083391460495429,0.0036402770945389,-0.0044928682495679,-0.991048171209002,-0.1333800561381384,-0.07326044009453,-0.0090297804644997,9.798934514701966,0.0058448490237279,-0.0209994447465331,0.0031248470215793,3.629505479287991,4.904954753124472,1.2332656840732277,1132.488571828954,1113.5500436852572,1135.922006435223,1143.6344298796687,234.19083854138057,-278.466709533088,-613.707794063243,441.12664905371656,156.7940779754362
8.4625,-0.508102223997053,0.3973775976497442,0.7884563649176052,0.0183425901259849,0.0181384386797281,0.011076925508365,0.0036436061413369,-0.0045372298469691,-0.9910495826220064,-0.1333680901562649,-0.0774695345314682,-0.0077122251295325,9.796549676401812,0.005655168060779,-0.0211278585740816,0.0031180130921293,3.6295011329328495,4.905006438178065,1.2332728914529836,1133.1501481680664,1112.746053957539,1134.6290923628003,1144.8797395483696,240.2196574831601,-284.51542250819534,-334.7848149817976,472.36251914396536,156.7933314753587
8.465,-0.8557283251778242,0.3233228344491096,0.657117421123028,0.0167804068935477,0.0190566754976943,0.0125589058445339,0.0036496975042643,-0.0045724771898879,-0.99105126944934,-0.1333539953574261,-0.0816774887297949,-0.0065494763334644,9.793979490400835,0.0054425463860662,-0.0212618170705547,0.0031018139385108,3.629497328920796,4.905059593638293,1.2332805647319112,1133.6896701163696,1112.1274665727167,1134.2480823603144,1145.9962424753883,212.0492497212548,-208.49272452960173,-34.802829277357525,456.92287372330605,156.79272703951173
8.467499999999998,-1.1424059329849054,0.2653926316355105,0.5170401635640715,0.0143339664427287,0.0196435336976465,0.0132099592531857,0.0036580181377548,-0.0045934218463238,-0.9910528132591166,-0.1333408879741543,-0.0857747490814442,-0.0056198952476643,9.791247951650675,0.0052077690395527,-0.0214013348903776,0.0030755216487118,3.629494130800477,4.905114201210101,1.2332888817742604,1134.2103944166724,1111.7035903348913,1134.4550782164135,1147.1643539169859,231.4196488211657,-116.45560289114654,172.63240791023267,505.52373857505074,156.7921451986447
8.47,-1.3866459839524838,0.2114230184126474,0.3445719225765131,0.0100555702395309,0.0200381232710171,0.0137870613248295,0.0036672298700329,-0.0046011855692703,-0.9910540240018924,-0.1333299672599012,-0.0896549585802248,-0.0048765351648023,9.78838125906092,0.0049521486609316,-0.021546063367382,0.0030388014214143,3.6294919856736585,4.905169628499179,1.2332974606739449,1134.8467683604756,1111.5451885582609,1135.1112443998657,1148.523861168264,239.5675155995912,12.1388341992296,262.8309235729874,467.2925048832164,156.79147862671147
8.4725,-1.489684927901079,0.174758140590965,0.1922753682566731,0.0055146770148068,0.0202039292914666,0.0146739005621381,0.0036737049881898,-0.00460288180409,-0.9910546453024645,-0.1333227688613537,-0.0931870949580044,-0.0041512002772792,9.785407862607354,0.0046776321184005,-0.0216954073585198,0.0029917712133098,3.629491538338227,4.905224830831974,1.2333054736904323,1135.4082319946704,1111.7642845058874,1135.7692328342787,1149.5008164414023,229.70496328161997,166.34826358321004,236.0805691902912,323.148823925904,156.79095388589107
8.474999999999998,-1.481555728878483,0.1367080484549141,0.0224590710570825,0.0005668196170296,0.0203136871494014,0.0157409202645654,0.0036755349952303,-0.0046047855053922,-0.9910544443056803,-0.1333206553510385,-0.0962771252561683,-0.0032984105528791,9.782357322330647,0.0043866604656108,-0.0218486287272754,0.002934717220237,3.6294937704255754,4.905279508949638,1.233312796186029,1135.9952931768835,1112.3769298761767,1136.2916472458169,1150.1396052878931,231.60778926790968,308.256263528162,158.60956131120724,174.78340441741236,156.79046624671284
8.477500000000001,-1.3916568561426768,0.0865231789412117,-0.1621594282978159,-0.0041390405909291,0.020442820129895,0.0164374002673124,0.0036741471796517,-0.0046097434909052,-0.9910533792450932,-0.1333236531132703,-0.0988940374135772,-0.002250387710747,9.779259534160035,0.0040818857797434,-0.0220048589154994,0.0028679024799805,3.629498624377568,4.905333612869996,1.233319237612695,1136.5662709410103,1113.3055658235285,1136.5622806408348,1150.3747334634895,209.1647855226384,437.76761191404574,29.661699263801804,-20.962633665791508,156.79001261887333
8.48,-1.2357705580331027,0.0054006466236678,-0.3524825998409771,-0.0078547083329925,0.0206358964329155,0.0162738734140278,0.0036753775229862,-0.0046164885293078,-0.9910515846531304,-0.1333306090483787,-0.10108995365283,-0.0010338960436756,9.77614400407594,0.0037658903961254,-0.0221630624510083,0.0027914292421759,3.629505180345256,4.905387210563169,1.2333254274435344,1137.0411171044968,1114.565767935747,1136.439955742136,1150.034792119564,163.96403853039908,610.7620239402728,-147.9563182614878,-281.33459666461164,156.7896028185564
8.4825,-1.0316047363837653,-0.1489966751314308,-0.5596332901121097,-0.0103575675095593,0.020920582933944,0.0145315405506895,0.0036872033037074,-0.0046208737188456,-0.9910495997370264,-0.1333375706452288,-0.1029602813856815,0.0002594635043227,9.773040209442367,0.0034409132766936,-0.0223219889569449,0.0027052151038341,3.6295124049505434,4.90544122386792,1.2333317911554027,1137.386091133662,1116.3593759432292,1135.8224990495276,1148.9680604801667,73.85127200920229,685.6431895368586,-295.3733065433104,-482.45098412167454,156.78916393399817
8.484999999999998,-0.8901826461992549,-0.3373310049702316,-0.6934518388519793,-0.0110128243651765,0.0211124276630927,0.0116832908911299,0.0037111203303401,-0.0046228274251589,-0.9910479002118376,-0.1333413480872592,-0.1044954526052851,0.0016288603782381,9.769979736864867,0.0031089934509917,-0.0224800806236986,0.0026093057761009,3.6295191816876953,4.905496095875174,1.2333379541523448,1137.4103734645428,1117.9939838834307,1134.9630892094196,1147.6225371989563,-58.52119015102284,656.524150490429,-393.7112400969748,-595.9110053113342,156.78884284368425
8.4875,-0.8108273020628748,-0.5924903119549962,-0.7762277180220922,-0.0113933900564304,0.0210300436905125,0.0084076448171435,0.0037466803259853,-0.0046190856542582,-0.991046897504552,-0.1333397832049416,-0.105650619550025,0.0030109639074909,9.766995236871942,0.0027720887156946,-0.0226355505383089,0.0025035952638584,3.6295252084768457,4.9055522524669355,1.2333439235110433,1137.0934851829068,1119.6419966956819,1133.8539428490424,1145.9885054536096,-227.0031494699751,692.8128439625478,-511.3951496771843,-735.2650106320867,156.78856757619656
8.49,-0.7905555909542274,-0.96271958867646,-0.8339905313750552,-0.0126204145619033,0.0201721351432164,0.0055244971105054,0.0037883752159068,-0.0046056319045096,-0.9910466500908098,-0.1333340068966966,-0.1062922518540983,0.0043343921458553,9.764121056673627,0.0024324343463069,-0.022786429568019,0.0023879507799075,3.629530839637869,4.905609423580767,1.2333490124008544,1136.2753577171927,1121.4580481032442,1132.406113461033,1143.9462121457952,-373.6756008341051,610.6185329895048,-521.1066117876398,-728.1839253422814,156.78828809470883
8.492499999999998,-0.8209121996722755,-1.299665220293834,-0.8741587006912818,-0.0144361260356764,0.0183998659877286,0.00444102932401,0.0038277062260186,-0.004585621692416,-0.9910469768041072,-0.1333273830333035,-0.1062593766732007,0.0056679197819261,9.761391177911614,0.0020927236262622,-0.0229306277147378,0.00226255338168,3.629537081518935,4.905666947731778,1.2333534043060248,1135.2251071787368,1122.6950893606288,1131.2484097901047,1142.3475858268987,-487.8010359972142,404.47788145405,-415.84850545125704,-586.2965908643665,156.78809498975158
8.495000000000001,-0.874119009659553,-1.619646636157195,-0.9338079789170156,-0.0166948264293092,0.0150139324451626,0.0043884613534415,0.0038547085423621,-0.0045605778369435,-0.9910478549858784,-0.1333229353354654,-0.1053704794325556,0.0070469974973193,9.758839208512455,0.0017561213706128,-0.0230660579874258,0.0021274498984345,3.62954531889476,4.9057250776430275,1.2333581229520891,1133.8363525372063,1123.4804375105148,1130.3268709337767,1141.0147291914727,-661.6045945427561,211.8877434112288,-310.7210866003667,-503.4200453495154,156.78793908213035
8.4975,-0.9353533442864852,-1.9198059456567087,-1.028139621505344,-0.0195133663316722,0.0088203610688803,0.003821488531591,0.0038651947939408,-0.0045328326207694,-0.9910494328611275,-0.1333230005578251,-0.1035700005269478,0.0085028100266048,9.756494891278846,0.0014261784887318,-0.0231907094437968,0.0019826680866556,3.629556161184375,4.9057840840296105,1.2333636864946018,1131.9170842060223,1123.754528077685,1129.6948043571026,1139.8304856001507,-712.549754315074,-21.39868987951984,-130.66991484431907,-360.0866225045854,156.78778968850045
8.5,-0.9660563502229776,-2.058973919759633,-1.09777540974822,-0.0219461064259913,0.0022834241645353,0.0016424741405364,0.0038596376966297,-0.004503407005707,-0.9910517892552908,-0.1333286600407693,-0.1009008506013735,0.0100251576276371,9.754384269335295,0.0011066462865699,-0.0233027977777776,0.001828227326272,3.629569792367832,4.905843834281464,1.2333698379028812,1130.2736037656316,1123.3734440611172,1129.6735213595553,1139.2142960789504,-615.4208580730343,-275.8178845185378,108.35078778666112,-175.92938267943143,156.78769274986283
8.502499999999998,-0.9571513867216732,-2.056898038764348,-1.106122364744867,-0.0245443107721558,-0.0044689520306397,-0.0022187703788772,0.0038381918596509,-0.0044723079392781,-0.9910540459776332,-0.1333397713151779,-0.0974083571983728,0.0115822462462272,9.752530928651968,0.0008012652261497,-0.0234009351796522,0.0016643087491605,3.629586217718309,4.9059044588266,1.233375916265297,1128.839979915658,1122.3754386550927,1130.2365582960358,1138.950838686754,-498.3667474935958,-487.48661300011565,318.1788708262914,-59.485822251090006,156.78761987770488
8.505,-0.9045132427588856,-1.9409954454830916,-1.0291586761162927,-0.0272259092848431,-0.0104549523591415,-0.0066448433591838,0.0038034199027577,-0.0044399272046137,-0.991055482111464,-0.1333531239736391,-0.0931955709912578,0.0131423315100406,9.750954240240446,0.0005134011375804,-0.0234843135409624,0.0014913998004434,3.629605388515893,4.9059655839522005,1.2333814055264127,1127.7817700281632,1120.9360109961162,1131.2644157136867,1138.916866967695,-291.91224657629374,-653.3201442598399,503.83044446654213,20.22215793512853,156.78756362494036
8.5075,-0.7918215517646083,-1.7146660992920526,-0.8309879359367935,-0.0298995530229245,-0.014989946236593,-0.0111960330892931,0.0037579657456036,-0.0044055277602968,-0.991055652512616,-0.133365707292401,-0.0883730061768629,0.0146508926631284,9.749669770721312,0.0002459320851365,-0.0235528677383461,0.0013102478943699,3.629627449151772,4.906026507908393,1.2333862682039287,1127.3804186827763,1119.1088379337928,1132.7557105183687,1139.0519494764296,5.415893131931793,-846.108525330451,724.7846616318006,68.41833999930256,156.78752343513355
8.509999999999998,-0.5888884257709758,-1.3622441911411352,-0.4709828373333285,-0.0329317176623209,-0.0187492262612018,-0.0155897702958095,0.0037112727350945,-0.0043686372537324,-0.9910551537848872,-0.1333746918008446,-0.083190438904216,0.0160415121161686,9.748686286803169,9.351226170714335e-07,-0.0236073765115528,0.0011218679166718,3.6296515068883033,4.906086721659189,1.233391172360616,1127.808849493823,1116.7054683694648,1134.8883390218452,1139.258958667691,308.32627488259044,-878.547510474884,805.966829030218,64.0868629627803,156.78748871550292
8.512499999999998,-0.3754248198375613,-1.0328707708347606,-0.113672859664267,-0.0350969053300362,-0.0207133301521172,-0.017049880395998,0.0036740145491489,-0.0043285799746001,-0.9910546327558468,-0.1333781556649721,-0.0779263177270756,0.0172425907622462,9.748007273667833,-0.0002205066016825,-0.0236494756659717,0.0009275721526465,3.62967601710462,4.906146570410565,1.2333965732046495,1128.9220500571887,1114.7161003814194,1136.7855446635192,1139.3723837912435,572.2556524277949,-749.5221690546906,744.2767416068564,17.648509141278705,156.78746740227214
8.515,-0.1458256148328257,-0.6917157123096553,0.2265343608068371,-0.036290315580509,-0.0219267600730341,-0.0155563351367671,0.003647296520163,-0.0042852750340609,-0.9910543088082948,-0.1333768693574928,-0.0726793641950976,0.0182217618553932,9.74763354630636,-0.0004182969006091,-0.0236816073577208,0.0007291806363302,3.629699090900449,4.906205856531509,1.2334015921359207,1130.6701277559623,1112.9578575241908,1138.60972272988,1139.3472012133975,849.3884407895657,-677.8002341216356,746.7001624526088,-49.651852560501965,156.78744977765203
8.5175,0.0972581795724272,-0.2797752873100298,0.5326730573365168,-0.0358451941670593,-0.0229555343166134,-0.0115208599160159,0.0036294103531256,-0.0042393314917169,-0.9910545934293844,-0.13336957380913,-0.0674973407107946,0.0189723448065198,9.747560293033454,-0.0005934460755783,-0.0237069030245002,0.0005290614585932,3.629719790066092,4.906263550579112,1.233405271767518,1133.1689922611374,1111.3270992108107,1140.5190454757828,1139.1241245284407,922.9695819916304,-495.7966078567628,632.5858097748445,-111.96027060257119,156.78742840581137
8.519999999999998,0.2343717688834519,0.0653903281894295,0.6692695671653744,-0.0342155637165997,-0.023558358766926,-0.0078260383289575,0.0036177216931429,-0.004191598252915,-0.9910555571756586,-0.1333569939684503,-0.0624106048263346,0.0194993960198386,9.747776194308415,-0.0007475881206614,-0.0237289288980948,0.000330044112166,3.629737802332648,4.906318455047449,1.2334068659119295,1135.2849756659195,1110.4788744849075,1141.7726517787537,1138.7873998603848,783.6954850954182,-220.40049105036096,416.71018823001606,-157.49609070069067,156.78740753192906
8.5225,0.2717517588565926,0.4121441780843961,0.6826466073418357,-0.0322446407738944,-0.0236450899061029,-0.0049622641107921,0.0036115062493037,-0.0041444967818401,-0.9910569298333204,-0.1333418153566422,-0.05748877550156,0.0198383610398068,9.748262445032077,-0.000882635668226,-0.0237512556859137,0.0001352756010503,3.6297533163096114,4.906369923105499,1.2334060127329687,1137.0874696866151,1110.2250967555588,1142.6025964169332,1138.336644074937,661.7542905246739,20.690215207556722,262.34840357069965,-209.60290049043937,156.7873805261414
8.525,0.1916311536383683,0.8191986254543671,0.5930095978674627,-0.0301996440491535,-0.0226476832997582,-0.0026683254698251,0.0036095968510419,-0.004096807024272,-0.9910582998573096,-0.1333275526101383,-0.0527803648928043,0.0199604535842148,9.748994531787691,-0.001000510744305,-0.0237769091510748,-5.228015576032517e-05,3.629767053912252,4.906418971431573,1.2334025044411698,1138.5937471185434,1110.5823255609453,1143.0843937966074,1137.7393853579326,423.2893863669166,224.62026273383265,94.5633721691326,-215.98932391989115,156.7873382162329
8.5275,0.0311162943995785,1.1335659601856969,0.4684300486971883,-0.0290396708089076,-0.020788381549457,-0.0016668857955419,0.0036154765061644,-0.0040436696623375,-0.9910594341150558,-0.1333161300231883,-0.0484100972377451,0.0197591687590534,9.749941628776664,-0.0011030087474515,-0.0238078537359418,-0.0002302014157872,3.6297803302302207,4.906467170356441,1.2333967739116152,1139.2039166184493,1111.3481980692277,1143.0754132777788,1137.256697455338,117.26400466961935,371.9054247790895,-76.80426186345066,-175.96424688293928,156.78729305640363
8.529999999999998,-0.1976616490661771,1.3925572150827943,0.3381888942269413,-0.0287231651757751,-0.0177925263002279,-0.001608920177876,0.00363338246237,-0.0039808261182654,-0.9910603292221004,-0.1333075553445365,-0.0445138764790247,0.0191412471489499,9.751068172252339,-0.0011916686992153,-0.0238446989831162,-0.0003966682915024,3.6297946614291248,4.906516357111399,1.233390361952412,1139.1800671418914,1112.4418526848403,1142.7003724872902,1136.859564123518,-90.28068221003603,463.608480057492,-196.29361549065487,-135.59538685410797,156.78723613042723
8.5325,-0.452354877347865,1.5801621635289502,0.2307281695885314,-0.0293714122935888,-0.0137574591192156,-0.0021909451554276,0.0036615767955579,-0.0039076090568633,-0.991060701113005,-0.1333038710351657,-0.0411160299338052,0.0181000394814266,9.752336360578209,-0.0012675829561579,-0.0238867174450027,-0.0005504124437306,3.629810536998984,4.906567659884224,1.233384281329737,1138.752513207399,1113.6662404695155,1142.0939452003252,1136.5787205210675,-226.54508944193464,488.32983107310247,-275.2211364286747,-74.94972821403928,156.7871686929782
8.535,-0.6966102885360583,1.6545326726358816,0.1674742788676647,-0.031326963728068,-0.0086414597688896,-0.0031628565572064,0.0036947079591216,-0.0038264748453989,-0.9910605804193062,-0.133304737796168,-0.038173061709352,0.0167000775363789,9.753707010300952,-0.0013316973647115,-0.0239320960751756,-0.0006907357029889,3.629828079454113,4.906621893799594,1.2333786638689934,1138.0473416946816,1114.8835018402062,1141.3242668051466,1136.4848154824479,-322.5001705580967,501.4203011640436,-343.0158301557413,11.808333385217868,156.7870880489023
8.537499999999998,-0.9292979983491476,1.5957312126970102,0.1377227815111168,-0.0348273582634089,-0.0021948733859445,-0.0039270797540376,0.003726048910838,-0.0037420972754597,-0.9910599501968356,-0.1333101375532448,-0.0356141828679023,0.0150524424075987,9.755140768173721,-0.0013847877556227,-0.0239783569741302,-0.0008174694490501,3.629847292972456,4.906678931416594,1.233372754278501,1137.1400123546089,1116.1733419753352,1140.378866049547,1136.6377621879935,-316.2344432448168,431.8078429681698,-327.65662172623126,105.45039766323669,156.78697555505795
8.540000000000001,-1.0484240941244944,1.4300413519197026,0.1305802796144837,-0.0383842557177578,0.0026617269721677,-0.0033927175324803,0.0037526731002919,-0.0036595133590589,-0.9910587840298744,-0.1333200244126118,-0.0334361226763632,0.013265119902142,9.756598871673024,-0.0014275806865909,-0.0240228229890402,-0.000931043293325,3.6298684887226025,4.906738443935112,1.2333664461388871,1136.4661694784572,1117.0425410550474,1139.6859836965152,1137.012067470764,-239.1117127508632,303.49406894569967,-238.4114198277157,203.2359181568291,156.78686843826083
8.5425,-1.0791207125096027,1.1737577614184138,0.1104753150038202,-0.0421678092611897,0.0062994563923539,-0.0014111818587605,0.0037727866096096,-0.0035828788751407,-0.9910571625456212,-0.1333335806486453,-0.0316478466712214,0.0114260245404457,9.758045535549016,-0.0014609420176518,-0.0240630615924855,-0.0010325141159176,3.6298920381000688,4.906799764325608,1.2333599227352436,1135.9444537908544,1117.690812320064,1139.1868089504082,1137.6539417787778,-198.12376071617413,244.13199653663776,-167.64928941651004,339.4610059381869,156.78674717389336
8.545,-1.0269071904261793,0.8154687322010647,0.055217245336038,-0.0460119436281959,0.0088075578685712,0.0011080375118643,0.0037879811118417,-0.0035100389650366,-0.9910551712319297,-0.1333500554784153,-0.03029951789616,0.0094924457466979,9.759449446941783,-0.0014860400049649,-0.0240972608889459,-0.0011238394510396,3.629917277583796,4.90686232975427,1.2333539275982768,1135.4755506748763,1118.2632010377304,1138.8477372494328,1138.7093725004547,-154.72511009346255,184.99356895657957,-86.08639576643219,424.06183620341176,156.78658506083937
8.547499999999998,-0.9323070127707116,0.5157612472250305,-0.0031267777054645,-0.0482363883201718,0.0096551539513587,0.0019244289439337,0.0038007718193112,-0.0034373661274962,-0.9910530352146316,-0.1333677141220124,-0.0294468907786598,0.0073920205519366,9.760784813439917,-0.0015046101808159,-0.0241245282468153,-0.0012075523099659,3.6299431954054966,4.906925713142451,1.233349703278135,1135.1708282403872,1118.6157801648467,1138.756376971576,1139.7742509597945,-114.01040944413616,122.5436624084786,-12.265874545981108,443.5324570238879,156.78643600915248
8.55,-0.8168092384917516,0.2549892985736397,-0.0356692618553185,-0.0495193223968205,0.0098757887436753,0.000872193136499,0.0038099488970589,-0.0033626162181302,-0.9910513094192016,-0.1333824732499181,-0.0290682416902593,0.0050914586628197,9.762032843439655,-0.0015191542497974,-0.0241450832247662,-0.0012863724723185,3.6299686174795887,4.906989430218152,1.2333476909749423,1134.9054986276556,1118.8759193497729,1138.7864078767027,1140.9270347855745,-111.8902062183504,91.58565294513596,18.614273830004823,498.76209153527657,156.78627237442453
8.5525,-0.6816607757948403,0.0186427070842192,-0.0026949312620505,-0.0503916180884793,0.0099566067187325,-0.0011949938513337,0.0038148952977825,-0.0032842457427163,-0.9910507555802353,-0.1333887058175948,-0.0291457095830809,0.0025733016171709,9.763181354693149,-0.0015328742739132,-0.0241603358481204,-0.0013629531008598,3.6299923813503296,4.907053039983218,1.2333478036101095,1134.6113772092951,1119.0737084295724,1138.8494483407262,1142.2680614174712,-101.3205489044341,44.34858888413119,13.089473796347068,468.08224445476515,156.78605911908795
8.554999999999998,-0.5789838574162601,-0.097754150705814,0.0968413701778814,-0.0509262465616328,0.0095274785961538,-0.0025266216362474,0.0038190690727741,-0.0032070723096414,-0.9910517149146644,-0.1333836353716728,-0.0297472672803456,-6.29631726090478e-05,9.76422361594344,-0.001549284269573,-0.024172874486085,-0.0014392957463292,3.6300138949495455,4.907115608170221,1.2333488996125064,1134.3988958831335,1119.0976622941935,1138.8518552456846,1143.2674460078479,-71.42382210707885,-39.020099160955674,-19.916464986542067,368.8037612323448,156.7858674123786
8.557500000000001,-0.4779555050394107,-0.1154123796474272,0.2595351521433827,-0.0516498172553166,0.0081421497269223,-0.0028698605424145,0.003826225946942,-0.0031341351637653,-0.9910538727159892,-0.1333694022463453,-0.0309324186454993,-0.0027478683220986,9.765159765683215,-0.0015718511382188,-0.0241862693809564,-0.0015168538379734,3.630032250660739,4.907175827293033,1.2333489679652463,1134.25425809876,1118.8786079337676,1138.7498660157935,1144.1120802236333,-41.74344596553313,-145.80786205767703,-59.50577990210129,319.0309730888158,156.78566162728575
8.56,-0.3620103566236094,-0.048515340797794,0.4515759683750972,-0.0527271756125908,0.0063703887575044,-0.0022691739939438,0.0038361362681819,-0.0030679500693224,-0.9910562584529669,-0.1333531564031928,-0.0326727772584335,-0.0054060538680711,9.765997112459324,-0.0016036759284673,-0.0242047136365222,-0.0015964032812814,3.630048194356135,4.9072330082028275,1.2333471652472892,1134.190178653306,1118.3686229839047,1138.554326346174,1144.862600873292,-3.8359459166720975,-293.1785238370268,-95.15770129107368,295.929344069659,156.78544484973236
8.5625,-0.2049872919529384,0.103467064955852,0.643505838734786,-0.0542594750541373,0.0050402778208067,-0.0006443592208725,0.003846912492939,-0.0030089083499326,-0.9910580616106304,-0.1333409672832762,-0.0348934978501329,-0.0079924991949321,9.766749133098106,-0.0016474892263806,-0.0242325050029026,-0.001678307116076,3.6300630780463705,4.90728771551655,1.2333439412833682,1134.2350783691763,1117.4127153145828,1138.2740775093382,1145.5917269439813,42.57971470684362,-534.7638069879094,-129.4755514155243,342.0790544927739,156.78521607690908
8.564999999999998,0.0505705337831352,0.3339320853850388,0.8294363842759904,-0.0562044450386656,0.0049823316835619,0.0023190082091298,0.0038604781889375,-0.0029554826119795,-0.9910590216342012,-0.1333347554535561,-0.0375807119263156,-0.0105029439765991,9.76743345984592,-0.0017056188069105,-0.0242735539947338,-0.0017627716397504,3.630077839898039,4.907340318931273,1.2333396777127172,1134.40307722684,1115.694803948966,1137.9069485890966,1146.5729961457555,75.94879099887017,-717.5070505270256,-128.73420033595528,390.6875010726552,156.78492986471684
8.5675,0.3175797885271959,0.5155850104190581,0.9222140254414573,-0.0571480527713379,0.0065481131793179,0.0055370550781965,0.003878120478494,-0.0029050077849685,-0.9910596086957778,-0.1333310574665224,-0.040698811110043,-0.0129481037485066,9.76807204217895,-0.0017800336360175,-0.0243309943863933,-0.0018499385608625,3.6300923712662025,4.907391184894414,1.2333342064258073,1134.6148223241707,1113.825180061947,1137.6304065076583,1147.5451644493448,92.52985137471487,-807.4584795927523,-94.57096718072877,422.01428285400414,156.78468360978314
8.57,0.6152060212611317,0.6264854785218446,0.9359676884917117,-0.0564258126037238,0.0094933600672936,0.0091189539352044,0.0038965022281483,-0.0028564898871451,-0.991060568374146,-0.133324461932918,-0.0441220099633511,-0.0152910623266111,9.768691258406493,-0.0018722128509987,-0.0244068976124734,-0.0019398548941657,3.6301070585114745,4.907441302590937,1.2333279102004704,1134.8657264837138,1111.6575115510016,1137.4340937531929,1148.683067560026,111.07812606458018,-961.7548816938418,-65.07612493607142,518.7071204148774,156.78443216863215
8.572499999999998,0.9597394582509504,0.6307535986226139,0.870522926659881,-0.053724303083733,0.0134654041492524,0.0127547584539616,0.0039104815316459,-0.0028113995410225,-0.9910622491217213,-0.1333125071985319,-0.0476924384875794,-0.0174421855052815,9.769320661500863,-0.0019829233968743,-0.02450209108517,-0.0020325772853582,3.6301226914480895,4.9074915172487055,1.2333211411104388,1135.1702129544935,1109.0164056534788,1137.305025882978,1150.1387000514187,105.65195605730136,-922.4708181758992,-34.672563211728665,522.6021903487529,156.7841283529878
8.575000000000001,1.2010562849305972,0.5163539329558468,0.7702732341571069,-0.050314274154666,0.0164148961266995,0.014649827602098,0.0039166252992054,-0.0027669978068336,-0.9910646185857936,-0.1332955982376164,-0.0512722716393951,-0.0193999827066131,9.76999185127652,-0.0021122657002859,-0.0246160677232735,-0.0021285928621905,3.6301390687333086,4.907542280009945,1.2333143013313483,1135.3939862640004,1107.0451574601211,1137.2607309371342,1151.2960785117702,72.84300096442848,-682.9340415549565,-17.962636252147522,415.42989431561966,156.78387661689075
8.5775,1.3633216132101145,0.2949397170381956,0.6561121650452745,-0.0458713114836659,0.0184912421855791,0.0155502209034757,0.0039162038138216,-0.0027188286509419,-0.9910672788501372,-0.1332767564026889,-0.0548096969109791,-0.0212131852657228,9.770736632698016,-0.002259726889631,-0.0247470229697508,-0.0022287365150019,3.630155804794119,4.907593436376635,1.2333082873435994,1135.534427959316,1105.6017354457035,1137.2152127017173,1152.2158495229971,26.059610411544508,-470.04709126790914,-40.70086745069503,315.5944844440174,156.78363004031976
8.58,1.4536606094058575,-0.0482993668323632,0.5330286855142751,-0.0401289694148507,0.0194383460043746,0.016313143981298,0.0039137287152586,-0.00266603221114,-0.9910698253666502,-0.1332588869236554,-0.0583259418521822,-0.0228759238172963,9.771586098213223,-0.0024243377338771,-0.0248919266792753,-0.0023338366426108,3.630173599095903,4.907645906188156,1.2333030014318247,1135.524284316058,1104.6949220037823,1137.0572265998808,1152.87405093399,-45.663219429761725,-187.08921473679848,-89.25451991819457,154.72764606773475,156.78334350670303
8.582499999999998,1.4522058821593375,-0.3539818082595045,0.4529300407240516,-0.0360047681532301,0.0186870568569477,0.0169312539865165,0.0039149082362936,-0.002612455296962,-0.9910721075837652,-0.1332428786215515,-0.061879957951699,-0.0243025062159907,9.772570109906471,-0.0026048044322434,-0.0250466542135159,-0.0024444838430742,3.630193719804376,4.907701016349454,1.2332990434532571,1135.3061118621672,1104.6662893720195,1136.7689401021264,1152.9894877533357,-138.35507074216022,120.3049257294236,-159.08443814262014,-39.98307981677783,156.78311434803203
8.585,1.4006677306313264,-0.6251497311840832,0.397917140982098,-0.0331574229696998,0.0163487652111062,0.0176097086371309,0.003922083276985,-0.0025650530835125,-0.9910744590333416,-0.1332260557101783,-0.0654770749878518,-0.0253476172896503,9.77371759864608,-0.0027997204051058,-0.0252062796324826,-0.0025608513858728,3.6302165567464946,4.907759320132826,1.2332962375566912,1134.8325089623472,1105.2964466324295,1136.2618044091676,1152.674135534906,-227.1420340491304,330.1521264023843,-240.9086390534036,-182.910905363468,156.78289657024837
8.5875,1.331209281663517,-0.8352056630323921,0.3592024397817072,-0.0310283510764366,0.013040468377241,0.0184102836427317,0.0039316813874059,-0.0025291298580055,-0.9910770691937292,-0.1332070194448826,-0.0690080636841187,-0.0258938093019808,9.775056421680484,-0.0030075124221953,-0.025365540895085,-0.0026826627267707,3.630241309824195,4.907821037516183,1.2332942355316632,1134.1704016919211,1106.317050004032,1135.5643969068592,1152.074933226518,-288.977335115954,454.5945123140877,-316.5402452289702,-283.14534664215165,156.78268869350697
8.59,1.256167105656257,-0.952962662406776,0.3314033886579481,-0.0289976901549563,0.0092496420863816,0.0192265504302894,0.0039389064552058,-0.0025062549728761,-0.991080064087752,-0.1331849544124828,-0.0723352444080723,-0.0259042975083986,9.776610806123248,-0.0032265850400245,-0.0255193295042569,-0.0028091612228859,3.630267218094324,4.907885159317316,1.233291878387952,1133.3876222867675,1107.5694191939995,1134.679103183023,1151.2584088016956,-328.79241879638533,545.4634080149111,-407.83911838342567,-378.57033937674066,156.7824926148791
8.592499999999998,1.1591607405620004,-0.9950217508872108,0.2985409921576497,-0.0261953851380218,0.0051532803408008,0.020151896743526,0.0039444286523514,-0.0024915917556543,-0.9910838745401772,-0.1331567189039141,-0.0754157678749194,-0.0254911462277608,9.778397990575804,-0.0034554802982305,-0.0256630784789319,-0.0029392553037016,3.6302944394476686,4.9079510208588895,1.2332888152020705,1132.5264395979395,1109.044367044106,1133.5252013149425,1150.1820815296348,-266.5784147885953,503.81323242414817,-411.5370929049088,-393.57342822607495,156.78226988676033
8.595,1.0609551316877504,-0.9720057802835328,0.2628633680591139,-0.0235064366417998,0.0026638124312715,0.0209061937293469,0.0039483444049292,-0.0024813519006261,-0.9910883967451928,-0.1331231418206306,-0.0782041791507356,-0.0247555938217594,9.78042832857242,-0.0036925987471412,-0.0257931533591427,-0.0030710939953954,3.630322596960648,4.908017930569105,1.2332852648965118,1132.0547302128243,1110.0884853561206,1132.621417718498,1149.2905416605647,-100.14122240725808,360.6163478393119,-313.75413650384513,-343.1967406914655,156.78209337382702
8.5975,0.9266408728715372,-0.928224134251243,0.2090845931483103,-0.0207153148003379,0.0011807240562261,0.021663278872014,0.0039486627787224,-0.0024734596468013,-0.9910933628633434,-0.1330863134764038,-0.0806250715357585,-0.0237691210021474,9.782704629477475,-0.0039363572662424,-0.0259070406858468,-0.0032020453361711,3.6303509180281064,4.90808494675296,1.2332813704366639,1132.0257334859034,1110.8474487833028,1131.956430632423,1148.4660978261772,115.10239838828527,274.0170383694112,-201.6658333597153,-342.85852444238566,156.7819243047238
8.599999999999998,0.707616082222486,-0.8907277497862065,0.1156066404967008,-0.0176015374858142,0.0001300371401834,0.0224457218471906,0.003942721587347,-0.0024661958590728,-0.9910983844526932,-0.1330492490924891,-0.0825970589812604,-0.0226014191875764,9.785220932064368,-0.0041851654293723,-0.0260033941714652,-0.0033288129317654,3.630378860202732,4.908150952146656,1.2332758192769444,1132.6302422047659,1111.4585705479672,1131.6130885516995,1147.5762490383531,331.2999071008954,194.1290751153853,-34.392325149741815,-311.96891964363783,156.78172772491737
8.602500000000001,0.4726846718839907,-0.8859016346760497,0.0109934340290573,-0.0154344146028207,-0.0005900691610673,0.0227655170599736,0.0039299921665506,-0.002459004333257,-0.9911027379567436,-0.133017373479267,-0.0840892051168496,-0.0213102702896828,9.787961015016238,-0.0044372489194407,-0.0260819369358088,-0.0034475581987101,3.630406710440456,4.908214647199829,1.2332675471245615,1133.682233021408,1111.8180941588798,1131.7844690066743,1146.9062532279588,519.8942990508937,146.96186952003222,164.83036837964542,-260.5749604522363,156.78156754968154
8.605,0.1897630653889229,-0.9025072896026451,-0.1209706885266908,-0.0141608096065641,-0.0017128801841851,0.0225884600370034,0.0039151849324471,-0.0024481724847199,-0.9911063318311752,-0.132991286100208,-0.0851700989767573,-0.0200293288222351,9.790897546933868,-0.0046909535939352,-0.0261430888518066,-0.0035544618950949,3.6304351269205193,4.9082760296706445,1.2332558605331234,1135.2297137000207,1112.1933798955677,1132.437240393598,1146.273374236092,758.5291427827686,208.4373551579989,376.56191950366735,-282.380749508922,156.78140931418739
8.6075,-0.1847350754780639,-0.9150386571190446,-0.3092205235096259,-0.0138584244868124,-0.0040627130137049,0.0220337811502943,0.0039022366057229,-0.0024333136318318,-0.9911092354259952,-0.1329703476780718,-0.0859077822205749,-0.0188253654015475,9.793994155536035,-0.0049446225836092,-0.0261876981608624,-0.0036457206197838,3.630464838321233,4.908335816458669,1.2332414830801104,1137.4748787353212,1112.8602809346696,1133.6672786041922,1145.4943494804145,851.7399600017928,301.18157751377646,496.95744191072544,-299.32299999929046,156.78121964509094
8.609999999999998,-0.5058179260569476,-0.8872630964216331,-0.4897059433022794,-0.0146225854982413,-0.0070279200610406,0.0214181688962602,0.0038920496975654,-0.002414994112451,-0.9911117006006708,-0.1329526374396443,-0.0863192620131984,-0.0177362617490132,9.797207365192198,-0.0051967334876882,-0.0262167654227732,-0.0037180418647852,3.6304965296378895,4.90839539229876,1.2332253488927911,1139.4884135000289,1113.6992877831362,1134.9220276031513,1144.7767592360958,787.4223753262091,402.1432180571363,509.3766972746948,-312.9978868849741,156.7810603553699
8.6125,-0.810056349307607,-0.7867541593935897,-0.6901847913636983,-0.0164591867750685,-0.0107001656144521,0.0205397329675773,0.0038850213673814,-0.00239216070815,-0.991113986330987,-0.1329362312797023,-0.0864123302188622,-0.016825943233022,9.800487458452672,-0.0054459848085072,-0.0262313515863512,-0.0037691270252466,3.630529927496504,4.908455968838028,1.2332080800796077,1141.411990611953,1114.8709970249556,1136.214162090566,1143.9293600459891,720.6262679689426,515.6871264992891,495.967189536136,-366.02000482638414,156.78089818845217
8.615,-1.0819618346992392,-0.6162452490895758,-0.8986845902660601,-0.01891947072779,-0.0141601353454234,0.0192224605690469,0.0038789944622026,-0.0023670139159595,-0.9911161295854644,-0.1329208728898794,-0.0861578404255835,-0.0160830369972819,9.803780715856703,-0.0056913674944894,-0.0262327443865148,-0.0037975832660763,3.63056439327089,4.908518065401432,1.2331907900513195,1143.091544839874,1116.277723415633,1137.4018635508323,1142.9466592119636,579.2940004594373,594.8506332619492,428.7192822057876,-423.2389183637611,156.7807325052888
8.617499999999998,-1.2961468647224663,-0.3754792895213737,-1.0983226384781795,-0.0219650862735082,-0.0163814425914883,0.0170524111000485,0.0038702723477223,-0.0023396276831976,-0.9911183053673348,-0.1329053625937367,-0.0854947479327608,-0.0155256890836802,9.807031596931555,-0.005932360399814,-0.0262226148245671,-0.0038032760324184,3.630599389853092,4.9085816150122605,1.2331744619036336,1144.3084606142495,1117.8452501912648,1138.3577585015946,1141.8131654541708,398.218794739461,683.9347245151498,358.50624909961726,-513.062567067629,156.78056129206615
8.620000000000001,-1.4662713283474227,-0.05019724270087,-1.296598595761675,-0.0262114261663768,-0.0170903183647583,0.013214043679557,0.0038540276258224,-0.0023105145310971,-0.9911208021816188,-0.1328876832058867,-0.0843440809739383,-0.0151514089626786,9.810184644194948,-0.0061688853945195,-0.0262032737839869,-0.0037871196839423,3.630634229912456,4.908645856503798,1.2331602003825908,1145.0826388135715,1119.6973970382091,1139.1943947963307,1140.381346376625,158.049284892534,641.895993082962,261.4511138890112,-509.4426184454846,156.78034787600157
8.6225,-1.5238647005669919,0.2104382430409948,-1.4055660635282912,-0.0301260866839642,-0.0160942191816164,0.0091727233985167,0.0038314143073188,-0.0022793874634511,-0.9911234688351676,-0.1328689271475771,-0.0827434916681217,-0.0149795382637322,9.813184397278398,-0.0064009439072115,-0.0261778546722289,-0.0037510494109065,3.6306684378167056,4.9087089701164,1.233148093137037,1145.0987070387123,1121.05473015668,1139.6650140710399,1139.2659523619432,-124.61801521947316,473.91602706475504,159.20441221481707,-388.6337128367222,156.78016232483324
8.625,-1.4850172920414055,0.4181202255067247,-1.4398389831379057,-0.0344163190753064,-0.0139247103239868,0.0050171628713142,0.0038053719523256,-0.0022462396859235,-0.9911256091808396,-0.1328541964196982,-0.0807682094581392,-0.015018700532571,9.815978765492842,-0.0066284710900045,-0.0261502961591212,-0.0036975965694354,3.630701833381493,4.908769606200913,1.2331374334646668,1144.4595487374745,1122.0669771735327,1139.9904168574046,1138.4381778124418,-415.103173516164,348.60627941759617,135.0397714545393,-251.7175212824032,156.77996758532913
8.627499999999998,-1.3276902497164764,0.5805912270159875,-1.392264884137222,-0.039901619676005,-0.0110979863684371,0.0004928631613703,0.0037802103002231,-0.0022092290128699,-0.9911262998295688,-0.1328502881613654,-0.0785172130824068,-0.0153058773341992,9.818521105141649,-0.0068513456871107,-0.0261250268986313,-0.0036297248743003,3.6307344359325864,4.908827052377624,1.2331282666680283,1143.0231911711319,1122.7977615537675,1140.3402129283124,1138.0073647555312,-611.9770671556988,187.73463570802753,137.15235547713422,-40.216994544555824,156.77972200348805
8.63,-1.1183494466002777,0.643068288311734,-1.284930558546927,-0.0441823679477482,-0.0092932249987986,-0.0029289604884581,0.0037595179257754,-0.0021642381377849,-0.991125004244116,-0.1328611796517969,-0.0760712512525368,-0.0159086017727067,9.820772356598962,-0.0070695528277853,-0.026106476288579,-0.0035505962901191,3.6307664274968214,4.908881633437889,1.2331205191269432,1141.3996634016955,1123.0056503520727,1140.6761786347904,1138.237092839719,-690.7849294794062,12.27581607645142,154.1194074560949,224.3461788431536,156.7795065857437
8.6325,-0.8656880628897083,0.641787761178532,-1.1197468824803092,-0.0469988713964462,-0.0079247507885602,-0.0061382775661659,0.0037443555362788,-0.0021110084089329,-0.991121846513104,-0.1328859293758933,-0.073473643602458,-0.0168011957364111,9.822702213062952,-0.0072832327870846,-0.0260986196170602,-0.0034630356386075,3.630797995241748,4.908933672186928,1.2331135302793104,1139.5692665237343,1122.85914063415,1141.110809965593,1139.1290956497471,-784.9024049386769,-123.24257778234546,214.96457519328672,529.5675936312963,156.77927906209763
8.634999999999998,-0.5750737378264156,0.5824393502803114,-0.8751721829918412,-0.0481562791846616,-0.0063680658083833,-0.0095454776298909,0.0037350702090351,-0.0020526082684152,-0.9911175468750196,-0.1329191183634474,-0.0707643447268583,-0.0178813960294016,9.8242893329215,-0.0074925853052795,-0.026104552507124,-0.0033694708948105,3.630829042552013,4.9089843256158865,1.23310608580637,1137.4751513770027,1122.3894374631611,1141.7510015107566,1140.8849308078748,-700.8672978600584,-202.3604502371793,249.95065478315797,728.2442283490353,156.77899109003667
8.637500000000001,-0.3870675550078537,0.4941012700853184,-0.6534776954464526,-0.0476660533986743,-0.0051800741247437,-0.0118083785075286,0.0037284332815536,-0.0019949266129158,-0.991112810211844,-0.1329554964840074,-0.0679231361108549,-0.0189758087518844,9.82552272701041,-0.0076975711192042,-0.0261262472674099,-0.0032719054238239,3.6308600419621713,4.909034667916636,1.2330974855697787,1136.0649300344335,1121.847338382964,1142.360563239509,1142.770316791493,-448.82162654564394,-226.30011971137816,252.97383339648744,791.2098379857197,156.77873816826423
8.64,-0.2871520657587045,0.3741592986345119,-0.4452223999423428,-0.0465224567558227,-0.0039979658698943,-0.0132229451119231,0.0037242708113975,-0.0019412723690968,-0.9911086251224726,-0.1329876445644289,-0.0649849655421008,-0.019964195654226,9.826400291589172,-0.0078979180067611,-0.0261643316671992,-0.0031724727342739,3.6308919652181526,4.909085541901318,1.233087996332308,1135.2310432442744,1121.2579368646043,1143.0158706777393,1144.840979997804,-223.2996315790832,-228.58649662061907,267.4781201446044,817.8003539196914,156.77847167193943
8.6425,-0.2618706383204275,0.2346252464876065,-0.2756915668916272,-0.0456796831705082,-0.0030296939863754,-0.0135897280397284,0.0037189045981997,-0.0018916736929326,-0.9911053587093204,-0.1330129102062263,-0.0619106114757548,-0.0207801202595412,9.826930751562623,-0.0080927749253896,-0.0262182174473633,-0.003073506213113,3.630924643542597,4.909137298364526,1.2330781581190944,1134.9484318765383,1120.704405899861,1143.6979538402315,1146.8593185610907,7.041828650109474,-196.63396067921255,282.29797911272885,752.5973293972717,156.77819419558122
8.644999999999998,-0.3028312772595073,0.0822002122206543,-0.1830976841479447,-0.0458936382007232,-0.0026378194260261,-0.01267189757452,0.0037111367451905,-0.0018422419391846,-0.991103125198538,-0.1330305153840741,-0.0587017855316528,-0.021440780485904,9.827131587186674,-0.0082808397235072,-0.0262861820339285,-0.0029778292336662,3.6309587804417647,4.90919077859229,1.2330691595257228,1135.266252387525,1120.2747670612084,1144.4273605733026,1148.6039666447898,227.07381723931664,-144.75147483383364,340.6322227918658,670.9529152013916,156.77790427747072
8.6475,-0.3801875812153928,-0.0995249777298977,-0.1797397108163461,-0.0470878060024579,-0.0028010361350818,-0.0108283590775583,0.0037052274330208,-0.0017871686340836,-0.9911017182862703,-0.1330419507733731,-0.0554644347597416,-0.0220183027164955,9.827027606628828,-0.0084603723947287,-0.0263656216526843,-0.0028887313389852,3.6309954553633546,4.909246665312597,1.2330617683501397,1136.083800962735,1119.9806485256915,1145.4011149541911,1150.2140831370982,320.64410302604745,-66.54254419039586,379.2420160418122,502.8070807290656,156.77754361556885
8.65,-0.4309779006657492,-0.2388819878944284,-0.2565237086353251,-0.048569273620864,-0.0032501783703124,-0.0095532104402173,0.0037051647932325,-0.0017230121618233,-0.991100554642927,-0.1330514984158908,-0.0523081978966427,-0.0225433649319717,9.826651596010423,-0.0086293412604241,-0.0264534416796736,-0.0028094860151392,3.631034814393332,4.909304445957257,1.2330562781939036,1136.8694729026552,1119.9420543402564,1146.323570653512,1151.1180020484355,276.92728291809595,20.46664603176803,392.97922591025406,280.3759664268103,156.77723404251867
8.6525,-0.4293530156322834,-0.353996655862155,-0.3726129837536399,-0.0504738065105628,-0.0039384249346875,-0.0097761031753928,0.0037097331262762,-0.0016528716973494,-0.9910991621193878,-0.1330626645218214,-0.0492609207614275,-0.0229119524611225,9.82604425706334,-0.0087858567464439,-0.0265463964195769,-0.0027427909998494,3.6310763216362423,4.909363335448665,1.233052708460166,1137.4684373773252,1120.0829817558504,1147.3660110837423,1151.615962969232,177.34546133778056,78.97545937373005,477.02506093496993,152.39228570565805,156.77691753666753
8.654999999999998,-0.3373001755829774,-0.450798835320826,-0.4831510456116488,-0.0527511744874805,-0.0050097797236191,-0.0121701967158389,0.0037132580962393,-0.0015826944125357,-0.9910972478252988,-0.1330777118163051,-0.0462729309591771,-0.0229605610601489,9.825252572907461,-0.0089284191728124,-0.0266413410856315,-0.0026907026065635,3.6311192775303582,4.909422783625393,1.2330506804799632,1137.756200209344,1120.3369316371247,1148.7086959581864,1151.8799634769637,26.88060194313528,81.01478945198876,494.81694247407626,65.53960998388787,156.77653315832137
8.6575,-0.1770559178385562,-0.4865236455281431,-0.5003384199310607,-0.0540515777524954,-0.0061508017172857,-0.0152501912599528,0.0037105415053513,-0.0015184574442677,-0.9910947513150205,-0.1330971701888826,-0.0433049517672017,-0.0225349345203408,9.824326722719432,-0.0090560929957393,-0.0267353675254878,-0.00265465929544,3.631162882689527,4.90948227307658,1.2330496194765759,1137.6028403870407,1120.4880557031106,1149.840095796113,1151.9436610191515,-123.29017709055624,12.79228850525924,436.7375960559684,19.5051867038243,156.7762118471877
8.66,0.0661937569277955,-0.4626527930352348,-0.4032897982806468,-0.0546268370632043,-0.0076011416343356,-0.0183345142839787,0.003699260078617,-0.0014640769451506,-0.9910915739397068,-0.1331218061757416,-0.040368257703912,-0.0215380681337655,9.823317458546008,-0.0091684855394745,-0.0268258850987858,-0.002635475480243,3.6312067230576632,4.909541629939401,1.2330492568405569,1137.1397493238912,1120.4008930796513,1150.8923839384663,1151.9774894104828,-230.0467338923684,-130.08906232373963,424.1396385912983,27.698343614753007,156.7758930069627
8.662499999999998,0.43776938873,-0.3536725466501324,-0.1536919397743121,-0.0546725919547136,-0.0094325933182523,-0.0212457884376953,0.0036833744109157,-0.0014182801559711,-0.9910880388675488,-0.133149120286189,-0.0375815998679596,-0.019999704995654,9.822273222618952,-0.0092659439967085,-0.0269105184270514,-0.0026334721109782,3.631250263708469,4.909600591681073,1.2330497013360104,1136.452606717579,1119.837610391492,1151.960793989069,1152.0821527372252,-237.41936437346263,-301.4032729863613,346.18693655010287,53.1886890242648,156.77551743612577
8.665000000000001,0.7942526725411477,-0.1936247485750253,0.1396145055211795,-0.0538749203062858,-0.0107919932371626,-0.0223795442083973,0.0036687355873365,-0.0013765353159477,-0.9910848177061083,-0.1331739977562217,-0.0350892669279057,-0.0180274503005818,9.821238954026944,-0.0093495120948338,-0.0269870597608101,-0.0026481712667317,3.631293539412491,4.909659285284753,1.233050342304025,1135.9526525020235,1118.8938767147192,1152.623318621217,1152.243432855604,-150.08961498508526,-482.4402239420279,203.85369310721669,71.94804500971954,156.77521345066845
8.6675,1.1657217928621293,0.0307113039380274,0.4675270314362974,-0.0515777333882032,-0.0119632945438038,-0.0212353182858141,0.0036588555530489,-0.0013391389933026,-0.9910821954389212,-0.1331942065851793,-0.0329985452290016,-0.0156390069571717,9.820254411437293,-0.0094205901693637,-0.0270535247372049,-0.0026777099233434,3.6313367437728057,4.909717464407342,1.2330503365507246,1135.7021586426536,1117.4254092717815,1152.980062454605,1152.4418929622739,-44.772319030707685,-665.4042253931452,82.7498990344503,72.3145771602647,156.77492261702713
