t,ang_acc_x,ang_acc_y,ang_acc_z,a_vel_x,a_vel_y,a_vel_z,quat_x,quat_y,quat_z,quat_w,acc_x,acc_y,acc_z,l_vel_x,l_vel_y,l_vel_z,pos_x,pos_y,pos_z,mot_1,mot_2,mot_3,mot_4,dmot_1,dmot_2,dmot_3,dmot_4,vbat
3.61,-0.7206942214536863,-0.3054723274175438,0.1466406775244076,-0.0011877127035391,0.0537787312488916,-0.0146973542776245,0.006867427542249,-0.0028898194728985,-0.0166638241705957,0.9998331311326488,0.0379166507521107,0.0587355439552645,9.8968854067552,0.0083086951099524,-0.0009188205891618,0.0059319096968984,-6.570095217189198,1.9261855107721977,1.1977454955150229,1101.3692973488894,1125.1137219791572,1119.9190810179455,1115.0327760342636,-132.5116401779634,455.9889084675125,-214.05200708248603,-53.58470881437463,163.18823976265406
3.6125,-0.6267684688487427,-0.2549906632825139,0.5117886731736185,-0.0023697181106822,0.0519317345098168,-0.0126454896723412,0.0068505277598588,-0.0028313430713999,-0.0166647939052296,0.9998334073103826,0.0373909734887565,0.0598089742797848,9.893965356697697,0.0083132771640735,-0.0010213193399264,0.0061989637440625,-6.570075651032283,1.9261823392363169,1.1977657418641323,1101.2594592894768,1126.1520278576684,1119.3915564844694,1114.8368216533127,46.59036645802784,356.1015665660066,-189.81121024993251,-87.50391857069508,163.1892796170908
3.615,-0.5285735958637733,-0.1638398547611458,0.7654347661306861,-0.0038340731446975,0.0508400633479743,-0.0097479930073375,0.0068391905636176,-0.0027612712050716,-0.0166696903354874,0.999833603076932,0.0368293254704248,0.0607909313238994,9.89103299197571,0.0083170855421002,-0.0011183525743874,0.0064425000930643,-6.570055636905112,1.9261809828292595,1.1977851462385571,1101.6022491811796,1126.894229811987,1118.9700249666955,1114.59525644141,210.11679449921297,256.2319895634628,-148.10920236523404,-85.60918733715152,163.19028419939673
3.6175,-0.3989131206512971,-0.0591420251386679,0.9098053628246336,-0.0057611277385957,0.0509469860551229,-0.0058889493292404,0.0068377004367249,-0.0026795608543452,-0.0166770481052543,0.9998337140648856,0.0362237572127652,0.0617510403708713,9.888192728518447,0.0083208653374131,-0.0012126062138024,0.0066605302944473,-6.570034948608971,1.9261804717311704,1.197805293222498,1102.3100432619729,1127.4331878054857,1118.6510104726433,1114.408775716627,267.32525102621025,145.46951665043107,-81.13930614176925,-30.75344605940765,163.1914470393344
3.62,-0.2802387170984657,-0.0152141108046827,0.891961447397587,-0.0070738933618531,0.0521395228629585,-0.0028002926122146,0.0068458858749899,-0.0025876500392685,-0.01668564542282,0.9998337590759162,0.0355927792784113,0.0626782355828926,9.885553228098388,0.0083253445934495,-0.0013064024957424,0.0068516131572288,-6.5700133220540975,1.926179923169064,1.1978263500364472,1102.9388754363104,1127.6215773952395,1118.564328435987,1114.441489211113,212.33146523637055,33.873630302833405,5.853572753449168,68.51727612188516,163.1923794495467
3.6225,-0.1580331652006597,-0.0494032894876574,0.7426535817397565,-0.0077435376836798,0.0538106002568221,-0.0002608688571561,0.006858330740475,-0.0024945642962833,-0.0166948268750752,0.9998337626483396,0.0351019297550211,0.0634671961334987,9.883223780632969,0.0083314440132085,-0.0014016020110414,0.0070147650527286,-6.569990675739864,1.9261789102542857,1.1978479862375948,1103.3717005881547,1127.6025559569998,1118.6802783364103,1114.7513620972363,105.50230011281424,-43.00064008007303,100.80037096591,206.40484972846463,163.193273020343
3.625,-0.0227197305578516,-0.1871929040146414,0.4413563330738355,-0.0075652615097459,0.0555521310970138,0.0019479345134554,0.0068675470686858,-0.0024089195928485,-0.0167027560258559,0.9998337850739905,0.0349043291425026,0.0639780038192342,9.88131160965067,0.0083403044139822,-0.0014995898057904,0.0071496485507423,-6.569967849144626,1.9261766550206776,1.1978709889008303,1103.4663869368746,1127.406574194839,1119.0683302908164,1115.4735134597552,-50.02317654398318,-95.47032700720797,184.6933117600696,319.0560223263742,163.19430002290497
3.6275,0.0707322065242095,-0.3629113998861079,0.1172683490969439,-0.006625864497015,0.0562023155874168,0.0029684109033363,0.0068714557606342,-0.0023318122027881,-0.0167090024806195,0.9998338434353043,0.0349975632703404,0.0641812534013995,9.879918054723271,0.0083532651802475,-0.0016012150848216,0.0072568197645757,-6.569945833435452,1.9261726900244145,1.1978962149844294,1103.1215847054348,1127.1252043219636,1119.6037448952109,1116.346642208868,-223.32897688830164,-137.11051928494564,255.99118762657417,392.68545085024846,163.19511822433853
3.63,0.1428533330516672,-0.5533083527342786,-0.2423973317237334,-0.0055477973775502,0.05505385723441,0.0029782812223454,0.0068698633909195,-0.0022654101223872,-0.0167154320326219,0.9998339025601064,0.0353946634488013,0.0640906121005608,9.879134390025616,0.0083719497539497,-0.0017069934195792,0.0073377993686237,-6.569924651765839,1.9261673786499205,1.1979237104928575,1102.3497420524332,1126.7210215984144,1120.3482862289493,1117.4369407140064,-364.87506014643526,-185.43379263750123,327.34853300914955,458.3652784325896,163.195897928538
3.6325,0.2070896169302937,-0.7108529519157373,-0.5983614937478295,-0.0049071615203657,0.0522334139719595,0.0021872329960461,0.0068612755727933,-0.002213380772261,-0.01672241887707,0.9998339587838816,0.0361338782621258,0.0636990185876272,9.87903865604643,0.0083981477978887,-0.0018174037391868,0.0073953468982708,-6.569904357877393,1.9261609704143847,1.1979527122030027,1101.2972094047025,1126.1980353587762,1121.2404875602567,1118.6384686010313,-460.14384023311857,-241.73103100395753,380.83181851777385,487.87701718571384,163.19664646099935
3.635,0.2814179532413934,-0.7847869317565201,-0.9069700979250764,-0.004890648904926,0.0482285819729951,0.0003372579629922,0.006848743078398,-0.0021722109568804,-0.0167307275921206,0.9998339859132326,0.0371056098336981,0.0630907990518194,9.879692344133426,0.0084335577112714,-0.0019329241308942,0.0074338785511834,-6.569884817488065,1.9261536355830993,1.197982026157279,1100.0490228512674,1125.5123664433945,1122.2524453215383,1119.876325799935,-551.0924720977645,-336.569372425727,449.12196156825354,525.7852171239505,163.19735870058656
3.6375,0.4031119982065945,-0.7558085619841118,-1.166066446959073,-0.005351904651718,0.0433973020940946,-0.003433463578009,0.0068402028560593,-0.0021357620005522,-0.0167391010131745,0.9998339638866812,0.0381429387981817,0.0624490487761968,9.881136634191447,0.0084797044835789,-0.0020541802747456,0.0074595187656781,-6.569866435672241,1.9261458433654737,1.1980106636089507,1098.5417470442137,1124.5151884966476,1123.486097368098,1121.2673946866507,-522.0724097231707,-382.966786812548,430.9713638292216,473.5697829161937,163.19817325365136
3.64,0.534334305245027,-0.6492232449375062,-1.2527909475618393,-0.0058478275373114,0.0404417506319121,-0.0077200110788701,0.0068416125085182,-0.002101612976363,-0.0167504340820537,0.9998338089993388,0.0391498491945404,0.06192202109524,9.88339000831767,0.0085379080530885,-0.0021820001839347,0.0074799167863798,-6.569848595306198,1.926138663802824,1.1980366916723169,1097.4386608026516,1123.5975325093318,1124.4073021406844,1122.2441747145162,-373.78569464813944,-359.37473230670406,309.4466245636406,328.15942059042544,163.19881950719494
3.6425,0.6763210741499772,-0.5045398775013173,-1.1790595540164304,-0.0056208302703534,0.0394572328712498,-0.0122290292926421,0.0068551022582284,-0.0020692878309536,-0.0167670405715676,0.9998334712442108,0.0400680246244896,0.0615848600787297,9.886446800235207,0.008609100142649,-0.0023174636119232,0.0075039964224272,-6.569830858227235,1.9261330385372408,1.1980589266876216,1096.672818570973,1122.718314835114,1125.033330490916,1122.908191789603,-223.55839994334497,-342.64588510369134,161.02418186046978,195.28114232430613,163.19943224198826
3.645,0.80609321620363,-0.3511278807057678,-0.9059954455695802,-0.0036450504425693,0.0400278557008014,-0.0167580984672207,0.0068758558127772,-0.0020371498607593,-0.0167920609813718,0.999832937431626,0.0408177549509405,0.0613760142781975,9.89027709207824,0.00869370109327,-0.0024617274459972,0.0075414749564559,-6.5698129116444415,1.9261289723548725,1.1980752467615772,1096.320868802935,1121.8843030838132,1125.2124230499867,1123.2205804261375,-14.525092306758179,-248.94532921117008,-58.631746101219846,23.3386684776638,163.20012801001863
3.6475,0.8320789116548915,-0.273666746283832,-0.545336325889339,-0.0004621357215022,0.040860500727361,-0.0195684393177858,0.0069028341197332,-0.0020038872396408,-0.0168272874737074,0.9998321923471876,0.0413252071800076,0.0613083100336585,9.8948249671438,0.0087915972316965,-0.0026156293491381,0.0076021272984112,-6.569794458065235,1.9261262279882287,1.198085315052141,1096.6001931094393,1121.4735881890583,1124.74017176041,1123.0248851319911,244.08451458667125,-97.32411423606416,-336.44253320909036,-170.60815147215544,163.20067362737703
3.65,0.724436344390254,-0.2624378868151838,-0.0903222118045667,0.0036913493130081,0.0412348169294799,-0.0213658040174271,0.0069391779799529,-0.0019650441820802,-0.0168704662533098,0.9998312659881968,0.041455173645686,0.0614743387110923,9.900010282352618,0.0089020739436674,-0.0027794607953791,0.007694938012993,-6.5697758169188525,1.9261245510605531,1.1980909463040217,1097.5412913758682,1121.397682512633,1123.5302103839413,1122.3675396687768,563.7196235618951,30.84074573807877,-692.4867212401443,-372.5457003101008,163.20118141407937
3.6525,0.4219321725587397,-0.3141915820259749,0.4916787984344973,0.0084997035952134,0.041336047782196,-0.0217497779026597,0.0069787045839896,-0.0019222236971709,-0.0169166635451213,0.99983028233696,0.0411991985839131,0.0617810150543154,9.905731963872007,0.0090239583643647,-0.0029529259456263,0.0078270425002094,-6.5697572972170075,1.9261228375127557,1.19809495221755,1099.4187912272487,1121.6277919177487,1121.2777381542091,1121.162156630441,794.4966522453714,118.66453880615262,-926.5786806777044,-484.02928164679366,163.20174324240304
3.655,0.0463654040467871,-0.3908934555002621,0.940084941179645,0.0110908385795427,0.0410543448724761,-0.0199125736328834,0.0070136239779346,-0.0018828229660968,-0.0169598024579446,0.9998293873050906,0.0406696161671446,0.0621007497230078,9.911870343840691,0.0091555923737752,-0.0031348848419769,0.0080032660102793,-6.56973847276392,1.926119574847989,1.1981005774287459,1101.5137746370951,1121.9910052066639,1118.8973169805524,1119.9473932605429,905.9461583415966,157.35399340513897,-991.7133188710308,-492.54661683786566,163.20216841115723
3.6575,-0.3938886091724196,-0.4668866637872233,1.2660893878859831,0.0109185086753418,0.0396745696495859,-0.0154715856688601,0.0070368773038317,-0.0018576613338293,-0.016997467493099,0.9998286536303104,0.040053439877605,0.0623162013894343,9.918291415769138,0.0092948309369034,-0.0033232884071964,0.008226106329802,-6.569717864523453,1.9261139866551344,1.1981096197355043,1103.9485220189567,1122.4145618847745,1116.3191715598539,1118.6994235462514,986.8331837560829,167.99552010907422,-1004.9128414819947,-479.0545644852602,163.20254481704595
3.66,-0.8249403444903024,-0.5139059438135837,1.43860635968628,0.0083752838164912,0.03731158300698,-0.0094751445248474,0.0070457887209342,-0.0018436662832688,-0.0170291377062072,0.9998281094434338,0.0392690077660858,0.0623857983554811,9.924853359814025,0.009438885506299,-0.003515356870771,0.008496351756203,-6.569694692524051,1.9261059147105473,1.1981209957618633,1106.4479405558757,1122.8309828072092,1113.8727527731423,1117.5521204381166,956.0641670314202,162.0883506400367,-878.0905440683188,-410.2031400261327,163.2028788011833
3.6625,-1.1753042804161935,-0.5033918785369699,1.3975066652513772,0.0039572591284054,0.0346045615173947,-0.0031756587652119,0.0070368134370504,-0.0018328253828838,-0.017052201252372,0.999827833058467,0.0381456742344635,0.0622416614261147,9.931410910972838,0.0095846996746234,-0.0037080213856668,0.0088132226495807,-6.56966923357009,1.9260947463360003,1.1981332538829883,1108.728842854114,1123.2250036379746,1111.9287188395124,1116.6484078461208,880.3850030810923,175.07406488275964,-672.8086263137045,-319.9048187992571,163.20316112547502
3.665,-1.4444440480429872,-0.4217619318889194,1.1199553769356827,-0.0023078540330608,0.0320148931576432,0.0029636167739122,0.0070152600722328,-0.0018165551760197,-0.0170675006435176,0.9998277817935476,0.0365075748691147,0.0619846130259237,9.93781794343996,0.009729362597498,-0.0038979823636447,0.0091745441813286,-6.569642362519788,1.9260808953291968,1.198146973017961,1110.849865571281,1123.706353131623,1110.508709641574,1115.9525963441204,633.5058226948285,184.159628510319,-344.5235564966952,-182.40582035896685,163.20344197996155
3.6675,-1.5289997805320716,-0.3122747269212802,0.7472414040966501,-0.0077726049466332,0.0307416885981559,0.0061384967155551,0.0069902427097359,-0.0017897721929173,-0.0170746835201376,0.9998279023888604,0.0342567710978236,0.0617855360380158,9.943932232171203,0.0098703729559369,-0.0040822047203876,0.009576749681389,-6.569616020504838,1.9260650923393456,1.1981639421331531,1111.896371967588,1124.145801780526,1110.2061010570287,1115.736378744326,242.43234525534325,184.4442639029733,57.88436226248574,-11.28261258090812,163.2036308073922
3.67,-1.4857224670821398,-0.1908142158438449,0.3106829689269381,-0.012674602958678,0.0304787307119536,0.0070669679929283,0.0069671997701536,-0.001752894081266,-0.0170737644410547,0.9998281532616088,0.03141602927059,0.0617382231382939,9.94962052676018,0.0100057274728875,-0.004258292176749,0.0100150101354765,-6.569591107843952,1.9260480177139836,1.1981849243594662,1112.0620272975575,1124.6285744511379,1110.7981314528863,1115.8961832812158,-125.78251557056588,210.89635420035384,426.2634088826053,143.9299792542928,163.20377843173864
3.6725,-1.3398616656385915,-0.0678210873477518,-0.18453221409896,-0.0170716223485432,0.0311562132078762,0.0058308513574474,0.0069467610434819,-0.001708778269388,-0.017063339317195,0.9998285477058262,0.0280686643245864,0.0618363624121153,9.954762778077448,0.0101336863827357,-0.0044247383802652,0.010483656087346,-6.5695681836299284,1.9260300525482783,1.1982094900411533,1111.2674593897352,1125.200283551528,1112.337418101442,1116.4560286405974,-429.4458397370983,193.9657586390564,655.0592481085927,249.421333965694,163.20391722157188
3.675,-1.1904246800253755,-0.0025153887054222,-0.5090392731670267,-0.0194624559268958,0.0321138586174426,0.003348796690953,0.0069301849234259,-0.001663558438895,-0.0170484630625894,0.999828978431374,0.0243731694802071,0.0620836781364442,9.959254222795105,0.0102525873014624,-0.004580761630751,0.0109765936924949,-6.56954624868857,1.9260123862002068,1.1982359928998827,1109.914798098872,1125.5984032443332,1114.0734276934295,1117.1432899510444,-628.9865481125192,124.17854048952977,720.3624685936543,295.4706049238467,163.20400937769247
3.6775,-1.0689145104333573,0.0185611060937232,-0.6895420600318347,-0.0209347781571699,0.0327714201151894,0.0001040238242856,0.0069198368627625,-0.0016191900874163,-0.017034852183767,0.9998293281654204,0.020414438095818,0.062501682807808,9.963008459180177,0.0103603869703126,-0.0047263836233675,0.011487704356026,-6.5695243741828095,1.925995686529406,1.1982634907739635,1108.1225266491724,1125.8211762539756,1115.9392304444104,1117.9333816652168,-811.1004283448609,39.72088448367769,769.2006587099222,342.98815454427137,163.20408846276166
3.68,-1.001794133764306,0.0038026231356064,-0.7155382912237167,-0.0222316325479368,0.0329021988987785,-0.0039399170924022,0.006917100154095,-0.0015743409164282,-0.0170241774962353,0.9998295630337974,0.0162216197393461,0.0630893789025397,9.96595912030566,0.0104544911385432,-0.004862425652262,0.0120108716884674,-6.5695011910372605,1.9259801053119217,1.1982921276948089,1105.8592959571479,1125.7970076667516,1117.9194309869793,1118.8582307237657,-792.6590942523203,-64.71691300385056,629.9108175167155,318.66410873472654,163.2041810154982
3.6825,-1.0270651263017363,-0.0288750064816706,-0.5850910624647163,-0.0232454192687924,0.0327205034029629,-0.0069851825565299,0.0069159696538179,-0.0015301220726325,-0.0170176094481251,0.9998297060668252,0.0118836202036981,0.0636990177485851,9.968061200715006,0.0105319663250149,-0.0049903856761839,0.0125397692255777,-6.569475555117104,1.92596574442264,1.1983215570721415,1104.159231177911,1125.4975916889564,1119.088784531994,1119.5267022088904,-590.2398778780151,-177.4356042028595,323.271892345299,233.45961166615368,163.20426476142688
3.685,-1.131959676342699,-0.0680188014601868,-0.3309860541489318,-0.0244601372048155,0.0324426640801293,-0.0092116911930741,0.0069088737532324,-0.0014895375302399,-0.0170155216623893,0.999829805478058,0.007535121207267,0.0641529538687879,9.969290538210958,0.0105897719889928,-0.0051120918496254,0.0130678754752138,-6.569446995728493,1.9259522648029748,1.1983526127403668,1102.9080965677579,1124.909829645737,1119.5357904487057,1120.0255287820964,-406.2029493896348,-275.8265961528254,46.08857672601614,167.80188173056916,163.2043647178237
3.6875,-1.2820238258415613,-0.1035430165041345,-0.0165407042781399,-0.026245290370621,0.0320064469550858,-0.010134423506903,0.0068899247179202,-0.0014628898389892,-0.0170196249373315,0.999829866872093,0.0034616944219948,0.064311351871907,9.969642583032734,0.0106253196944064,-0.0052293523006575,0.0135883917844372,-6.569414527910304,1.9259392064609564,1.1983863705996791,1102.1282164309628,1124.1184587081923,1119.319227415624,1120.3657116175432,-200.09731168843672,-351.44682757350733,-233.45493830789152,100.94899358373581,163.20448442487552
3.69,-1.4430014704604783,-0.1269399277518409,0.3077390404219904,-0.02923290738919,0.0313961340117134,-0.0089333042393828,0.0068559330849006,-0.0014568613030872,-0.0170304966666033,0.999829902239128,-0.0001201638729406,0.0640893470036756,9.969131998836913,0.0106366744030506,-0.0053437984871554,0.0140946245735112,-6.569378448550752,1.9259263447659287,1.1984242328850832,1101.9076100093157,1123.1525955078698,1118.3685157571663,1120.530273750015,1.3758364520981852,-446.13416607263434,-538.1812511462273,44.59585351928676,163.2046347698654
3.6925,-1.5805828139315317,-0.1366469710348923,0.6322009631659338,-0.0344053079045518,0.0307254435982306,-0.0056409291100235,0.0068061035385525,-0.0014590185158339,-0.017046389596528,0.999829959672233,-0.0033741906964725,0.0634462115448904,9.967791507115816,0.0106225900931015,-0.0054567851995371,0.0145806260679746,-6.569341581194643,1.9259136157899135,1.1984659651516192,1102.1350956132233,1121.8877878778292,1116.6283211598927,1120.5886908851396,129.2814549894869,-470.38882945068053,-685.318196231855,11.624521377324651,163.20485838643907
3.695,-1.6021622690672608,-0.1302955709180666,0.8105586942416125,-0.0398773725533266,0.0303149354302142,-0.0022951370776497,0.0067459630744873,-0.0014590142057798,-0.0170614126264507,0.9998301084501756,-0.0064253680397456,0.0624710779389733,9.965667246527545,0.0105833446312647,-0.0055692085955314,0.0150412013629223,-6.569305982701951,1.9259001723589568,1.1985117119141142,1102.5540172842632,1120.8006513606163,1114.9419247760068,1120.5883963569015,166.92962452374343,-432.94837844288656,-654.2396612414009,5.232484219959233,163.2050856715068
3.6975,-1.4914014206188808,-0.1127696280206388,0.8754102820552422,-0.0457625862983684,0.0300683115040261,0.0009448556127365,0.0066808765256703,-0.0014489267641752,-0.0170688184981289,0.9998304354778093,-0.0093535726977126,0.061253917698718,9.962816989471106,0.0105207872965987,-0.0056816061027441,0.0154722561259379,-6.569273319323119,1.9258854058184105,1.198561412930084,1102.969743735842,1119.7230459856144,1113.3571228536855,1120.6148533062394,133.48489464756597,-462.9459300650623,-602.2639560783447,27.96971852503762,163.2053605127662
3.7,-1.2047825672964039,-0.0837618061884907,0.831317341574024,-0.051615112110592,0.02991327147151,0.0042474072712601,0.0066113435075527,-0.0014252934334745,-0.0170655966506589,0.999830994464356,-0.0121540766706605,0.0597925312500737,9.95930751245218,0.0104381864264901,-0.0057943171514809,0.0158711139035451,-6.5692442652716725,1.9258692645888495,1.1986131704068879,1103.2214417575008,1118.4859217102908,1111.930604995615,1120.7282449495267,28.25847669792044,-435.48768900906015,-407.6552075631385,54.24335481275309,163.20575039653198
3.7025,-0.8644242748649592,-0.0554855536769554,0.7132782648301803,-0.0548094705350875,0.0298576731571928,0.0061744554066801,0.0065350776578048,-0.0013844660140757,-0.0170519401702592,0.9998318060892842,-0.0148330027827075,0.058032378503941,9.955210828441432,0.0103396260513745,-0.0059076197283976,0.0162369191459085,-6.569219936764609,1.925851941534544,1.1986654179427731,1103.1110361193316,1117.545607540569,1111.31884681587,1120.8860700803032,-116.54687146597345,-343.95169728860134,-108.44751848990433,65.83912973305955,163.20612868182164
3.705,-0.4697849388838176,-0.0241096071913001,0.5413669129203406,-0.0562633620228423,0.0298358342204957,0.0071938632456593,0.0064488731985459,-0.0013346997278081,-0.0170365020711193,0.999832729214138,-0.01716924164797,0.0559078697204096,9.950599884959558,0.0102298834477889,-0.0060217321318228,0.0165704578393671,-6.569199358622991,1.9258344050717575,1.1987161658887011,1102.6387074001711,1116.766163223848,1111.3883674031656,1121.0574405981922,-270.0138596458658,-290.06374501401007,171.75154136389577,60.637257319696275,163.20656587991783
3.7075,0.0011955177708325,0.0177327687282181,0.3040277996180436,-0.0558769748729004,0.0298224762764253,0.0080102086418017,0.0063586830284164,-0.0012855637099077,-0.0170254441144574,0.9998336014150268,-0.0189300733000039,0.0535392442536364,9.94554410354051,0.0101134094646145,-0.0061367966818448,0.0168743020362772,-6.569179594666355,1.9258170003052173,1.1987645225752677,1101.7609668211023,1116.095288815499,1112.1776045226895,1121.1892563669016,-343.14754183611336,-193.17771006222256,375.88827034542993,24.20289495021331,163.2071621106364
3.71,0.3508256400828366,0.0570225956162765,0.0974935384327848,-0.0541360423370074,0.029821573263837,0.0085242242838405,0.0062719680105094,-0.0012402673648438,-0.0170186449182089,0.9998343671758144,-0.0200220551936916,0.0510776044627931,9.940107743213554,0.0099937118091037,-0.0062531886957405,0.0171524681239809,-6.569158918723399,1.9257994773660103,1.1988103412258484,1100.9229696909906,1115.8002746735367,1113.2678087548927,1121.1784550729433,-313.6246001183803,-58.63384544104645,476.2767011728658,-37.60256148402812,163.20772078666673
3.7125,0.6263575344425288,0.1012643546262524,-0.1005347284733267,-0.0517994496658967,0.029854409508436,0.0084783602678904,0.006189803411616,-0.0012027075235781,-0.0170160799723796,0.9998350123523096,-0.0203486949612673,0.0485504394525298,9.934348431452063,0.0098736870516374,-0.0063716202104734,0.0174096673956889,-6.569136126131969,1.9257818933129127,1.1988528870757225,1100.1928438205105,1115.802119588294,1114.5589880285538,1121.0012435594815,-244.98165384266557,47.8871348007043,511.97797439459646,-99.19449892550104,163.20834574052913
3.715,0.8341289645690294,0.1483990208830801,-0.2784806462633123,-0.0493779519487203,0.0299499951441646,0.007613130523828,0.0061097777964071,-0.0011771649623764,-0.0170164725318826,0.999835567938788,-0.0198177481340407,0.0459194312878377,9.928315107711649,0.0097558597617441,-0.0064930502283976,0.0176507909287715,-6.569110527059062,1.925763991031648,1.1988928239375891,1099.6980614217773,1116.0397103475404,1115.8276986268656,1120.6824825783156,-120.21309067598948,142.12635711713975,465.91240534145567,-156.46459713651743,163.2090268896143
3.7175,0.9664422883773544,0.1948405904892624,-0.4200055283623042,-0.0471252829872115,0.0301798255145544,0.0060659607852595,0.0060346979046223,-0.0011582310743948,-0.0170207883391088,0.9998360038309606,-0.0185441661172344,0.0432499038213884,9.922046394859818,0.0096424758445332,-0.0066182936353,0.0178806746811367,-6.569082360816437,1.9257459048613477,1.1989310242213216,1099.5917783671305,1116.5127513738798,1116.8885500552612,1120.2189205737989,44.953576832128114,241.9577438778852,393.68266537469094,-223.96943524671167,163.20977687422925
3.72,1.0527822603383887,0.2406609420945239,-0.5432216639460256,-0.0447400400544194,0.0306880780899993,0.0043074915950095,0.0059712407804271,-0.0011389175665246,-0.0170300627783335,0.9998362686992008,-0.016688098869763,0.040686400370076,9.915571061325613,0.009536186532455,-0.0067480742712733,0.018103499776852,-6.569052996141312,1.9257278860886604,1.1989690052327269,1099.922829305938,1117.24949906693,1117.7961119537392,1119.562635402082,181.11676318435843,280.46485573132173,271.19764071235875,-242.98734001081877,163.21075727994415
3.7225,1.0725977388435548,0.2619361157210463,-0.6107768975061972,-0.0425688632544057,0.0313353715469281,0.0031207472802155,0.0059231881527869,-0.0011145679698216,-0.0170416579102151,0.9998363903613534,-0.0143747280196332,0.0383194195240256,9.908909868957736,0.0094404598055139,-0.0068832847210371,0.0183223831970624,-6.5690241571599355,1.9257101543186732,1.1990074570320988,1100.4973621830522,1117.9150756525364,1118.244538258823,1119.0039838737448,255.89785616298832,258.2897623394784,132.15843002949723,-205.53403948670604,163.21164152899823
3.725,1.041297852100944,0.254929386709386,-0.6473465586789854,-0.0397003960798288,0.0321578675575096,0.0019606845811418,0.0058879959716271,-0.0010823987965114,-0.0170538999565292,0.99983641650408,-0.011701809963695,0.0361171159178632,9.90207749122196,0.0093597254509098,-0.0070249460441988,0.0185392337798795,-6.568997189687484,1.92569324224357,1.1990452163479957,1101.2023185867529,1118.540947878627,1118.4569041038867,1118.5349652046486,290.2864116898916,254.481735814812,70.79914392748074,-163.4433940823363,163.21259537631678
3.7275,0.9479772049728324,0.2040183532325832,-0.6562126898314405,-0.0359480541490171,0.0331473469128069,0.0004032157064789,0.0058603465377287,-0.0010350863942218,-0.0170647196046624,0.9998364238507,-0.0088669188778271,0.0339933846031928,9.895084288782096,0.0092989550497045,-0.0071739857623126,0.0187548170599055,-6.5689746203468875,1.9256773129447764,1.1990832566454657,1101.9487942415017,1119.1874843316104,1118.5985339784604,1118.1867669033331,223.87957891046904,219.1874208947912,57.52613733161648,-80.75384551807646,163.21381962934996
3.73,0.8339519614569445,0.1223430596474445,-0.6306948898749605,-0.0332965896938659,0.0339785869978796,-0.0010801314508316,0.0058348058117112,-0.000968431718427,-0.0170727582663017,0.999836475738594,-0.0060149123606931,0.0318626647896882,9.887938106259309,0.0092634910621631,-0.0073309493250422,0.0189685523045698,-6.568957989670715,1.9256621407669432,1.1991218521891376,1102.3217164813052,1119.6368849831013,1118.7445347905448,1118.1311959770583,70.77075879738155,167.84851294078538,88.00809354306881,30.66777690378396,163.21490520394192
3.7325,0.705087388269316,0.0012296019656431,-0.5638977747036075,-0.0315421520257482,0.0348257291517062,-0.0028512908024677,0.0058064161936877,-0.000886197468394,-0.0170721837946108,0.9998366997943828,-0.0031406757705616,0.0296525616500225,9.880646268607789,0.0092584117932141,-0.007495924773442,0.0191784121494002,-6.568946848264329,1.9256462251120408,1.1991613504063603,1102.3026480354883,1120.0267268963144,1119.0385744461755,1118.340105787852,-106.9389990728746,167.2777604622787,179.8197877890327,145.34917105502555,163.21605695611711
3.735,0.5643566254681416,-0.1761743547189232,-0.4309529636342306,-0.0303593762666424,0.0352883886498136,-0.0052240567630555,0.0057725578383472,-0.0007997551687987,-0.0170628581662252,0.9998371039084692,-9.432059005898968e-05,0.0273401147197242,9.873217452649657,0.0092878547752231,-0.0076682570580746,0.0193810054968206,-6.568938963841376,1.9256286359583503,1.1992030994974083,1101.7870214859408,1120.4732737854126,1119.64363372949,1118.8579418323332,-261.9322887306503,162.91657265527456,266.98114220410406,220.9730435123525,163.2175130232291
3.7375,0.4771520171434942,-0.3316349095452519,-0.2804997590892668,-0.0298802895492704,0.0346741018926248,-0.0070085067728579,0.0057361181825091,-0.0007210084211583,-0.0170478336555291,0.999837610305974,0.0032809521621356,0.0250113516275571,9.865663588453613,0.0093540790379306,-0.0078465970174675,0.019571949249315,-6.568931479354352,1.9256091209980777,1.1992494238663016,1100.9929865918352,1120.8413097595908,1120.3734801571964,1119.444971005414,-370.4036715731695,141.10218645231683,331.82205609907703,244.3779545435353,163.2187857363521
3.74,0.4322945692926177,-0.4674033161637051,-0.108231773358363,-0.0295502848593125,0.0332169386787673,-0.0078167242396646,0.0056979592296869,-0.000659094197214,-0.0170282266961398,0.9998381895765854,0.0070898843992033,0.0227107398835152,9.858002180010752,0.0094569734551451,-0.0080294964028996,0.0197462641769953,-6.56892216769135,1.9255871524851127,1.199301582422038,1099.9350031280749,1121.1787847176743,1121.3027440099854,1120.0798316050511,-446.62073630712297,119.96055144236637,392.16016650217097,243.1209486979748,163.22011635365538
3.7425,0.4213457211554194,-0.5691195256383613,0.0592664347362094,-0.029069456995115,0.0314708493773267,-0.0076381280354108,0.0056561538658889,-0.0006116223042802,-0.0170070044782591,0.9998388017621416,0.011216847233528,0.0204233733601424,9.85025783677765,0.009593827057032,-0.0082156306197011,0.0198992096356219,-6.568910519365879,1.925562904237576,1.1993579973341773,1098.7598829102997,1121.4411125168026,1122.3342809897072,1120.6605757489035,-475.60598395349285,70.00055404792114,415.85851060664,199.5781177740852,163.22149130219515
3.745,0.4401990230614685,-0.6158983777735032,0.1926006153012061,-0.0281342420939001,0.0295611641063475,-0.0065080292416811,0.0056112932287358,-0.0005776373566538,-0.0169890510977633,0.999839361198858,0.0155835311479381,0.018184126016644,9.84246124936908,0.0097600996794792,-0.0084038415360907,0.0200268213813555,-6.568896244928921,1.92553705413533,1.1994172243511168,1097.5569732083075,1121.5287874879139,1123.3820365630183,1121.0777221939215,-513.0221364210338,-24.532588540069423,436.06450240059553,130.21093318843947,163.22291403375397
3.7475,0.4775566684335081,-0.6004486931613611,0.2875391161841742,-0.0263045083524344,0.0271137349987386,-0.0046777362968084,0.0055646163157008,-0.0005603152038601,-0.0169840782136936,0.9998396974403976,0.0202055081441393,0.016042073768441,9.834648532834912,0.0099499455588842,-0.0085933393848198,0.0201263140645007,-6.568877689009422,1.92551101974638,1.1994768607533413,1096.1947722281943,1121.3184495741023,1124.51460350171,1121.311630414846,-474.3975521213189,-142.49702202746752,377.628876568141,39.645826524748315,163.22466766738947
3.75,0.5090696296921992,-0.52955794379711,0.3061629688013479,-0.0242861963737238,0.0250354208721711,-0.0032113550088336,0.0055165563147352,-0.0005597440928383,-0.0169996211642378,0.9998396852398636,0.0250523311987585,0.0140292603243337,9.826860886829484,0.0101563090352313,-0.0087839365728517,0.0201963798982133,-6.568853039462894,1.925485837001036,1.1995341146764351,1095.184985447701,1120.8163023777763,1125.2701809458592,1121.2759513265453,-367.8447225334445,-273.8447772849726,251.8090664995324,-53.39965578550732,163.2261600517911
3.7525,0.5376478746482855,-0.4112090232514603,0.268728004968074,-0.0221687985569974,0.0233275295867456,-0.00226871867987,0.0054739769218682,-0.0005668938596922,-0.0170325799381434,0.9998393417843604,0.0299275209635521,0.0123000728117452,9.819143666547616,0.0103712155549198,-0.0089758037725343,0.0202372853388763,-6.568823246995085,1.9254617301060848,1.1995887748958871,1094.3555486155271,1119.9492256876774,1125.7736488342075,1121.0446321359184,-313.3919022672284,-455.05028543712854,161.63917120061683,-129.9034184508428,163.2276742231713
3.755,0.5827959486593005,-0.2428333080608738,0.1773776095913495,-0.019997351613526,0.0222601365489762,-0.0018914198809803,0.0054405438625058,-0.0005744420628639,-0.0170767482536081,0.9998387545337004,0.0346850468108807,0.0109459335880305,9.811544632221455,0.0105870850990176,-0.0091694871973809,0.0202501261821647,-6.56878966919545,1.9254384238219648,1.1996416088443822,1093.6180259363648,1118.5410509505907,1126.0783768018623,1120.626434234291,-221.10480046383927,-558.3984080698506,66.32571610279689,-165.2305952602435,163.22950264113695
3.7575,0.6494424725845912,-0.1062517804305408,0.0761245014918581,-0.0188429741025973,0.0223187021400956,-0.0020499501953675,0.0054182556975203,-0.0005763596699419,-0.0171247580536465,0.9998380448000004,0.0392194769730942,0.0100255338751606,9.804112312286941,0.010797355275816,-0.0093655864458992,0.020236507007401,-6.5687535673994635,1.9254153620585013,1.1996934823998755,1093.250024613208,1117.157233647328,1126.1052774147215,1120.2184791596171,-91.52520751853736,-564.0290742658709,-28.424232499126347,-167.08065019728346,163.231024842083
3.76,0.771541532192432,-0.0008691733786363,-0.0409658806715635,-0.0183307936163693,0.0231877613967448,-0.0022538019877587,0.0054032386855397,-0.0005682654221791,-0.017166899573921,0.9998374091138512,0.0434720523782893,0.0094823734781661,9.79689473617184,0.0109968841021171,-0.0095647926330559,0.0201982096384005,-6.568716214364484,1.9253914828720815,1.1997443113438475,1093.160399898772,1115.7209055792612,1125.9362556393667,1119.7910309833046,9.062474704524186,-554.7838470609921,-95.48778724670431,-172.0647767484061,163.23253256058547
3.7625,0.9498446910454342,0.0671295318032938,-0.1682140236346146,-0.0176931147187277,0.0243553628381846,-0.0021236402858169,0.0053922372486818,-0.0005539702714325,-0.0171947571517445,0.9998370157928872,0.0475537786774652,0.0092746092743482,9.789936840256846,0.0111824863918532,-0.0097675068468843,0.0201370057805932,-6.568679276794179,1.92536581546311,1.1997946577678096,1093.2953369867307,1114.383314412023,1125.6278384784882,1119.358155275875,99.07159350414288,-478.688111463781,-156.54012077084522,-174.4074390930601,163.23401961648676
3.765,1.1889310380993128,0.0917558130907117,-0.3030510318178872,-0.0162486023140673,0.0252331047845693,-0.0018327137411138,0.0053827889242669,-0.0005438012930693,-0.0172113428287512,0.9998368215645624,0.051709036044222,0.0093790489849379,9.783279468555769,0.0113530883252293,-0.0099737068609069,0.0200545704853001,-6.568641986010129,1.9253383609238208,1.1998437123924428,1093.6557578662928,1113.3274650219423,1125.1535550355125,1118.918993787839,189.68210149464943,-367.5187292965426,-254.0305212519852,-194.97892700724563,163.2354727320832
3.7675,1.512759925226,0.0901540497456111,-0.4549943962600342,-0.0135576875449284,0.0255090916744473,-0.0021059002765258,0.0053773876469414,-0.0005331658650964,-0.0172239647954602,0.9998366801697012,0.0558904438432804,0.0098640926119515,9.77696177629923,0.0115086917097263,-0.0101831131396909,0.0199529293733078,-6.568604420066709,1.9253099334213883,1.199891535630797,1094.243747494204,1112.5457207655404,1124.3576858722283,1118.383260640839,221.1120343262384,-193.43578269190812,-337.7469667904351,-198.40725330387127,163.23716740625002
3.77,1.7742488200614288,0.081523943046249,-0.5489042547162278,-0.0102451505361304,0.025218443725368,-0.00328720747951,0.005381765534946,-0.0005140639131662,-0.0172366514547663,0.9998364869877618,0.0599809257516796,0.0108579886843017,9.771019326214818,0.011650663312782,-0.0103955489886985,0.0198340522961345,-6.568567399399416,1.9252815290930547,1.1999389914615128,1094.761318037924,1112.360286108483,1123.4648202015603,1117.92695752132,186.11009542719728,21.96771143112575,-412.8594145708664,-186.77611257481144,163.23853289263172
3.7725,1.967655007336986,0.0833522723218452,-0.573947350675523,-0.0048755725245228,0.0246933652508177,-0.0056721191056818,0.0053981166947795,-0.000485797829173,-0.0172503740845787,0.9998362069000648,0.0640014112932908,0.0124190844356714,9.76548214561294,0.0117820748283621,-0.0106112009252359,0.0196993902864179,-6.568531780588077,1.9252540591466991,1.1999865827816856,1095.17429797134,1112.655559322696,1122.293388799374,1117.4493800779649,130.344523916122,221.1229298257924,-581.7402832435744,-219.3540772140342,163.23984442854413
3.775,2.0559311447886914,0.1056632160276106,-0.4948874166697777,0.0037031820083965,0.0240985070418515,-0.0093363698159986,0.0054292075130685,-0.0004514135045623,-0.0172647198699943,0.9998358270676572,0.068036087999853,0.0146143480797763,9.76037453201086,0.0119073723704308,-0.0108302713485018,0.0195500659559465,-6.568498400943008,1.9252282955514184,1.200035613543522,1095.4130406575043,1113.465900757612,1120.5561187853425,1116.8301871352498,32.38973931124816,347.7606282514972,-686.9537762407309,-237.05403101280857,163.24135154255526
3.7775,1.9851028433063287,0.1366316102118761,-0.3364493470401111,0.0110846282397478,0.0240097159958766,-0.0119259142015113,0.0054772548278652,-0.0004148207853903,-0.017282759356723,0.9998352801476884,0.0721735969944055,0.0174963072924093,9.75571520953346,0.0120320345445089,-0.011052636228256,0.0193870870055103,-6.568467194228521,1.9252044295602415,1.2000865196413129,1095.336246667896,1114.3943624639535,1118.8586199181705,1116.2641099229008,-89.0766781728811,385.6675267046024,-715.9925753588112,-235.83367209537985,163.24254985762676
3.78,1.7762655188353813,0.1660165673621664,-0.1081401103367394,0.0170385370790363,0.0245922810524998,-0.0131753648381402,0.0055384211185731,-0.000378722277115,-0.0173041784113554,0.9998345924720105,0.0764658502648407,0.0209925833837502,9.751517826703031,0.0121619621198963,-0.011277880077118,0.0192115521777287,-6.568437490877232,1.9251817474451225,1.2001381460531952,1094.96765726664,1115.394238391135,1116.9761559085482,1115.6510187747729,-212.07812869195936,410.7127926666358,-843.78974423538,-274.13894493477494,163.24368662005804
3.7825,1.4221459087453399,0.1810853092946353,0.1918696124361699,0.0218765791332335,0.0257553321819428,-0.0130979722810937,0.0056019040752103,-0.0003443607489847,-0.0173255536765026,0.9998338818863612,0.0809220567549951,0.0248868836346073,9.747791059335702,0.0123031359212134,-0.011505017547525,0.019024858957174,-6.568408365410237,1.925158777595956,1.2001886717961636,1094.2758560244363,1116.4479264272868,1114.6396711969933,1114.8934151982269,-272.4646389931935,334.23207131641703,-844.826518928148,-275.4798100462325,163.24497747758204
3.785,1.0935562107187826,0.1688958655480959,0.4181599766874042,0.0240468160321078,0.0267795980403994,-0.0116041570966588,0.0056632589875766,-0.0003090000162007,-0.017346028381358,0.999833186067776,0.0854547457399397,0.0290777557620552,9.744538136646737,0.0124614195888282,-0.0117316946232387,0.0188291085331686,-6.5683796791508655,1.925134303499618,1.2002370978649932,1093.605334071674,1117.0653987477172,1112.7520233139076,1114.2736197245415,-255.8032583104305,172.94948526232844,-711.0922160719534,-240.89360394332803,163.24599046513256
3.7875,0.7873905254440605,0.1313762063057388,0.5721399538079205,0.0248499835128487,0.0276894934528064,-0.0088048237176487,0.0057209887765094,-0.0002673952080853,-0.0173603856776038,0.9998326037971078,0.0899097402801494,0.0335097564555906,9.74175669221927,0.0126423078237312,-0.0119545496104036,0.0186268631136205,-6.568352371295614,1.925107133076709,1.2002839409365171,1092.996839732884,1117.3126738535984,1111.0842101166336,1113.6889471785103,-211.3854568345732,34.87247274238218,-608.9624880189278,-227.74315059723932,163.24693615727503
3.79,0.528633238917244,0.0804663674598781,0.644998571084696,0.0249800453064574,0.0282958367305916,-0.005686764598125,0.0057720465778856,-0.0002150527542397,-0.0173624730841628,0.9998322618907456,0.0941324665339229,0.0380866826342908,9.73943848721734,0.0128509259076743,-0.0121695435957465,0.0184207775671177,-6.5683270469399675,1.9250766234858725,1.2003297294331687,1092.548406787501,1117.239761111429,1109.7072108738128,1113.1349039715556,-122.63798157478313,-94.84673076326746,-461.45112964914983,-216.46159793281643,163.24782427086868
3.7925,0.3400848554746094,0.0293876679364885,0.6190146782015498,0.0247291986258296,0.028318480454495,-0.0031064053719299,0.0058142216562631,-0.0001484125804768,-0.0173478244240416,0.9998322552818422,0.0979726058840539,0.0427184518948784,9.737569353606906,0.013091783120044,-0.0123721874790057,0.018213526711715,-6.568304396228606,1.9250427246063937,1.2003745603869156,1092.3836498250103,1116.838440199782,1108.7769544683879,1112.6066391888462,3.319802994065028,-222.75684623137315,-295.03939126280505,-228.6867588442468,163.2486406336757
3.795,0.185533925495793,-0.0097188586926164,0.4981715619400031,0.0245951081622073,0.0276588998962075,-0.0010851479288459,0.0058442281423701,-7.153907078906085e-05,-0.0173211029984304,0.9998325221677856,0.1014175000186878,0.0472884429847713,9.736128041736043,0.0133687991671995,-0.0125578472354786,0.0180074922968511,-6.568283338955319,1.925006224534,1.2004173547887107,1092.5650058024717,1116.1259768802722,1108.2320139174988,1111.9914701773343,128.07261077973908,-271.65432032157366,-108.38350739827779,-221.22028547701592,163.24953409839515
3.7975,0.0955608813806477,-0.0122540047660698,0.3505884717891141,0.0248389621918223,0.0267314319326299,-0.0002748966345956,0.0058643293183988,9.078011674716788e-06,-0.0172900405815685,0.9998329150289472,0.1044917670542014,0.051780390652021,9.735087181475826,0.0136845820030871,-0.0127220404593573,0.0178049021380075,-6.568262041165624,1.9249679596141085,1.2004577900232472,1093.0240128789087,1115.4801685981743,1108.2350369313965,1111.5005377614611,237.09676615151912,-235.53858894491216,77.64948506641689,-186.33280892312192,163.25020434505493
3.8,0.0140706596780924,0.0178574588720749,0.1883671332917317,0.0253202844113038,0.0259406418908405,-0.0001705210217451,0.0058761322546661,9.018519673247077e-05,-0.0172573367116658,0.9998333803509564,0.1071532898286231,0.056155029209373,9.734416342791578,0.0140398109559853,-0.0128611615220569,0.01760760132716,-6.56823997798565,1.924928490081868,1.200497545829805,1093.750489633229,1114.9482839355476,1108.620261342831,1111.0598061327187,362.4719625108565,-178.61423885745967,222.761318795468,-173.494617745234,163.25079455298513
3.8025,-0.1079904637712751,0.075677074557377,0.0083507970547762,0.0259980386659409,0.0258594060100862,-0.0005553982260651,0.0058773927878266,0.0001682030723576,-0.0172236952236375,0.999833926885342,0.1093680427102833,0.0602918417622818,9.734082765975325,0.0144333916582504,-0.0129726925996737,0.01741672366143,-6.568216069865583,1.9248880021670307,1.2005368240464147,1094.836372691463,1114.587097403887,1109.348843525374,1110.6330646727347,418.33196354542434,-76.81382464698052,281.69129562871296,-134.45408087063984,163.2514075194466
3.805,-0.2474725722747271,0.1233730834746721,-0.1140606421488448,0.0264532812246488,0.0265950262805004,-0.0010506899824332,0.0058627134245524,0.0002351819895405,-0.0171878261210662,0.9998346208228204,0.1111930484699479,0.0640064634923827,9.734051479645732,0.0148626590134326,-0.013055302364064,0.0172325543674637,-6.568189976677832,1.924846162038316,1.2005759057556176,1095.8421494509564,1114.5642148123127,1110.0287178209746,1110.3875357283655,406.14577848237747,43.19266239676928,253.62942430820647,-74.38268365927048,163.25183744710012
3.8075,-0.4341255168142568,0.151207732051442,-0.1972994360230103,0.026463109243213,0.0276779638923525,-0.0014710389910176,0.0058311256458219,0.0002812390254711,-0.0171534765454562,0.9998354123038248,0.112730349613273,0.0672022818168481,9.734285996655155,0.0153236354053679,-0.013108507572625,0.0170548011405773,-6.568160453641078,1.9248031691722127,1.2006146068257508,1096.8671015838752,1114.8030607158707,1110.6169906469147,1110.2611512544383,438.95118414230666,140.14096213691417,209.2345681355754,-34.976512812046,163.25218229736345
3.81,-0.7039340148892849,0.1523215073346064,-0.2441409851894849,0.0256031871079489,0.0288100353066541,-0.0020745724828878,0.0057896903195094,0.0003138954566411,-0.0171237315278878,0.9998361968689836,0.113753533215499,0.0699355834608557,9.734754276341334,0.0158105024596849,-0.0131328591242217,0.0168833020267387,-6.568127253341363,1.92475975078806,1.2006522893449119,1098.036905371668,1115.2649196229972,1111.0748906616525,1110.2126531643053,407.91693142715263,171.48354098626808,115.5710918741558,-9.963950640758624,163.25249724601147
3.8125,-0.9502101956156158,0.1289000643184674,-0.2332774507204755,0.024004692802388,0.0294291227362846,-0.0029090713860139,0.0057500256323692,0.0003426479833176,-0.01709799151752,0.9998369052582946,0.1140128785477997,0.0723553222080209,9.735425935777775,0.0163164066514321,-0.013130239277798,0.0167175116585507,-6.5680918841675275,1.924716977551794,1.2006909388215272,1098.906686241011,1115.660478420802,1111.1948461062857,1110.2113315012348,311.1997950894486,125.73071323104428,-6.5422106111783735,-5.068837704539073,163.2526774598996
3.815,-1.1905609781661608,0.0904341006861829,-0.1657026509638685,0.021581683340111,0.0296665235511596,-0.0041207110169464,0.005718596056335,0.0003710051003703,-0.0170763964259289,0.9998374891255312,0.1133961669114806,0.074520938377404,9.736272379667843,0.0168341037331435,-0.0131040110974672,0.0165560636705808,-6.568054654557624,1.9246758049900607,1.2007311125658575,1099.592904347115,1115.8935731891524,1111.0421796085964,1110.1873089757823,230.23830052948637,43.82191495206009,-96.62706805607037,-20.618851495055864,163.25277310685695
3.8175,-1.4016663224457904,0.048997324623607,-0.0533082865054962,0.0184994360800629,0.0296224336005711,-0.0053754621610706,0.0057000210966202,0.0003995360402638,-0.0170608907668023,0.9998378839384724,0.1118701752207443,0.0764686765375254,9.737267663429046,0.0173560188770265,-0.0130586717140708,0.0163971535193546,-6.568014500585143,1.9246375113803305,1.2007721141226075,1100.0578777436583,1115.8795879955624,1110.7117107660051,1110.1082372437595,113.92229529241516,-83.79877844153614,-152.43019666553545,-47.25428034289188,163.2527996857774
3.82,-1.5471065374236435,0.0136726896249912,0.0976195253303517,0.0145042795033773,0.0293279495101871,-0.0060021011260818,0.0056954901743197,0.000432983034388,-0.0170552705618936,0.999838013433394,0.109343927447188,0.0781804663525136,9.738391012389844,0.0178741829195808,-0.0129995452408551,0.0162389685880489,-6.567970929239462,1.9246025471942,1.2008140465522035,1100.1625158235772,1115.4745792969447,1110.2800286252689,1109.951037574068,-57.624955157821866,-279.5310930279168,-173.81466933483088,-80.23972575560404,163.25274482145608
3.8225,-1.6117068965336423,-0.0150270457114079,0.2873779461679267,0.0088030872688696,0.0288687101797282,-0.0054869525292257,0.005707213626067,0.0004758135488118,-0.0170626392583804,0.9998378101980938,0.1057543885392459,0.079672780515453,9.739624505067438,0.0183805722604238,-0.0129322513412959,0.0160798810959616,-6.56792396953202,1.924570788521922,1.2008576198433307,1099.7697529678692,1114.4819325304227,1109.8426374193311,1109.7070386149815,-236.4485221426144,-446.12285309609473,-115.11759221380333,-87.48084338899574,163.25258792564463
3.825,-1.559247492294153,-0.0279822723375905,0.4214850657177325,0.0038798079886728,0.028608281988774,-0.0040710282188866,0.0057341179250729,0.0005298901298783,-0.0170818478471085,0.9998373005272538,0.1011131349943808,0.0809134205778181,9.740952676445012,0.0188674000609715,-0.0128624965914055,0.0159185054870672,-6.56787356022011,1.9245411255682647,1.200903056314548,1098.980273212864,1113.2439650314643,1109.7044406641999,1109.5136333571231,-402.11400040858234,-564.6685631605699,25.339165434434648,-58.541416536583135,163.2523840714019
3.8275,-1.3965979759113207,-0.0350250026385315,0.4980849390440132,-0.0005085409121925,0.0286736448484019,-0.0021805164410078,0.0057670821866875,0.0005966887277693,-0.0171066613459696,0.9998366419863358,0.0954635151929418,0.0817280730413205,9.742363275589806,0.0193273456060497,-0.0127958882113087,0.0157539522308285,-6.567820090521717,1.9245117458628875,1.2009489683347137,1097.7591829658263,1111.65858971462,1109.9693332465033,1109.4143315322983,-603.3480136126983,-743.1253373587126,232.88113125800504,-4.54499426755329,163.25210825394564
3.83,-1.0952546185284135,-0.0436872559417606,0.5000845108018795,-0.0047913840699158,0.0289088240904758,0.0001706229695662,0.0057977467536682,0.000673149151283,-0.0171330434989586,0.999835953161434,0.0889557556590697,0.0819749154406099,9.743843542477462,0.0197541815869457,-0.0127372003229851,0.0155861097666336,-6.567763357130083,1.924481582359863,1.2009931551573048,1095.9635331448007,1109.5283383446708,1110.8688463204899,1109.4909083857851,-678.1549639035492,-784.8433830052438,427.81451883261974,68.19786285018526,163.2516993970561
3.8325,-0.781410488678499,-0.0531553979187039,0.4205161640005768,-0.0073444712851765,0.0290144077805476,0.0020815011320998,0.0058220623015192,0.0007535571220631,-0.0171616922483168,0.9998352485795032,0.0818059600106281,0.0816127793790871,9.745379057979823,0.0201430980024781,-0.0126901768923211,0.0154157495118192,-6.56770267045013,1.9244505516598212,1.20103347898027,1094.3684081463086,1107.7343727995935,1112.1084058406664,1109.7553208465495,-612.8380381238588,-676.0375924371746,577.4186953396688,147.7654470623779,163.25129817968096
3.835,-0.4402286146877816,-0.06312534461711,0.2621358190785659,-0.0086135210205653,0.0289051375207971,0.0037980407937966,0.0058402932016166,0.0008381812933092,-0.0171938291975487,0.9998345041982096,0.0741246058163995,0.0806958190243889,9.746954709385363,0.0204907127614487,-0.0126578153320109,0.015244506472985,-6.567638832717106,1.924418791006245,1.201068300083707,1092.8993429541815,1106.148150382485,1113.755939797188,1110.2297356210972,-571.5757270396929,-601.4993106886451,771.0888056875939,247.2516162005429,163.25084001103954
3.8375,-0.0440878102806696,-0.0708984320105699,0.0054387090628083,-0.0084614331690239,0.028562329009547,0.0051235072428923,0.005859019132696,0.0009255234141584,-0.0172281451089599,0.9998337036509628,0.0660631363134689,0.0794127804393747,9.748551566989626,0.0207955991262604,-0.0126425627176634,0.0150740221310312,-6.567574503896823,1.9243867415295488,1.2010992244861907,1091.5105295111102,1104.7268762461504,1115.9638498691043,1110.991578927552,-424.5724957219954,-414.5165364694182,801.5573260705594,298.5728499556508,163.25023184673788
3.84,0.248379777300948,-0.0710720142620154,-0.2342037334358473,-0.0074561680677849,0.0282519922811514,0.005013227014299,0.0058820666544865,0.0010096898876941,-0.0172650806012034,0.9998328215276436,0.057863724825221,0.077910201693302,9.750147735681638,0.0210586056532341,-0.0126465082347644,0.0149049958920632,-6.5675121271022805,1.9243548952821687,1.2011296434490637,1090.7764804755716,1104.075567700138,1117.7637264275409,1111.7225998708755,-195.65422452113623,-133.7410055288183,652.9553379136373,292.3332928860221,163.2496819505103
3.8425,0.4826941888617639,-0.0635874512803771,-0.4573450677742387,-0.0062401244854819,0.0280859501095821,0.0035638320062946,0.0059107059653555,0.0010850331809575,-0.0173059161723461,0.9998318362921604,0.0497647571030754,0.0762921564351172,9.751718932495114,0.0212824715757835,-0.0126714235896168,0.0147371293793246,-6.567453228492509,1.9243238792092103,1.2011630495383268,1090.5322583885045,1104.0581712185065,1119.2286265586727,1112.4532453919824,-20.75238597358153,98.28694622728352,492.4945978188711,275.2925542524095,163.2490934303463
3.845,0.6617712471492572,-0.0499164532037255,-0.6369754624203761,-0.0048115275727008,0.0279231271564024,0.0014567580815951,0.0059422796005474,0.0011467726427023,-0.0173510864652566,0.9998307669649344,0.0419855330039684,0.0745904994548098,9.753238327689264,0.0214712652651803,-0.0127188049434708,0.0145693607764796,-6.567398129282427,1.924293632910005,1.2012010664552384,1090.6727185457037,1104.5670024312744,1120.2261994166352,1113.0990626421376,133.0962663051224,318.53005341136617,256.4597241423653,218.16926722854544,163.24847695603225
3.8475,0.7688423817273996,-0.0293404265894148,-0.7387423914546056,-0.0030480122035948,0.0276177264134204,-0.0011021999303971,0.0059740024653651,0.0011866751472873,-0.0174006721214262,0.9998296473091424,0.0348059096143154,0.0728379428540574,9.754674641558541,0.0216298893444569,-0.012789619794076,0.0144003978969658,-6.567345975856228,1.9242642354055028,1.2012438561482928,1091.19773972003,1105.6508214855633,1120.5109251793845,1113.544091728125,292.02089679420794,584.0459861723627,-53.29598697162624,129.50500166762416,163.24783111408743
3.85,0.8080447498248898,6.47479902267786e-05,-0.7550303476655214,-0.0008582042738907,0.0272171895190439,-0.0044426345579175,0.0060020022374939,0.0011999191726395,-0.0174525705236763,0.9998285514625802,0.0284302079734518,0.0710440912562882,9.755992672776625,0.0217632586614856,-0.0128842828109501,0.0142297263257011,-6.567294577020214,1.9242353032960875,1.2012887446268607,1092.1328230296747,1107.487232362136,1119.9597194817773,1113.7465876504757,371.3624013656124,738.5619915894652,-344.34041408226955,10.585933192533272,163.2470270152805
3.8525,0.7615551505827596,0.0224640740688021,-0.6822091381668328,0.0009559365139659,0.0271259565630865,-0.0071178941878605,0.0060278954856135,0.0011985925761804,-0.0175066265419577,0.9998274536835816,0.022719274739958,0.0693170070373612,9.75715258809424,0.0218756782558892,-0.0130021665291625,0.0140589281725347,-6.567242762295803,1.9242068595882809,1.2013323820641724,1093.054551726858,1109.3436314435105,1118.7892231089731,1113.5970213940875,371.7094462816555,775.5672858616146,-593.3043419991135,-128.0047238617071,163.24633570606613
3.855,0.6259552208847872,0.0319813879120841,-0.5379004522840783,0.0028047120468458,0.0274437382842868,-0.0088814628890901,0.0060553601139363,0.001192986420042,-0.017561990169663,0.9998263290366192,0.0175552995539042,0.0677995100679623,9.75810740526226,0.0219712105021685,-0.0131416972067522,0.0138909439520174,-6.567190674978005,1.9241789306936967,1.2013731610456255,1093.9913702610827,1111.365068791444,1116.9931977717815,1113.1065640311672,386.96463693618995,878.9904580909212,-897.3935533241465,-287.2029878782148,163.24562532801247
3.8575,0.3535411536759409,0.0175726146052182,-0.3161943643619797,0.0049580215038508,0.0281166232214445,-0.0094327003087036,0.0060822333094228,0.0011906396672467,-0.0176132753635454,0.9998252731814112,0.0128626111766815,0.0665123091696839,9.758804330217128,0.0220535853910127,-0.0133006300886295,0.0137295862229665,-6.567138742024569,1.9241508591250025,1.2014099428427623,1094.989374911539,1113.738583733965,1114.3022553423525,1112.1610064546967,327.07136765134936,821.0359192819571,-1044.293132852658,-394.05195879158714,163.24475350185543
3.86,0.0359038873135552,-0.0186230622952719,-0.1139265898336854,0.0064385084028922,0.0285993808924006,-0.0090112791115949,0.0061039836529525,0.0011940703389097,-0.0176553773618284,0.999824400741534,0.0086502606705855,0.0654207921616204,9.759184544852808,0.0221263534052388,-0.0134756713246568,0.0135790601338115,-6.567086812498527,1.9241215150399185,1.2014418214529343,1095.6267270993396,1115.4702483878539,1111.7717321075183,1111.1363042372093,199.51823232444,590.7820689903075,-1030.3738912975618,-436.7709130398612,163.24401240934003
3.8625,-0.3616133620807336,-0.0748784211764096,0.0920293831276252,0.0071994688235098,0.0287377015615262,-0.0086338695764384,0.0061130249650349,0.0012009137910505,-0.0176895671037466,0.9998237404440438,0.0050094746112687,0.0644201234620457,9.759184667634525,0.0221930251939364,-0.0136622806027938,0.0134433102101916,-6.567033464700022,1.9240900192904384,1.2014678162632173,1095.9869660731613,1116.6924940789168,1109.1503858858644,1109.9771518894972,86.84085762942556,368.34484537264206,-1121.838717919051,-508.84700052325775,163.2432578277297
3.865,-0.8919920637342981,-0.1520166757388271,0.3404938757519766,0.006258190764054,0.0284480308707379,-0.0087354772419021,0.0061048293930056,0.0012052644523772,-0.0177146666961676,0.9998233531699622,0.0020862709098743,0.0634516825853209,9.758737883108349,0.0222568963132403,-0.0138550960444231,0.013325488476303,-6.566977691049934,1.924055572505408,1.20148876237686,1096.0609313874868,1117.3119726147172,1106.1625385179227,1108.5920692345928,-31.03381803416662,62.738198195439935,-1029.8317027686828,-483.2767590272045,163.24233838877757
3.8675,-1.3366557836040667,-0.2124503919459763,0.5448686578863517,0.0033229403593344,0.0279310979105146,-0.0087709100901588,0.0060835494426579,0.0012018437244542,-0.0177248080253619,0.9998233279305409,-1.099233731989557e-06,0.0626104699702107,9.757775970658152,0.0223211144105766,-0.0140482173236106,0.0132275705605021,-6.56692119429845,1.9240175904835084,1.2015083036981542,1095.8317969829905,1117.006185069894,1104.001227372021,1107.5607680943613,-141.65970432268597,-293.0159021079879,-753.3085558082053,-364.80867681076097,163.24156162176143
3.87,-1.7311580940696152,-0.2552827131785729,0.727874436289842,-0.0014438490478265,0.027254483434236,-0.0078541053014463,0.0060564253101177,0.0011994937001403,-0.0177141159457712,0.9998237112652076,-0.0014227997755383,0.0620316277639348,9.756234108398695,0.0223886488429224,-0.0142355794270392,0.0131503668019484,-6.566866804550392,1.9239759338269224,1.2015281736621255,1095.3526328658731,1115.8468931041773,1102.395995738882,1106.768025850539,-219.74164354988275,-582.2422278552164,-525.9488935844387,-268.9919846704527,163.2407749553767
3.8725,-2.052722012871949,-0.2745866287764409,0.8683761977238159,-0.0070738071270932,0.0263312015996511,-0.005832886525567,0.0060243283687581,0.0012087146249621,-0.0176786349660271,0.9998245517731992,-0.002389646376689,0.0617110203558081,9.754055081782353,0.0224625744768894,-0.0144115968043032,0.0130926256455358,-6.566816259013248,1.9239306489163,1.2015490413002627,1094.733088765241,1114.094973930618,1101.371482904099,1106.215808171009,-261.11437084283,-792.9631380789658,-257.06050663785027,-164.69623740640952,163.23998074475392
3.875,-2.2649754895602707,-0.2579389186319215,0.9241293270771604,-0.0128761825864459,0.0250813163879079,-0.002306436774607,0.0059832730930619,0.0012316986765597,-0.017623342289348,0.9998257766491636,-0.0029579497170289,0.0615402616346968,9.751192243993199,0.0225461212582209,-0.0145713001162498,0.0130507375794984,-6.56676821968796,1.923882469335708,1.201570623085192,1094.0470610116593,1111.8820774137823,1101.1106932056928,1105.944544663507,-289.85207384412826,-999.828768127712,53.348780523766656,-71.10555875770085,163.23917808191862
3.8775,-2.382304471086292,-0.1958098644439239,0.8660271293930423,-0.0193887072200205,0.0236671956870233,0.0027749795248743,0.0059326675419486,0.0012640449483868,-0.0175581377445172,0.9998272138342164,-0.0030641092785551,0.0614689695335077,9.747611908578758,0.0226420602145865,-0.0147107338514802,0.013019210040612,-6.566720537584905,1.9238327344913884,1.2015934813666465,1093.2838283960205,1109.0958300899795,1101.6382268067175,1105.8602803772203,-252.72040520304105,-984.718840732624,309.8714170374544,-10.028558027170432,163.23820575739643
3.88,-2.360875252662406,-0.1173053073578409,0.7182918514853232,-0.0247147781660064,0.0229939988599502,0.0062981463753055,0.0058741830835986,0.0013013712333234,-0.0174931024900902,0.9998286776672636,-0.0026512736035011,0.0614828028988138,9.74329696368072,0.0227521429012494,-0.0148274835351361,0.0129911348686835,-6.566672446582821,1.9237826274855812,1.2016195006176542,1092.783458985644,1106.9584832101195,1102.66005029088,1105.8944018733712,-158.78104931169966,-758.026905495211,485.8012922402976,9.909124214754467,163.2373882879149
3.8825,-2.2060447144449165,-0.0287986819624017,0.5043146834991202,-0.0306552083588965,0.0229929946715261,0.0079841858441745,0.0058115928981374,0.0013397752367486,-0.0174372155830753,0.9998299921242456,-0.0016763976500745,0.0616030824151345,9.73824930363369,0.0228770064155831,-0.0149208293936456,0.0129585636371217,-6.566622690928968,1.923733399548836,1.2016490360049414,1092.489923149462,1105.3056955625032,1104.0672332679192,1105.9098259982943,-77.77943360278572,-570.4691767981856,648.8059086269021,-21.731723806531942,163.2365639872532
3.885,-1.8569481431471608,0.0670606012153638,0.2330249016089744,-0.0386575828874292,0.0234939848085993,0.0078236677363951,0.0057504795357469,0.0013748435815425,-0.0173976166656109,0.9998310054238344,-8.907991026711749e-05,0.061884409932177,9.732491353524892,0.0230162821612017,-0.0149916914818931,0.0129129621440475,-6.566570821702395,1.9236861417141928,1.201682172141462,1092.39456181763,1104.1061373261284,1105.9040798340147,1105.7857432543385,2.8943113938567584,-294.5120975294293,657.5947267514633,-79.19293629129412,163.2355679953474
3.8875,-1.4396064395575017,0.1261209864255634,0.0346373367310346,-0.0452993761784279,0.0241454466589635,0.006552370674747,0.0056929857076003,0.0014044065848058,-0.0173769801470929,0.999831661148344,0.0021182075689475,0.0623142192952028,9.726067618170381,0.0231686579453149,-0.0150426270187565,0.0128457313966687,-6.566517172477344,1.923641140354298,1.201718719127581,1092.5043947064312,1103.833135074856,1107.3552069016766,1105.5138613168378,70.65547956608648,37.83709746021567,528.1635533167558,-144.1980204170735,163.2347333100203
3.89,-0.9396927253071318,0.155726696686473,-0.1096865702914334,-0.0497189120261522,0.024885771399321,0.0054144057810272,0.0056423903609235,0.0014273408668045,-0.0173759428824318,0.9998319322535004,0.0049330009921583,0.0629050267977371,9.719043451267737,0.0233322069169375,-0.0150772429133595,0.0127488563215801,-6.566461649980316,1.9235986675272216,1.2017588725556247,1092.7478392154603,1104.2953228134295,1108.5448976005985,1105.0647531522532,118.87476627826145,344.22419303533206,444.89875366303784,-225.7526497694519,163.23389521581316
3.8925,-0.345056244687802,0.1568554027632464,-0.2186078255493948,-0.0503251702797118,0.0257031303085383,0.0048202480011524,0.0056023881516533,0.0014425192324173,-0.0173930910163993,0.9998318268877991,0.0083442629112218,0.0636826684871819,9.71150364280019,0.0235046335303813,-0.0150998098083759,0.0126153978858977,-6.566403810617165,1.9235592197971447,1.201801766343189,1093.0987685378225,1105.5542560400327,1109.5797006699916,1104.3850980679906,124.12531698910507,544.0463750661027,315.9149054256044,-256.7168532053129,163.2328875992033
3.895,0.0686488601587946,0.1338326180713453,-0.262311744816037,-0.0477897602359421,0.0262308883633945,0.0045386981051351,0.0055741106664155,0.0014496152596607,-0.0174231515100051,0.9998314341278516,0.012328085001622,0.0646292960362782,9.703550575001698,0.023683444651931,-0.0151149701561584,0.0124399371307918,-6.566343678107326,1.923522872207828,1.2018452017490426,1093.368465800406,1107.01555468876,1110.1244721277264,1103.7811688862266,88.29896421757627,616.7698935884478,165.2825941755999,-226.47260914287045,163.23204804840532
3.8975,0.338315739632545,0.0955675939265977,-0.263004101786433,-0.0444095370622908,0.0265733755075011,0.0041482146024051,0.0055548187326179,0.0014484871004463,-0.017463233886531,0.9998308232288634,0.0168594815821105,0.06565973051581,9.695301282496825,0.0238664244822377,-0.0151269924296826,0.0122188007683842,-6.566281376170075,1.923488915910932,1.2018875890182303,1093.5402633589104,1108.6381055079748,1110.4061136408695,1103.2527350222763,44.37515079735116,631.1129393052531,80.41017235978131,-182.3112007164166,163.23121094029068
3.9,0.4804333379607462,0.053496885637769,-0.2290130682860551,-0.0413032288637504,0.0266914765443144,0.0035559526385546,0.0055397979858187,0.001439613465925,-0.0175072170793546,0.9998301299526138,0.0219028135470823,0.0666578389066867,9.686883549736743,0.0240517160493841,-0.0151395608073901,0.0119501853885604,-6.56621711014092,1.9234556530801288,1.201928021915015,1093.5903415543928,1110.171119385286,1110.5265229895251,1102.8696128826443,-14.875020413000035,537.7037580989146,17.89714982064531,-103.78877121142276,163.230377629659
3.9025,0.4967320572543885,0.0175045208977543,-0.1525833871678412,-0.0392739452827246,0.0265046207420264,0.0026387024246836,0.0055288465567961,0.0014253956102861,-0.0175511838011491,0.999829422962048,0.0273828520156343,0.0676020048880325,9.678431031373576,0.0242381986649855,-0.0151551094702912,0.0116342954876274,-6.566151047484126,1.9234219591477908,1.201966673127074,1093.4658882568451,1111.3266242984696,1110.4955993899728,1102.7337911662191,-97.15831132834208,361.14360050093927,-46.32315419471212,4.302638094122521,163.22955068976447
3.905,0.4342847898394434,-0.0084114374746886,-0.016062532036964,-0.0386340606663085,0.0260587616783604,0.001503371843963,0.0055240391805551,0.0014171162113482,-0.0175887490569895,0.9998287856523436,0.0330497796281772,0.0685177462384148,9.670080543258583,0.0244254128245605,-0.0151750661149072,0.0112734357759069,-6.56608395238492,1.9233869613154129,1.2020031624918843,1093.104549997751,1111.9768373877907,1110.2949072185515,1102.8911260731152,-165.59416447135288,85.92629034160565,-102.83490466504408,106.79379021517207,163.2285674006135
3.9075,0.3618733688947815,-0.0127518479964735,0.1234205043655937,-0.0391598521881866,0.0257082367447259,0.0009282053765723,0.0055236105204255,0.0014242614662371,-0.0176128999968132,0.9998283368560545,0.0386863632084588,0.0693621071450811,9.661968285132366,0.0246140313575137,-0.015200021404044,0.0108711235895335,-6.566016700418976,1.923350192857696,1.2020368635414018,1092.6379174344884,1111.7562557501776,1109.9814248666476,1103.2677601172948,-212.9753693746852,-257.14616661953727,-156.05833914142173,187.7630672549043,163.2277562837479
3.91,0.3077906989235427,-0.0017016821714899,0.2637746081290218,-0.0398633674660829,0.0255187194368365,0.0010655756133097,0.0055225928640515,0.0014514810052363,-0.0176165327717353,0.9998282230719928,0.0441643071750711,0.0700363314273126,9.654225649338585,0.0248059678774318,-0.0152299012874164,0.0104317040158616,-6.565950057864642,1.9233112240039227,1.2020667555409348,1092.0396731508777,1110.6911065546933,1109.5146155228447,1103.8299414093897,-276.7458858924388,-638.6495989823425,-231.83927987930056,269.21755252915887,163.2269541328236
3.9125,0.2785058854136285,0.0211840782850254,0.3925216358341533,-0.0399824655394428,0.0255329745278581,0.0022480163345894,0.0055141527540629,0.001495317002598,-0.0176014685192405,0.9998284530651528,0.0495040492015753,0.0704136961384785,9.646975083145614,0.0250046196222369,-0.0152637704125478,0.0099598594802249,-6.565883564520209,1.9232703071550807,1.202091899968285,1091.2541880050264,1108.563007755266,1108.8222284672513,1104.6138478799407,-283.2624772680962,-878.5042262977373,-262.2727987415202,291.4826782432163,163.22600165206853
3.915,0.2780586882670006,0.0410364268047445,0.4360260203581778,-0.0392324701546464,0.0258442968120919,0.0040825123463174,0.0054956752983578,0.0015487451789679,-0.017574699658358,0.9998289259070092,0.0547833300968754,0.070454311153769,9.640326795174431,0.0252145134862703,-0.0153001901536557,0.0094605464401002,-6.565817430555644,1.9232277783033165,1.2021133387604193,1090.6233607645372,1106.2985854232047,1108.203251529137,1105.2873548006055,-227.8127950154661,-931.9543560071198,-235.91488737534337,262.24223194658964,163.22521569280204
3.9175,0.2897242786283292,0.0549855945448572,0.3854924873489803,-0.0380663920184156,0.0263974794741298,0.0064991494038867,0.0054667301481175,0.0016101097629604,-0.0175395807364917,0.9998295853537068,0.0599652912089109,0.0701604436108571,9.634378580798659,0.0254407370537603,-0.0153379852095285,0.0089389284770497,-6.565752298643972,1.9231840102641076,1.2021319642070922,1090.1151240299491,1103.9032359752305,1107.6426540303746,1105.9250590396737,-170.7087526036994,-913.0704790231188,-200.84296976847756,245.74874871369116,163.22443653292868
3.92,0.3051928927434787,0.0631707487775747,0.2500774238347005,-0.0371303042575123,0.0268327154248223,0.0089271303992653,0.0054289635138026,0.0016777766931509,-0.0174967210945972,0.999830415043278,0.0650015772201836,0.0695757175409735,9.629213774818496,0.0256888840263191,-0.0153764362408736,0.0083998048532243,-6.565689559520768,1.9231394373626784,1.2021489978741549,1089.7698170015187,1101.7332330280892,1107.1990366802947,1106.516098544174,-89.0458249378772,-733.7529641025113,-139.7746419505468,225.0622140991757,163.2236619168752
3.9225,0.3229505610634711,0.068784848671301,0.0273156205953002,-0.0366275848547965,0.0269354310201774,0.010720814256769,0.0053812958470356,0.0017511929215044,-0.0174473973868733,0.9998314025109007,0.069813921762606,0.0686926673345103,9.624901466719775,0.0259647841956608,-0.015415356641337,0.0078473713733518,-6.565630710146434,1.9230943898567596,1.2021651150870305,1089.6698949052595,1100.234471154718,1106.943780820622,1107.0503701101695,17.868675025919103,-419.7528214911189,-68.91371322212298,221.19185676777633,163.22289190234912
3.925,0.3432528095477878,0.0800724455938355,-0.2913514003394805,-0.0360726891729398,0.0267062193790205,0.0113767999710842,0.0053235200042264,0.001822272701903,-0.0173992585885462,0.9998324306776754,0.0744597866175292,0.0675262898956323,9.62149370825353,0.026274238421448,-0.0154548199493375,0.0072848853457195,-6.565576003322668,1.9230500445803156,1.2021802417590592,1089.8591603766483,1099.6344689206335,1106.854468114184,1107.622057828013,118.62311004478325,16.863080354595468,-4.697775078966198,194.08504015362777,163.2219729315218
3.9275,0.3526447757256533,0.0958100609832564,-0.5469871623853347,-0.0354836214773961,0.026299128880204,0.0101204443769862,0.0052628312669594,0.0018839778105469,-0.0173607011704793,0.9998333273503927,0.0789677513387482,0.0662355406947792,9.619025849719616,0.0266219822947553,-0.0154953321598701,0.0067153617047531,-6.565524496918214,1.9230078126511656,1.2021947129738155,1090.2630104554837,1100.3187865564907,1106.920291945227,1108.0207953109375,202.5689560994167,522.2190248881018,41.335414957849,134.88463397480075,163.22121175667488
3.93,0.3415681632023107,0.1130012953164586,-0.7247641356044507,-0.0344487848484327,0.0262430097509755,0.0069674883125775,0.0052080903579383,0.0019352839872864,-0.0173316270462554,0.9998340467294652,0.0832479319911538,0.0650086617312726,9.617518853707406,0.0270106689811071,-0.0155382360698279,0.0061417559710214,-6.565474515205322,1.922967692773988,1.202209332610107,1090.8720051571452,1102.245564045074,1107.0611451889731,1108.296480997887,295.9215215065405,1077.4941093015743,65.61374805110202,84.16063896925331,163.22045665134647
3.9325,0.2897630639014199,0.1198525371666701,-0.7898401207630426,-0.0325931632336572,0.0269576074322824,0.0021573165610058,0.0051627554362913,0.0019769072088077,-0.0173125422245518,0.9998345596819038,0.0871798879203978,0.0639305156769461,9.616979888429478,0.0274407319525661,-0.0155850204517295,0.0055667064899579,-6.565424012580505,1.9229292257520505,1.2022248231574544,1091.7426180630164,1105.7062571029987,1107.2483606854823,1108.441598505784,324.7092252408107,1382.2037683063468,66.7528109634091,21.48047837836248,163.21955995201404
3.935,0.2108081799153084,0.1029393526681245,-0.704822834876991,-0.0310616658427237,0.0279014859866733,-0.0017945833807636,0.0051240067561265,0.0020061257629379,-0.0173036113383328,0.9998348848453684,0.0907167994967523,0.0629668293166889,9.6174014370417,0.0279101831647674,-0.0156370465599401,0.0049925127653489,-6.5653707640586045,1.9228918332804503,1.2022410667500227,1092.4955512833494,1109.1565828866055,1107.3949092437904,1108.403883389779,283.7017352545505,1379.4765646532887,56.098391793331125,-39.56244961027635,163.2188229474533
3.9375,0.1047907458632928,0.0576322599232939,-0.4929376498995838,-0.0300854320824056,0.0286855291994203,-0.0048539526926643,0.005082851519949,0.0020205072966061,-0.0173026828744189,0.9998351109745924,0.0938182210118738,0.0619636192873902,9.618762265476784,0.0284145788387797,-0.0156953897574368,0.004421651971035,-6.5653126745780845,1.9228545877215777,1.202256733083181,1093.161126739289,1112.603639926265,1107.5288526444492,1108.2437862577326,247.80116170000457,1380.1215202990827,58.415120857126894,-79.24968935208366,163.21810017296016
3.94,-0.0259394820949286,-0.0219622960875201,-0.1524074814227504,-0.029850427243308,0.0291103618644821,-0.0064555079643796,0.0050380226279677,0.0020253957417313,-0.0173088993971173,0.9998352440026615,0.0963053066406854,0.0609119815520057,9.621027440401038,0.0289474666286676,-0.0157603618662367,0.0038578678085761,-6.5652485788974015,1.922817246430366,1.202269686631484,1093.7345570918494,1116.0571904881008,1107.686984848076,1108.0076349430185,159.64351938241975,1076.1297475411768,59.411172527826594,-77.75353934230392,163.21725409469943
3.9425,-0.1124862044041518,-0.0973952777136373,0.1436703697269406,-0.0304707375386765,0.0289454858829296,-0.0057510116765876,0.0049906793048813,0.0020263307635932,-0.0173181832110394,0.99983533342072,0.0980120870405248,0.0598464245840337,9.62414790553156,0.0295009622005489,-0.0158317906085067,0.0033055770370279,-6.5651784272927145,1.9227795726747816,1.2022789592437315,1093.9593443362012,1117.9842886639708,1107.8259085070883,1107.855018561021,32.00572634259299,527.1247727964791,58.319226944100286,-37.04208472972573,163.21656995909373
3.945,-0.1486942597063061,-0.1658006661219846,0.383195654227494,-0.0317289302008516,0.0282681495349515,-0.0036524548869911,0.0049404464387444,0.0020277010401451,-0.0173242204469089,0.9998354801369148,0.0988153048232622,0.0587684143534343,9.628061348206128,0.0300664933407069,-0.0159089965023449,0.002769419487388,-6.565103405546343,1.9227413517766268,1.2022846994914445,1093.8945857235624,1118.6928143520831,1107.9785809827963,1107.8224245193699,-68.58873310993195,83.64424891796607,63.04774294553256,10.999921354277088,163.21591051105753
3.9475,-0.131358239223964,-0.218266132676835,0.5372718946994888,-0.0332637378081446,0.0272989445498424,-0.0010094471385683,0.004884078849431,0.0020336970721188,-0.0173208297534613,0.9998357992985007,0.0986181926361486,0.0576201600017232,9.632693508890448,0.0306354862746811,-0.0159906796158441,0.0022539375273849,-6.565024847043887,1.922702142429772,1.2022871989317234,1093.6164006706515,1118.4025099085607,1108.141147221816,1107.9100181677925,-145.14887802006652,-316.64591359436366,65.12369803404138,58.75951025714255,163.21527305750124
3.95,-0.051376236676185,-0.2458425739622411,0.5644961524505557,-0.0346094978263414,0.0263293791478584,0.0019423318378591,0.0048174931469623,0.0020473446244512,-0.0173097490222265,0.9998362748062825,0.0973688661350561,0.0563256426993326,9.637958865886768,0.0312000621856179,-0.0160744877523452,0.0017632598766605,-6.564943645664564,1.9226614778034563,1.202286438369848,1093.168841333462,1117.1095847841116,1108.3041994729667,1108.1162220706556,-203.1625096899959,-720.1090256539072,66.94996006053913,100.322276056297,163.2146631322884
3.9525,0.0921007927090041,-0.2517406942313918,0.4510212763694994,-0.0350127268421303,0.0255495032681923,0.0055099155198744,0.0047420954963894,0.0020719456687917,-0.0172955827097464,0.9998368128105632,0.0950307987984745,0.0549101861366579,9.643761755575404,0.0317531438510171,-0.0161574159593204,0.0013010985076626,-6.564860659075601,1.922619298743074,1.2022830952658397,1092.6005881222015,1114.8019647802912,1108.4758970221187,1108.411629548074,-187.0213561852819,-907.6620064936116,54.879071690630816,99.05930995342015,163.21396328680328
3.955,0.2224004224734499,-0.2383691541172331,0.2588378793929559,-0.0340905797083703,0.025145425195901,0.0080199225301025,0.0046612768718805,0.0021146328000509,-0.0172767578811413,0.9998374072260432,0.0915150699455652,0.0534292562113157,9.649999791168057,0.0322882985653189,-0.0162365939112879,0.0008706184234789,-6.5647764265298045,1.9225754097959091,1.2022782447770772,1092.2337345525357,1112.5712747516436,1108.5785948314199,1108.6115186204227,-97.5439415929052,-889.86405901389,28.74982773564686,50.37898026762485,163.2134062169999
3.9575,0.3309303124068429,-0.2101305435670836,0.0222576589054133,-0.0327349327368353,0.0246727951731533,0.0089708737081826,0.0045758829485578,0.0021769491035863,-0.0172510153732454,0.9998380876897224,0.0868616774413812,0.0518863055372375,9.65656439426274,0.0327999747403493,-0.0163091924751424,0.0004735457921123,-6.564691037974724,1.9225292594884036,1.202271915476774,1092.112868414237,1110.3526444852218,1108.6196461607967,1108.663524449412,21.07813659763496,-924.1950488960096,3.1587675066931062,-28.37582846568754,163.21287467771845
3.96,0.4107084665038689,-0.1613252074136069,-0.223428045397945,-0.0312437767044054,0.0240253933484024,0.0075025070296428,0.0044833699737643,0.0022535973069151,-0.0172174443337142,0.9998388918893446,0.0812621219153734,0.0502181375277686,9.66334324779533,0.033283544089198,-0.0163725603701215,0.000109944252322,-6.564604263273799,1.9224802023505103,1.2022638983027012,1092.3391252355239,1107.9502995071637,1108.5943886689531,1108.4696394780942,145.50638007181388,-822.0988140762249,-17.210214482566155,-120.06656143585388,163.21226344477728
3.9625,0.4238493851268785,-0.1101610505687684,-0.333542033416628,-0.0299442819806176,0.0237265555114264,0.0045821034780456,0.0043841707488557,0.0023370259919118,-0.0171791668011583,0.9998397815475834,0.0749663535487352,0.0484181140300893,9.670223314205169,0.0337353963482239,-0.0164243835420917,-0.0002213742904911,-6.5645151928410765,1.922428645918668,1.2022550419622136,1092.840400314596,1106.2421504148408,1108.533595088384,1108.0631916422328,253.035866219426,-622.3931642837249,-19.085835486565504,-212.4554025628042,163.21177362929288
3.965,0.3735485843059543,-0.0509588137758249,-0.29795969686889,-0.0285592090638935,0.0238236404822217,0.0011561867720126,0.0042823533625557,0.00241929536757,-0.0171439597183522,0.9998406251469084,0.0682436373748841,0.0465499836382279,9.67709382382392,0.034153066721558,-0.0164629975071213,-0.0005227187847804,-6.564424180451384,1.9223760422310767,1.2022479646305864,1093.604304566621,1104.8383336857448,1108.4989594915205,1107.40736246528,371.7556048362644,-559.4652669488446,16.51878379911866,-335.11729188064703,163.2113004849532
3.9675,0.2383321514189059,0.0295333940581203,-0.0837688695684773,-0.0269834932794767,0.0243730333331891,-0.0023760726405998,0.0041861512626609,0.0024956843272183,-0.0171170819422777,0.9998413090219732,0.0613096447636733,0.0447570821360044,9.683849206355411,0.0345351300928585,-0.0164881078077852,-0.0007970207751888,-6.564333611353245,1.9223239264436616,1.202245040100401,1094.6991783387775,1103.4448240800964,1108.6161890073795,1106.3876051828295,410.7166894979488,-473.01618423540367,91.56705209820952,-399.41430364020493,163.21074720788897
3.97,0.069220853743829,0.110037878743071,0.2036414320221862,-0.0258337156596169,0.0251639854836781,-0.0040996523842534,0.0040971496039373,0.0025651730747832,-0.0170996842869308,0.9998418089047724,0.0543170427360043,0.0430546124408842,9.690392130167822,0.0348811127681185,-0.0165009275559984,-0.0010476137990079,-6.564243900633027,1.9222731775213644,1.202245626978386,1095.6578880141108,1102.4732527645679,1108.9567947520115,1105.4102909470791,370.70387385075134,-359.55192422453223,209.22748982120984,-397.7278398086667,163.21029435524653
3.9725,-0.140248321820546,0.2205005995937168,0.5278167935388657,-0.0251034503004423,0.0259020651713043,-0.0034659710077023,0.0040158415232371,0.002629744673381,-0.0170920966218429,0.9998421146550956,0.047363251212064,0.0414399246029712,9.696633733173952,0.0351913945592673,-0.0165038163054724,-0.0012774410024452,-6.5641539561372495,1.922224264461178,1.2022470488282675,1096.5526977080312,1101.6470644589735,1109.6623264564855,1104.398965983786,333.7990320318184,-311.0009172809508,350.39556915399606,-394.3003699886133,163.20984495787468
3.975,-0.3596290717869144,0.3741542461167495,0.8111786252638387,-0.0250537715027455,0.02627511965093,-0.0002622448994188,0.0039404465997637,0.0026916305987606,-0.0170925092616017,0.9998422636357764,0.0405406885690577,0.039871811801807,9.70249409507621,0.0354669846948762,-0.0165001293723061,-0.0014888649722463,-6.564062988679588,1.9221769887396971,1.2022470805968948,1097.3268831742698,1100.9182481781631,1110.7087725977815,1103.438789097136,268.9937238194091,-270.367669403828,492.467913656275,-352.86486539804014,163.2093943044791
3.9775,-0.5515859771012918,0.6020760030979307,0.9698269862874284,-0.0261905214417364,0.02624612287657,0.0052251934865615,0.0038758969626737,0.0027457926733901,-0.0170989935453154,0.9998422862889692,0.0340763304412465,0.0384489834076333,9.707900891409135,0.0357095202560421,-0.0164938396078789,-0.0016838271459138,-6.563970612589179,1.9221314105966767,1.202244682110736,1097.8976663271283,1100.2952261119547,1112.124666024767,1102.634641656796,194.55998102549037,-251.5377531112844,673.5513342996144,-295.4266021536177,163.2089367481325
3.98,-0.6944947342967162,0.9740894414463748,0.9692424994892757,-0.0289835505930761,0.0263913751181437,0.0118219672595265,0.0038320840341498,0.0027864673655013,-0.0171087224446983,0.9998422097481592,0.0282024447255977,0.0373747274135655,9.712791322834889,0.0359213008644028,-0.0164893265918391,-0.0018636341174115,-6.563878033921164,1.9220878901165253,1.202240689270859,1098.2996830793973,1099.6605594126067,1114.0765292692795,1101.961656086368,96.11061663422538,-216.9965841860222,719.4376700513811,-184.5651569804016,163.20837239537013
3.9825,-0.7060811926457469,1.3545665850312496,0.8213487431184395,-0.03204419793153,0.0275166786394875,0.015888388905519,0.0038091192456271,0.0028110656235988,-0.01712052413688,0.9998420586248272,0.0230826935308912,0.0366698757453714,9.717114480471594,0.0361054021199753,-0.0164908390035359,-0.0020294177802431,-6.563785672118748,1.9220467795588627,1.2022341832351044,1098.3782194102992,1099.2102431910243,1115.721854375024,1101.711815871894,-23.703328434567588,-171.8172720845396,612.2647992759215,-24.75136158459516,163.20788413203195
3.985,-0.5833013154091071,1.7663073665389368,0.5769131777203937,-0.0348710262183197,0.0306585258732229,0.0178544029743776,0.0038024732319486,0.0028232390992524,-0.0171363022360778,0.9998418046014708,0.0187480226958856,0.03627074521827,9.720831164014337,0.0362656632856672,-0.0165020501537345,-0.0021820006976787,-6.56369358513885,1.922008159423852,1.202224599800716,1098.1811664372244,1098.801473052184,1117.137853265659,1101.837899278445,-146.75307681162766,-183.76152557660717,523.9072604624754,145.07084233759016,163.2073713584537
3.9875,-0.2823526640023339,2.224809386769812,0.2609145264474881,-0.0375030486378564,0.0370348065242588,0.0178550803542913,0.0038076180010889,0.0028272105452892,-0.0171563075999181,0.9998414476310926,0.0152030971394395,0.0361191765889134,9.723913084989928,0.0364063984933864,-0.0165260517868078,-0.0023224766302454,-6.563601771000974,1.9219711453307928,1.2022136424431369,1097.6444540262412,1098.2914355631415,1118.3413906773364,1102.437170083582,-238.93157233868104,-198.85255143547988,341.4246827867598,289.49836530248695,163.20672141246197
3.99,0.0781709992181037,2.5244820109454595,0.0386902925804768,-0.0387840039945594,0.0442069260766919,0.0162121544142402,0.003822329605287,0.0028268152318702,-0.01717948669455,0.9998410027843384,0.0124423848613712,0.0362061374731964,9.726343134492076,0.0365323085470947,-0.0165650350846159,-0.0024524733956861,-6.563508782460909,1.921934889552133,1.2022022490977076,1096.9865085755307,1097.8072102950064,1118.8449766795927,1103.2853911049576,-291.67212726184226,-207.42509461947964,100.03590812985053,399.00846414958266,163.2061467025841
3.9925,0.5131931089103355,2.6933725211270083,-0.0949853378419434,-0.038422684507048,0.0523586398942838,0.0135617224822454,0.0038418453642034,0.0028326310110405,-0.0172021931547297,0.9998405180970878,0.0103118285552922,0.036473008378787,9.728117091316467,0.0366484798345312,-0.0166201648665833,-0.0025739051100385,-6.563414895904345,1.9218985998127465,1.2021909988234205,1096.186093389932,1097.254310090044,1118.8415702179857,1104.43221240433,-363.7002261036818,-243.3922921462051,-92.81291191187135,551.8600418200666,163.20553299773476
3.995,1.0613492656042305,2.728528090768884,-0.1483074629594065,-0.036086475706791,0.061705164591251,0.0106464025498102,0.0038626381946179,0.0028561211000537,-0.0172193889304166,0.9998400587479096,0.0086206439603259,0.0368847992164008,9.729243214015327,0.036760467743082,-0.0166914339932224,-0.0026892376869359,-6.5633217139440765,1.9218617440481176,1.2021807509395124,1095.1680074450123,1096.5902488342756,1118.3809121200336,1106.044691314058,-368.2095085490879,-221.05136450841673,-218.21276367928033,610.3235130051546,163.2047465946311
3.9975,1.4941247496174623,2.6289543802627,-0.1333075418891958,-0.032832771390126,0.0684284736129254,0.0096393368604069,0.0038811069777543,0.002907661282371,-0.0172258953806493,0.999839697062372,0.0071799517443384,0.0374031149702317,9.729742637022753,0.0368742772767264,-0.0167775899528525,-0.0028015430298769,-6.563230933659684,1.9218236838613472,1.2021719210066952,1094.3450458471866,1096.149053267502,1117.7505063995893,1107.4838299693556,-310.817768875729,-119.15592583136711,-271.296955805616,566.6440697331049,163.20404641667648
4.0,1.8503581402960256,2.4219472363501673,-0.1155138126752662,-0.0281349407355918,0.0741675934454038,0.0106355901450368,0.0038954463044097,0.002992465900251,-0.0172179137055022,0.9998394899543604,0.0058818288716538,0.0380217881155097,9.72964898233912,0.0369961155186439,-0.0168761566414715,-0.0029145070923836,-6.563143389889048,1.9217836196840308,1.2021646520271279,1093.613918600634,1095.9944692051188,1117.0244273410055,1108.8779116627231,-271.6762439731427,10.669652308342128,-286.8751858700113,527.4280263076988,163.20329627593935
4.0025,2.1101095806002035,2.1462477305106127,-0.1368969261139998,-0.0223079437841252,0.0794036735166068,0.0127119642511465,0.0039028560625396,0.0031092475708832,-0.0171916404308636,0.999839517441872,0.0047274147539432,0.0387108248529719,9.729008313121396,0.0371318757595317,-0.0169837538293321,-0.0030323552769311,-6.563059258164009,1.9217407774016173,1.202158902806462,1092.9866646273208,1096.2024015290435,1116.3161304702392,1110.1209701008943,-224.20381941106396,192.74071679752024,-263.8579111795081,437.6200575196983,163.20250246116933
4.005,2.2273465810861968,1.8085362905486684,-0.2281428444998312,-0.0156207657646517,0.0839722558113772,0.0146101929724369,0.0039011080265403,0.0032482332360716,-0.0171496779116309,0.9998397698070004,0.0038662901058633,0.0394467340922995,9.727878140004588,0.0372868145599725,-0.0170959686820045,-0.0031596736443949,-6.562976950023329,1.9216953475365603,1.2021540298150395,1092.4928995035787,1096.9581727891064,1115.705137785108,1111.0660119503218,-189.97857680215424,471.2107790336732,-237.8926225974788,330.5914877348712,163.20165364925572
4.0075,2.1954361833148015,1.3548994450367056,-0.4016086308890295,-0.0076144795120497,0.0882013254727251,0.0151667931299397,0.003894667286417,0.0033994215693194,-0.0170969075296225,0.9998401720709202,0.0034359444694511,0.0403272112722084,9.726326115235471,0.0374650343915972,-0.0172080668122561,-0.0033003464355371,-6.562895078257657,1.9216479444538603,1.2021503040914503,1092.03677174331,1098.558455424212,1115.1266673572516,1111.7739275395686,-150.20865533606732,697.5644309793246,-188.02952048186344,189.4820111811936,163.2005689690596
4.01,2.0395338945149226,0.9508198717206392,-0.5621873428374558,-0.0017158262826301,0.0906313230733071,0.013776507174281,0.0038891024249321,0.0035588122732383,-0.0170357975861857,0.9998406678428768,0.0034451819304386,0.041459163840514,9.724429426804383,0.0376691328177118,-0.0173156232607594,-0.0034570655124278,-6.5628126309437285,1.9215989999746572,1.2021477080041187,1091.7418562268983,1100.445994944003,1114.7649901826987,1112.0134220062275,-108.3333962604252,848.5089264324141,-130.993123182273,37.912428588107005,163.1996084936832
4.0125,1.7851215051213265,0.5314705752777049,-0.6870645806195159,0.0030056048336752,0.0921485820732344,0.0108797464928337,0.0038829867623349,0.0037235024403828,-0.0169693418644955,0.9998412172441812,0.0038749021076316,0.0428033140162198,9.722273537765245,0.0379002183396917,-0.017414488353654,-0.0036317671838504,-6.562728559004164,1.9215483152522577,1.202144751354629,1091.495104762008,1102.801000056374,1114.4717017413404,1111.9634896825091,-104.8955669637075,1102.0026682195528,-136.3657542706307,-62.448551115268366,163.198587944685
4.015,1.4178682852772764,0.0182912643674757,-0.7522662549421373,0.0071844664200888,0.0930974564646433,0.0067856715187407,0.0038720667410661,0.0038872394929545,-0.0169009138936098,0.9998418001055412,0.0047659893121642,0.0442574472018178,9.719949415793085,0.038157967426905,-0.017501036151788,-0.0038257111336032,-6.5626421090988565,1.9214957429831847,1.202140335517185,1091.2173783920798,1105.9560082851003,1114.0831614113456,1111.7011792506514,-101.612010906549,1172.6231588411133,-168.73517714384795,-111.04384808804988,163.19729280988884
4.0175,1.0969114740686707,-0.4125438042306714,-0.7261734304369118,0.0092552030022797,0.0930630420804039,0.003766341194856,0.0038565350120311,0.0040445341961142,-0.0168365880346419,0.9998423331718402,0.0061394774765702,0.0457979111639944,9.71755079000159,0.0384409649133348,-0.0175722599324814,-0.004038972569863,-6.5625519676079085,1.9214420273439112,1.2021336718390847,1090.9870447074752,1108.6641158505795,1113.6280258556212,1111.408270442069,-92.8144265663232,1048.7082221293072,-231.36259574867856,-115.85965106258308,163.19615441453996
4.02,0.793266571353715,-0.836192135603084,-0.6295016279070444,0.0103053395342491,0.0919068985364361,0.0017921803267534,0.0038441683334419,0.0041955705176343,-0.0167826761584394,0.9998426787418416,0.0079026806215483,0.0475400666508501,9.715171960450746,0.0387470349715705,-0.0176261613278205,-0.0042701425115895,-6.562457786340016,1.9213883314037503,1.2021243940620947,1090.753306259248,1111.199549395748,1112.926348432602,1111.1218809953384,-103.937511950246,1019.1162984031268,-381.01415337701746,-113.72100371136428,163.19495452308064
4.0225,0.4645749686518897,-1.316039000482315,-0.4638043055960544,0.0114880300710896,0.0891088184735377,0.0007256859177899,0.0038448746419978,0.0043447166867437,-0.0167392409815006,0.9998427789985656,0.0098824316267732,0.0496334142340969,9.712906456779894,0.0390734760966755,-0.0176622665213825,-0.0045168910144555,-6.562360533824148,1.9213354737071875,1.2021132288113847,1090.467357147724,1113.759697342595,1111.722955088736,1110.839665423512,-106.28022672203996,824.4688536228471,-501.3065085570468,-89.69101641319149,163.19344310056383
4.025,0.2200781404344665,-1.6729835535047908,-0.3071361225142748,0.012585207672243,0.0855005208701203,0.0007084261859708,0.0038586547786343,0.0044938536625498,-0.0167019343239252,0.9998426961589346,0.011960128921542,0.0520318974831478,9.710846478596505,0.039417484077255,-0.0176813010240648,-0.0047771606794726,-6.562261439429172,1.9212838179180471,1.2021006711850464,1090.221905125638,1115.321893663862,1110.4198158898168,1110.6734259132725,-99.50777430613229,481.33764816817467,-567.0865102035925,-51.24962244617673,163.19212299428992
4.0275,0.0036149629635419,-1.9612301539391104,-0.1470701191298794,0.0132727868558929,0.0805716873718661,0.0008864454620123,0.0038836155919438,0.0046423680732496,-0.0166665332738627,0.9998425106035678,0.0140699739634287,0.0546521220895274,9.709080438249902,0.0397765653342214,-0.0176847278445549,-0.005049054796877,-6.562161016243972,1.9212336335354727,1.2020861662019149,1089.969818276193,1116.1663855834358,1108.8875225377183,1110.5834173112812,-99.94798307366393,215.00251402394957,-627.4547516618575,-24.57105901958182,163.19073804257835
4.03,-0.1871959584248278,-2.1781422711210783,0.0143488912691229,0.0131661685028191,0.0749115294751304,0.0008054104348627,0.0039174079058318,0.0047890833733225,-0.0166337823722585,0.9998422269961148,0.0161611904147056,0.0574032242760516,9.707691675932928,0.0401488488394126,-0.0176741520427603,-0.0053308078101799,-6.562059227505289,1.921184929304004,1.2020690635460916,1089.7221652102696,1116.3969062339816,1107.2825421315076,1110.5505706181743,-92.43846290405796,-41.52344132903725,-623.3780204229012,-2.5835822533281863,163.18929725253233
4.0325,-0.3402025949761572,-2.301436271070972,0.1816441542424953,0.0120806903928191,0.0689235281357753,0.0005260787782585,0.003955783642411,0.0049303751244946,-0.0166057368639933,0.9998418497615744,0.0182355012680736,0.0601604023536354,9.70675746118835,0.0405330060700119,-0.0176513557058854,-0.0056212121023982,-6.561956129441558,1.9211372353162353,1.2020504680952793,1089.507625961673,1115.9587683767907,1105.7706324356038,1110.5704994000143,-76.05000387266206,-309.1748446400809,-597.6355675033246,16.082671883214402,163.18778590620403
4.035,-0.4751883591440673,-2.344599374747105,0.3896271073585859,0.0100490354749289,0.0616715981823728,0.0004257329607855,0.0039963459572261,0.005061526489683,-0.0165817698155718,0.9998414284042114,0.0203199418934744,0.062837702980802,9.706347609767896,0.0409281776350166,-0.0176184704274184,-0.0059195603369987,-6.561851826334477,1.9210901146708104,1.20203138243702,1089.3419151909063,1114.8510320107814,1104.294364293991,1110.6309839775906,-36.55053899251549,-466.19778252353257,-458.4033803712016,25.728491920700073,163.18588564364163
4.0375,-0.551713297784708,-2.303626227598901,0.5601563043090992,0.0084577353597663,0.0558832195203321,0.0008425468045108,0.0040319613976055,0.0051765570675041,-0.0165613212089731,0.999841038836226,0.0224720681661035,0.0652615326084727,9.706524593453464,0.0413341042940218,-0.0175775612077464,-0.0062259449324288,-6.561746754315745,1.9210431900963263,1.202012544089844,1089.3248732667105,1113.627779464173,1103.4786155337479,1110.699141859618,27.00633835711472,-503.58735869004875,-222.9198715747818,31.043707304798524,163.18422552869703
4.04,-0.6054880746514281,-2.201206744034024,0.7049747072041788,0.0074820904206376,0.0507103850281566,0.0020740264070368,0.0040555351628865,0.005265921812348,-0.0165450552281088,0.9998407577286073,0.0248229569801563,0.0672648889246396,9.707341605971312,0.0417511239893475,-0.0175305245531177,-0.0065411751445351,-6.561641585206271,1.9209963890043888,1.2019949399775782,1089.476946882692,1112.3330952173312,1103.1797649361172,1110.7862025141146,108.6975757546782,-533.0012092228648,-12.765323598839863,47.741385185001306,163.1824800326231
4.0425,-0.6601360561188631,-2.029063573899524,0.8121622824745269,0.0065239317033124,0.0450193142110446,0.004660725609676,0.0040668400144124,0.0053198143147462,-0.0165346530522004,0.9998406175181632,0.0275110531671482,0.0688191392330132,9.708840523038365,0.0421801023783232,-0.0174791721428441,-0.0068660235198207,-6.561536955731162,1.9209502313659168,1.2019796328499128,1089.868361145484,1110.9627734180583,1103.4147889157537,1110.937848785543,173.22140462938847,-439.21639667761184,171.85453397164932,69.85779793785845,163.18027981684185
4.045,-0.7014441583886031,-1.856918527651649,0.8193396389270434,0.0054848199557963,0.0405163638606775,0.0076140133156449,0.0040732144472764,0.0053423872930635,-0.0165304043448699,0.9998405617117488,0.0304064226728962,0.0700426966067192,9.711052001077134,0.042622357889257,-0.0174254117142086,-0.0071996204296799,-6.561433022757115,1.9209047575078229,1.20196616786567,1090.3430539058388,1110.1370132339432,1104.0390376059754,1111.135491503804,206.7367971229531,-237.55634991894615,312.038510392001,103.00992815014288,163.17835410930152
4.0475,-0.732298011326588,-1.665748279055012,0.7207699830259205,0.0038658621322665,0.0364216128250028,0.0109665612948554,0.0040845563111666,0.0053430472981997,-0.016529814534436,0.999840540386096,0.0332819324401266,0.0711063224334349,9.713994081431197,0.0430792546655613,-0.0173712514303886,-0.0075398872987916,-6.561330639544008,1.9208598180521743,1.20195450859188,1090.9020451310987,1109.7749916684636,1104.9749814677136,1111.4528984262938,223.5871781991184,-58.876881150855645,402.2862929303386,153.02031849092015,163.1763290781395
4.05,-0.7453162190701446,-1.4652828604279649,0.5346166994668777,0.0018127803006474,0.0327447425715713,0.0140811139135948,0.0041012785939282,0.0053296247864882,-0.0165295039779562,0.9998405630744353,0.0359503269953546,0.072001557042587,9.717671935292012,0.0435518175822574,-0.0173183969231017,-0.0078841279657902,-6.56123057012268,1.9208153367112688,1.2019439729965251,1091.4609897968344,1109.8426288281887,1106.050469070627,1111.9005930962585,206.68913165650775,126.34596723956108,435.9316058118658,213.16585831169047,163.17421999561745
4.0525,-0.7271901743150356,-1.260203874072094,0.2664254580505439,-0.0004740028674551,0.0295119075847821,0.0160684422856613,0.0041206671190906,0.0053109892065986,-0.0165261160671171,0.999840647717559,0.0382124376460814,0.0726630078962479,9.722075388386077,0.0440403325872258,-0.0172682004133783,-0.0082282257622522,-6.561132591961245,1.9207712224336349,1.201933612473256,1091.9354907893812,1110.4067215046612,1107.1546394967727,1112.5187277178522,173.04040999224895,338.5855921459169,462.31505435294895,302.23413759286547,163.17200876805916
4.055,-0.6653963468106647,-1.0167851148631393,-0.0947075016111277,-0.0032910182066544,0.0260824360907083,0.0167193920123151,0.0041395667372133,0.0052948798564484,-0.0165195713279537,0.999840768106318,0.0398995292339751,0.0730214557442625,9.727176536021409,0.0445439251193926,-0.0172213734734919,-0.0085665139430095,-6.561035070530782,1.9207275311553589,1.2019215906515224,1092.3261918467956,1111.5355567889185,1108.3620443423915,1113.4117637842228,108.44462085588252,460.2408332757121,406.2488585024398,334.2417606077177,163.16923778822627
4.0575,-0.5861760399332905,-0.8231153733155793,-0.3781363906035899,-0.0055003425701096,0.023642600915265,0.0158859916024242,0.0041564857942202,0.0052831822393762,-0.0165116651091188,0.999840892160888,0.0409662981737034,0.0730454700935291,9.732927392097501,0.0450600641489828,-0.0171781054545732,-0.0088921238166039,-6.560935274397671,1.920683900341711,1.201905949690728,1092.4777138936606,1112.70792567104,1109.185883789285,1114.1899365208908,28.511832383351337,474.012430040028,277.1158189334095,284.17186781880554,163.1668323022649
4.06,-0.4966094583763945,-0.650400223946007,-0.5833845915080411,-0.0072573351176701,0.0218874823144872,0.0136681856730998,0.0041735401463396,0.0052766370828304,-0.0165006664352129,0.9998410369013933,0.0414009443083294,0.0727760287398483,9.739259535618991,0.0455844008686617,-0.0171385761165579,-0.0091967884816748,-6.560830963217543,1.92063946922785,1.201885505949407,1092.4687510087124,1113.9056189391188,1109.747623437059,1114.832623123317,-23.55813652457123,479.6045537642488,177.14131728931002,205.75409188441407,163.16433005515702
4.0625,-0.4109304780199574,-0.4831731278259677,-0.6841024305622052,-0.0084037212014979,0.0206607298153155,0.0097217753345535,0.0041906749434971,0.0052838461235535,-0.0164830955709323,0.9998412130539928,0.0410526164169224,0.0722112606417021,9.746086749068514,0.0461113169161468,-0.0171027663840554,-0.0094707640621522,-6.5607208151508285,1.9205938233784243,1.2018577434415088,1092.3599232110375,1115.105948439861,1110.0715903757316,1115.2187069803128,-36.73932367232816,364.6369025454156,59.94141067099136,48.34792878855399,163.16122027144053
4.065,-0.3849104577835207,-0.3866037113161602,-0.6262693878747112,-0.0082558626225226,0.0202333193061575,0.0061115292993923,0.0042059582372846,0.0053097007310248,-0.0164583400333838,0.9998414111530742,0.0398566574121243,0.0713166201087768,9.753304701055066,0.0466344601018373,-0.0170701893111423,-0.0097046612725364,-6.560604995038664,1.9205468765616631,1.2018221844188015,1092.2850543903508,1115.728803451846,1110.047330490414,1115.0743627672596,0.1083732598544907,136.77781338606403,-62.214715716028394,-174.56446573633374,163.15854300801223
4.0675,-0.428260491280209,-0.3378242122310753,-0.4286708464028289,-0.0074206078605027,0.0201518200224791,0.0032540220135872,0.0042169051483581,0.0053508307254427,-0.0164297653477143,0.9998416017153692,0.0379231310080545,0.0700522142873169,9.760792654158637,0.0471473512647699,-0.0170399766995511,-0.0098908452205191,-6.5604848171088745,1.9204991209608029,1.2017812410336284,1092.360465077337,1115.7898375067914,1109.7605167971515,1114.3458846516312,95.7614145630962,-125.01622858422064,-164.77270245846182,-452.8505952781512,163.15578057427632
4.07,-0.5558125255794985,-0.3238347395171253,-0.0767937114992991,-0.0069430400709896,0.0200872930622058,0.0014979074589822,0.004224562150872,0.0054025755269713,-0.0164020304804238,0.9998417269826644,0.0353994453750331,0.0684496853065971,9.768417591017528,0.0476439988532034,-0.0170113455743155,-0.010023561155078,-6.560361309725135,1.9204512660290227,1.2017375627564395,1092.7638614631662,1115.1037223089247,1109.2234669781217,1112.810109790869,213.39117712482675,-379.4258133846678,-205.70578215011193,-653.2131017519671,163.15237134353544
4.0725,-0.6979470816148444,-0.3309066932838606,0.2606710466213851,-0.0077830872438138,0.0197767468490249,0.0016611852455496,0.0042316561955134,0.0054645818208121,-0.0163765594325449,0.9998417522865456,0.0323604599372268,0.0665736786458469,9.776040129815383,0.0481192713920081,-0.0169840649587613,-0.0100990243700845,-6.560235680380663,1.9204035095173488,1.2016935621107336,1093.4274209629612,1113.892708439868,1108.7319878864007,1111.0798191428714,337.8668867065771,-598.9957539842761,-172.6416851740887,-743.8225640664926,163.14945455092231
4.075,-0.8266427724060814,-0.3255366163890614,0.5757841866287685,-0.0103914270524731,0.0188607886388858,0.0035473797301931,0.0042339669942086,0.0055349004998543,-0.0163540302550071,0.9998416929847588,0.0289238217424734,0.0643560991284588,9.783520658172566,0.0485691047964459,-0.0169580687239077,-0.0101164752626887,-6.560108800824361,1.9203556084758373,1.2016504909450123,1094.453195896699,1112.1087435390036,1108.3602585522513,1109.0909969705367,465.2661916737642,-780.0051334512483,-104.14140088751304,-798.7626786743192,163.1464622525236
4.0775,-0.9062255290116856,-0.2834935085398554,0.8260451353106464,-0.0141054470349213,0.0173175463401341,0.0066939643455184,0.0042263072837329,0.0056104246778874,-0.0163337907544954,0.9998415995844028,0.0252366852972065,0.0617129558136029,9.790724197463208,0.0489905927410353,-0.0169336529491415,-0.0100778797060113,-6.559980383198457,1.9203072080459025,1.201608277630182,1095.75375192133,1109.992682772612,1108.2112808819631,1107.0860057495,571.539252914284,-875.3684828566478,17.63274405307167,-756.1044544118593,163.14340951915193
4.08,-0.8989460436394665,-0.172670937632851,0.9600535716463156,-0.0180211405261428,0.015285735730908,0.0107096511975955,0.0042053615129199,0.005685531578904,-0.0163155802963122,0.9998415260597616,0.0214979374413345,0.0586013688721071,9.797525703244736,0.0493820924537951,-0.0169114276243019,-0.0099878345048776,-6.5598492767659495,1.920258163914858,1.201566517522878,1097.3108921612704,1107.7319011247205,1108.4484222725166,1105.3104746984775,715.4710004786257,-948.3392161568527,208.1299958491074,-673.6204485213732,163.1402863701893
4.0825,-0.7875968716761433,0.0481588607265518,0.9705437756781248,-0.0217859857034463,0.0131700409442433,0.0151987623835706,0.0041688220755496,0.0057491048368752,-0.0163010287721961,0.9998415246591495,0.018013220667835,0.0550046623762738,9.8038155874656,0.0497433884934084,-0.0168922331258446,-0.0098537848025682,-6.559715445562599,1.9202086741549147,1.2015267080046452,1099.3311069237236,1105.2509866918267,1109.251930861209,1103.7179035068923,738.7540454268377,-811.0521776223494,376.9061039894576,-468.88014366664805,163.13646032902452
4.085,-0.6279247952084633,0.2895235517250904,0.865525379310395,-0.023757172621539,0.0125890080255162,0.0180231573773927,0.004118027325434,0.0057945791077046,-0.016289293251691,0.9998416463933684,0.0149938376251811,0.0509806449221202,9.809505331902798,0.0500759919517896,-0.0168776849316227,-0.0096847397317888,-6.559580476910738,1.9201593001985136,1.2014917972148775,1101.0046623884043,1103.6766402366088,1110.3329527924639,1102.9660739801443,630.283400349085,-467.0159105352113,494.9839954785253,-174.32342549891845,163.1332091900813
4.0875,-0.4325075750305245,0.5500761158536615,0.673095032703539,-0.0245778962853037,0.0138682122525135,0.0197766831789823,0.0040587307578187,0.0058331283297554,-0.0162809455341468,0.9998417879548088,0.012293329117981,0.0466739806654704,9.814532370585722,0.0503836344729768,-0.0168697917928173,-0.0094894279322433,-6.559447583114947,1.9201115127950317,1.2014623945545857,1102.4825239254687,1102.9159071391507,1111.7268508386016,1102.846286379398,563.2776801739176,-107.124673717683,642.4656212359105,71.35018916506094,163.12989607258822
4.09,-0.1941561319538853,0.8308644214986298,0.3824942708778109,-0.0249112839599258,0.0171118842735883,0.0208824084104314,0.0039981150429111,0.0058776539229055,-0.0162726676927545,0.9998418938063504,0.0097189422859542,0.042262000484243,9.818861718272563,0.0506715359842409,-0.0168713009884468,-0.0092772575522557,-6.5593183670542246,1.920065727232364,1.201438238873162,1103.821050789274,1103.1410168680204,1113.5452808986431,1103.3228249259696,394.8280018188682,272.9182490461484,655.1357239118855,246.32653986541823,163.12585270710423
4.0925,-0.0133231853786897,1.0081740872613618,0.1177690920200175,-0.0249719662364354,0.02050085331404,0.0211764174227757,0.0039414567694409,0.0059340812008523,-0.0162605518459568,0.9998419703174776,0.0072007660043821,0.0378925534483518,9.822487226639833,0.0509458056662144,-0.0168850630429209,-0.0090585641640851,-6.559192536391064,1.9200215812360608,1.201419438608854,1104.4566639345633,1104.2804983843816,1115.002529458161,1104.077919078725,141.0148600988153,618.8727296506972,531.3217066410401,329.675161676603,163.1224300612273
4.095,0.1298057066511767,1.1098842356078515,-0.1438114739147673,-0.0246032330272011,0.0239339608526473,0.0209613371050483,0.0038874681766578,0.0060036589477948,-0.0162434847465317,0.999842035707507,0.004746355450658,0.0335918024697842,9.825432326038815,0.0512129601403323,-0.0169133369011479,-0.0088438288146477,-6.559069204798405,1.9199787426531425,1.201405352296838,1104.526125089768,1106.2353805162738,1116.2018894318485,1104.9712007343524,-95.38477091218942,971.8366741676824,434.503874054608,375.14420831781433,163.1189563138692
4.0975,0.2404037246747292,1.1472504286112803,-0.4285341992667509,-0.0232039541174578,0.027560939695601,0.0200964930065512,0.0038285697701174,0.0060794350194075,-0.0162233208350445,0.9998421334482674,0.0025091128114152,0.029269702944313,9.827748205592023,0.0514793134269107,-0.0169575617820606,-0.0086433855959293,-6.5589468272332425,1.919936656889008,1.2013930446756695,1103.9797400800023,1109.13968175522,1117.175048828434,1105.953640120314,-289.32215474915824,1088.2276492959822,266.0404020545286,321.37196988279135,163.11473388392307
4.1,0.2753878132344624,1.1183201535490672,-0.6242061549352533,-0.0213642261377961,0.0301041195593614,0.018759879857454,0.0037646678933253,0.0061502087258282,-0.0162030506889307,0.9998422842843602,0.0007062695750084,0.02498802199688,9.82951008332391,0.0517506280145672,-0.0170186244887387,-0.0084661442443483,-6.558823605079992,1.91989484126364,1.2013804492549156,1103.0795143160224,1111.6765187627536,1117.532091442121,1106.5780605837665,-422.17429524549505,955.5715569184688,48.238113704929795,202.52105928466767,163.11117427790515
4.1025,0.2598523565696681,1.0407756341850223,-0.7572316688314715,-0.0195738885992775,0.0324060464114475,0.0166438632336199,0.0036967750520277,0.0062112474946375,-0.0161804465136872,0.999842549617967,-0.000589097254322,0.0208292434187919,9.830814845762552,0.0520319596436612,-0.0170972959701741,-0.0083186313368758,-6.5586983612630485,1.9198521287508143,1.201368140511292,1101.868868603775,1113.917539539812,1117.4162393969586,1106.9662454167371,-507.3543975359488,795.4706817519428,-113.68193951855613,127.28565504046684,163.1075773549991
4.105,0.2239576088059785,0.9305134579904804,-0.8269525255420311,-0.0185001928366201,0.0347114787866842,0.0139049047268401,0.0036276779705993,0.0062720095651494,-0.0161546548097202,0.9998428694229788,-0.0015991042217328,0.0169069758200018,9.831776645444414,0.0523280675237165,-0.0171935788738256,-0.0082041784086583,-6.558572607263025,1.9198082741026548,1.2013565214602673,1100.5427423283422,1115.653872171514,1116.9636817445282,1107.2144888589687,-520.8013368991144,532.874715972514,-236.43277715451,92.97359221586899,163.1039536012331
4.1075,0.2016155787196514,0.7875405718158823,-0.8165360368207188,-0.0188932167814249,0.0369719140899735,0.0108026069209986,0.0035622913776561,0.0063391751412602,-0.0161248803953749,0.9998431934906116,-0.0025055801389712,0.0133764593955596,9.832520630351594,0.0526431314267271,-0.017306967038992,-0.0081246243337622,-6.558447902348292,1.9197633594570276,1.2013456421104107,1099.2648619192792,1116.5819131196747,1116.234075511186,1107.4311133778167,-504.573205387407,206.125764477524,-339.0049449219149,127.46295570855452,163.1003028096111
4.11,0.2339755434823068,0.5886609587597453,-0.7261772699558035,-0.0204130592785053,0.0390722326725181,0.0075041973663099,0.0035052889257067,0.0064114531762173,-0.016096235145921,0.9998434288967252,-0.0033444864561897,0.0103890068909798,9.833177202500627,0.0529807406996011,-0.0174359164024018,-0.0080808880615321,-6.558324415407764,1.9197179574575356,1.201335489638823,1098.0198763014052,1116.6845009939016,1115.2686570199187,1107.8518036375117,-380.0828069549052,-114.75692120898447,-329.4835124480485,202.8642745504883,163.0958979206896
4.1125,0.3229240733144676,0.4101543093210431,-0.6111686923763983,-0.0213078738325385,0.0402113247419564,0.0057589409413772,0.0034602714153237,0.0064820759629418,-0.0160746810609937,0.99984350948431,-0.0040515400549069,0.0080723170592861,9.833876277709534,0.0533435033952632,-0.0175784250561429,-0.0080726748590496,-6.558201295763433,1.9196727761828103,1.2013260401602595,1097.364447884505,1116.0081285136296,1114.586657948946,1108.4454347505691,-160.9652309030969,-380.43656649120646,-200.4346596381353,297.10986460009457,163.09221290791405
4.115,0.4632861590110984,0.2306944540785633,-0.4936054408142824,-0.0209570821009591,0.0412661283840227,0.0052333648170708,0.0034289286264078,0.0065487645287579,-0.0160610778178003,0.9998434298854206,-0.0046545931515191,0.0065082341244254,9.83474185307504,0.0537327480135904,-0.0177326335506964,-0.0080973632867855,-6.558078170343103,1.9196276434085195,1.2013177123935879,1097.2150501468896,1114.7823181614456,1114.266483721728,1109.337352960512,56.61803817433913,-585.0999961335799,-15.054524314064432,449.3567017491482,163.08852027076205
4.1175,0.653573649117791,0.0312194565396619,-0.3875617368696719,-0.0192377276100192,0.042246442784854,0.0054091240452157,0.0034051772266202,0.0066090139772278,-0.0160532343034989,0.9998432631140391,-0.0051754319567445,0.0056178228292559,9.83588633006812,0.0541483333568829,-0.0178964683124613,-0.0081505887662696,-6.557954481642953,1.9195818271625715,1.2013098779429192,1097.6475380753764,1113.082628532962,1114.5113853273756,1110.6922182593148,250.2952442399927,-597.1200744299622,209.97167818514288,524.2253103288588,163.08408917869394
4.12,0.7994619690204952,-0.1034382299811496,-0.3421647244110523,-0.0170791799116356,0.0421028601622149,0.0056668127786801,0.0033805647623293,0.0066606367762269,-0.0160496982848011,0.9998430776728696,-0.0056382929741331,0.0052667092122401,9.837405166581572,0.054588693600486,-0.0180673204298802,-0.0082258910269261,-6.557828802168633,1.9195347299811227,1.201300451494066,1098.4665263680895,1111.7967177892958,1115.3163421126535,1111.9584795121564,396.64037299747343,-421.6241787175728,442.423445823646,505.70841572031264,163.0804035108195
4.1225,0.9000487981359064,-0.179707958893063,-0.3382673099721564,-0.0145258880396425,0.040676398626204,0.0055068560212878,0.0033515364789033,0.0067095881636946,-0.0160527046832024,0.9998428094168484,-0.0062223329582964,0.0054048279349173,9.839372711663044,0.0550511235151855,-0.0182419060929593,-0.0083136782606725,-6.557700309415847,1.9194865994933812,1.2012862613511668,1099.6307399403643,1110.9745076393735,1116.723502556494,1113.2207603379168,551.1007950163392,-209.7017170454409,726.1752679780029,523.8161766592041,163.07673334659006
4.125,0.9413019686432565,-0.1861165466395592,-0.3591670932375574,-0.0110451645464386,0.0384337579576637,0.004817671214107,0.0033174323954839,0.0067597803282071,-0.0160631079843384,0.9998424205038126,-0.0070573749664536,0.0060283677585488,9.841838734623154,0.0555316410634697,-0.0184168813199583,-0.0084028450534602,-6.557568158825219,1.9194376797765371,1.201265037565425,1101.2220303431711,1110.7482092040686,1118.9472184525437,1114.5775603954523,583.96544327103,49.88368975473456,866.8369868865469,455.7375183154915,163.07235613351665
4.1275,0.8982209758522745,-0.1253543467878948,-0.3751922960814647,-0.0078050392032428,0.0372193936179938,0.0039535005850538,0.0032832692473432,0.0068115829068805,-0.0160753293810955,0.999841980028961,-0.0081923872307416,0.0072334393859876,9.844826442970787,0.0560250999684754,-0.0185895394620699,-0.0084816833695393,-6.557432452326049,1.9193876491902695,1.2012358071441935,1102.5505671567191,1111.2239260881474,1121.0576874909268,1115.499447929494,496.4674329926871,305.1028102149368,842.7251245077692,317.2662874068987,163.06873691887623
4.13,0.775727739589097,-0.0206408555946889,-0.3606638142504366,-0.004823498384102,0.0373134588726485,0.0026638303704604,0.0032590165631368,0.0068650605239312,-0.0160854587615668,0.9998415164212594,-0.009656419138928,0.0092019980820104,9.848332295528865,0.0565259132357234,-0.0187569900683956,-0.0085386406209651,-6.557293699329648,1.9193366017872673,1.2011997423140113,1103.7043675081347,1112.2737232551433,1123.1608440750824,1116.1638918324868,410.6496883408996,480.17138031569743,797.7462839747376,224.2131984203345,163.0651536288437
4.1325,0.6008927030018537,0.0977591059188113,-0.3012777394303785,-0.0026070235395473,0.0382207479595667,0.0009131671352615,0.0032529971349996,0.0069228015320268,-0.0160909067959552,0.9998410267029048,-0.0115105838850027,0.012071003079203,9.852327554145385,0.0570284177388295,-0.0189161597215045,-0.008563331259956,-6.5571533885375946,1.9192842082413928,1.2011591649363529,1104.6038155984238,1113.6247829897259,1125.0464189108004,1116.6205139215958,280.57147047562154,559.5161415819013,657.899655114957,140.54432825915072,163.0616043462873
4.135,0.3908536897574897,0.2131116562685439,-0.1747077020476496,-0.0014950400253589,0.039143200413959,-0.0010613800552765,0.0032667565809089,0.0069851473101603,-0.0160927246103626,0.9998404875014084,-0.0137516149803218,0.0158334073985951,9.856761007040642,0.057527071292141,-0.0190635339730908,-0.0085481238148618,-6.557011616015865,1.9192305801704248,1.2011162747251396,1105.1072248605128,1115.0713039630527,1126.4503423506571,1116.8666134737823,120.82768247560382,590.4222964866801,468.9305637324296,74.76863173506149,163.05810052273247
4.1375,0.1382141244144574,0.3358310329725336,0.0481004064164813,-0.0012480634910701,0.0396461387299547,-0.0027344013507137,0.0032961275427312,0.0070501565263327,-0.016092702839672,0.9998399003033358,-0.0163113464412247,0.0203588788765726,9.861562922006414,0.0580164342585718,-0.0191956145197656,-0.0084886510805115,-6.556867301658865,1.919175996400748,1.20107275450163,1105.2079540108018,1116.5768944721592,1127.3910717294625,1116.9943570802711,-42.37064039480264,475.1724175455466,211.3416193063176,31.423694320847734,163.05395342859865
4.14,-0.0469314540594691,0.4181387465858829,0.2692338951940531,-0.001629147358161,0.0401295593400176,-0.0027598685698868,0.0033336785724355,0.0071119942550279,-0.0160933743698698,0.999839295637558,-0.019026246699086,0.0254431354598838,9.866649753455304,0.0584912901501696,-0.0193090695122881,-0.008384150289679,-6.556719323038806,1.919120354392092,1.2010304544003758,1104.8953716585388,1117.4471660507804,1127.5070504471887,1117.0237319453868,-188.8384495443956,246.59471876939804,-82.50855096093977,11.042902522194945,163.0505484646368
4.1425,-0.1826900702978587,0.4661204857281496,0.485430293244075,-0.0021479600492244,0.0415723368810104,-0.0011862415825802,0.0033740391210069,0.0071631891454634,-0.0160971667932431,0.9998387142518496,-0.0216848194921211,0.0309131077419153,9.87192897582848,0.0589469569010259,-0.0194010198438978,-0.0082369565485795,-6.556566702793392,1.9190639227121196,1.2009918938322577,1104.2637617630799,1117.809868066006,1126.9785289746578,1117.049571592882,-317.79675621337026,52.8734621138855,-349.0335880287057,26.79734495872744,163.04719944744699
4.145,-0.269574734783714,0.4682387441376132,0.6934976535126836,-0.0030713157966969,0.0441317366656798,0.0014597413619033,0.0034163504187769,0.0071987414830692,-0.0161023289073908,0.9998382302808396,-0.0241112789688374,0.036674900925616,9.877303732097396,0.0593796453758831,-0.0194696380186663,-0.0080515469686852,-6.556409902789122,1.9190070567224768,1.2009596846639623,1103.3063878774717,1117.71153336135,1125.761882507045,1117.1577186701804,-356.2536098067161,-97.14539418742086,-511.38320966543864,60.51561716972303,163.04324845292527
4.1475,-0.2677814970608797,0.4222082820393424,0.8009117241194698,-0.0045405720770713,0.0461025995333883,0.003693920724466,0.0034585335200229,0.0072301615073894,-0.0161075024998349,0.9998377866177012,-0.0264439508542663,0.0425986658524443,9.882677690652791,0.0597873093274699,-0.0195135363481581,-0.0078323691748623,-6.556251852304976,1.9189507562432768,1.2009343361159863,1102.4824937140463,1117.324141095069,1124.4216129263307,1117.3521496787307,-304.57760865820734,-172.84042469441744,-564.6528319759575,100.0514394164405,163.0400145971366
4.15,-0.184651495604115,0.3407901255593889,0.8228007048631709,-0.0064809155057206,0.0472276801652304,0.0059054146739456,0.0034997450569407,0.007268654263164,-0.016108670622248,0.9998373671875704,-0.0288072829716794,0.0485737736750083,9.887958079308882,0.0601694368344781,-0.0195321271553001,-0.0075847595913291,-6.556095714571365,1.9188956473031664,1.2009152949280724,1101.7834998341807,1116.8473312378778,1122.9386183471652,1117.6579758672626,-254.56114328063083,-180.28363320786795,-648.0789555217282,147.3784798551637,163.03684394360775
4.1525,-0.0092974584295188,0.230352099846678,0.7382995778692089,-0.0084242132502849,0.0474861776242745,0.008768040760423,0.0035425542748389,0.0073162932436948,-0.0160964393521499,0.9998370971714304,-0.0311407665142741,0.0545563743546731,9.893058080716015,0.0605266070546546,-0.0195258664116961,-0.0073150027187407,-6.555942337445272,1.918840562522234,1.2009011034794435,1101.2096879976432,1116.4227229290295,1121.181218148722,1118.0890420780063,-158.90201587426756,-106.86779800467092,-623.0525080983758,152.16865700536215,163.0331147142111
4.155,0.1667781620817633,0.146491235380286,0.5723210776970897,-0.0088743065229411,0.0470352416496256,0.011354129897308,0.0035874022422879,0.0073665770853835,-0.0160652789452455,0.9998371087306608,-0.0332114900015787,0.0604631095850029,9.897899444129855,0.060860396583396,-0.0194949771398948,-0.0070297771085667,-6.555791689580681,1.9187845083082111,1.2008895002280149,1100.9889897548092,1116.3129922478545,1119.8233558066731,1118.4188191522894,-39.00677838319181,14.7207362153043,-512.1598551683855,103.5421022472314,163.03007166421705
4.1575,0.3179240769903391,0.0819110084611318,0.3157368681043437,-0.0073303805972513,0.0465143745980533,0.0135827259416005,0.0036322762761036,0.0074122002223862,-0.0160222851066683,0.999837341208824,-0.0347717590361532,0.0661652794306139,9.90241357969445,0.0611733022640849,-0.0194384278425822,-0.006734774699507,-6.555642798902735,1.9187275344019,1.2008792858201691,1101.0146541057272,1116.4963266101063,1118.6204188728802,1118.6067525892427,39.50456337147528,113.22479838986752,-455.08493371449794,37.99519190952277,163.02709756641468
4.16,0.4075465684806772,0.0306203319681456,0.0039563965820687,-0.004459911518808,0.0463908300852511,0.0148843131006905,0.0036790186978827,0.0074494483793517,-0.0159762731562455,0.9998376651486532,-0.0356506275235519,0.0716129502524029,9.906540592510327,0.0614679202175945,-0.0193554760663467,-0.0064336892382411,-6.5554933540062255,1.9186699918029344,1.2008693456018091,1101.1865125716668,1116.8791162398038,1117.5479311381007,1118.608795111837,82.9885821088755,179.20831677770747,-397.8769973686752,-52.215379062091614,163.02418193430927
4.1625,0.3958728833551573,-0.0158040321879434,-0.3348539729663371,-0.001301559350954,0.0466790438147058,0.0144715496134278,0.0037258231667702,0.0074804451735441,-0.0159304484255444,0.99983801009025,-0.035798189376951,0.0766871072935379,9.910229994777021,0.0617464763088448,-0.0192466023247286,-0.006128212224401,-6.555341187511408,1.9186118386694444,1.200858746360072,1101.4295970162716,1117.3923681939948,1116.631033886037,1118.3456756939322,93.02959403671792,223.08189560658795,-361.09077617353114,-175.3670808317148,163.02133820575
