t,ang_acc_x,ang_acc_y,ang_acc_z,a_vel_x,a_vel_y,a_vel_z,quat_x,quat_y,quat_z,quat_w,acc_x,acc_y,acc_z,l_vel_x,l_vel_y,l_vel_z,pos_x,pos_y,pos_z,mot_1,mot_2,mot_3,mot_4,dmot_1,dmot_2,dmot_3,dmot_4,vbat
9.435,-0.7695430730744015,1.0420870593854907,-1.6578863125929355,0.0060676162834617,0.0317480292891181,0.0034110601593486,0.0008351256509657,0.0091143602628538,0.0297806830872753,0.999514338981942,-0.0184530291751481,-0.0364878121411368,9.801269598769094,0.0467899730425927,-0.0066873650704738,0.0033709528145357,2.9913480891819586,4.509653630808297,3.6438699266974406,1103.992633292051,1099.24709358775,1090.5784330386507,1103.4301562535372,-402.3003751595642,174.23707833189667,383.659027265352,-30.77315399310167,162.41221259786118
9.4375,-0.8280157793375719,1.0470756812701403,-1.6964850416080284,0.0028434268319328,0.0345141456129652,-0.0016432283040764,0.0008192160791311,0.009171723875241,0.0298004152553919,0.999513240247929,-0.0207928472283862,-0.0388640715752933,9.801622479165331,0.046994431260618,-0.0068507041707779,0.003362697769932,2.991469869595605,4.509654128553449,3.6438779704374458,1102.9131272065613,1099.5707766178907,1091.6124483333929,1103.517879376558,-459.03926077853646,74.81485047243619,438.7581975394787,105.98229435474713,162.41078030234857
9.44,-0.7891998857965011,0.9784002634700384,-1.611050612414186,-0.0002081106633594,0.0378601122719024,-0.0062131234629322,0.0007950474548233,0.009233808524238,0.0298152855325798,0.9995122397728404,-0.0230976999115509,-0.0411966302059064,9.801861390249009,0.047188246297331,-0.007040848556022,0.0033612897056233,2.991592946496059,4.509655123018214,3.643882082369206,1101.697436988159,1099.621167840112,1092.7722240263477,1103.9600677253109,-549.421561054856,-32.21053255555895,522.6190870839765,258.47905639334886,162.40940510532644
9.4425,-0.6419117391863493,0.8119187491905017,-1.3794024506702305,-0.0032279331607575,0.0418656366655034,-0.0109347223151891,0.0007648291816758,0.0093051247926074,0.0298228842025594,0.999511365942736,-0.0254294050423306,-0.0433721321702914,9.801942190845784,0.0473731472832611,-0.0072557223194651,0.0033693158520553,2.991715894977943,4.509654520332784,3.6438827313637008,1100.1660194012863,1099.4097239551131,1094.2255437688132,1104.810274658525,-556.7679075369181,-110.81141240582014,529.6436800027632,348.17452594337755,162.40782585736451
9.445,-0.4573569450272616,0.618998939235267,-1.095949188901923,-0.0048617712544712,0.0442962518985498,-0.0142216326198741,0.0007327215567086,0.0093896771832673,0.029818862881267,0.999510709347214,-0.0278418579204753,-0.045246626684638,9.80182319164361,0.0475516005549759,-0.0074914594984844,0.0033887892736152,2.9918369078383975,4.509650713895261,3.643881563448265,1098.913597450474,1099.067110778083,1095.420442426362,1105.700940355028,-473.36349383968223,-153.5034974310598,457.6605823967385,371.9979408120993,162.40657220548292
9.4475,-0.2440177211156769,0.4046600866293577,-0.7444201853128273,-0.0052040206850418,0.0451966321401947,-0.0167802643019533,0.000700318548938,0.0094827199353616,0.0297991742483045,0.9995104331348882,-0.0302231941282652,-0.0467419249766879,9.801467827619582,0.0477266070390906,-0.0077429056251803,0.0034199071984885,2.9919559836512044,4.5096431652136815,3.643880220821873,1097.7992019320886,1098.642206467958,1096.5138466807964,1106.6702643625852,-434.584588485973,-184.5177714932272,438.9357878724919,420.5858250148846,162.4053866973964
9.45,0.0062340567469687,0.1671359166684817,-0.2810168974735418,-0.0045659977051708,0.0447663427842363,-0.0187503421551057,0.0006727424035078,0.0095777739023148,0.0297657219658834,0.9995105366426854,-0.0324309424927461,-0.0477244542774809,9.800845603523216,0.047901197551306,-0.008004534453414,0.0034616037355428,2.9920736943452866,4.509631857794854,3.643878997851111,1096.7406745080439,1098.1445219206166,1097.6151213657247,1107.8038694801028,-329.9245234847543,-166.4092867000558,357.63512769202725,396.61881095233355,162.40404621289156
9.4525,0.1907458805914291,0.0084958783914615,0.1069943111670745,-0.0037736641286072,0.0436027080299536,-0.0192063351905823,0.0006541978102123,0.0096688447928102,0.0297248469927574,0.999510884971028,-0.0343381437835648,-0.0480929195707109,9.79993294779036,0.0480780774435886,-0.0082707931870499,0.003511677372681,2.9921907400380063,4.509617389165068,3.6438783378170494,1096.1495793146646,1097.8101600344576,1098.3020223192568,1108.6533584173471,-172.30687893842304,-102.8562867943242,218.87466824614228,308.86230130551445,162.4029996379327
9.455,0.3391939754287451,-0.1025434464391779,0.4526631168697334,-0.003032706516021,0.0422951138153098,-0.018243810863228,0.0006435140023469,0.0097483647507112,0.0296817066012335,0.9995113989310735,-0.0357947555277523,-0.0478680905178351,9.798714786582416,0.0482594801391611,-0.0085359987262041,0.0035665684435144,2.992308715828436,4.5096015691701625,3.643878841473152,1095.879140113352,1097.630240486645,1098.7094947069552,1109.34818098663,-60.60809678207375,-37.59390131732128,115.27598191012223,248.50518090793628,162.40202824271051
9.4575,0.4540017673620903,-0.1854017308541734,0.7301283649119379,-0.0021988550490366,0.041569615247659,-0.0160714909301153,0.0006382691311432,0.0098111976076247,0.0296396876475998,0.9995120323371852,-0.0367030919565804,-0.0471100277913488,9.7971854926616,0.0484470781624547,-0.0087945038498853,0.0036219116219701,2.9924280999375914,4.509584880646465,3.6438810575195535,1095.8465388307543,1097.6221905278708,1098.878402228807,1109.8958843218863,29.55537732891109,46.246702878163035,13.707751541776492,184.6781367857313,162.4011203695275
9.46,0.5237817245106628,-0.2595651411055055,0.8933955508050117,-0.0010165813028518,0.0419055559898452,-0.0126419796213335,0.0006352776316676,0.0098556636088697,0.029598900127467,0.9995128055666572,-0.0370366537035899,-0.0459075734894121,9.795349705760104,0.0486420753261117,-0.0090406524037929,0.0036728571390147,2.9925484839515817,4.509566849954318,3.6438859222333777,1096.0269169999965,1097.861474001036,1098.778033464664,1110.2715716705588,105.12082833527704,167.966473441512,-96.87907213736557,134.1522154755484,162.40029027236037
9.4625,0.5487965778474913,-0.3648499831150454,0.9388616172859175,0.0007913741513168,0.0426035844999644,-0.0079738320442231,0.0006281357766829,0.0098861521789295,0.0295568664240444,0.999513757206319,-0.0368918489348318,-0.0444237039023044,9.793222040634426,0.0488452627537614,-0.0092689544047377,0.0037146250200505,2.9926692905848222,4.509546570230884,3.6438944932795656,1096.3721429724308,1098.4620228950787,1098.3940068681204,1110.5666453992644,131.71372915151443,271.3249945755791,-176.6533103255721,93.59039609491488,162.3993855247504
9.465,0.5173527490045959,-0.4696701365220978,0.860240730165111,0.0025923123556866,0.0423663820719393,-0.0046170630264648,0.0006156657372955,0.0099087534661366,0.0295134257780781,0.999514834712696,-0.0363970312497414,-0.0427306994558645,9.79082877965932,0.0490569763218008,-0.0094746990583159,0.0037426805286619,2.992790628490563,4.509523473615396,3.643906426599115,1096.685485645754,1099.2180989739136,1097.8947669130364,1110.739523651033,115.93754120392563,346.39208054720774,-229.0306176746527,71.87243059289878,162.39870876343548
9.4675,0.4338394647837855,-0.5788765826010351,0.6954179409994986,0.0045637353932499,0.040760136346671,-0.0025139799188403,0.0005923265410292,0.0099278548181921,0.0294684066503363,0.9995160029933498,-0.0356501193633326,-0.0409974423557354,9.788206965678516,0.0492771289447566,-0.0096540848214567,0.003752765355126,2.992912324991436,4.509497766252365,3.643920454968884,1096.9518306784503,1100.1939832978144,1097.2488537797472,1110.9260075522288,97.61561730973264,459.47726118722227,-313.23179093082774,106.37087355815468,162.3981133847637
9.47,0.2903704363422025,-0.695255495166857,0.4534363571339059,0.0065270750128241,0.0378169296875832,-0.0014614966550951,0.0005599001990401,0.009945575517177,0.0294269217501624,0.9995170858572195,-0.0347003773500679,-0.0392578559870391,9.785404169846029,0.0495050718804301,-0.0098049951723821,0.003741431180458,2.993034830023974,4.509470207912206,3.643935150669375,1097.1735637323027,1101.51548527985,1096.328607958382,1111.271378018824,64.30667769331099,488.7622610527305,-360.6517433117351,158.595626313602,162.39749447569767
9.4725,0.1585661852189475,-0.7746926632483361,0.2536205771179458,0.0070969653018121,0.0351955868199356,-0.0015286653903334,0.00052502315435,0.0099674830086248,0.0293927969233527,0.999517908410548,-0.0336601931274787,-0.0374528568336818,9.782474982553913,0.049739661573027,-0.0099266494948349,0.0037068110366967,2.993158268893216,4.50944125551178,3.643950705137796,1097.2733640669169,1102.6377946030784,1095.4455950631884,1111.7189856837967,26.82465394491907,424.5632781572048,-377.5131873280157,217.82868997533808,162.39705940718997
9.475,0.0490680684280046,-0.8448700838659262,0.0896139820556766,0.006343031941679,0.0329637196263174,-0.0020287122816268,0.0004935133967906,0.0100009121301717,0.0293661836121691,0.9995183885424772,-0.032674581017903,-0.0355388067577889,9.779478495471038,0.049979352645487,-0.0100195900326028,0.0036485064336026,2.993282725263726,4.509412594838693,3.6439667873059416,1097.3076870020273,1103.6383016706357,1094.4410420217423,1112.3605214687007,8.986028982279507,379.93264946652255,-468.066168391642,320.6072461805387,162.3967093722028
9.477500000000001,-0.0262667307977356,-0.941097657553463,-0.0457174533740409,0.0047267884179086,0.0308000948272433,-0.0025388853444639,0.0004694565148174,0.0100489670289341,0.0293497378195248,0.9995184146083183,-0.031804638580904,-0.0335050489854115,9.776476873547734,0.0502221940157087,-0.0100863329083203,0.0035670697110858,2.993409410021841,4.509386103411264,3.6439819732245415,1097.3182942118283,1104.537457850411,1093.1052642212298,1113.3220219147,5.745154044097046,261.5819206231254,-505.5231593357922,371.63673151238635,162.39638900824053
9.48,-0.0368801634441423,-1.0476622975265155,-0.1021821874200412,0.0034038689708755,0.0291481880053192,-0.0027628472066851,0.0004534288223695,0.0101064344595524,0.0293475780620559,0.9995179153013544,-0.0309486841630808,-0.0314075435000285,9.773533386543926,0.050466054384599,-0.010131080685085,0.0034635398986619,2.99353899655385,4.50936243899215,3.6439955906006607,1097.3364127722475,1104.9462112737515,1091.9134262250627,1114.2187051262629,16.70850893361026,82.75562000791808,-478.77739704727423,357.22147860504094,162.39620549277743
9.482500000000002,-0.0088627087486357,-1.1924247733392337,-0.0984584546650756,0.0027130204727351,0.0271967075204633,-0.0029633883769341,0.0004464453011678,0.0101679620096515,0.0293620943233095,0.9995168723942895,-0.0300000859556845,-0.0292840345128799,9.770708461538351,0.0507089329218528,-0.0101590048040143,0.003340181619349,2.9936711297055214,4.5093416195146,3.6440070400847726,1097.4018367564963,1104.9512359504508,1090.711377235994,1115.1081293077248,39.74982427349341,-62.74114087706378,-467.1135562104629,338.0486136523577,162.39610755434123
9.485,0.0272774133672936,-1.3679438159218131,-0.0435874679461922,0.0027195185672308,0.0247352824879671,-0.0033390458931388,0.0004497203895234,0.0102281886345136,0.0293929024303997,0.9995153506715334,-0.0288506457130637,-0.0271563300235437,9.768057396683197,0.0509493310073823,-0.0101757081247676,0.0032002399226188,2.9938059497256844,4.509323740194845,3.644014608527352,1097.5351618936152,1104.6325055693662,1089.577858444011,1115.9089481945243,78.53127396541504,-192.4589211446045,-415.43605376262224,282.97170224095805,162.39607854992047
9.4875,0.039364180905979,-1.5695271068406247,0.0732390054865054,0.0034260263899335,0.0215982470517123,-0.0038321612735835,0.0004596436291617,0.0102840857151785,0.0294361147169967,0.9995134966475102,-0.0274402412449477,-0.0251254496054922,9.765627822051629,0.0511865890462853,-0.0101867422702954,0.003047693130371,2.9939424460569657,4.509307902097764,3.6440186055216777,1097.7944931263235,1103.9889413447277,1088.6341969671803,1116.5229878189296,156.9334973273026,-333.3839137185284,-345.27022206474675,215.2189162477616,162.39612869338595
9.49,-0.0108440060546167,-1.8182773129237877,0.2779906506358559,0.0045035656953267,0.0169949864547094,-0.0040527110272637,0.0004716359638673,0.0103352877330083,0.0294860264901981,0.9995114849698804,-0.0257624571005496,-0.0232952248858,9.763458714988365,0.0514211090142228,-0.0101973774573588,0.002886878086597,2.994079098363194,4.509293769430736,3.644020079787525,1098.3198293802518,1102.965586000773,1087.851507333687,1116.9850427757633,237.384690993078,-398.1336741646256,-214.26963760227125,121.8946987293081,162.39627329464838
9.4925,-0.1230506144481142,-2.0101066694349483,0.4893424517332995,0.0052600235600912,0.0123499481639728,-0.0036295614283098,0.0004821119637052,0.0103806058790645,0.0295380196466675,0.9995094683537856,-0.0237969167785791,-0.0217360383835982,9.761580562172451,0.0516543895729636,-0.0102125895251774,0.0027217613652257,2.994214506520215,4.5092814265391885,3.644019624112557,1098.9814165812886,1101.9982729739047,1087.5628487791691,1117.132461312576,315.78020517790327,-393.5413832472317,-31.13210577266241,13.820266290256429,162.39645760067407
9.495000000000001,-0.3130169755527135,-2.159762553128668,0.718482511377718,0.0059548962399746,0.0070629403691887,-0.0025296374823408,0.0004895862024455,0.0104140814856669,0.0295873766538383,0.999507651558594,-0.0214328513779484,-0.0204663905611854,9.760016017107183,0.0518889291766747,-0.0102366503209104,0.0025552591945257,2.994348155314817,4.5092711798102885,3.6440181824334337,1099.8987304061416,1100.9978790845369,1087.6958468048235,1117.0541441072144,455.000911784802,-440.024926483124,153.85634341616748,-78.0241960818208,162.39669866636677
9.4975,-0.6135793842679081,-2.2643926723248966,0.976840552074246,0.0063471581811241,0.0004578093450734,-0.0003269154494004,0.0004998114991787,0.0104277602453745,0.0296308861984581,0.9995062099258408,-0.0185214519287157,-0.0193526653684082,9.758779847633873,0.0521278887582346,-0.0102729718639217,0.0023894383017298,2.994480150388193,4.509262193310383,3.64401622605804,1101.2564211402128,1099.7981483414887,1088.3321304962503,1116.742340332167,524.9511397271043,-442.5489867376626,302.26970017626275,-144.39905487113865,162.3970406934194
9.5,-0.8930789516547271,-2.273536021837163,1.1472099744409872,0.005442555856085,-0.005280290690439,0.002536189101084,0.0005179052530546,0.0104209266884731,0.0296663781299635,0.9995052111655262,-0.0150612088363518,-0.0182595847078844,9.757877586126531,0.0523747265634646,-0.0103238415840134,0.0022262789331354,2.994610672334228,4.509252629160148,3.644013816596096,1102.5234861047763,1098.7851341508488,1089.2071953057048,1116.332148832859,506.44244582282306,-418.0302520090585,398.23425952348504,-189.76950256841653,162.39735985349685
9.5025,-1.1460615409283417,-2.187606622185432,1.2352187144682063,0.0024162529997637,-0.0113769471146056,0.0065333238845073,0.0005427582962498,0.0103934136482842,0.0296920432085892,0.9995047103663368,-0.0110708078809332,-0.0171655997092654,9.757307681805017,0.0526329255574379,-0.0103902868394678,0.0020668739277311,2.9947401459158023,4.509241852327726,3.644011707638061,1103.7886333693264,1097.707997081444,1090.3233017938671,1115.7934928193251,517.0985754358854,-502.3012668036369,507.0657966306161,-262.7324621135402,162.39770339074607
9.505,-1.3504188243997095,-1.969975835868088,1.2199410919222768,-0.0030857606038535,-0.0185364676466549,0.0117350623003916,0.0005676570160199,0.0103448894446087,0.0297072570245261,0.9995047330512548,-0.0065747533625725,-0.0161539094051659,9.75706288215395,0.0529056855213049,-0.0104722424999272,0.0019114070146128,2.9948691010352992,4.509229376115765,3.64400985721422,1105.1089789819564,1096.2736278168304,1091.7425242888582,1115.0184865222911,424.48479851284634,-556.3529532023534,499.5773865181165,-303.04934265245527,162.3981321138649
9.5075,-1.4033302030381687,-1.7023758530513695,1.1056339265973996,-0.0082646694252575,-0.023649533279691,0.0155596440849132,0.0005858114542794,0.0102806018875469,0.0297123229496494,0.9995052194107136,-0.0017115718685758,-0.0153041463253287,9.75713077766607,0.053195662965242,-0.0105686942909182,0.0017599597438511,2.9949974344195724,4.509214835198814,3.6440088630695775,1105.9110573618912,1094.926232315432,1092.8211887264583,1114.2782461060626,236.98194916296583,-571.3560066081072,371.9493908328617,-311.21213834377886,162.39849532201097
9.51,-1.3224020531913172,-1.3703457162498784,0.905227980509491,-0.0129507929043164,-0.0273096902329967,0.0182607027467554,0.0005959439354971,0.0102053075262457,0.0297114986507496,0.9995059946732884,0.0033887437049735,-0.0145898543804168,9.757496136390381,0.053504714678132,-0.0106782491113262,0.0016121359710092,2.995125490072019,4.509197899990299,3.644010064866934,1106.2938887277708,1093.4168477837904,1093.602271243022,1113.4624258305723,78.94344807640341,-624.5275131402583,244.66670442858043,-333.8062394092891,162.39885627965043
9.5125,-1.1427636322678836,-1.0086077961316544,0.656822521015059,-0.0167069232180045,-0.0297371248807541,0.0200010866649831,0.0005997398294501,0.0101239386933242,0.0297089320131287,0.9995068861392418,0.0085917947039582,-0.0139302278347664,9.758141528509462,0.0538337750510541,-0.0107990168984825,0.0014673809855677,2.99525365233651,4.509179136154417,3.644013639556912,1106.3057746022732,1091.80359474973,1094.0445222486014,1112.609214909016,-73.59702612014857,-654.8134854268369,92.76286194156825,-342.619089883775,162.39920974555375
9.515,-0.8757861842181042,-0.6364941533566124,0.3801034605046853,-0.019107736644064,-0.030980498032193,0.020782808731251,0.0005974786892574,0.0100441583863513,0.0297078044462774,0.999507722108759,0.0137079979484312,-0.0132759580047281,9.759047477903584,0.0541827171695255,-0.0109287855035047,0.0013255701550125,2.9953829234667095,4.5091605107326815,3.644018870421733,1105.92590359717,1090.1427803566555,1094.06608555273,1111.7493303811534,-224.67787702339515,-713.9825745313884,-62.90812495141268,-370.2938936814744,162.39954816931737
9.5175,-0.502067847755316,-0.1993680428882534,0.0473020737677746,-0.0205693803704286,-0.0315484942131876,0.0208835802596016,0.0005911004200893,0.0099657293877292,0.0297155592349964,0.9995082787633732,0.0187032015704351,-0.0125578085588744,9.760194146169203,0.0545502377876948,-0.0110656693828182,0.001186264019667,2.995515145142074,4.509143070459066,3.6440245626052743,1105.1823852171565,1088.2336818770739,1093.7299816238444,1110.7577454406087,-288.3137512811691,-663.5480766879892,-148.37216471390315,-351.85361837914286,162.39993013893783
9.52,-0.1778707809584726,0.1499873484776127,-0.2133995998912741,-0.0208213475576495,-0.0314711926862125,0.0203869915901667,0.0005861836055375,0.0098912357797418,0.0297363532205052,0.9995083991802716,0.0234926320509717,-0.011642677747937,9.7615600265507,0.0549341608639968,-0.0112071984413053,0.0010501277978876,2.9956507933393457,4.509125862670968,3.6440297736373832,1104.4843348407646,1086.8250399732165,1093.3242247291607,1109.990062289258,-257.48037377812193,-500.84224653443374,-136.0198653612557,-292.27320351424146,162.4002241354522
9.5225,0.1306344468296005,0.4812923581655744,-0.4426686004746188,-0.0202771216370812,-0.030885959404253,0.0193173173502565,0.0005869258494368,0.009824295128469,0.0297701671837596,0.9995080430595206,0.0279742752903635,-0.010433357987257,9.763122062028083,0.0553318086204531,-0.0113501101034229,0.0009187076096614,2.995790106351888,4.50910778274087,3.644033046299034,1103.8949833482657,1085.729470644401,1093.049882297038,1109.2963794230375,-203.98090248005693,-387.6217931336972,-33.36977874072933,-288.1163003964507,162.40048875319374
9.525,0.4615825021671716,0.8546897327333652,-0.6713396816253357,-0.0188306176159508,-0.0294358018985471,0.0173599619033615,0.0005930171369701,0.0097691778529565,0.0298176912445574,0.9995071469417652,0.0320353560111594,-0.0089307884348979,9.764855645363939,0.0557403002814463,-0.0114908988743944,0.0007941917765371,2.9959333510556214,4.509088411769135,3.6440327358660185,1103.464430328364,1084.8869310075477,1093.157375835457,1108.5494807872756,-105.1518363442692,-219.96559142680607,140.77915708738217,-259.97473374828303,162.40076860895982
9.5275,0.6967866818972822,1.1390551693237827,-0.8197386802019505,-0.0170430736077205,-0.0274033939617508,0.015256204761148,0.0006018721238862,0.0097330026611598,0.0298734712479719,0.9995058037303404,0.035511691815507,-0.0071886528146435,9.766734688685759,0.056157122606665,-0.0116251831078333,0.000679368003786,2.9960791372083175,4.509067249173733,3.644030333967896,1103.3692241665444,1084.6296426872675,1093.7537780824748,1107.9965057542963,5.008427065878182,-5.855173373630606,354.6656582017727,-205.89799560284064,162.40096842067095
9.53,0.8881937402746954,1.3816727715306951,-0.9255257081912198,-0.0148911777858443,-0.0243512509340778,0.0129537689140939,0.0006145176237398,0.0097196444050039,0.0299298248468591,0.9995042044250128,0.0383102032991428,-0.0052019606259778,9.768732542868094,0.0565803641793764,-0.011748345815633,0.0005767042569724,2.996225566867828,4.509043156130013,3.6440268641871,1103.4894724636936,1084.8576551406795,1094.9307041264656,1107.5199908092616,64.32469007217054,169.2896804071287,556.385445721848,-175.6753661596302,162.40113203002872
9.5325,1.0463718049075927,1.5770863348706925,-1.0003160599135876,-0.0127091024021159,-0.0204958182397121,0.0106785778278866,0.0006321694886049,0.0097280092001932,0.0299766005802925,0.9995026650649108,0.0404407297513776,-0.0029739951455902,9.770822451763804,0.0570087869623133,-0.0118558272076438,0.0004878499574801,2.9963711275819613,4.509016148900001,3.644022077855277,1103.690847616905,1085.4760910893033,1096.5357053110845,1107.118128923498,72.6207261347895,331.11183291688855,712.5116661622792,-138.2676690186838,162.40126510807136
9.535,1.1690904892722307,1.703085771654663,-1.0442994424687067,-0.0104135639509943,-0.0158851231796988,0.0085423106487348,0.0006545045473542,0.0097490327595485,0.0300071085891618,0.9995014771510222,0.0420735011195417,-0.0005513192213273,9.772978434022738,0.0574415032738407,-0.0119441707969233,0.0004130585222534,2.996515935524936,4.50898778066019,3.6440150170260632,1103.8525760943676,1086.5132143052642,1098.4932624572775,1106.828652464168,33.31627104162843,530.5938662009031,884.1470030189098,-94.98967970709673,162.4013615210326
9.5375,1.2763278406080718,1.7682892614995995,-1.0664295815524438,-0.0070924522277817,-0.0099923382391454,0.0057520840293038,0.0006813114043317,0.0097761181945002,0.0300227430516497,0.9995006667081524,0.0433361096741465,0.0020155587079809,9.775175656854302,0.0578775637712063,-0.0120118507449552,0.0003521428562461,2.9966605194572224,4.5089587863084,3.64400473107296,1103.8574289721134,1088.1290604203073,1100.956440326178,1106.6431805249626,-41.145614690224576,632.6869593481126,875.5036438690689,-37.434031752985504,162.40143598097117
9.540000000000001,1.3294081544016796,1.7569536095983147,-1.059271755908875,-0.0040459491079253,-0.0054028471477028,0.0030829931541304,0.000715877065381,0.0098076611809024,0.0300255662729591,0.9995001914383612,0.0442661063790311,0.0047427828628564,9.777391497097913,0.0583158863335505,-0.012058573052893,0.0003044884504531,2.9968052668400302,4.508929881880944,3.643993053673531,1103.6468480209164,1089.6766491020053,1102.8707806766236,1106.641482305403,-130.1042395237597,631.2651553259379,688.1671656125325,32.16354635537252,162.40146502082902
9.5425,1.3395247631711735,1.6941568732371808,-1.024815157515059,-0.0010051814734079,-0.0015364040803364,0.0004769758270064,0.0007576765037233,0.0098384646753486,0.0300168885942959,0.9995000726960636,0.0449741823447021,0.0075676659528951,9.779607217388609,0.0587551342756267,-0.0120851171251855,0.0002676256137879,2.9969510839792943,4.50890253375687,3.6439829070823184,1103.2069077744943,1091.2853861969375,1104.3972761542411,1106.8039982567395,-235.71114965557317,686.8868351936728,547.0201346219889,104.76086359128468,162.40146157468618
9.545000000000002,1.2935846770225583,1.580019693779729,-0.9534940839314971,0.0028361558689984,0.0026171436105651,-0.0022555663204005,0.0007980556886267,0.009870429607995,0.0299946512892344,0.999500370804188,0.0454322397439692,0.0102730282743512,9.78180848488851,0.0591937146669045,-0.0120928804772384,0.0002384330594344,2.9970988065834567,4.508877228833054,3.643976337838088,1102.4682922726388,1093.1110832779727,1105.6058813497327,1107.1652866233594,-292.6292445486197,628.9409381072688,333.6238680753677,152.06641200882882,162.4014219418113
9.5475,1.2000244695987374,1.4627085876514208,-0.8704286664971858,0.006431482100379,0.0060835717216934,-0.0043468544776167,0.0008287231892243,0.0099117823286667,0.0299602390593131,0.9995009782498024,0.0454927722156026,0.0126537431441733,9.783985980308925,0.0596296682085873,-0.0120844288283002,0.00021364719491,2.997248116443632,4.508853425002443,3.643974362565497,1101.7437615517515,1094.4300908874732,1106.0653954946179,1107.5643303167835,-293.4375692757836,466.20612837961727,86.99713044919467,165.39935552597996,162.4013608257948
9.55,1.0464298984333091,1.329078837353983,-0.7629262451693796,0.0103515706365522,0.0097186506295294,-0.0066267480073078,0.0008518478015403,0.0099552143582198,0.0299209953156957,0.9995017397698258,0.0453217189665475,0.0147028326394701,9.786136227440004,0.0600607281154576,-0.0120635613456146,0.0001880792486767,2.997400265718462,4.508831471396097,3.643976270724463,1101.0011044262596,1095.4421139198714,1106.0408670019788,1107.9922834009894,-308.72140988185214,367.80927912931185,-81.35159985266547,174.8738769357896,162.40127232375164
9.5525,0.8092729200120039,1.1590354129029716,-0.6085491353634435,0.0144621871064778,0.01365878545065,-0.0093952519971267,0.0008706767380272,0.0099909803727415,0.0298789420251097,0.9995026817616626,0.0451359890828982,0.0164387933323529,9.788260287041613,0.0604847759333859,-0.0120337144370022,0.0001566066822328,2.9975555525566087,4.508811619295432,3.643981337992365,1100.2001545023422,1096.26913728312,1105.6586374953545,1108.4386997014626,-264.7073092010104,245.9684565872101,-163.4664679908708,138.50237263366608,162.40113649855044
9.555,0.5971716433349595,1.0204923876827516,-0.4680969366038871,0.016573581058434,0.0160990420204361,-0.011108216870283,0.0008837221433146,0.0100202050617246,0.0298353295081556,0.9995037477870912,0.0449384031670697,0.0177999980808938,9.790361940334067,0.0609000096516532,-0.0119982182533406,0.0001162430937508,2.997713357011373,4.508793540737702,3.6439887317941007,1099.6775678802549,1096.6719562028072,1105.2235346620248,1108.6847952641576,-167.24866510569086,122.10535243178037,-162.22808958939106,59.85190684158598,162.4010001030767
9.557500000000001,0.4188750167460591,0.8998868110412533,-0.3357317440426886,0.0169339967898696,0.017765323898735,-0.0118402180954113,0.0008924324331343,0.0100439942499819,0.029795373239157,0.999504762663932,0.0447337488197877,0.0187882898414747,9.79244625255054,0.0613051145856377,-0.01196062546102,6.544959197459248e-05,2.9978737410267224,4.508776548137892,3.6439977250312983,1099.3639111768136,1096.879664045279,1104.8474970474072,1108.7379592356704,-86.19484725262299,70.53469119144927,-125.69562081601217,-15.42959645439382,162.4008413828826
9.56,0.303376313088313,0.8005157293202079,-0.2269772216050132,0.015944497714867,0.0192128783897596,-0.0119731618764031,0.0008958777334346,0.0100661876479562,0.029763099964819,0.9995055638908192,0.0444700946066876,0.0193675157337745,9.794517411469393,0.0616996257311941,-0.0119239125497821,4.692495421335834e-06,2.9980357026549926,4.508759039786543,3.644006934708524,1099.2465936439917,1097.0246296587643,1104.5950565579446,1108.6076472818856,1.6101314118717276,65.25266092504742,-71.65980624687624,-96.69817510195676,162.40066555687756
9.5625,0.2850359919517955,0.7254756410924574,-0.1614660107382487,0.0139454013595692,0.0206899724837955,-0.0117056123213813,0.0008963358540929,0.0100854960481148,0.0297378254684307,0.9995061787162997,0.0441942157912909,0.0195686763611073,9.796576686341535,0.0620841646897599,-0.011890019796357,-6.42642507205954e-05,2.998198353514116,4.508741072046825,3.6440141809907294,1099.371961833873,1097.205927349904,1104.489198016173,1108.254468360161,108.29426543125344,106.50617010107752,-32.75343901846751,-202.3438430922345,162.40047111922078
9.565,0.3575135772214149,0.6532536030161272,-0.1392555646432683,0.0121300448187641,0.0225748823343958,-0.0111927512088112,0.0008996045520691,0.010102571897217,0.0297199194868543,0.9995065825443958,0.0439118176775844,0.0194990894647542,9.798619880844825,0.0624603254329874,-0.0118606284405376,-0.0001376067945907,2.9983609475181527,4.508723104332434,3.6440171614944306,1099.7880649711478,1097.5571605092698,1104.4312893628523,1107.5959280664247,191.81813559518287,152.99709451849023,-31.155597288984286,-274.55793137810616,162.4002193492655
9.5675,0.44840028600519,0.597565613061447,-0.1617698104512585,0.0126107698760109,0.0242625830522895,-0.0109263491268372,0.0009080336913566,0.0101182917120036,0.029709486054708,0.9995067612270084,0.0436156461446321,0.0192046250429517,9.800636014356945,0.0628306251245045,-0.0118370447391483,-0.0002102691477883,2.998523432298213,4.508705032846319,3.6440144040956017,1100.331052511849,1097.9709128224968,1104.333420029728,1106.88167870327,248.6307427811492,179.28794373753516,-71.8335034420194,-309.97963035128737,162.3999967334028
9.57,0.4903930491241959,0.5352945552933056,-0.20799289218158,0.0156241342313732,0.0260523725555515,-0.0110862347356747,0.0009203228880851,0.0101379954536201,0.029699328526396,0.9995068748194932,0.0432011056234626,0.0186685161971342,9.80260603652066,0.0631985262342462,-0.0118193392110962,-0.0002761047719676,2.9986850364673088,4.508686282107877,3.64400692639772,1101.0312186850535,1098.4536002279576,1104.072121845642,1106.046029914668,329.9026836977393,205.16974569649835,-163.6741813078841,-380.281145102602,162.3997642802262
9.5725,0.4058459634852498,0.4466691339263796,-0.2594739892121556,0.020321575511514,0.027966315247252,-0.0118953232418727,0.0009335877393279,0.0101699955241228,0.0296822579698768,0.999507055563373,0.0424961500999177,0.0178492315114045,9.804502566944162,0.0635680392557426,-0.0118073146840413,-0.0003287677576935,2.9988445704464515,4.508666912568498,3.643996428202252,1101.9805659303374,1098.996761550979,1103.5150491231889,1104.9802729777575,354.4829676901273,176.88703523378499,-240.5700722778953,-387.7640223848933,162.3994784944553
9.575,0.1991470803436865,0.3628321466710152,-0.2749679511288526,0.0235305947236938,0.0291292524990151,-0.013037993781204,0.0009472893020792,0.0102172206713444,0.0296547729903843,0.9995073787865149,0.0414273778709715,0.0167514253376359,9.806290830571037,0.063943270114976,-0.0118010566658747,-0.0003632751099951,2.999001852638263,4.5086481742726034,3.643984316669736,1102.8036335235047,1099.3380354041267,1102.8692714842523,1104.1072098027432,322.90607790400327,102.20726114751636,-280.96645360024166,-328.57051962373,162.39923828963012
9.5775,-0.1327435781216926,0.2757073015818092,-0.2385896090919899,0.0249685852123753,0.0298147560856435,-0.014480846661837,0.0009651446776594,0.0102757447676462,0.0296188201429102,0.9995078221234696,0.0400506707379052,0.0154617119800753,9.807930128967524,0.0643279203292285,-0.0118011645420683,-0.0003765419299309,2.9991572845065364,4.508630022512314,3.643970997025196,1103.5950963198577,1099.5077978567167,1102.1102168551874,1103.3374203796386,303.8499304822075,39.777926422683514,-309.9939729214091,-277.79204094323245,162.3990007019768
9.58,-0.5313243395383597,0.1921187551880806,-0.1498436901903682,0.0246523656081989,0.0301877597197461,-0.0159916264064727,0.0009891288848708,0.0103404531235357,0.0295790786952282,0.999508296759152,0.0384378005642913,0.0140342224087178,9.809375819789917,0.0647249134018091,-0.0118083257435806,-0.0003670144468751,2.9993118427949543,4.508611451962956,3.6439567318995927,1104.3228831759154,1099.53692503624,1101.3193016196456,1102.7182495980271,268.92587481412085,-12.284514925297742,-315.32235449450945,-197.32266062732663,162.3987688954234
9.5825,-0.9515883044818242,0.1184332492326244,-0.0008027931611059,0.022354199926057,0.0303138469775628,-0.0170257695116962,0.0010178113551651,0.0104032841388988,0.0295416148769757,0.9995087074069035,0.036711651204217,0.0124566237954975,9.810582058559618,0.065136085197279,-0.0118231185741149,-0.0003350910708728,2.999467147898551,4.5085926432344365,3.6439428010502017,1104.939725693928,1099.4463752820902,1100.5336050827152,1102.350807076502,236.70226841041705,-48.79853272558795,-344.6180655648648,-89.65228332884598,162.39854788726493
9.585,-1.4070449580064717,0.0444834081012326,0.2256989031143059,0.017882613079086,0.030321758168711,-0.0172784373238074,0.0010485341012868,0.0104592855120265,0.0295129324932431,0.9995089161915072,0.0349308412324406,0.0106960608451947,9.811504154724227,0.0655620545159178,-0.0118459417214704,-0.0002823369548565,2.999624801306952,4.508572967149895,3.6439299915587338,1105.5063945179677,1099.292932372612,1099.5962112918212,1102.269988181383,170.25036573274588,-51.828764095890705,-348.5526947272229,35.78681241401123,162.39829912030933
9.5875,-1.7018151393220846,-0.0058503320364194,0.4286523112606137,0.0131327538177396,0.0302781646089582,-0.0166323960309979,0.0010777491532011,0.0105086954120772,0.0294962118114172,0.999508831534628,0.0330514843616513,0.0087072009117661,9.81210125918133,0.0660023766545642,-0.0118766234740701,-0.0002110920921997,2.999785590537603,4.5085520330142606,3.6439187480838497,1105.790977522592,1099.1872314616107,1098.7908416090788,1102.5297411385723,62.76220142632494,-31.73957948297988,-334.38117088560205,170.75646986708065,162.39810769028443
9.59,-1.8727649676727929,-0.047721523255814,0.6112025502600101,0.0077673339882545,0.0302219857281517,-0.0149663467288306,0.0011013787115073,0.0105523659270248,0.029491705909196,0.9995084446764824,0.0310197419520314,0.0064364795287236,9.812339425729347,0.0664557494529821,-0.0119146340431568,-0.000124852353512,2.999948880809788,4.508529888990979,3.643909932600104,1105.8202055250993,1099.1342344751972,1097.9243054373935,1103.1237705307183,-57.33893512057197,-16.704939891954975,-397.11195062790176,326.91591371232926,162.39793448540007
9.5925,-1.9159403077906405,-0.0928025194551394,0.7692429891017146,0.0011499509308755,0.0301383309252897,-0.0117226070350176,0.0011159935731453,0.0105928709742453,0.0294928080275113,0.9995079314098886,0.0287534368614078,0.003846388546868,9.812193948455826,0.0669203330299654,-0.0119587451828168,-2.781174906375144e-05,3.0001135291714327,4.508506723645964,3.643902970835727,1105.504282846989,1099.1037067621508,1096.8052818559397,1104.1643207071336,-175.75481139007914,-15.798664376777456,-418.0608145514981,421.46341547043227,162.3977486676646
9.595,-1.8176544947549624,-0.1286299871106156,0.8331510372115206,-0.0042603852790679,0.0300291967895814,-0.0084379534389088,0.0011235796912289,0.0106326287622224,0.0294931268359078,0.9995074571806196,0.0261840519167594,0.0010071648050389,9.811651499926521,0.0673936810024967,-0.0120081276663343,7.527428060322236e-05,3.0002783842752647,4.508482991238704,3.6438970229744014,1104.9414314681487,1099.055241153313,1095.8340013646357,1105.2310876080708,-276.33523048125653,-38.93159070043413,-382.8619115796157,446.4160457006285,162.39761216950768
9.5975,-1.596806582144806,-0.1635784137077283,0.8269508635067241,-0.0093866566632651,0.0298297018898701,-0.0053586469035342,0.0011284111629059,0.0106654111923162,0.0294935370783683,0.9995070597371436,0.0234234003147767,-0.0019700000040927,9.810712512156336,0.0678725251004501,-0.0120634094412943,0.0001780731687449,3.000443986429614,4.508459301874286,3.6438924620322495,1104.1226066945826,1098.9090488086488,1094.890972298041,1106.396400935637,-388.6957673354891,-102.494288363116,-387.07744309248,510.06742636906125,162.3974938903762
9.6,-1.230733329917085,-0.2023389395325961,0.7647537705467533,-0.014480923323778,0.0294270060093865,-0.002566733423033,0.001132290795823,0.010685727254442,0.0294960986958806,0.999506738321493,0.020578565196254,-0.005019825428076,9.809391205155345,0.068352834325571,-0.0121258947409715,0.0002740032964781,3.0006113171056272,4.508436305026639,3.6438902319352984,1102.9979526314717,1098.5427697114978,1093.8986141491737,1107.7814247399156,-403.775247659251,-173.78817563637324,-324.39070781651407,489.71502263545136,162.39737132815847
9.602500000000001,-0.884743972919451,-0.2285982559570568,0.6971886229394709,-0.0172093326037486,0.0289362910056693,-0.0011360721140614,0.0011294925889674,0.0106945440034942,0.02950331589161,0.999506415538453,0.0176381138075684,-0.0082184805677957,9.8077148015814,0.0688298360136064,-0.0121973975153815,0.00035718140114,3.0007813397303846,4.508414573351286,3.6438906587859385,1102.103730456286,1098.0401079304668,1093.2690187589585,1108.8449760488147,-305.934660051796,-243.85652642887007,-193.5928148889768,392.4019311586858,162.3972839867236
9.605,-0.5563817406310678,-0.2434919240216995,0.6496645483938295,-0.0181491738580824,0.028334914552666,-0.000434556960138,0.0011195266962365,0.0106914297794808,0.0295213393532477,0.999505912951224,0.0146342316863343,-0.0115380223132416,9.80572357755806,0.0692981023118511,-0.0122805395317863,0.0004219772989847,3.0009559094832174,4.508395091442429,3.6438946878301657,1101.4682793312124,1097.3234870793533,1092.9306500747286,1109.7434343957093,-183.43376053266195,-316.4893830766407,-77.28589184327292,325.1926312291936,162.3972104020106
9.607500000000002,-0.2845307413881709,-0.2451945571033713,0.6386743270217639,-0.0177744573938291,0.0277031245423142,-4.994045854434668e-05,0.0011040216966443,0.0106818952928868,0.0295508692042501,0.9995051458382084,0.0114975768233155,-0.0149026463882851,9.803468590371187,0.0697521330629845,-0.0123772361088692,0.0004644355506552,3.0011348144631964,4.508377053291932,3.6439019121646696,1101.186561653623,1096.4576610150839,1092.8825892997422,1110.4709392049604,-8.476376842556286,-367.7110892658952,57.105025172597834,246.2069165970696,162.39714704364613
9.61,-0.1150511356776691,-0.2270652846424964,0.6802145740065992,-0.0162738127417861,0.0270227373447892,0.0003597858973417,0.0010885706685914,0.0106665907886511,0.0295900851625174,0.9995041542202202,0.0082696270037497,-0.0181597340265625,9.801010859475593,0.0701867793441604,-0.0124888225362233,0.0004813044413037,3.0013176155200805,4.508359746212779,3.6439106688194784,1101.4258974469997,1095.484931633024,1093.2161752005916,1110.9744689786944,223.356886157682,-429.1980116684738,233.85255169579048,170.7068766411982,162.39709460285576
9.6125,-0.0406712267171739,-0.179035961408307,0.7790558075332658,-0.0141510734729381,0.0261209127790505,0.0014070415931641,0.0010781693214515,0.0106431804089599,0.0296345353794126,0.9995030917325788,0.0050620503908502,-0.0211691278773095,9.798418494035872,0.0705977207157047,-0.0126158395308362,0.0004705363752909,3.0015042853198155,4.508343657155952,3.643919124415633,1102.3033460844115,1094.3116709567412,1094.0518520582211,1111.3244735881665,398.103984060373,-415.5378106082285,369.81549922187367,89.77597225246842,162.39704248853909
9.615,-0.0663853712921124,-0.117356369772761,0.8793378031303064,-0.0130892782443553,0.0253908593880298,0.003072545335792,0.0010715522639745,0.0106179366313833,0.0296784070325896,0.9995020654664634,0.0018243236291369,-0.0239085441086006,9.795761814788625,0.0709818534838648,-0.0127580327690839,0.0004329192413493,3.001693053676844,4.50832883837742,3.64392617521014,1103.4164173673018,1093.4072425799827,1095.0652526967012,1111.4233488399568,479.743863951312,-335.2041837897771,449.38462366662714,6.189831319899308,162.39700676818953
9.6175,-0.1334142400880725,-0.0387545764396707,0.9612172893259155,-0.0135940714159757,0.0250070136495571,0.0057564509754269,0.0010716747976046,0.0106003038390317,0.0297170531212229,0.9995011119334044,-0.001546175454426,-0.0262727631356056,9.793111164518056,0.0713375353201221,-0.0129145196648654,0.0003714300398959,3.0018825323275093,4.508314621179918,3.643930225635841,1104.7020654041676,1092.6356500377926,1096.298775176554,1111.355422744766,544.9188059738448,-307.5240838787496,556.1811055808033,-60.41322062791516,162.39697751044255
9.620000000000001,-0.1944375502986315,0.0628130987814119,0.9972957300057718,-0.0155710821570659,0.0253091365673077,0.0098243164245734,0.001078799723635,0.0106020298491947,0.0297495599993968,0.999500135044822,-0.0051942014109995,-0.02821096214926,9.790533633749336,0.0716646172246065,-0.0130839968851146,0.0002906433105124,3.0020715259769073,4.508299551891304,3.6439300395202334,1106.1410113971715,1091.8696221605887,1097.8461582246057,1111.1212827368172,471.9129424789288,-259.23102212305406,546.2650297870879,-106.56119494081548,162.3969481100614
9.6225,-0.1909985279275815,0.1447049946731378,0.9565694003290268,-0.0175054763923367,0.026147373171774,0.0132348472415195,0.0010842312903987,0.0106224441285914,0.0297765340392036,0.9994991261558602,-0.0090250784628863,-0.0298589091367097,9.788092231466257,0.0719644147390975,-0.0132643936016956,0.0001939401456311,3.0022598980528943,4.508282917934944,3.643925701728008,1107.0616301165624,1091.3394949271772,1099.03010032549,1110.8226167700618,282.7028835384788,-197.18827651385536,413.35788000064025,-136.72691625295548,162.39692709611728
9.625,-0.1089023778767254,0.2202502893382798,0.8376710315093383,-0.0190758011288534,0.0272041230221362,0.0160909657895546,0.0010826803266811,0.0106594728588354,0.0297978783242443,0.999498110639392,-0.0129161205967036,-0.0312914634332466,9.785843011180784,0.0722395416847372,-0.013452676317175,8.473627122955863e-05,3.002446800668675,4.5082636176628235,3.6439183557175903,1107.5545258148636,1090.8836807780197,1099.9129476246085,1110.4376481555523,113.96826978341316,-187.77251316973076,283.3981593729841,-184.17889374849463,162.39690820211058
9.6275,0.0778702648021808,0.3122608419867923,0.6181369013062036,-0.0202093649845164,0.028246323131594,0.0186733074962865,0.0010717348786838,0.0107106438734391,0.0298132998814554,0.999497125114315,-0.0167393841347978,-0.0325333597252673,9.783833373177423,0.0724935959326179,-0.0136451758134341,-3.387952658055e-05,3.0026313736816936,4.508240779683137,3.6439100219543192,1107.6314714654795,1090.4006323613287,1100.4470911223543,1109.9017223013195,-44.31913236816616,-164.18640522412875,93.50980001516648,-203.65624884240327,162.3968862638174
9.63,0.2901548903257386,0.4024120099894165,0.3890020616509546,-0.0203950562674523,0.0288216657889021,0.0200191102098405,0.0010524711208107,0.0107657567412156,0.0298245081481053,0.999496224480766,-0.020220522586606,-0.0335521728652471,9.782102374808183,0.0727306937585866,-0.0138382857684525,-0.0001604550392659,3.0028147084255155,4.508214994122476,3.643902939845834,1107.3329301530227,1090.0627487518989,1100.3804966246844,1109.4193669113404,-167.92299772948456,-112.27568585075524,-133.01416196980165,-192.5294961615845,162.3968673567503
9.6325,0.5286199760695386,0.5209862203326037,0.1375020080551325,-0.019627295846234,0.0292183380488473,0.0205579749854031,0.0010239872951514,0.0108209045072573,0.0298313026444999,0.9994954566318228,-0.0232177849864332,-0.0343570241007841,9.780677188846653,0.07295518727961,-0.0140282896493456,-0.0002932070288609,3.0029975013827,4.508186452577176,3.6438978825068538,1106.791856476832,1089.8392539320748,1099.7820203125054,1108.9390748205115,-234.8696721427144,-60.04121292495541,-313.6073085207214,-185.27145291454008,162.39684634242673
9.635,0.7589569504426894,0.6680961090304086,-0.1130087074776625,-0.0179216418447881,0.0296876621709141,0.020470895926895,0.0009847264685077,0.0108785250931367,0.0298333960056938,0.9994948052435368,-0.0257236755641043,-0.034972383542569,9.779572467667757,0.0731713424484597,-0.0142119879396888,-0.0004296923880171,3.0031795265560746,4.50815544948342,3.6438948037540415,1106.1585817923094,1089.762542687274,1098.812460082081,1108.4930096467679,-253.83943081738505,16.999747547694895,-446.11298608781294,-162.09925484606367,162.39682250486487
9.6375,0.9433212492614588,0.8431177205410624,-0.3403363579650847,-0.0149727855333616,0.0306061080602812,0.0196249211947542,0.0009379504355987,0.0109350983715853,0.0298375095259105,0.999494101381377,-0.0276227619908901,-0.0353375999391041,9.778792804323592,0.0733829079476306,-0.0143880716116553,-0.0005681378422809,3.0033615531688174,4.508122915742866,3.643892468983673,1105.5226593227449,1089.9242526698133,1097.551455382066,1108.128578546281,-262.9308857409385,135.5574528420463,-572.2442541553406,-131.23394920260347,162.39679397606395
9.64,1.0764177552063168,1.0591635858817867,-0.5623406620163178,-0.0102460309016332,0.0327202168563835,0.0176813611589729,0.0008884316786208,0.0109911715047934,0.0298487097232582,0.999493181195425,-0.0288892908775191,-0.0353646120562426,9.778330589315134,0.073593204038015,-0.014556083387348,-0.0007057887194715,3.0035440014149977,4.5080899381279425,3.6438897127219794,1104.8439273636045,1090.4403299514845,1095.951238811304,1107.8368399007547,-230.25423188482847,241.82875993074316,-564.669960712466,-75.73199713757873,162.39675258971707
9.6425,1.1055122434791516,1.2150792496642628,-0.6932897460313794,-0.0060338582201602,0.0355904067410894,0.0153165108155474,0.0008395780233977,0.0110500099991614,0.0298656077002508,0.9994920477115096,-0.0295621377292651,-0.0349938582844343,9.778166222844495,0.0738052065843353,-0.0147157779605994,-0.000839083439892,3.0037271971064694,4.508058050670462,3.6438856184376096,1104.3713881633207,1091.1333964694668,1094.7281055785043,1107.7499185605932,-172.70081565901617,319.679378243718,-431.43840237375514,4.161100282090874,162.39671066050684
9.645,1.0660062606371687,1.3084523365200171,-0.7660369138099749,-0.0026322902422741,0.0395548254426682,0.0125236243577844,0.000796596194753,0.0111174365133407,0.029889017999638,0.9994906117037096,-0.0297405231731433,-0.0341315813721344,9.778268904306605,0.0740213185035375,-0.0148682868752735,-0.0009636761713342,3.003911697763954,4.508028654034637,3.643878947064066,1103.9804232853096,1092.0387268427028,1093.7940467994356,1107.8576454021652,-164.30659819231707,421.6596534057567,-324.3812340164316,94.48908987768279,162.39665884863084
9.6475,0.983516320219464,1.3164358823725764,-0.8037375355707778,-9.004457731704652e-05,0.0447353615983271,0.0096728208345943,0.0007647477887635,0.0112022071150808,0.0299166964891594,0.9994888437095116,-0.0295916524446212,-0.0326827713540687,9.778597356566248,0.0742436214869281,-0.0150150244122094,-0.0010746564413444,3.0040974330035977,4.5080018903926335,3.6438694269672394,1103.5498551723592,1093.241694736496,1093.1061994084218,1108.2223640099817,-161.94914599193194,438.216075975856,-182.99897410449245,168.65121743710097,162.396582234521
9.65,0.9211527750562596,1.2281656196159154,-0.8176338947834488,0.0009340354347144,0.0487091076131362,0.0082598969704955,0.0007453112177899,0.0113009616454312,0.0299465043177737,0.9994868439642318,-0.029058830530976,-0.0306384242356083,9.779103944027682,0.0744738937778969,-0.0151577167821347,-0.001169245187171,3.004284818948776,4.507977023053166,3.643857652068052,1103.1706775553498,1094.2298072225824,1092.8790519289128,1108.7009014893508,-167.4728925696278,369.51213729396915,-41.7485259703509,214.87667736973617,162.39650382022504
9.6525,0.8943962626291931,1.0492380833195787,-0.8415501672517423,0.0015977033556434,0.0520196386885595,0.00743827432573,0.0007313989870796,0.0114085793657855,0.029972320495622,0.9994848533865864,-0.0280656377778725,-0.0281511304526808,9.77973412479843,0.0747139138533056,-0.0152973803814798,-0.0012457124967032,3.00447354275924,4.507953580766326,3.643844398790197,1102.7124907095113,1095.0892554229652,1092.89745677857,1109.29674739683,-201.96250964913287,313.83592169347014,22.097935134392927,244.04031183567287,162.3964068589465
9.655,0.9016751691236812,0.8108539178398207,-0.8847303346922585,0.0025374414982835,0.0547203551184155,0.0063536500418344,0.0007260868280554,0.0115225338563629,0.0299894198433442,0.999483033041068,-0.0265905531907217,-0.0251785001034131,9.780428922736943,0.0749654572804234,-0.0154348781844442,-0.0013025077182904,3.004663080892061,4.5079317804359,3.643829919455928,1102.1608650071043,1095.7989868310494,1092.9895416045847,1109.9211030485287,-244.24384580130027,250.98671854262363,23.75568036749966,238.74360910559423,162.39629166185384
9.6575,0.93503790437996,0.5278109677910686,-0.9484064415197256,0.0043001724789033,0.0564422195379057,0.0045600390020808,0.0007376031058669,0.0116388601823298,0.0299961857862809,0.999481467819388,-0.0245905797713554,-0.0215803452300512,9.781127635609215,0.075230325404489,-0.0155708922650955,-0.0013391697180573,3.0048528755609287,4.5079104727343084,3.64381352009023,1101.4912714805043,1096.3441890156787,1093.0162351804076,1110.4904654423583,-315.41506097068645,220.01764135098907,-26.874948653171835,218.15874008085527,162.39615066133416
9.66,0.9710178317382752,0.1768663022624229,-1.0322143054605246,0.0075554514032338,0.0572220569835023,0.0019150132494474,0.0007710499586046,0.0117543851616403,0.0299914060183606,0.9994802285967672,-0.022049015123061,-0.0172802865260183,9.781769401824674,0.075510439720768,-0.0157052893459909,-0.0013564227410849,3.005042581971712,4.507888541511593,3.643795470843292,1100.5837897022507,1096.8990750378043,1092.855166861319,1111.0118967489332,-340.6507624700448,204.33806582913772,-90.36788983632484,154.42250706822395,162.39594633530413
9.6625,0.9727635778510066,-0.0959682900282394,-1.0923311910218467,0.010847427279405,0.0568895937993252,-0.0005975233144657,0.0008239170411303,0.0118584329021597,0.0299763678180978,0.999479405380458,-0.0188154627177634,-0.0123597697626171,9.782297268329716,0.0758076881344812,-0.0158373597118963,-0.0013577742903497,3.0052328214780446,4.507866036931151,3.643778835080036,1099.7880176681547,1097.365879344824,1092.564395731226,1111.2625779776993,-312.4544976484652,204.78260968099204,-127.92493984209432,56.43806461756894,162.3957428392741
9.665000000000001,0.9274723957734716,-0.3194023545775026,-1.1220529844690184,0.0138647356947233,0.0555897090770797,-0.0035738644556026,0.0008909476898981,0.0119427257792849,0.02995157346423,0.9994790892041184,-0.0147957534170325,-0.0069583645997372,9.78265911255443,0.0761239836581257,-0.0159653783515921,-0.0013478681522692,3.0054239503469784,4.507842709511088,3.6437666057516354,1099.021517214008,1097.9229880862097,1092.2155421621085,1111.2940870720213,-314.59987972297847,274.1882678783012,-130.33835903945837,-36.36867427530319,162.39550016272577
9.6675,0.8163069804601859,-0.5098770513583167,-1.1025737232196753,0.0167544713761482,0.05336590905543,-0.007727917255426,0.0009644633430119,0.0120092495428002,0.0299158540023305,0.9994792992974432,-0.0101048871595246,-0.0012639358284784,9.782808681508625,0.0764612769131318,-0.0160865441778217,-0.0013308225358573,3.005615241583412,4.507817699416657,3.6437602268799862,1098.2150182695395,1098.736820684216,1091.9127039360287,1111.0807346063227,-267.4474003228247,319.95840981055153,-67.26824150311106,-115.50603045636787,162.39515824990173
9.670000000000002,0.6820730676637176,-0.6004796332082004,-1.0338389211267378,0.0185723936657637,0.0514039328450715,-0.0112850258982677,0.0010436788847211,0.0120567345136099,0.0298703223591375,0.9994800180669932,-0.0047964726823247,0.0046604383425488,9.7827099406444,0.0768213197621823,-0.0161977702465229,-0.0013112916479357,3.0058072663176425,4.507790967689371,3.643757640544023,1097.6842802123942,1099.522780135262,1091.8792009545928,1110.7165569197396,-175.1949814034454,326.7211761371268,49.14602350000746,-173.79804821711153,162.3948271573059
9.6725,0.5142340542024114,-0.6288738102054682,-0.917866030182132,0.019774957033487,0.0495577568624798,-0.0140422950451431,0.0011239215872722,0.0120871888978978,0.0298140379305553,0.999481256797784,0.0010043782594178,0.0106691509688294,9.782336904900275,0.0772057425641443,-0.016295176542218,-0.0012930603895686,3.0060001809268617,4.507762973363563,3.6437559102986072,1097.3390433625225,1100.3704265649012,1092.1584340535287,1110.211744365237,-103.8395783450434,374.3137352233004,194.1913184780484,-235.6881787855032,162.39444351115455
9.675,0.2829739611195249,-0.6116527284655354,-0.7474256693378861,0.0206556907344644,0.0475002071814463,-0.0159989521490484,0.0011980438248051,0.0121112627305988,0.0297487465890793,0.9994828467543584,0.0069981427680557,0.0165643581863265,9.781673908128683,0.077615858898588,-0.0163750197322656,-0.0012777891235409,3.006193366092812,4.507733413641551,3.6437535527119698,1097.1650823206687,1101.394348811379,1092.8501575469832,1109.5381160258119,-21.88791911634893,370.9937910525116,298.5565098765607,-240.88736379649944,162.3939170477547
9.6775,0.0688377362073167,-0.5738178157443284,-0.596813759332361,0.0210563794447561,0.0459960624490644,-0.0168419383982096,0.0012614757029407,0.0121388525442441,0.0296823469368874,0.9994844447764136,0.0128992341288894,0.0221891990736626,9.780717351616344,0.0780524556816733,-0.0164344626177439,-0.0012662703732701,3.0063876780043377,4.5077019666325295,3.643749283022307,1097.2296037669407,1102.225395520164,1093.6512166029115,1109.0073075462547,69.18005111362176,328.1441094469499,337.8138442584476,-184.4538700766319,162.39341940326247
9.68,-0.1656898035813643,-0.5370202083522926,-0.4485267820692335,0.0211948487991651,0.0450526698190259,-0.0176084130858815,0.0013082115706464,0.0121811884414327,0.0296212024349605,0.9994857431785812,0.0183945739074341,0.0273522509956884,9.779475294607614,0.0785160019063121,-0.0164706194669198,-0.0012584017758499,3.0065834011918975,4.507668313540285,3.6437417752661,1097.5109825762368,1103.035069358613,1094.5392267682753,1108.6158466754289,145.878848905545,324.33166378977535,344.5417501085929,-120.49522803456902,162.39285622503107
9.682500000000001,-0.4145539266657461,-0.5185202405219103,-0.3025154667982986,0.0210778442440619,0.044676826010662,-0.0184349894571703,0.0013366331123962,0.0122428679447557,0.0295673749827444,0.9994866394274772,0.0233042507859883,0.0319390247513159,9.77796754589528,0.0790067222221119,-0.0164804464290773,-0.0012546482332105,3.0067800371079434,4.507632056632652,3.6437315445248735,1097.9589980114683,1103.8470538391132,1095.3739253534548,1108.4048314060817,211.63103777763683,329.49753414263193,295.35174249986017,-33.35900088604309,162.3922359219538
9.685,-0.6713066293027081,-0.5335458256427552,-0.1553889258526779,0.0204643336502758,0.0443924089381323,-0.0190773282837067,0.0013496191062547,0.012320004583314,0.0295226498871097,0.999487137303626,0.027619404339861,0.0359150473098143,9.776224658422306,0.0795244498095744,-0.0164617267534129,-0.0012567863803584,3.0069775906383835,4.50759337273036,3.643719937829847,1098.569137765125,1104.6825570293267,1096.0159854807748,1108.4490516709986,289.38560481211726,369.6298703373312,218.9936734275288,74.996357901788,162.39154416816052
9.6875,-0.9639027167608194,-0.586915041864638,0.0269179236879667,0.0187606383546304,0.0433538362147328,-0.0194731933272326,0.0013472110995556,0.0124081581342825,0.0294860444733052,0.9994873346519626,0.0313445685506228,0.0391904005962493,9.774286646299842,0.0800686703826515,-0.016413025079645,-0.0012671789212586,3.0071755290012385,4.50755248191183,3.643708386575885,1099.4059260355289,1105.6952031907995,1096.4688937205924,1108.7798131955904,308.3632146340437,360.56460851403136,111.76419908740576,155.9782358079102,162.39062917980004
9.69,-1.1679954098863508,-0.6482477667248008,0.184870422256486,0.0162165241497756,0.0418602882430337,-0.0194798381268027,0.0013320772463897,0.0125020401015403,0.0294551717857573,0.999487378479326,0.0345084401011432,0.0417295382253481,9.772201928343026,0.0806383545282417,-0.0163342741502827,-0.0012887750227868,3.0073737214414566,4.5075107131845025,3.643697732284616,1100.1109538382952,1106.4853800718963,1096.5748064762115,1109.228942850038,262.88055624300324,278.10161709217226,-2.3167259332691192,194.3840739170051,162.38979503618015
9.6925,-1.2945997873341213,-0.7084421341192794,0.3469856867141721,0.0123018618865057,0.0400201185601353,-0.0192167962235512,0.0013094497374289,0.0125957113817032,0.0294295440018651,0.9994873597585224,0.0371620240022933,0.043553104539476,9.77002631109564,0.0812316840414022,-0.0162275466119054,-0.001325005581364,3.00757256380245,4.507469605907788,3.6436893931030414,1100.720328816744,1107.0857112762603,1096.457310090926,1109.7517335651755,224.41267284349252,180.95401290499368,-79.49451283687843,218.9498230154753,162.3888863129108
9.695,-1.32544205025562,-0.7603188353765435,0.5370952748860586,0.0064711676421181,0.0374423017057774,-0.018585493472849,0.0012814362957563,0.0126847627939345,0.0294054766577549,0.9994874344163466,0.0393343730190063,0.044632403685729,9.767822098430644,0.0818460663147799,-0.0160962521905673,-0.0013793259211698,3.007771905194734,4.507430649793903,3.643684190240116,1101.2330172025129,1107.3901501364217,1096.1773339120273,1110.3236919651156,140.7084026265518,16.86011276602011,-107.41728381228631,181.70582195984,162.387710512248
9.6975,-1.246252063275448,-0.7770432813574804,0.6785035882475237,0.001627504437315,0.0351097551701245,-0.017431869892758,0.0012554111348303,0.0127566862621087,0.0293851497059547,0.9994876554371428,0.0412276850731712,0.0450494020124512,9.765656507447053,0.0824776875202794,-0.0159464758384253,-0.001456152477372,3.007973615702339,4.507395626127972,3.643681874938959,1101.4238708298767,1107.1700118400906,1095.9202236718647,1110.6602626749748,23.97082125152872,-201.75654398377927,-90.92592554319197,89.10743298300503,162.38666096453906
9.7,-1.0826913970908545,-0.7624152809863,0.7795390618256061,-0.0020316831431278,0.0329174118176578,-0.0151625745672432,0.0012329508501741,0.0128043172519127,0.0293717534176859,0.9994879592220464,0.042949579772145,0.0447919301696425,9.763599726589042,0.0831217331698666,-0.0157857515383546,-0.0015584922103861,3.0081792080357257,4.507365339951111,3.6436818095034607,1101.3528713087703,1106.3813674165024,1095.7227042843112,1110.7692291300307,-64.96456350172487,-405.46630951587787,-62.49560546706494,-0.138719172400648,162.38554157399648
9.7025,-0.8847685109986098,-0.7244103964923617,0.8310331530095763,-0.0043875046869169,0.031046974723229,-0.0120870429265421,0.001212106240541,0.0128268578553017,0.0293643121564853,0.9994882965937248,0.0444952929700896,0.0438017800923805,9.761722471833652,0.083772799412956,-0.0156216486872772,-0.001687230389524,3.008388752256787,4.507339113749865,3.643683104490063,1101.099048012368,1105.1426802925107,1095.6077456445291,1110.6595690791128,-125.55025159815838,-580.8546839355377,-24.408774379303704,-95.44644040413087,162.38436665006012
9.705,-0.6951714382168315,-0.6647526791928484,0.8159879589032599,-0.0054898253645296,0.029551934416295,-0.0088456055245868,0.0011943765505739,0.0128261692466659,0.0293642749516104,0.9994884721627688,0.0458250720980052,0.0421087137389187,9.760093105214308,0.0844250415392751,-0.0154623168590005,-0.00184120346053,3.0086021715347706,4.507316710337486,3.643684223697429,1100.7251200507799,1103.4770939968255,1095.6006604124148,1110.29199692801,-156.52315185069187,-788.109703840539,19.92393736891641,-210.90568458871175,162.38312809875046
9.7075,-0.53274899070263,-0.575583791552843,0.7360677829841373,-0.0056415484288112,0.0280187859975015,-0.0058879475058192,0.0011780988785826,0.0128090765307568,0.0293729646099205,0.9994882618736132,0.0468152307412878,0.0397035443180294,9.758775474688472,0.0850726586452151,-0.0153155103238647,-0.0020168231185974,3.0088192041248343,4.507297801269435,3.6436826093806,1100.3164322531147,1101.202131773309,1095.707365331374,1109.6050406561694,-117.2620920602911,-846.8059695325378,56.635354895516016,-280.7588091686755,162.38157314808888
9.71,-0.4773675720255365,-0.4894872692874795,0.6421078127016656,-0.0049802355047894,0.026880333007364,-0.0043663859058704,0.001159825922965,0.012784106910663,0.0293896592675827,0.9994876929561411,0.0473218531478857,0.0365629825980049,9.757826458838307,0.0857103107368946,-0.0151877972596979,-0.0022087064011244,3.009039464881899,4.507281301763468,3.6436775754515063,1100.1388095904783,1099.243064149162,1095.8838371868924,1108.8882028821663,-17.42679314342877,-763.3412835853221,88.07603305384404,-299.36643039759343,162.38022407289972
9.7125,-0.5088065988038774,-0.3916158972911945,0.5524527512993865,-0.0043851734234187,0.0258603142404796,-0.0035538650401932,0.0011409485181253,0.0127633967496879,0.0294146508427582,0.9994867287204616,0.0471461574653091,0.0327779133167127,9.757293204518499,0.0863333561627964,-0.0150847594776706,-0.0024095442330882,3.009262831121001,4.507265966380968,3.6436682610438753,1100.2292982873976,1097.3854253553818,1096.1477454966432,1108.1082085041812,101.77027492115693,-768.3299782788417,136.1065251437865,-336.4245255400179,162.37882489914475
9.715,-0.6130476478924278,-0.2593558480241827,0.4800384198780992,-0.0049177806813639,0.0247609158768721,-0.0030228003879781,0.0011295498655349,0.0127622125690213,0.0294502405698763,0.999485186007499,0.0460429747570177,0.0285869940269235,9.757211576453134,0.0869381106660989,-0.0150109905340319,-0.00261063735669,3.0094893298733347,4.507251337985784,3.6436542900271074,1100.647660965084,1095.4014142577687,1096.5643698126112,1107.2060802544668,189.5147517277487,-676.542757459627,166.87801486049148,-310.14336852628537,162.37709463407873
9.7175,-0.7119136173442353,-0.1367315282038704,0.4611803911268659,-0.0068250419356515,0.0240879831012838,-0.0027109201372334,0.0011299946553141,0.0127829737842141,0.0294952908845447,0.9994831140219044,0.0440238757657485,0.024162945973527,9.757606843488873,0.0875221941291308,-0.0149690076180077,-0.0028055351475147,3.009718300663291,4.507236439338049,3.643636886458895,1101.176872046036,1094.0027115680844,1096.9821355709455,1106.55749166155,218.7988310077912,-501.7100264654925,171.94721631064607,-222.4273033520256,162.3756153085754
9.72,-0.7670043257939431,-0.0038742684024716,0.4864730393177434,-0.0100695066275245,0.0238866874638173,-0.0023156377288342,0.0011399064280601,0.0128258044553779,0.0295449214010608,0.9994806855363156,0.0411471424136775,0.0195567811303591,9.758492974025907,0.0880847738577835,-0.0149591740432983,-0.0029888485417301,3.009948264090188,4.507220274938849,3.643616412386789,1101.7416551201231,1092.8928641254408,1097.4241058941643,1106.0939437377065,219.1975554956228,-420.27831098673937,178.56027215859223,-147.90243837176112,162.37410383274636
9.7225,-0.7364392051816222,0.1618925659563674,0.5527877053728312,-0.0143508369986875,0.0241402444663088,-0.0013208268628032,0.001159243970083,0.0128954296752104,0.029596414749258,0.9994779301900826,0.0373860192520213,0.0148745942654926,9.759872189624575,0.0886264515297953,-0.0149809476008744,-0.0031552391279029,3.010177184670882,4.50720176911284,3.6435936236847226,1102.2728598235144,1091.9013200131503,1097.8749369317386,1105.8179794696912,149.7018089210385,-306.994292882716,132.10933586285947,-49.4286661961367,162.37226070859364
9.725,-0.6197582139515477,0.3011394562052242,0.6189857474016258,-0.017356631560132,0.0247011609371512,3.94657075235211e-05,0.0011872518192759,0.0129846350587466,0.0296504567566224,0.9994749154183704,0.0329471058788434,0.0102053624958535,9.761737386783864,0.0891489056749703,-0.0150333674883176,-0.0033027604528029,3.0104043257477455,4.507180998331505,3.643570329647008,1102.490164164728,1091.3578926610276,1098.0846525734787,1105.8468004067258,30.003281897138407,-160.38869775163442,26.818633793068685,64.01064389382464,162.37070576663487
9.727500000000001,-0.4221368202411508,0.4369758896831213,0.67030104697971,-0.0193426355759388,0.0255758982371189,0.0019380747779165,0.0012206703065508,0.0130854605197352,0.0297039403053985,0.9994718305888228,0.0280488370725701,0.0055909405523587,9.764073166358465,0.0896547459682658,-0.0151140926225662,-0.0034310914388815,3.010629500312033,4.507158137443516,3.6435480938534,1102.422876233,1091.099376524392,1098.009030100704,1106.1380326891604,-69.71497590528817,-60.147115360122974,-88.57150551983504,152.99070574521804,162.36913728069408
9.73,-0.1815413561896062,0.5666325088472483,0.6914465008463532,-0.0204639359520337,0.0267005461352002,0.004253914999172,0.00124904694216,0.013190161383987,0.0297497009483229,0.9994689896767605,0.0228985316805384,0.0009323833970333,9.766857461340638,0.0901470357868688,-0.0152195930174021,-0.0035414057308338,3.010853156596262,4.507133439052907,3.6435269330587694,1102.1415892852017,1091.057157084227,1097.6417950458795,1106.611753935452,-147.13536118668543,25.3146953798528,-217.91385447727197,218.0286470098942,162.36756194153017
9.732500000000002,0.0729580545217144,0.6841654831041142,0.6626951765410934,-0.0206186186725661,0.0280712475012856,0.0067908326021806,0.0012655630073038,0.0132925375776488,0.0297862809201555,0.9994665127895356,0.0176713430997082,-0.0038018927639928,9.770062911499826,0.090628528488029,-0.0153472586304179,-0.0036356525230718,3.0110761436639004,4.507107355564199,3.6435078511164942,1101.6871994270668,1091.2259500012913,1096.9194608283178,1107.2281759242096,-209.5307713251221,104.3712951720616,-381.5859172108353,277.86735143505285,162.36598335136375
9.735,0.3418389932904826,0.8031339468638685,0.5690502615915641,-0.0197330829982317,0.0299716816876896,0.0092871469954078,0.0012667551640791,0.0133919089650723,0.029812144415575,0.9994644463556283,0.0124316984782988,-0.0085799723992236,9.773658032987758,0.0911014885260316,-0.0154945814011235,-0.0037155160193954,3.0112987730764686,4.507080070388678,3.6434921963374394,1101.0939354285763,1091.579013560087,1095.7338654598257,1108.001090692627,-201.39817288697063,139.81427309365787,-461.4399483570384,268.02587650700286,162.36409140863486
9.7375,0.4984001184785389,0.8756387166430665,0.4514514135087544,-0.0180834795576152,0.0318499426450998,0.0104800600855794,0.0012559668162737,0.0134814691613874,0.0298322045021548,0.9994627140277804,0.0073621060598946,-0.0132480869114975,9.777609940441511,0.091567127662028,-0.0156605354075423,-0.0037839852392932,3.0115231580920363,4.507052199456592,3.6434796452318863,1100.6802085626318,1091.9250213667597,1094.6122610865323,1108.5683053067448,-122.96276437025776,136.13056811457372,-434.7417494600679,189.0912460921004,162.3625209805106
9.74,0.5483139162226786,0.9080224668460528,0.3090512999035792,-0.0155096919576878,0.0341410005732457,0.0107784525791043,0.0012325386812084,0.0135574956942601,0.0298519119561399,0.9994611888566108,0.0025770914299023,-0.0177366966514912,9.781884092444177,0.0920257804850433,-0.0158444922783744,-0.003843434300606,3.011751282176391,4.507024829814327,3.6434688893566944,1100.479121606725,1092.25966640066,1093.5601567125248,1108.9465469230877,-20.540111553331815,140.68587021204692,-397.9851809248767,108.59356813432328,162.36096172544387
9.7425,0.4636015653983974,0.8864632067609992,0.1217217215281183,-0.0117420125925962,0.0372300384153563,0.010765078472326,0.0011993662030613,0.0136190374921429,0.0298725909217358,0.9994598296486507,-0.0018658961854433,-0.0219136185570418,9.786444771456631,0.0924772608227752,-0.0160454075619637,-0.003895055182145,3.0119836513067466,4.5069980626512285,3.64345876170378,1100.5775080048652,1092.6284507178195,1092.6223351819083,1109.1112731474163,94.49392862378205,134.33984294731718,-263.14486916713093,13.263391874441112,162.3591086898285
9.745000000000001,0.2797775228676741,0.8120060779213646,-0.0472501005203175,-0.0088391798428865,0.0398794024149635,0.0110841573048123,0.0011604544057949,0.0136675186120917,0.0298960387211932,0.999458553072526,-0.0059602788724312,-0.0256337584457899,9.791255116292936,0.0929211302749673,-0.0162625148499082,-0.0039387553618686,3.012219814457058,4.506972681925336,3.6434471279704983,1100.951591249844,1092.9313656153968,1092.2444323666891,1109.01286388246,195.44456274958648,130.02417525392744,-54.62787981281564,-72.48188145212002,162.357583083707
9.7475,0.0197695821817693,0.6802713636682637,-0.2314058987207429,-0.0075525437510141,0.0422672076961371,0.0116049496425517,0.0011192211714786,0.0137082580928155,0.0299222426662051,0.9994572819612048,-0.0097809074956402,-0.0287722749616843,9.796276574607232,0.0933572321652693,-0.0164946790709629,-0.0039729379555994,3.012459073470901,4.506949525336257,3.6434323919594016,1101.5547308186133,1093.2785715940895,1092.349195782844,1108.7488637401557,281.23216860591265,171.59384250229553,146.4201853212053,-123.48961728828453,162.35608072351266
9.75,-0.3017380107640302,0.4703786834471056,-0.4608026596552471,-0.0086862432751358,0.0441711156581295,0.0115103932978332,0.0010796834182613,0.01374407427472,0.0299471266218463,0.9994560976566196,-0.0133579365418606,-0.0312061263831794,9.801469691412207,0.093786095818932,-0.0167396562574572,-0.003995944899179,3.0127000426783495,4.506928506090952,3.6434153078493186,1102.3577520928732,1093.789334827908,1092.976533293295,1108.3954157960184,272.0248864227956,203.26744734124483,291.69844526123944,-112.28134603404628,162.35430902356043
9.7525,-0.517944269140977,0.2685948080758527,-0.6408684306228223,-0.0115776793449821,0.0447896114778364,0.0103376931588646,0.0010483229088208,0.0137797816065201,0.0299648449201756,0.9994551073901088,-0.0167639160121294,-0.0327763573550592,9.806793350023518,0.0942091248009267,-0.0169941460976033,-0.0040055331276541,3.0129411255089855,4.506908638694492,3.6433964674098553,1102.9148552507268,1094.2949088307955,1093.80768800915,1108.1874570099856,156.727279680511,210.93608694569753,361.615169157756,-45.77907687557138,162.35286144813787
9.755,-0.6308997839625827,0.0576904387825475,-0.7803823811720578,-0.0152479231044707,0.0448895927817227,0.0082176296954814,0.001027070865858,0.0138221469299609,0.0299701015407642,0.9994543802510332,-0.020117345625822,-0.0334270005508149,9.812204108005929,0.0946285202566374,-0.0172538312739324,-0.003999371666398,3.013180699861695,4.506887997939729,3.6433769413980976,1103.1413884912758,1094.8440152626367,1094.784609139084,1108.1665204116407,11.919479226478824,216.19816573894497,387.8775722042822,27.17744393371079,162.35144702542124
9.7575,-0.6474980580647567,-0.15026764207599,-0.8659388945196888,-0.0185980569012072,0.0448669697027508,0.0057336592279313,0.0010131803218074,0.0138705509131971,0.0299644068454516,0.9994538833968248,-0.0233999886467757,-0.0332148010305648,9.81765783283357,0.0950467380070458,-0.0175144409166011,-0.0039770082115163,3.013418809719448,4.50686496219495,3.643358293332456,1102.9744526468592,1095.3758996594904,1095.7470758701716,1108.323344229654,-171.03202244132936,193.43289333082092,352.9584592260355,100.07682924549216,162.35006232161084
9.76,-0.5659727421591662,-0.3435192973501015,-0.8688801484669075,-0.0208839524643074,0.0443908124399732,0.0028623987596001,0.0009998883871695,0.013926317236796,0.0299454659797641,0.9994536752459752,-0.0266377961877813,-0.0322906950852327,9.823108315146344,0.0954665314710293,-0.0177698909561852,-0.0039380941265128,3.013655421330206,4.506837923933232,3.6433412987517886,1102.2862283790691,1095.8111797292906,1096.549401435214,1108.666904557868,-405.538434151031,152.40781661693637,287.76348754531733,179.554080072484,162.34871595670907
9.7625,-0.4027132887474047,-0.5420151328493749,-0.7675983789316824,-0.0220879090660819,0.0429267566276975,-0.0010499635560088,0.0009834588558477,0.013988305757436,0.0299090092489697,0.999453906383186,-0.02980960326219,-0.0307646489585839,9.828508863126322,0.0958904198056574,-0.0180130606991132,-0.0038828624221731,3.0138901208949016,4.506806459296753,3.643325491395708,1100.946760476104,1096.1379387425752,1097.1858933078984,1109.2211146300167,-544.9599706290486,80.95869567190319,165.38050344749675,214.7625129201634,162.34714782109864
9.765,-0.2518740275422788,-0.6678605571680863,-0.6038382494705136,-0.0221435443906389,0.0411548165844661,-0.0042240375468707,0.000963764918927,0.0140468116146124,0.0298563907395681,0.999454671338567,-0.0327262197744513,-0.0286976841879446,9.83381393241332,0.0963199146530359,-0.018237760985868,-0.0038131141320145,3.01412441966275,4.506771496672677,3.6433098901317726,1099.5614285259237,1096.2159732076502,1097.3763039524515,1109.740717122469,-559.768601041626,-5.513985429480459,-1.1662066699957496,206.78217273829904,162.3458830759099
9.7675,-0.1252440949694841,-0.7429051244871336,-0.3906331953870438,-0.0217938991355881,0.0390527889743058,-0.005910057500648,0.0009417534977118,0.0140977219189346,0.0297907475553202,0.9994559324661094,-0.0353081236204749,-0.0261416648590441,9.838976388559002,0.0967554039394831,-0.0184384904106702,-0.0037294921416356,3.014359939173991,4.506733392133129,3.6432933978034847,1098.1479174708963,1096.1103688154278,1097.1800622745486,1110.255025493708,-569.9380230705852,-69.89856417441415,-169.1866468291546,212.38161777032153,162.34466509683568
9.77,-0.0310099057733904,-0.7708362444272499,-0.136816216738124,-0.0212780175465159,0.036278487726683,-0.0056202301131209,0.0009223895434502,0.0141389052218414,0.0297153607668713,0.9994576188143388,-0.0375112967672494,-0.0230813903103377,9.843948543056158,0.0971960388046543,-0.0186105890987668,-0.0036321244013329,3.0145977656053367,4.506692634117176,3.6432764530006945,1096.7117384105711,1095.8664803867782,1096.530370718306,1110.8026252113204,-448.8415034155631,-88.67897000439805,-292.152895600111,181.37471898004952,162.34326150272528
9.7725,-0.0124184447347528,-0.746239930624874,0.0325206102524145,-0.0208399261280115,0.0339734664877115,-0.0042055770365963,0.0009092793455545,0.0141630308927069,0.0296393890059291,0.999459559168088,-0.0391880273667064,-0.0195422186191294,9.848683678833575,0.097639560446165,-0.0187516717587153,-0.0035222974248317,3.014840009970628,4.506650831764161,3.643259554442528,1095.903709953818,1095.6669739654055,1095.7192977965478,1111.1618990886084,-217.39340811383283,-55.43221306210441,-351.7460459184709,116.04513901714203,162.34214320222432
9.775,-0.0609590163049445,-0.6848116744575469,0.1304200384957405,-0.0204074508739324,0.03212174685394,-0.0026334317137015,0.0008986630133703,0.0141675823933923,0.0295718035527303,0.9994615266688912,-0.0402856980809195,-0.0156991311077044,9.853134121970877,0.0980829381012744,-0.0188606533130751,-0.0034007544947045,3.0150874617947503,4.506608692489321,3.6432429113650886,1095.624771370002,1095.5893193214677,1094.7716404887133,1111.3828509064062,-18.60635710723188,0.4745856532282267,-375.3052828938345,61.55590600543607,162.34108207323987
9.7775,-0.162528058303892,-0.6066534979375691,0.1668958240791821,-0.020118113825027,0.0307499493767848,-0.0013554364767803,0.0008829484046706,0.0141587935653546,0.029516171867183,0.999463332567824,-0.040921521428498,-0.0118014241631041,9.857251198770454,0.0985231250501353,-0.0189368617688395,-0.0032667878067051,3.01533931092793,4.506567055641763,3.643226729999301,1095.810678168282,1095.669346893672,1093.842771382079,1111.4696786186355,177.22267290154267,71.54743760549141,-334.91757782637546,0.5623317581013207,162.3400714113808
9.78,-0.3168240939283358,-0.5247764344423705,0.1440857570243316,-0.0202256235884978,0.0298125653269702,-0.0006125315721405,0.0008596019589287,0.0141428643797085,0.0294726170360376,0.9994648864710454,-0.0412046344113043,-0.0079991210570237,9.86098819057805,0.0989574705701555,-0.0189804723192069,-0.0031196360515065,3.015594419410946,4.50652639725068,3.643210870332767,1096.5108847345095,1095.947056509495,1093.0970525995815,1111.3856625651968,399.58524616957334,155.420992585435,-253.4324280124624,-74.00671165877365,162.33912547175623
9.7825,-0.5386954927979688,-0.4374506694152565,0.079135411053116,-0.021075048332885,0.0288862748808655,-0.0003534539751194,0.0008288910572299,0.0141293699008952,0.0294370068302609,0.9994661736216532,-0.0413050652059801,-0.0043814776104482,9.864300112662184,0.0993841890264772,-0.0189922035958049,-0.0029578544451825,3.0158507535394152,4.506486475880307,3.6431949190468775,1097.8086043991302,1096.4464518565992,1092.5756092420163,1111.0996450603416,525.190539774221,195.9551374429032,-117.93214007309847,-129.9552921989995,162.3380698154996
9.785,-0.7309974265558238,-0.3793739989946787,0.0184740904701607,-0.0225345851299186,0.0280833512205251,-0.0005989248418141,0.000793620732289,0.0141220240240567,0.0294098364907882,0.99946712354576,-0.0412728841225864,-0.00098424161746,9.867146557143752,0.0998021560885591,-0.0189749357559202,-0.0027811990520541,3.0161075448625474,4.506447417834829,3.643178538928949,1099.136837433381,1096.9268321967097,1092.507391899216,1110.7358861042017,547.8331694852567,188.9194331795728,42.81788538743,-159.668430493034,162.3372589862988
9.7875,-0.9005563761325108,-0.3385833756687912,-0.0231245824062569,-0.024803218218716,0.0271586098580379,-0.0011879801710311,0.0007546950860236,0.0141181302794529,0.0293934309550307,0.9994677038680652,-0.0410305833833738,0.0021259941945291,9.869492665100472,0.1002110239390411,-0.0189329990868574,-0.0025910119726744,3.016364817036755,4.5064094841416,3.6431609672781935,1100.547770246556,1097.3910490224969,1092.7896986689536,1110.3013029078763,601.5243772592354,190.77424477892893,176.78678919302877,-187.92327149191595,162.33652181381632
9.790000000000001,-1.0453421644299419,-0.310903923016086,-0.031132426602963,-0.0281921563183769,0.0260272057505423,-0.002022321106265,0.0007091042844969,0.01411830664704,0.0293854576958207,0.9994679752138848,-0.0405671852355109,0.0048208363141762,9.871307963468643,0.1006114516076643,-0.01887072070058,-0.0023885326971522,3.0166219422108007,4.506372593225434,3.643142272707231,1102.1444593196777,1097.8807034206045,1093.3913258451814,1109.796269746742,544.87790972035,169.46112704783525,235.27512735841768,-165.13670997421434,162.33572358352544
9.7925,-1.0991095586504416,-0.3082827471266624,0.0030650137630508,-0.0314107454777182,0.0251825368595634,-0.0025886129066441,0.0006555135607973,0.0141270151113107,0.0293850952366296,0.9994678998655412,-0.0399470919287258,0.0070226182317334,9.872567298975593,0.1010047373523038,-0.0187935456897571,-0.0021748291069129,3.0168785509325753,4.50633709954611,3.643123681520548,1103.272159795158,1098.238354657736,1093.966074305746,1109.4756193580051,386.29276445634287,141.3595698383969,210.0218344422009,-85.51106553938433,162.335130420508
9.795000000000002,-1.0718063669635827,-0.3325577780195376,0.0770018809732243,-0.0349903250265226,0.0244865986134898,-0.003016223549355,0.0005938190525513,0.0141512438790843,0.0293950458181094,0.9994672996154432,-0.0392856643710054,0.0086963796389704,9.873252063452012,0.1013925361961194,-0.0187082654295012,-0.0019512053645163,3.017134101880967,4.506303659007736,3.6431070299512887,1104.075923141959,1098.5875012697963,1094.4414350173922,1109.368714419045,264.1458874211892,164.36511781165424,156.9172427245888,25.542135705159655,162.3346110822718
9.7975,-0.949331944709471,-0.3997970661345356,0.1972657891312255,-0.0391028892315328,0.0237945754266318,-0.0033410697169225,0.0005261824096161,0.0141886075455462,0.02941613584371,0.9994661796460826,-0.0385148667359155,0.009864465822016,9.873353637809885,0.1017767572867202,-0.0186216844821794,-0.0017215219569721,3.017388743916355,4.50627289737227,3.6430935750396354,1104.5928892322638,1099.0601802467943,1094.7506605193687,1109.6033300365311,113.85470780517647,188.44298966643476,62.134302384073926,158.73601854438922,162.33407087940313
9.8,-0.7896033074481509,-0.4902040990674231,0.3052701518485085,-0.0415568147585516,0.0231172637665088,-0.0031363916981151,0.0004525451671386,0.0142327146679606,0.0294462118338724,0.9994646919221536,-0.0374929507755034,0.0105211071832693,9.872872738990338,0.1021593645813564,-0.018540017054167,-0.001490980693922,3.0176431458026087,4.506245053772681,3.6430835682177536,1104.645196680985,1099.5297162181287,1094.7521065293126,1110.1623945117672,-47.65377599787081,203.11021547819567,-43.345096029399926,304.33807351932745,162.33368736135603
9.8025,-0.601852939504887,-0.6138851397904772,0.3911267112911384,-0.0426597903816799,0.0220001725360307,-0.0020437827343589,0.0003742764233654,0.0142777082062827,0.0294823435338993,0.9994630057491886,-0.0360930006822766,0.0107060141115717,9.87181854221908,0.1025420922763992,-0.0184689515652141,-0.0012646885600998,3.0178981917692447,4.5062202382312675,3.643076150570377,1104.3546203522744,1100.0757313241854,1094.5339350392217,1111.125020404128,-158.87855191006997,223.9951143125372,-105.18889776551352,446.9412544111472,162.33336924074646
9.805,-0.4140919634460773,-0.7596560595342708,0.4347617081605625,-0.0430868866180217,0.0204880806243468,-0.0002374013534607,0.0002970392450842,0.0143164529399368,0.0295239487067891,0.9994612400199938,-0.0341663466901633,0.0105579036907482,9.870208819806649,0.1029262267486455,-0.0184138781777876,-0.0010475811730623,3.0181552142331087,4.506198341471116,3.643069913038908,1103.8508039214348,1100.6496917896911,1094.2261620404852,1112.3971007838225,-231.2722686221698,221.07982743501637,-114.82890210925711,565.6820955097853,162.3331020789581
9.807500000000001,-0.244341608581392,-0.9229912602433984,0.4068480417564757,-0.0432074355013177,0.0185309146213146,0.0020442766488403,0.0002287581004638,0.0143431277447147,0.0295692347310067,0.9994595316695892,-0.0315957308647546,0.0102734937286672,9.86806883146803,0.1033128238559818,-0.0183787328419696,-0.000843735901502,3.0184154904030644,4.5061787334504,3.643064117777537,1103.1982590091632,1101.1811304613607,1093.9597905286753,1113.9534308816771,-293.0977550067833,200.7933487284531,-69.92422308688946,714.3843766870098,162.33289190577858
9.81,-0.0706394910464044,-1.125998671488469,0.2851432160980064,-0.0431874908192059,0.0156872374302173,0.0046856457147698,0.000172574663273,0.0143566810135623,0.0296153035951752,0.9994579826638254,-0.0283683355217817,0.0099673709697467,9.865429867486256,0.1037029694985571,-0.0183656313989567,-0.0006557982858512,3.0186791054696975,4.50616069159932,3.643057820041765,1102.3853151464007,1101.6536585333336,1093.8765409250507,1115.969022667258,-285.36911360930605,129.97064774770337,29.001637140714905,730.7091760144067,162.33269918128033
9.8125,0.0497142391860075,-1.2903673069691384,0.124917112187367,-0.0429131200191556,0.0130758934692371,0.0061978993634179,0.0001334016671037,0.0143635803385645,0.0296637576309301,0.9994564510036438,-0.0246267529727842,0.0097989277775344,9.862327638081899,0.1040979173690856,-0.0183758226340552,-0.0004842387290847,3.018945430616238,4.506143015414734,3.643051460078395,1101.7714134411171,1101.830983700099,1094.1047987143788,1117.6069767617487,-218.63505857577167,12.404670085473036,162.14575115353497,604.7201657240587,162.33258301918124
9.815,0.1513020854923435,-1.4343701784963343,-0.0589363504882581,-0.0423659704962223,0.0102573594557647,0.0064446277482043,0.0001131156541277,0.0143707037396392,0.0297119717125735,0.9994549150308436,-0.0205321782811827,0.0098703459976543,9.858802730235624,0.1044997053420351,-0.018407761031488,-0.0003290315263143,3.0192131496723884,4.506123940850497,3.643046294990916,1101.292139853522,1101.715681883761,1094.687269680818,1118.9926234958775,-175.56303264420404,-123.79267017302364,327.1913006664761,508.3638447812178,162.33250632662293
9.8175,0.2654168312223363,-1.5585378757121222,-0.2511656798857282,-0.0418708971144238,0.005941495042984,0.0049903204571182,0.0001103138294024,0.014381047036258,0.0297563524620516,0.9994534399887685,-0.0161804684793151,0.0102155702587974,9.854900105462212,0.104911186237134,-0.0184578808104889,-0.0001905372537051,3.0194809785749728,4.506102039448913,3.6430425350275577,1100.893598277896,1101.2120203492339,1095.7407552177115,1120.1487959856552,-119.99912898916534,-240.201601353973,424.64171255867495,317.66242569251096,162.33245151672836
9.82,0.3657053746441003,-1.600157165885422,-0.351655371355364,-0.0419698673590551,0.001503645583411,0.0024552333454874,0.0001153478961867,0.0143968631295976,0.0297920533328419,0.9994521407403288,-0.0116673786565671,0.0107012719325496,9.850667167946519,0.1053359975215406,-0.018520837201349,-6.888144988502292e-05,3.019748489723153,4.50607649174328,3.643039878553596,1100.692144208576,1100.5146738769909,1096.810478243612,1120.5809356243403,-59.20989481256852,-317.2591359804932,432.7466169918759,53.236997017722075,162.33243028349492
9.8225,0.4775810149845546,-1.5579979115071332,-0.3695286075363604,-0.0420913345775844,-0.0033357512120506,-0.0002045229578088,0.0001176707479782,0.0144204144024555,0.0298113044097499,0.9994512220158184,-0.0070991209053387,0.011169848216133,9.846152245653508,0.1057784140904144,-0.0185896526437605,3.654080549611279e-05,3.0200146340858756,4.506046755624952,3.643036595409972,1100.5975488038332,1099.6257246693317,1097.9044883026704,1120.4149809707435,-21.15234420093326,-363.9847653022456,412.28699190140026,-158.60677113216548,162.33242627686147
9.825,0.5914196398288872,-1.4423351078929807,-0.32627690988667,-0.0414739078183488,-0.0081449825693224,-0.0018804214902453,0.0001116086263912,0.014450699415086,0.029808837225424,0.9994508603190254,-0.0025240189578644,0.0115485878732368,9.841403833905058,0.1062428115782697,-0.0186574394039085,0.0001265066954206,3.02027895599744,4.506012773875621,3.643030760894944,1100.5863824875714,1098.6947500504791,1098.8719132031192,1119.7879017686796,21.207158404646503,-347.9524064689396,323.5939899749559,-338.5800687653425,162.3324305673078
9.8275,0.6850966898523397,-1.2504177470765763,-0.2379997708212153,-0.0395719071554622,-0.012186992717144,-0.002232528557845,9.455053011014829e-05,0.0144746374534877,0.0297888128427665,0.9994511168125614,0.0022407756310116,0.0118064179819079,9.836470774582624,0.1067329792303884,-0.0187194743704042,0.0001997377644035,3.020542086316071,4.5059755388815805,3.6430228453862927,1100.7035845958565,1097.8859626369867,1099.5224582525454,1118.7220806269167,94.49816400799197,-284.61143786772686,182.88385505046793,-527.5023455302884,162.33243789623623
9.83,0.7436028163520906,-0.9674667696741168,-0.1206425368865644,-0.036396675660149,-0.0153156759775861,-0.0018271473275376,6.746252483236168e-05,0.0144802077110059,0.029756972888207,0.9994519903750902,0.0073522056005105,0.0119720131807149,9.831399277040784,0.1072519767466966,-0.018772083509058,0.000255325356873,3.02080443746259,4.505936559808362,3.6430136794018,1101.0588733076113,1097.2716928611408,1099.7863324783712,1117.1503900410287,176.37949268349857,-142.77124385060344,2.9888347969978475,-590.7416241482035,162.33244156448035
9.8325,0.7343461053331257,-0.7192475759059263,-0.0352975979076395,-0.033780395040189,-0.0165266541572643,-0.0012528871316529,3.236082614875361e-05,0.014461912142583,0.0297182637917665,0.9994534114124716,0.0128345989657958,0.0120879019962665,9.826232001598935,0.1078018595181022,-0.0188124825727869,0.0002935470255249,3.0210669546711166,4.505897164388777,3.643003899595524,1101.5854820592735,1097.1721064177339,1099.5374024265304,1115.7683725061763,267.0673106456471,56.20109735858964,-185.20804145766135,-531.3347673284248,162.3324343063665
9.835,0.66431535330563,-0.4881953561192454,0.0239850956271342,-0.0317945340649496,-0.01698385151486,-0.000727156598007,-9.580273569291421e-06,0.014418638608962,0.0296772052424534,0.9994552615218772,0.0186233912256168,0.0121730016132435,9.821008649048911,0.1083834251024018,-0.0188389974117056,0.0003151884968014,3.0213314092259207,4.5058586669704095,3.642993153258789,1102.3942098608395,1097.552698347934,1098.8602922710827,1114.493716204386,422.42885178709673,264.97432920273644,-359.08357214287963,-506.9672385536823,162.33240944005829
9.8375,0.521635950760204,-0.2469114365723371,0.0636115820582553,-0.0302341123796644,-0.0174000386241349,-0.0002750191516779,-5.424987534018647e-05,0.0143586178102994,0.0296339816455103,0.9994574137591656,0.0244730419008901,0.0123019121658316,9.815765884734912,0.1089963025650316,-0.0188501847202375,0.0003226406491697,3.021598174208074,4.50582172256261,3.6429824233372297,1103.6976263182096,1098.4969780637475,1097.7419845658155,1113.2335363134075,527.6348294175161,401.751594008272,-422.83664407122393,-406.9145033287341,162.33235162672375
9.84,0.3636807769288097,-0.0771999286227247,0.0750384532726774,-0.0294827860774504,-0.0175980131273933,-5.424156324669945e-05,-9.988572901479e-05,0.0142942875558578,0.0295923000144568,0.999459577070394,0.0300582588277023,0.0124985514188942,9.810538843789598,0.109638753523538,-0.0188463516100743,0.0003186052036436,3.021866958035789,4.505786106072764,3.6429732478188392,1105.0323840079268,1099.5614563179747,1096.7461090507272,1112.4591436877429,570.8761074386301,439.6507903611529,-363.34526439548387,-252.10249530892284,162.3322748381568
9.8425,0.1729920596713133,0.0643597108553916,0.072284468579502,-0.0290871317157835,-0.0175903303127923,3.9417604179738485e-05,-0.0001480542656642,0.014237257727322,0.0295570097464548,0.9994614408534304,0.0350752470882245,0.0127163696144545,9.805362179564064,0.1103078718671128,-0.0188288522254715,0.0003051041710432,3.022137740390938,4.505751468013696,3.642966453144164,1106.552006855402,1100.695232015553,1095.9252582438387,1111.9730238368631,686.232589414687,459.51663375382947,-273.70665223752707,-156.99373698564435,162.3321623356501
9.845,-0.0904636960268777,0.2089936059344246,0.0618311669120877,-0.0288516699961792,-0.0174407655743278,5.9127341805624736e-05,-0.0002014738686806,0.0141902886497734,0.0295298306870134,0.999462913829432,0.0394027195646868,0.0128793396075744,9.80027078991874,0.1109998263869322,-0.0187989929794217,0.0002820508118103,3.0224109247273367,4.5057173723397765,3.6429617255436058,1108.4635469550008,1101.8590394867445,1095.3775757895392,1111.6741750028143,693.2385288492977,359.70048930847787,-105.98957593704816,-72.41193291105222,162.33197945080084
9.8475,-0.3375318325000395,0.312317762496102,0.0522722496335635,-0.0288325960699574,-0.0170707285616497,3.433012943987471e-05,-0.0002617256131841,0.0141478621540112,0.0295103361869977,0.9994640846599419,0.043093929802584,0.0129289543102972,9.795299518594744,0.1117099124064879,-0.0187581438097197,0.0002477224445034,3.022687277830112,4.505683391188112,3.642957865019736,1110.0181994996492,1102.4937344620955,1095.3953103641531,1111.6109641723078,584.4371578858297,160.2413747719175,113.27853555492293,0.8209872032240851,162.3317825914943
9.85,-0.6065827634006811,0.3984538328295781,0.045306329731076,-0.0291219737617171,-0.0163896420878656,2.2862403810104423e-06,-0.0003269634549405,0.0141106087720281,0.0294991969979333,0.9994649221034216,0.0460971213388991,0.0128782883109762,9.790482176197699,0.1124325872469728,-0.0187084331847172,0.0002022635242509,3.022967644129672,4.505649943610877,3.642953709207041,1111.385732744429,1102.6602463606039,1095.9439684673139,1111.6782799388307,493.1720167485903,-13.498635269341028,299.706403229628,40.80714104447269,162.33153446034538
9.852500000000001,-0.8806315270008847,0.4681142304813922,0.0411021368663224,-0.0298738157018731,-0.0155783630531134,-1.2870083715568957e-05,-0.0003922694195313,0.0140817169798191,0.0295002645586774,0.9994652669860244,0.0483272261022788,0.0128036155497273,9.785852009001658,0.1131616704105203,-0.0186532153694725,0.0001469908136152,3.0232519565933447,4.505617252241412,3.6429499058644335,1112.4840595833923,1102.426241285749,1096.8938423803015,1111.8149998775302,347.7152397410375,-177.27534199727373,454.04185022827915,65.76595711588989,162.33124020945172
9.855,-1.1305882747445,0.5121122732457877,0.0389259203460426,-0.0315317034821697,-0.0145820932711992,1.9320069627381285e-05,-0.0004534945509811,0.0140634869553699,0.0295150475863591,0.9994650438825934,0.0497316481251353,0.0127694083300169,9.781442026853613,0.1138908880075041,-0.0185957767571837,8.355380091445225e-05,3.023540175243862,4.505585888026551,3.6429462726305446,1113.1243089431348,1101.7738696506171,1098.2141777184556,1112.00710972441,145.51139165899423,-357.17924366133786,626.739636759282,96.28960211236613,162.3308862644651
9.857500000000002,-1.3468259007960337,0.5239417576255062,0.0352771005928496,-0.0349950513482279,-0.0128986481751843,0.0001479114338448,-0.0005087426145915,0.014053454358488,0.0295428913344852,0.9994643095938645,0.0503650432320826,0.012797762559911,9.777285242236182,0.1146142148888983,-0.0185392349541722,1.3040599437506547e-05,3.023833154229103,4.505557186507942,3.6429414446200585,1113.2116165416871,1100.6403450674427,1100.0275405640975,1112.296447888092,-97.91065041569838,-454.8869797040874,670.7121565080313,119.33660347092528,162.3303876038941
9.86,-1.4103767724807748,0.4912564520737838,0.0285868407605393,-0.0392067804541875,-0.0110801159773659,0.0003516744156094,-0.0005567015262748,0.0140479609176475,0.0295800548642303,0.9994632316305057,0.050319489297971,0.0129035126069976,9.773414628874674,0.1153263128949152,-0.0184860658328456,-6.323478781224742e-05,3.0241307064698715,4.505531716240003,3.6429337744178727,1112.6347556910564,1099.4994347520972,1101.5677385009951,1112.6037927417647,-374.4098036570773,-480.5229302378552,585.0340225529176,143.34464928117575,162.32990713284914
9.8625,-1.3039250792958148,0.4108253124315623,0.0160348005224344,-0.0442685761610417,-0.0090961811399555,0.0006606759631858,-0.0005949228610691,0.0140410600794618,0.0296187749730748,0.9994621311570464,0.0497453435734769,0.0131270433874676,9.76986354883708,0.1160230189611088,-0.0184374961246349,-0.0001442222813739,3.0244320169555747,4.505509229937448,3.6429210899532047,1111.3395675234017,1098.237730416253,1102.9527106768624,1113.013171134498,-726.6812371503648,-573.0487233136969,539.0250959788385,209.83938800942627,162.32935588159103
9.865,-0.9517672393863869,0.2708701521270601,-0.0040924482307982,-0.0499586310691581,-0.0072080623670473,0.0010945151606152,-0.00062395974984,0.0140292244212274,0.0296544603105665,0.999461202276124,0.0487551117139269,0.0134536566883282,9.766666299040498,0.1167014839227065,-0.0183947348980212,-0.0002287268611547,3.0247359531726645,4.505489138022624,3.642902808274372,1109.001349505304,1096.6341911355285,1104.2628639808895,1113.652989681812,-964.5792682459261,-599.4782559995938,406.43295724961615,259.62051727192994,162.32860987113284
9.8675,-0.4779804104006725,0.1384785381402383,-0.0195364093119218,-0.0534780224411941,-0.0066381060697543,0.0013869609059096,-0.000645035212986,0.0140117657058882,0.0296875252016713,0.9994604538369792,0.047414459226928,0.0138578155705778,9.763858851708589,0.1173603716736898,-0.0183590758336958,-0.0003159362409474,3.0250411343803263,4.505470443801681,3.642881986461647,1106.516671182173,1095.2403391362557,1104.9848754631103,1114.3112737208571,-1056.3273503086007,-565.8329088162216,208.68871705839783,282.5360590738923,162.32791678034556
9.870000000000001,0.143550255867179,0.0210261782640535,-0.0213992803606867,-0.0548096833585094,-0.0071515683105547,0.0013485243462712,-0.0006614969742156,0.0139940985498555,0.0297165251428134,0.9994598662651728,0.0456751067937768,0.0142768221268885,9.761479573710941,0.1180001652964125,-0.0183300655365773,-0.0004052101759536,3.025344676136541,4.505451013710761,3.642862021970718,1103.71971275376,1093.805026591447,1105.3063075661819,1115.0656699771816,-1226.8504691249648,-632.6250383361105,63.12982728894817,338.0160220682154,162.32714953038513
9.8725,0.9858082196351402,-0.0728784080446452,0.009648577004109,-0.0533135855336433,-0.0082722037847503,0.0008618707257696,-0.0006781933161512,0.0139862987382295,0.0297361603970188,0.9994594698429404,0.0434010170987783,0.014621122757458,9.759569935024508,0.1186229446619732,-0.0183049990520848,-0.0004964856347155,3.0256439110103406,4.505428470999098,3.642844448081436,1100.3824188365472,1092.0772139445746,1105.300524599555,1116.0013538311987,-1161.9112754531254,-623.8528797470158,-48.588295174259315,332.8617648964817,162.32614451590004
9.875,1.706387587009511,-0.1012021998249238,0.0733951884690692,-0.049761402202602,-0.0092663420254468,0.0003360645555663,-0.0006999366307913,0.0139902613499119,0.0297440111989967,0.9994593225337486,0.0406180475831807,0.0147939670616966,9.758175514869096,0.1192314313553148,-0.0182807678388077,-0.0005930244921356,3.025939000792741,4.505402704016398,3.6428315146427743,1097.9101563764957,1090.6857621927124,1105.0633660903106,1116.7299788016635,-865.074867780858,-529.5243547045774,-118.08923541159476,261.84598545219814,162.32523874524063
9.8775,2.3759803836383044,-0.0787693095650344,0.1800754933605317,-0.04428635168057,-0.0100255317026035,-4.411430600551707e-05,-0.0007225484699723,0.0140021442616087,0.029744046143698,0.999459373755634,0.0374698991149513,0.0148657743946528,9.757345497743511,0.1198279755537178,-0.0182551947418126,-0.0007000502053425,3.026232514467908,4.505374212836106,3.6428246974577783,1096.0570444976438,1089.4295921710523,1104.7100784224972,1117.3105837584594,-609.4785979473684,-465.9379363351672,-145.35739688597008,195.06649964970757,162.32426566456647
9.88,2.9566551503774363,-0.0236333224043919,0.3169156703412593,-0.0372528689170302,-0.0101622921750606,-0.0001419650440428,-0.0007385534046869,0.014020342774537,0.0297428486061465,0.9994594623150758,0.0340580032868278,0.0149680360760108,9.757131351983562,0.1204140007698583,-0.0182265957494681,-0.0008221807391374,3.0265269383626126,4.505342926487027,3.6428243276882286,1094.8627633867584,1088.3560725110362,1104.3365791058807,1117.7053112999124,-307.6556933521234,-369.76941024985206,-144.68567834821908,100.62833825466689,162.32324026980842
9.8825,3.383464873206524,0.0555407445689019,0.4731487627892886,-0.0286247860834819,-0.0096508159843525,0.0002951384184165,-0.0007446400636123,0.0140368175408297,0.0297476145377719,0.9994594878691488,0.0306056365898084,0.0151432886223755,9.757585786543192,0.1209897266092197,-0.0181937085352223,-0.0009647530540367,3.026824524651371,4.505309532449738,3.64282923922726,1094.5187660308827,1087.5807451198027,1103.986650030756,1117.8137254497328,30.88391361298523,-257.7703567854372,-147.0517179954933,-32.076837947267464,162.3221568912491
9.885,3.6748280117624104,0.1635547365500871,0.6496859005320526,-0.0171978046919226,-0.009085189673173,0.0016926401535884,-0.0007410305426365,0.0140448349492833,0.0297603574401152,0.999459470965914,0.0273066743819835,0.0153635528941699,9.758759465524289,0.1215544161431584,-0.018154691208058,-0.0011310217608883,3.027126853074626,4.505274627043112,3.6428360571182496,1095.0171829548233,1087.067220727109,1103.6013205159031,1117.544927110176,309.109697034134,-114.2372605351105,-138.9792113941222,-173.87169695127352,162.3207967138559
9.8875,3.716854629042595,0.2584033180349407,0.7583830170187665,-0.0071247663045598,-0.0086937591555769,0.0037177707707225,-0.0007269155423945,0.0140446473484082,0.0297847864597091,0.9994592665958348,0.0242173019546966,0.0156222419803557,9.760696842855683,0.1221064756557161,-0.0181091188820468,-0.0013200106658378,3.027434616343728,4.505239626105395,3.6428422752785936,1096.0643145160539,1087.009558817127,1103.2917539737853,1116.9443669649763,512.1005361556963,51.512989704534576,-126.3691030782668,-326.73143078108643,162.31961810826547
9.89,3.549753071425561,0.3521210866022601,0.7938166142313484,0.0028951060676812,-0.0079273626724362,0.0065607204247598,-0.0007056892194569,0.0140397067994393,0.0298233038499507,0.999458696918956,0.0213260915880737,0.0158316745112759,9.763432724520593,0.1226441039326277,-0.0180574017255141,-0.0015273431336768,3.027747403811819,4.505205755670543,3.642846317922404,1097.577685635602,1087.324785675632,1102.969475000512,1115.9112699562704,732.4001749691527,213.4384697980265,-149.11724893525627,-557.2778704429055,162.31839849721308
9.8925,3.13386030681266,0.4557217385673767,0.727098696926441,0.0136245449364108,-0.0062467691910023,0.0102778916015655,-0.000683728149541,0.0140316096236346,0.0298733086003822,0.999457726962266,0.0186523163523431,0.0158458845182409,9.766989007938168,0.1231660069276751,-0.0179998509521959,-0.0017465536853266,3.0280645308507834,4.5051743137884825,3.6428458208778856,1099.726315390899,1088.0767511661168,1102.5461677291091,1114.1579776127624,819.7453088723516,324.7453151212731,-163.27477563976183,-722.2363812646181,162.31689419562136
9.895,2.6431152485635283,0.5324992459862208,0.5785025324971934,0.0208693432043822,-0.0044530904608115,0.0129788482510147,-0.000669538427884,0.0140215056379827,0.0299280819443026,0.9994564089560496,0.0162178523729986,0.0154791207875409,9.771371308159543,0.1236719040980696,-0.0179366653861503,-0.0019691640400159,3.0283846783938952,4.505146018049801,3.6428377256855935,1101.676412179963,1088.948512251238,1102.1531011223133,1112.300088049948,793.6883377907758,379.83899174413153,-165.00307540788674,-805.4725331770092,162.3156113998809
9.8975,2.054938585640666,0.6057238850199611,0.3510961701804486,0.0262508569726708,-0.0028638153692351,0.0146975782039398,-0.0006617396326749,0.0140123140737355,0.0299812838873072,0.999454788018836,0.0140098072449716,0.0147423376513918,9.776565920115264,0.1241627740398206,-0.0178687612266685,-0.0021846232629012,3.0287062275131738,4.505120850099968,3.64282098909256,1103.6947570798532,1089.975946124838,1101.7211523520696,1110.1306149468767,808.6736814177683,421.49583415828374,-174.83803467704996,-895.3243034689385,162.31430387630996
9.9,1.4259615651807576,0.6863578374096767,0.0829166158193935,0.0300912125991337,-0.0015876588134723,0.0153742238673216,-0.0006591909919812,0.0140083596857964,0.0300277420605478,0.9994530695613008,0.0119803809274472,0.0136464633652544,9.782538795983385,0.1246410396382898,-0.017797496429822,-0.0023817899658182,3.029027699179916,4.505097613618901,3.6427977066897577,1105.7197805870524,1091.0559914220298,1101.278910948928,1107.8234665326027,801.4974999247218,429.770976699132,-168.271564123176,-919.5357224348307,162.31297996140455
9.9025,0.791808727110842,0.7882085254072893,-0.1989862113020446,0.0320386958171831,-0.0005024298365802,0.0149102423088654,-0.0006642677870227,0.0140168313551295,0.0300596052872472,0.9994515100603368,0.0100148864999994,0.0121406107459168,9.789235286779462,0.1251106753643665,-0.0177233526627206,-0.0025496958180825,3.0293470934008484,4.505074742081651,3.642770883435003,1107.7022445794762,1092.1248010083332,1100.8797945314539,1105.5329363347034,847.886526253283,457.13267615701614,-146.65081525802825,-955.3413014744899,162.31164125258832
9.905,0.0712909888373681,0.9411121806181156,-0.5097440453085352,0.0323545046241953,0.001061978844904,0.0131865622060734,-0.0006757781925376,0.0140415910082923,0.0300712418223233,0.9994503082637984,0.0080562329093951,0.0102467167185341,9.796581766126284,0.1255766791827121,-0.017647047006165,-0.0026796143189818,3.029663407647465,4.5050515164600125,3.642742476288394,1109.959213218318,1093.3416548028144,1100.545656872638,1103.0467600252312,794.0076376627198,434.24714912059727,-85.40226727603597,-836.7434324718542,162.3100243834373
9.9075,-0.4714593838702894,1.0884196431940367,-0.7203692177080668,0.0313227614677982,0.0029807746808385,0.0107866479919295,-0.0006915980074225,0.01408072193109,0.0300612826922048,0.9994495840574396,0.0061513414052172,0.0080067433055505,9.804488191940264,0.1260444344183736,-0.0175700187426529,-0.0027661367891137,3.029976644164575,4.50502845928402,3.642714040678244,1111.6722827677904,1094.2960367539365,1100.4527831950736,1101.3492191723435,631.3174887573417,373.44952315428213,9.997119074658512,-574.5156626666824,162.30867347706857
9.91,-0.937316650570706,1.2392180585828858,-0.8634890769528862,0.029337515673493,0.0058661763186837,0.0077812929720349,-0.0007081548950224,0.0141327168056325,0.0300294917475598,0.9994493948436908,0.0043306991887374,0.0054971209637792,9.812850247031918,0.1265192069740628,-0.0174936685430361,-0.0028057136482388,3.0302869717773286,4.505005700772378,3.642686282510097,1113.1158006621051,1095.208902418586,1100.5956424680112,1100.1741817118973,548.5337532922769,397.77874536338186,114.87663516002168,-380.82521949021,162.3073254468623
9.9125,-1.396678263804071,1.4002890751870158,-0.9586833296851134,0.026062411982034,0.0103116246166102,0.0043817485078019,-0.0007241933088996,0.0141968186312076,0.0299798521028702,0.999449642259814,0.0026004478173417,0.0027546911183825,9.821552724331555,0.1270054032001912,-0.0174200896982279,-0.002796602992918,3.030594974927193,4.504982577744008,3.642660121063483,1114.4149515342513,1096.284930480753,1101.0271663708736,1099.4450930748928,387.5615630350088,392.50279111041215,192.20349044787048,-152.87689107701564,162.3057191684404
9.915000000000001,-1.689720876424576,1.5051495723300239,-0.9876262437131332,0.0225678252830655,0.0143641983416135,0.0021346439240555,-0.000742259439464,0.0142681633087641,0.0299184529438951,0.999450208806864,0.0010384177971396,-0.0002553803298386,9.830473793512258,0.1275060428075624,-0.0173515431910288,-0.0027399493513846,3.0309022958950567,4.504958879042757,3.642637073413165,1115.0536084772807,1097.1714163741383,1101.5566599202507,1099.409797256512,148.7937968952105,347.58845216605573,231.25961232604843,95.09217706339192,162.30439623966006
9.9175,-1.8794849096900703,1.5740355691665455,-0.9849967799877348,0.0182161406295499,0.0182746439975293,0.0004438874999586,-0.0007635636704775,0.014342405160497,0.0298506351886176,0.9994509880633644,-0.0002914405703351,-0.0035360123245293,9.839487986259373,0.12802246206482,-0.0172898705596659,-0.0026381195179851,3.0312106551089273,4.504934089747241,3.642617306252168,1115.1589205187274,1098.0228727415836,1102.183464432504,1099.9205539602099,-81.29237275417634,352.4429311524974,281.560128048624,329.1275043127571,162.3030972798281
9.920000000000002,-1.9749627253608852,1.6174446512591425,-0.9615370856243072,0.0122360683598272,0.0227778465762856,-0.0013886327274423,-0.0007868349159997,0.0144167182822801,0.0297841473517932,0.9994517802196524,-0.0013558286038373,-0.00703566005045,9.848469593129073,0.1285540236523513,-0.0172374643228918,-0.0024939560965494,3.0315216215606284,4.5049082249610315,3.642600456343698,1114.64714661351,1098.9336310299007,1102.9644605604935,1101.0554347780756,-285.901003788797,301.3092323397504,284.5147078036573,482.6002734245372,162.30157568423007
9.9225,-1.9378691214001715,1.6237832425277343,-0.926451260111801,0.0070775930176097,0.0265203164325539,-0.0031194097353421,-0.0008069722604869,0.0144857799961645,0.0297253057560062,0.9994524655454836,-0.002070050653172,-0.0106236304104064,9.857296577610223,0.1290982969529156,-0.0171964762689512,-0.0023113365154612,3.0318372152311674,4.504882779133151,3.6425851612212017,1113.7294154997835,1099.529418903282,1103.606037971522,1102.333555327332,-445.7259567612467,187.0783450780144,255.8269774450364,553.42549274897,162.3003457151974
9.925,-1.7789140453370422,1.6009697027602023,-0.8656697367780885,0.0023914562758691,0.0303055825814413,-0.0053193559379881,-0.0008250063870931,0.0145484420069977,0.02967707469681,0.9994529580173585,-0.0024331718710595,-0.0142823374780475,9.865852275760387,0.1296515017185824,-0.0171683277126596,-0.0020934171961196,3.0321584559730423,4.504857796569072,3.642569870350577,1112.418516829703,1099.8690227552909,1104.2435954477187,1103.8225622418208,-564.119958374843,83.4357157353094,260.21948290095247,610.3883258673205,162.29916341172125
9.9275,-1.5229535597198371,1.5541106547945855,-0.7730347391915285,-0.0018150586894046,0.0341873251102289,-0.0077966750588866,-0.0008398863015871,0.0146079135177847,0.0296416818296469,0.9994531343456354,-0.0025256885190781,-0.0179462757496436,9.874027957806563,0.1302089738985457,-0.017154454095923,-0.0018422608275956,3.0324858643091406,4.504833176796581,3.642553491322449,1110.908815707909,1099.9465974819586,1104.9071353860268,1105.3854969566692,-616.8139422986632,-36.019473513495434,277.8695711762892,620.0852599342267,162.29802643072475
9.93,-1.1587493201411678,1.4788719729509072,-0.6334999086967649,-0.0056313224933373,0.0381867702757461,-0.0101324461923761,-0.0008483835328939,0.0146635045739525,0.0296235619717818,0.9994528664554172,-0.0023460343318243,-0.0215055716388623,9.881726318714035,0.1307657221377377,-0.0171570574935239,-0.0015610953461498,3.032819221018692,4.504809006624565,3.642536042655528,1109.3344471182106,1099.6889253877234,1105.6329433036,1106.9229885414911,-665.4653988740262,-181.7207476706415,330.3458116165468,645.4629114142235,162.2969507088904
9.932500000000001,-0.6168985123699618,1.3616997224896437,-0.4126614035662631,-0.0096787923305591,0.0425792793242468,-0.0123834368541687,-0.000850141060146,0.0147127119162654,0.0296218851229295,0.9994522080557304,-0.0018542860048985,-0.0249038710908358,9.888862821738446,0.1313174131682851,-0.017177109452766,-0.0012541300012103,3.033157188692345,4.5047852219250135,3.6425178056549337,1107.5814887135384,1099.0379937436053,1106.55886444411,1108.6128115137408,-596.2757352521271,-278.7617750623231,334.4949854830179,580.2461213916561,162.29573868870864
9.935,-0.106210752104668,1.2506825982638394,-0.1938170674283657,-0.0119448934773841,0.0454681006660212,-0.0138209689843025,-0.0008411778738557,0.0147544612504053,0.0296340727504109,0.999451249213021,-0.0010332038662928,-0.0280092734050976,9.895366994503496,0.1318608579188635,-0.0172152632751128,-0.0009257454025193,3.033498335561216,4.504762727495702,3.642499949554807,1106.3530684419495,1098.2951165124116,1107.3054182310154,1109.82421914845,-426.6672417766979,-309.9603573356197,265.01406242574194,434.26063556684767,162.29479986844242
9.9375,0.4106345795620662,1.1368731497187916,0.038631222312378,-0.0119274858918659,0.0477459812851268,-0.014727660742178,-0.0008182780038661,0.0147874630402341,0.0296612718642167,0.9994499745670958,0.00013991909736,-0.0307035825079176,9.90118358906185,0.1323942238533447,-0.0172731498291757,-0.0005811613836995,3.033841548140341,4.50474196017287,3.6424832868986576,1105.4481525046551,1097.4881919569275,1107.8839347562384,1110.7841146915744,-318.64408220769263,-332.3273336106219,178.93508988689896,361.12533228409035,162.29394107461724
9.94,0.9558824513176722,1.0016060369156135,0.2920214583401843,-0.0088581973719654,0.0502789982794607,-0.0146119461391911,-0.0007798986531734,0.014812248517578,0.029699401912463,0.9994484979508308,0.0016508693879043,-0.0328989543318883,9.90627282259752,0.1329175560339271,-0.0173508103719948,-0.0002258994721003,3.0341857668360435,4.5047223680243444,3.642468979138204,1104.7598480309111,1096.6334798443588,1108.2000936804495,1111.62984580987,-189.4139554121625,-269.5098475844167,32.70149973940932,261.3776448896761,162.29300961504072
9.9425,1.2915996156935097,0.8862700007597555,0.444291444942485,-0.0042716433907174,0.0524191581208738,-0.0130450698800706,-0.0007286772031816,0.0148307827864659,0.0297396597020798,0.9994470506201234,0.0034525438124993,-0.0345891822533163,9.910610295014324,0.1334327829102018,-0.017446586652701,0.0001342183314136,3.0345291173108495,4.504703050064451,3.6424585090255808,1104.5010827275944,1096.1406427190052,1108.0474422549355,1112.0910029160232,-46.90570501842734,-130.7461617485183,-154.94483863519542,140.83597039959912,162.29232042399218
9.945,1.4612440603778876,0.7591063389487013,0.4940067997823773,0.0013194076832967,0.054724808661472,-0.009941283138449,-0.0006680968907864,0.0148454357389538,0.0297760858024782,0.9994457740179402,0.0054847016546687,-0.0357869794080527,9.914186771804655,0.1339432503980836,-0.0175590063196732,0.0004932292933513,3.034870648870955,4.504683996680076,3.6424528783510337,1104.5253195058192,1095.979749035616,1107.4253694872737,1112.3340256618683,61.56332296774369,13.578113033147902,-365.93663660749377,68.04634059473291,162.29172645939613
9.9475,1.4674804549631375,0.5847806165485118,0.4154535355840866,0.0078587553902126,0.0574232173056794,-0.005624260012872,-0.000607690882899,0.0148659122606637,0.0298061859926008,0.9994445906107904,0.0075315384999449,-0.0366248369930605,9.917005685660504,0.1344532836840421,-0.0176868603249178,0.0008472735219772,3.035210310710398,4.5046653869869955,3.642452177349039,1104.808899342433,1096.2085332841707,1106.2177590718984,1112.4312346189968,133.0267564660763,148.29509181865842,-493.2620209206245,12.879644142683707,162.29112895918215
9.95,1.334047878369512,0.4226708038068045,0.2521864012480898,0.0121775705911154,0.0590309351777957,-0.0030599333869087,-0.0005563657028355,0.0148988376111227,0.029829188285914,0.9994434196111164,0.009430778224381,-0.037230375616316,9.919083182407299,0.1349677503316815,-0.0178286771474431,0.0011925734891213,3.03554825225659,4.504646433656427,3.642455083337528,1105.1904532881497,1096.7212244947095,1104.95905938267,1112.3984238825817,163.69044819282124,255.48160464882685,-514.6854967740287,-25.06217660547526,162.29073052135567
9.9525,1.111564946517272,0.2532358323908955,0.0437475628595455,0.0146532761414788,0.0593395357295143,-0.0028257447425874,-0.000520295576368,0.014947923947493,0.0298433295727729,0.9994422569547136,0.0110713221983066,-0.0376856912909027,9.920445737033647,0.1354916697230414,-0.0179819317447541,0.001526020739132,3.03588454868206,4.504626635108751,3.642459770723308,1105.6273515833973,1097.4859413074153,1103.6443315880279,1112.3059237359691,168.33849686162176,333.4336364390064,-504.86370163249416,-38.74999320465438,162.29043903569257
9.955,0.8604216265814237,0.0853274197921945,-0.1484241640937393,0.0158244331706898,0.0587575520942317,-0.004294129743274,-0.0004960162760717,0.0150099430274344,0.0298511410909472,0.999441074088505,0.0124770071273788,-0.0378952343910849,9.92112818684752,0.1360295785323858,-0.0181444730982255,0.0018445467890206,3.0362203586383543,4.504606798681201,3.642465538224512,1106.0321457724576,1098.3883926769042,1102.434740874508,1112.2046739165585,136.5839524248075,380.5419445953551,-433.71550100536734,-33.98694605280747,162.2902387053649
9.9575,0.6169998182873414,-0.0825676666962226,-0.2669757763097689,0.0162069277125285,0.0581415409648159,-0.0068198390562941,-0.0004761635711919,0.0150885646751394,0.0298537095318967,0.9994397840590163,0.0135299499819453,-0.0376918624479981,9.92116843994819,0.1365853261565337,-0.0183129525792583,0.0021488241974604,3.0365564788047634,4.504586422468151,3.6424702173760615,1106.3102713455212,1099.3886510303917,1101.4757540830014,1112.1359890057051,76.6499713313686,452.25350296720734,-358.1401393961991,-13.72492227937768,162.2901509192995
9.96,0.3628254036978292,-0.301544759188004,-0.288376142517824,0.0162708805039065,0.0581871171366501,-0.009835092251376,-0.0004584770036351,0.0151876722145422,0.0298527744232316,0.9994382776179384,0.0140990802465975,-0.0370209286777591,9.920604438137273,0.1371617772053425,-0.0184833932621694,0.0024410837523075,3.0368934204951,4.504564362129176,3.642472363035036,1106.4153956291143,1100.6496601917406,1100.644040177527,1112.1360493051616,-4.717504244762666,468.5708234906719,-268.11981685864697,17.995326997512986,162.29017861879595
9.9625,0.1863262286200423,-0.512072903583264,-0.2066620087319032,0.0161315997512728,0.0585984743925466,-0.0115548416364901,-0.000446915085181,0.015300947869373,0.0298495828741065,0.99943660854533,0.0142481259721429,-0.0359690893672727,9.919472370529633,0.1377607749448709,-0.0186510074790348,0.0027218439676681,3.037231859853161,4.504540094048678,3.6424726112143744,1106.2866838242971,1101.7315051478452,1100.135154998708,1112.2259656406927,-93.41702544695221,435.0964930616512,-202.92255978819807,55.79145967659515,162.2903143472875
9.965,0.0347847161009619,-0.7522119649233764,-0.0478341960532827,0.0161987983022111,0.0582947028996718,-0.0121303631340304,-0.0004418324937772,0.0154252164575595,0.0298438469369078,0.9994348332547016,0.0139791556605872,-0.0345615094018774,9.917803530715142,0.1383830689356138,-0.0188101531602626,0.0029934147969291,3.0375722065262605,4.504512548192744,3.642471376597915,1105.9483105018799,1102.8251426570484,1099.629427378586,1112.4150066035445,-183.66306861493305,475.3485202657921,-271.3000231292966,101.84007387653972,162.2905684943446
9.9675,-0.1422420341134924,-1.0482160352224024,0.186567487377533,0.0164489543617248,0.0560668320205484,-0.011978072187789,-0.0004439369516419,0.01555877083124,0.0298359683016613,0.9994329704322936,0.0132659122738662,-0.0328412449130898,9.915622499998173,0.1390282358146745,-0.0189553213688848,0.0032589767674133,3.0379141859112093,4.504481092048615,3.642469068921169,1105.368368481223,1104.1082477491739,1098.7786548830616,1112.7351660100755,-227.21762729430424,455.0381691444925,-379.8175596097142,126.55856829817662,162.2910111151541
9.97,-0.3020662724343642,-1.2714954010739663,0.3830881978724922,0.016507247428557,0.0527400187820536,-0.0111903270902946,-0.0004519300775984,0.0156893949709671,0.0298279973369746,0.9994311527082675,0.0122952860585507,-0.0308285887624657,9.912947742503043,0.1396947328225858,-0.0190818928931631,0.0035190043472111,3.038258658022292,4.504446607539456,3.6424653128360305,1104.812222365408,1105.1003335027713,1097.7303395805372,1113.0477994450355,-219.0602298607358,362.9784916461064,-500.41691559496394,124.98313149565412,162.29149453028955
9.9725,-0.4863005129407758,-1.4374090516040283,0.5396229768447722,0.0164136297297109,0.0484659566232169,-0.0095892925134534,-0.0004679400325074,0.0158072514864434,0.0298173467139505,0.9994296161629824,0.0112115074057572,-0.0286180918231067,9.909789615756122,0.140380122079607,-0.0191848873408695,0.0037743689945796,3.0386060640205264,4.504409512050772,3.6424589416765216,1104.273067331919,1105.9231402074047,1096.2765703050864,1113.360081667554,-200.6433066072931,284.9235548854834,-637.288582638293,117.96990895393338,162.2920958872973
9.975,-0.6906250564744801,-1.5407647810915328,0.6358755819960185,0.0160979487921295,0.0439286598688849,-0.0072734529057078,-0.0004906273041867,0.0159089781302634,0.029798812496091,0.9994285785476422,0.0100413378205623,-0.0262374997930867,9.906150900331685,0.1410810910949484,-0.0192599017487059,0.0040273342772087,3.038956509774362,4.504370549569956,3.64245051385002,1103.809005832372,1106.5249512771984,1094.5438966673464,1113.637648989805,-157.47318115242973,167.75993029879933,-725.0934385820758,96.48446887784614,162.2927937182302
9.977500000000001,-0.904350424880402,-1.5657928703850363,0.637538689321212,0.0148374704699577,0.0395203434418491,-0.0041297261841909,-0.0005186949409408,0.0159896973314205,0.0297760108521092,0.999428019872721,0.0088519129772925,-0.0237214717450853,9.902028770399912,0.1417932542201068,-0.0193066654384139,0.0042788023428318,3.039310428737741,4.504331186798358,3.642440863950924,1103.4857014261568,1106.7619398588988,1092.6511031121756,1113.8425040119432,-104.38358861591227,0.2595771679807106,-807.1550853050313,69.26001145010386,162.29360553887102
9.98,-1.1361771524003828,-1.5176252976922493,0.527729026285588,0.0116726008240421,0.034701532637512,8.329696797231521e-05,-0.0005556754900255,0.0160485641426534,0.029750081843459,0.9994279312304406,0.0076404331862735,-0.0211978664296172,9.897415797766087,0.1425117671912455,-0.0193260760863007,0.0045294234233577,3.0396674373595824,4.504292339790978,3.642430559831886,1103.2870878892923,1106.5262491630383,1090.5081212408206,1113.9839490470556,-42.780539367740275,-179.55413449830235,-716.2859496450953,34.4642143500619,162.29470753672487
9.982500000000002,-1.279659807598233,-1.428547133752181,0.3677212884193338,0.007860026283263,0.0312498185972838,0.0029470954927522,-0.0006022595455044,0.016090920638621,0.0297204129394417,0.9994282632908924,0.0062973084114594,-0.0187317315922221,9.892302392877452,0.143231490711761,-0.019320369955701,0.004780278806501,3.04002671925795,4.5042549318946685,3.642422225647034,1103.271798729318,1105.8641691864075,1089.0696733639509,1114.0148250836935,17.972658704551513,-357.45054666170125,-457.1894887239523,-2.3043352742211063,162.295728839424
9.985,-1.346376256255716,-1.3100725841502876,0.1985212579367513,0.003689141107331,0.0283407093075434,0.0036403149600563,-0.000654863965334,0.0161230059813143,0.0296904854938357,0.9994288365307435,0.0047122351277953,-0.0162986995284285,9.886679990239472,0.1439469529733077,-0.0192946346320451,0.0050314800035748,3.04038832574,4.5042204220122395,3.642417813091332,1103.3769511828148,1104.73899642973,1088.222173797201,1113.9724273706845,62.14958619715554,-584.1016051243511,-210.27709988176304,-27.601893660353433,162.29685223227403
9.9875,-1.3291497300654032,-1.1542495610598191,0.0753313017372195,-0.0010402228714449,0.0252366942362072,0.0018336806603745,-0.0007069890051506,0.0161508071631895,0.029661423132005,0.9994295489197428,0.0027963762998217,-0.0138094103047243,9.880543656324836,0.144652709991421,-0.01925464560801,0.0052821456113689,3.0407525315539616,4.504190107829422,3.6424171923691224,1103.582546660304,1102.9436611607853,1088.018287864542,1113.8768156153917,80.59556005276694,-713.7771190394027,58.499623813113374,-34.7880515318084,162.29831224781742
