t,ang_acc_x,ang_acc_y,ang_acc_z,a_vel_x,a_vel_y,a_vel_z,quat_x,quat_y,quat_z,quat_w,acc_x,acc_y,acc_z,l_vel_x,l_vel_y,l_vel_z,pos_x,pos_y,pos_z,mot_1,mot_2,mot_3,mot_4,dmot_1,dmot_2,dmot_3,dmot_4,vbat
109.6325,0.085164700060201,0.4595471611103293,-0.0998253563868699,0.0156692480084734,0.0003435150841504,-0.0117895498035389,-0.0155831255423622,0.0055827245183423,-0.8603803637422415,0.509383304932693,0.1442292160262675,-0.1961830271036365,9.79067884563404,-0.0045911959514813,-0.0077849849304343,-0.0109133970386713,-2.6496897372480497,-0.8588964225535654,2.4749782616053486,1110.6748629510912,1095.068685162262,1101.6637573844907,1100.1594282745953,-214.0978792811848,336.59585448893694,-70.55706428163836,140.03155387686314,153.44540904980147
109.635,0.0969044648465237,0.4971306364065671,0.0861206614158051,0.0157118667786115,0.0007552493195661,-0.0126567411753425,-0.0155778276832559,0.0055465602100487,-0.8603987734899726,0.5093527736338145,0.1472347080185524,-0.194591542039525,9.794994662630195,-0.0044676591207202,-0.0078321173561029,-0.0108761457236189,-2.649702160457405,-0.858870422627155,2.474945490586775,1110.2440911536348,1095.8327438076528,1101.3225897039788,1100.2087448050524,-140.05952816236464,293.18206517509054,-208.44894577731648,-80.36384859495261,153.44284519093245
109.6375,0.078847676399799,0.5638700941759047,0.2812593590364832,0.0166082309901431,0.001807919221032,-0.0115195637838962,-0.0155645816021936,0.0055080517928194,-0.8604149651530522,0.509326254549828,0.1497510309806638,-0.1927896517646574,9.799098606719795,-0.0043262569396514,-0.007873847314701,-0.01082557874819,-2.6497156165960205,-0.8588459068831725,2.474916082554623,1109.97456531028,1096.534595488136,1100.621512655605,1099.7576090316209,-83.5389946112023,281.33705387320447,-381.4075397832598,-284.7506556982669,153.44032296420727
109.64,-0.0029107126893374,0.6396033753933645,0.4676504599459398,0.0179776289521073,0.0040137109104939,-0.0083975325669444,-0.0155407471735612,0.0054703421225744,-0.8604279963883416,0.5093053893763791,0.1516629372155268,-0.1908176265906791,9.802990544007267,-0.0041706240718485,-0.0079098758671888,-0.0107666662639332,-2.6497292181160272,-0.8588230989966741,2.474891173356467,1109.8263961805792,1097.2394290770176,1099.4155520050642,1098.7849915265624,-34.822451903059864,227.57681333589747,-487.1503906413519,-392.80040019129297,153.43735109581215
109.6425,-0.1276076881793767,0.6726712608033876,0.5575382085184765,0.0187972061136076,0.0065531707827081,-0.0053951276817981,-0.0155103703680574,0.0054390564619987,-0.860437795710027,0.5092901129502155,0.1529529565574241,-0.1888266536601169,9.806675858006587,-0.0040050866008964,-0.0079402343748031,-0.0107044737877112,-2.649742559398795,-0.8588026810148756,2.4748703356138124,1109.8004530507649,1097.6724795548143,1098.1857607024003,1097.793607030666,-6.24452785896778,133.63860705784063,-511.88910261236,-384.9755685032824,153.434924207651
109.645,-0.3019161517186416,0.6546919511830978,0.5784887535819673,0.0188647199041726,0.0092028050044705,-0.0029959795292217,-0.0154779843571014,0.0054159388527371,-0.8604437845718003,0.509281242953591,0.1536608384164608,-0.1869099235072485,9.810170259177006,-0.0038344157162205,-0.0079652978287341,-0.0106434381866574,-2.64975595074161,-0.8587855012256848,2.4748520988404685,1109.7951735412844,1097.907622112306,1096.8561064920048,1096.8601136840475,-9.387643376458119,56.54124445562034,-524.9850890237525,-331.7839875519848,153.4325526264016
109.6475,-0.5005252228031232,0.5923606897836927,0.5598532421438928,0.0181377048258771,0.0111872255848817,-0.0013461875413731,-0.0154460566811772,0.0054021312028968,-0.8604459017085783,0.5092787941228529,0.1538087828955258,-0.1851314396615129,9.81349965497658,-0.0036633961351846,-0.0079855547867965,-0.0105869498470205,-2.6497697141072623,-0.8587712212279495,2.4748344913758764,1109.7535148338825,1097.9551857770932,1095.5608352572767,1096.134687092903,-30.91214467188757,-31.30285285609123,-482.21312494777095,-217.56258518984183,153.43022895705172
109.65,-0.7020276406027866,0.4856488398977813,0.5248796793422303,0.0164034224748924,0.0120766894960012,-0.0005142869344035,-0.0154186105680106,0.0053964594217997,-0.8604446161894803,0.5092818643872484,0.1534797645777875,-0.1835328770692688,9.816696241006362,-0.0034965526473458,-0.008001399440191,-0.0105371070025364,-2.6497839808643726,-0.8587590700248467,2.4748157675737987,1109.6406128179246,1097.7511078480254,1094.4450408672612,1095.7723007580964,-59.93322114787581,-152.09970174010058,-423.3059401036128,-72.07645897471782,153.4279646370232
109.6525,-0.9144871225986076,0.3180056608993526,0.5018190107481623,0.0133528887168814,0.0127572621289321,-0.0001281676094103,-0.0153995400019356,0.0053985140211884,-0.860440501156642,0.5092893727505128,0.1527575655560554,-0.1821688186734025,9.819797000576193,-0.0033377998045347,-0.0080129511662495,-0.010494810417496,-2.6497989936663875,-0.8587479004286687,2.4747956740599455,1109.4538487281432,1097.1946872683934,1093.4443055567604,1095.7743047980296,-63.70775154147278,-253.9893878806688,-303.16854024504494,60.4995170023908,153.42531715840596
109.655,-1.0495656004537224,0.148189467802332,0.5162765037632984,0.0102036421736574,0.0138052546570691,-1.006615331331312e-05,-0.0153878266191194,0.0054068231120635,-0.8604343378300622,0.5093000462687177,0.1516632229462039,-0.1810278457501306,9.822844957255901,-0.0031901822121203,-0.0080200925292957,-0.0104599026519218,-2.6498146691571347,-0.8587371687463258,2.47477503122474,1109.3220740602176,1096.4811609086232,1092.9291981660372,1096.074798343108,-26.314382541091906,-324.29165721880446,-146.27606673656945,156.80164848814167,153.42316975479582
109.6575,-1.1322205496928364,-0.0490331579556192,0.5701921834329241,0.006858288050226,0.0151184382242993,0.0002838475171491,-0.0153803284170178,0.0054165925523053,-0.8604257014010096,0.5093147493309088,0.1502227492575603,-0.1800227251800567,9.825885297169684,-0.0030558957021344,-0.0080224850594725,-0.0104312904150612,-2.6498308517027596,-0.8587270694254182,2.4747544398560484,1109.322276815438,1095.5732289823009,1092.7129252230784,1096.5583130404696,53.491130628120565,-414.32695003774313,-46.89589447152402,225.35822321935967,153.4210849322674
109.66,-1.1768201850845987,-0.2953254261509072,0.6634989745790316,0.0032762277039322,0.0157370982310688,0.0012826724443214,-0.0153732806572571,0.0054244017776222,-0.8604136099338556,0.5093352911169448,0.1484442882184581,-0.1790841441497611,9.828961304503892,-0.002936189749062,-0.0080195115074368,-0.010407097541187,-2.649847044245841,-0.8587168512753968,2.474733692531491,1109.589529713358,1094.4095261584364,1092.69471869368,1097.201589459204,152.04645887831876,-410.7340236187858,16.203660053466194,230.77592829969,153.41865819624772
109.6625,-1.1795977973909146,-0.4773845252759743,0.7410433861246817,0.0007895938342881,0.0148266238534196,0.002930208459173,-0.0153669805741837,0.0054297518448834,-0.8603992303212867,0.5093596953551978,0.1463814966171405,-0.1782319896170866,9.832108994893202,-0.0028313544823612,-0.0080102582755686,-0.0103847475391458,-2.649863647778621,-0.8587055214191497,2.474711873231447,1110.082509109831,1093.5195588642027,1092.793943523346,1097.7121926819705,251.70843111415263,-306.34607101251186,47.66595752721397,190.7625448149198,153.4167010597982
109.665,-1.158988685841494,-0.5904797108655113,0.784285746088869,-0.0014619081216898,0.0122926291062751,0.0055722909241693,-0.0153641674673992,0.0054339443600138,-0.8603838890228143,0.509385625612709,0.1441147880946498,-0.1775409108158964,9.835356766943175,-0.0027408824949025,-0.0079936137396285,-0.0103610597924479,-2.649881051136843,-0.8586920759981589,2.474687780393616,1110.8480718689311,1092.8777958033709,1092.9330484813163,1098.1554021832803,381.0799877660257,-197.6493118019768,62.34843327580379,181.8473163464949,153.4148154004255
109.6675,-1.112464163174637,-0.6077127481535012,0.7656011231571938,-0.0043626262873956,0.0081347212992686,0.009525937198504,-0.0153680456231291,0.0054392461303762,-0.860368948121329,0.5094106640127585,0.1417246821122491,-0.1771058264683333,9.83872561814916,-0.0026636645268656,-0.0079685008103941,-0.010332494555943,-2.649899542437769,-0.8586759965474455,2.4746609544638596,1111.9879090486595,1092.531312305194,1093.1056856897246,1098.621429263702,432.80126952252687,-48.142268081981584,63.88977876382695,166.56513270792544,153.412640687594
109.67,-1.0534322196515566,-0.5182219405645729,0.6846873090730462,-0.0071015442527651,0.0048359867600717,0.0126743372895035,-0.015378809303567,0.0054480282247185,-0.860355555476854,0.5094328454683166,0.1392401561585079,-0.1769917566385152,9.842230753638736,-0.0025982329278157,-0.0079342195597203,-0.0102955104640046,-2.6499190905709127,-0.8586575142166321,2.4746315195867,1113.0120782165416,1092.6370844629612,1093.2524973751351,1098.9882278468192,395.4900795177268,119.04974496193884,61.51654012565952,151.89981967742088,153.41090644190135
109.6725,-0.9695380547257104,-0.3482195487953859,0.5521391627067948,-0.0098927231304098,0.0027479664188598,0.0147427139337365,-0.0153918038268901,0.0054637691489115,-0.8603437615147982,0.5094521904844233,0.1365959131458027,-0.177231640755021,9.845882218212836,-0.0025430428157946,-0.0078907565354597,-0.0102469844234765,-2.649938939312995,-0.8586374754316136,2.474600442283946,1113.9653594462463,1093.1265610300031,1093.4132683903526,1099.3809283620883,350.3196729625418,245.72664994584167,67.81332479651411,167.48563487473575,153.4092592994745
109.675,-0.8653141275257358,-0.1513798999423703,0.4020826173801295,-0.0124505099809928,0.0019655964280565,0.0157788743680053,-0.0154027912293324,0.0054819503935421,-0.8603345221901699,0.5094672606025678,0.1338131288645975,-0.177722453715922,9.849683269678673,-0.002496838726223,-0.0078391415297678,-0.010184405050185,-2.649958265315397,-0.8586173171305487,2.4745699599951467,1114.763676581353,1093.8657177126893,1093.5915639991176,1099.825656021192,268.32131604881374,331.40871190170924,75.16027254845565,193.9788728939564,153.4076889968941
109.6775,-0.7424919581048337,0.020244287934425,0.265185443809387,-0.0145899506659611,0.0027545845989629,0.0156747027025089,-0.0154107955884799,0.0054942189824478,-0.8603279882197812,0.5094779190062227,0.131004823718971,-0.1783237122783467,9.853628510885901,-0.0024588510388894,-0.0077813888189278,-0.0101060492254034,-2.6499767259380125,-0.8585983835710516,2.4745415019802706,1115.306966026493,1094.7836045895149,1093.7890697530956,1100.35082272656,178.2407579232506,410.78543445044227,89.83586796108202,247.1252777537528,153.40621653633823
109.68,-0.5868826469566466,0.131743222876629,0.1494078950444322,-0.0165641410185542,0.0051555318436114,0.01450304908163,-0.0154155526349198,0.0054973158474369,-0.860322820904023,0.5094864675960905,0.1282424337834021,-0.1789824218402737,9.857704762600767,-0.0024286840677968,-0.0077202563984386,-0.0100109665828095,-2.649993619464534,-0.8585808498257195,2.4745147892816433,1115.654880370971,1095.9196448849455,1094.040743338924,1101.0612824099633,85.90533878935811,400.42655004199366,95.21411178147464,266.6714271917196,153.40456884255065
109.6825,-0.4621087734985959,0.1176845895009407,0.1009028247045111,-0.0176680362388771,0.007757426206437,0.0132696128986742,-0.0154207417704751,0.0054949394219664,-0.8603180231450746,0.5094944367874141,0.1255925444872103,-0.1797955592529274,9.861889565812898,-0.0024062273949104,-0.0076589722396294,-0.0098987806441153,-2.650008601880064,-0.858564978480115,2.4744888338603594,1115.7364927204394,1096.785737339723,1094.2651403120024,1101.6841798625176,7.741173161873795,312.8392752688458,98.97656847401683,242.51384195376204,153.40329923775397
109.685,-0.3555624548199809,-0.0066400166836516,0.0859474849965678,-0.0181986964349488,0.009683529467238,0.0127173885093301,-0.0154305633457058,0.0054952136250812,-0.8603135509951569,0.5095016861955926,0.1230843648081144,-0.1809322623840734,9.866154762925289,-0.0023915333426732,-0.0076010087540211,-0.009769469963115,-2.650021628969265,-0.8585507379976325,2.4744631042496015,1115.6935862367802,1097.4838412612883,1094.5356261812935,1102.2738516197307,-24.811476378294913,262.90113784699577,146.37549669828,235.6884168547692,153.40214145863234
109.6875,-0.2577494957692157,-0.239448180508365,0.0637425629054699,-0.0185021070034326,0.0098204219639503,0.0132809243836537,-0.0154496063477015,0.0055024048532722,-0.8603103556155459,0.5095064255761369,0.1207906493647322,-0.1824919327282102,9.87046918633569,-0.0023848284075833,-0.0075498804324909,-0.0096231881719871,-2.6500331270572,-0.8585375733859285,2.4744372707394686,1115.612435338548,1098.1002430289568,1094.997017795493,1102.8626219467903,-21.985994645112427,193.04794445019348,208.56691548884424,186.90822915708569,153.40088596508363
109.69,-0.2013905007689458,-0.4557408889408461,0.0069178946280999,-0.0188131109053429,0.0080529360248291,0.0144335444898303,-0.015479741364829,0.0055119240681772,-0.8603085739563832,0.509508413478796,0.1188242523796844,-0.1843891283930711,9.874802684620132,-0.0023865073483126,-0.0075089285701743,-0.0094602083154683,-2.6500439386417582,-0.8585255616814881,2.47441110310165,1115.5836562635548,1098.4490809835384,1095.5784607587368,1103.2083927655156,2.90799164495448,115.841047886366,291.8073615628071,102.5397124392862,153.39995420830735
109.6925,-0.1652154589648684,-0.6435593002976194,-0.1196491051533982,-0.0192410381647704,0.0053075677716343,0.0156374254584771,-0.015517921858487,0.005517825415582,-0.8603080558471294,0.5095080589928622,0.1172252588112502,-0.1864591450592429,9.879126993120954,-0.0023969344004803,-0.0074809921669697,-0.0092811064975342,-2.650054481576485,-0.8585147618738855,2.4743853830096194,1115.6269752967728,1098.679448268388,1096.456054603306,1103.3753205089863,26.398880665914383,82.91027788211414,407.50675128295734,36.943904054734496,153.39914433534207
109.695,-0.1396586094441166,-0.7838540130866227,-0.3115482989109934,-0.0196723074221118,0.0024913816121517,0.0165447383366564,-0.0155587740417243,0.0055157204267956,-0.860309092990555,0.5095050819713733,0.1159754931532606,-0.1885344328509335,9.88341437564514,-0.0024163145524167,-0.0074681947656099,-0.0090868486414215,-2.6500652212541764,-0.8585052592268136,2.474361458528625,1115.7156506668844,1098.8636323729495,1097.6159945151555,1103.3931122857896,34.543595752963114,77.03604964670947,528.7409552657904,-25.36718323885552,153.39843724932356
109.6975,-0.1199539652584634,-0.8571731888918651,-0.5703458452635572,-0.0200708048476111,-7.937549971939635e-05,0.0166922061406857,-0.0155969196844951,0.0055092815549786,-0.8603117224896084,0.509499544722094,0.114971531376026,-0.1905805312943983,9.887635424744365,-0.0024445214481058,-0.0074717333587764,-0.0088787938500949,-2.6500765965984745,-0.8584969410127115,2.4743400060474623,1115.799693275538,1099.0646285166224,1099.09975937964,1103.2484845927916,13.206734812195652,112.12597477693828,707.1214702105473,-94.159775700604,153.3978551152719
109.7,-0.0957315453709181,-0.8715121535957754,-0.9175605248148784,-0.020511569976237,-0.0028269837342693,0.0154517758341604,-0.0156298402526835,0.0055080581144778,-0.8603144045957803,0.5094940195419325,0.1140940343820955,-0.1926903222358104,9.891758191834413,-0.0024810122090875,-0.0074918632115883,-0.0086584467839092,-2.6500883124829913,-0.8584885474545617,2.474320041735947,1115.7816843409455,1099.424262246834,1101.151601866205,1102.9223134072868,-44.94619290916939,165.1147175847337,773.039516436641,-138.43687244128745,153.39730083432173
109.7025,-0.0711614252318204,-0.830651871138304,-1.1938436308401388,-0.0208376227993929,-0.0048899627121328,0.0127996301973308,-0.0156597889006871,0.0055187467872369,-0.8603158538874494,0.5094905356292985,0.1133286109399795,-0.1949559767934213,9.895749318782716,-0.0025247572844165,-0.0075280709447098,-0.0084271352328085,-2.6501004799403938,-0.8584793424079458,2.4743001409901115,1115.5749623109923,1099.890202104545,1102.9649569618196,1102.556300230586,-141.55412651547664,232.30519478882556,711.9331218558381,-154.7786214391224,153.3969579792279
109.705,-0.0393570164311758,-0.7471997228472039,-1.3998299848226108,-0.0210434820418289,-0.00697189412411,0.0084714679553616,-0.0156880462724858,0.0055428994316466,-0.8603158111229693,0.5094894763752018,0.1126910296963007,-0.1973735113604096,9.899578423785496,-0.0025741482629158,-0.0075792402136084,-0.0081859156513564,-2.650112903183817,-0.858469115379807,2.4742798415043326,1115.0739137083688,1100.5857882207767,1104.711267475481,1102.148420300092,-300.4549588747072,360.99721600636343,714.8149874237923,-169.92030104394863,153.39673602081626
109.7075,0.0082304029707281,-0.6144697034838393,-1.51449214985301,-0.0209371803700136,-0.009368152049018,0.0022738144685099,-0.0157114970244562,0.0055757729996213,-0.860315399304129,0.509489092526161,0.1121801983569422,-0.199790064042275,9.903220739857776,-0.0026270217398642,-0.007643785683645,-0.0079356262018694,-2.6501255604880174,-0.8584577716984261,2.474260231729476,1114.07268751662,1101.6951881845755,1106.5390318989355,1101.706698725367,-432.9162410647132,443.49430701254965,605.6376453743842,-136.901522238949,153.39660476185534
109.71,0.0568653404186628,-0.4929821316378399,-1.4825975460010747,-0.0204694369610732,-0.0108049475729427,-0.0029663697305764,-0.015728539278816,0.0056093075869533,-0.8603148602627382,0.5094891151844516,0.1118473224989615,-0.2020164738222642,9.906652881262882,-0.0026808917254178,-0.0077196278789645,-0.0076770062946339,-2.6501385477215766,-0.858444668847312,2.474241808872172,1112.909332503041,1102.803259755844,1107.7394557023588,1101.463912688896,-519.5699164094966,457.85495755065045,403.46732935676533,-52.18901201723302,153.39660349867975
109.7125,0.120542713419333,-0.3836781902432138,-1.3261003183564484,-0.0199374727210181,-0.0116207562319192,-0.0076038552971739,-0.0157399795321723,0.0056371573012809,-0.8603141956642245,0.5094895886135342,0.1117606443858063,-0.2039231040377203,9.909850992886547,-0.0027330646443426,-0.0078042464851027,-0.0074107452993163,-2.6501512733188566,-0.8584286189463025,2.4742242597845934,1111.4748379345676,1103.9844629723332,1108.5563685457232,1101.4457536652803,-661.0061205071461,499.04851472956494,277.54087684018265,56.05429444963743,153.39670798564748
109.715,0.2283305938336069,-0.2925477472291737,-1.034216319293882,-0.0197208913677572,-0.012010246819292,-0.0115719887068874,-0.015750979083449,0.0056609685376935,-0.8603141747317757,0.5094890343326851,0.111975964038303,-0.205567305054688,9.912787723632944,-0.002780867981947,-0.0078947506088788,-0.007137546913072,-2.6501634667965805,-0.8584100449497075,2.474206848994419,1109.6043019005083,1105.2985023294896,1109.1271600865584,1101.744184161144,-678.2294165905826,437.2901508569951,154.61572904069237,161.42881549736688,153.3969474696002
109.7175,0.3551026201523823,-0.2641342763168045,-0.745888179721974,-0.0198635196513687,-0.0116685685444215,-0.0132780000151767,-0.0157669679976524,0.0056839019307915,-0.8603158756007142,0.5094854295526711,0.1125325510812041,-0.207042638325175,9.91543616319503,-0.0028220101038942,-0.0079881278366623,-0.0068580286861555,-2.650176057182327,-0.8583899611831155,2.474189956206744,1108.0836908516178,1106.170913726616,1109.329447190926,1102.2528977427664,-558.277643670461,279.45772993551094,43.98777361179234,242.8638285281912,153.39723641038967
109.72,0.5242222099311044,-0.2895888969614573,-0.4604169257372209,-0.0199126459955589,-0.0111163755095536,-0.0136160753417732,-0.0157889344399196,0.005709892739111,-0.8603191986193531,0.5094788681130983,0.1133800445211433,-0.2084194829964118,9.917772881250611,-0.0028548293405311,-0.0080813925076595,-0.0065727247525471,-2.6501901035489763,-0.8583693205964008,2.474174751953975,1106.8129136821583,1106.6957909791658,1109.3470989546172,1102.9585033037838,-438.84349840367463,146.20958523555257,-10.800382929720218,296.20608363729497,153.397611756458
109.7225,0.7195137468132363,-0.3492757283917483,-0.2052378236739182,-0.019537276413187,-0.0111738556299302,-0.0131276381185342,-0.0158136290379118,0.0057364262236348,-0.8603217078068667,0.5094735877026956,0.1144551659741323,-0.2096240146543912,9.919779652355214,-0.0028784505561453,-0.0081718083303395,-0.0062819128934427,-2.650205765672321,-0.8583491555112672,2.474160907302385,1105.8894733596014,1106.9019616527933,1109.2754452762774,1103.7339281609516,-262.0004962482592,13.615534933543191,-42.128854230859794,300.1325568363538,153.39805434725167
109.725,0.9188683731989726,-0.4234486858084923,-0.0022145890964691,-0.018251136829625,-0.0124069603382141,-0.0121415866272721,-0.0158390739641602,0.005759715002132,-0.8603216005012309,0.5094727329965144,0.1157262093795141,-0.2105804951722888,9.921438664281665,-0.0028926036018609,-0.0082569840367346,-0.0059856188546793,-2.6502228467886257,-0.8583298186512227,2.474147955210392,1105.5029112009147,1106.7638686538337,1109.1364546834625,1104.4591660879685,-32.27757719926686,-113.77255367516067,-78.52585234757782,275.15348748949265,153.39857310606317
109.7275,1.1104818259992155,-0.4920965426688532,0.1854455728867205,-0.01525216942519,-0.01483916623787,-0.0111152572387196,-0.0158678978975792,0.0057775278402955,-0.860318390567704,0.5094770664399219,0.1172229627466731,-0.2112922113236598,9.922729681069224,-0.0028974056261371,-0.0083349656678993,-0.0056836319914042,-2.6502413019060764,-0.8583113351034359,2.4741349010521216,1105.7280854736048,1106.3330988844164,1108.8828160145388,1105.1096955984017,195.6288219374943,-176.2405152456051,-116.46728178927012,184.29951384772204,153.39927783845673
109.73,1.18789566627578,-0.5141400691625067,0.3113415518846208,-0.0114817286025006,-0.0169116762374526,-0.010873336459221,-0.0159038273578073,0.0057886151741313,-0.860312235808641,0.5094862192607345,0.1189832865335701,-0.2117954301751425,9.923632583135364,-0.0028931239427426,-0.0084043592073587,-0.0053755533898363,-2.6502605698700488,-0.8582936488268502,2.474120862486483,1106.4810553106013,1105.8826660776065,1108.5541182745167,1105.3806636572062,405.24036848351466,-168.95786729548396,-169.78997036637318,41.45290989517112,153.3999297497765
109.7325,1.1384208121476405,-0.4933093069877813,0.4271656726238597,-0.006932345366239,-0.0184944333276796,-0.0113865643602884,-0.0159460031044907,0.0057945813469845,-0.8603034200225146,0.5094997209116635,0.1209377192782804,-0.2121328708541994,9.924130954515839,-0.0028799498771304,-0.0084643904410673,-0.0050610086862394,-2.650279819747616,-0.8582762962645784,2.474105590014005,1107.7542873160205,1105.4883095479397,1108.0338661627077,1105.3169601478771,654.7470263651619,-135.58940826263603,-281.5546410706534,-103.69777798578409,153.40064453537613
109.735,0.9137717626865768,-0.4245837387708898,0.5610819750737409,-0.0018300119645343,-0.0197397768780711,-0.0115226233210094,-0.0159905617562888,0.0057965602218706,-0.8602925049573125,0.509516732301707,0.1229711255938336,-0.2123114513547653,9.924212609865476,-0.0028579373283259,-0.0085149091558731,-0.0047398680398772,-2.6502985426865804,-0.8582590777244551,2.4740900123074048,1109.754790442424,1105.204719036294,1107.1463450691647,1104.8621747672776,788.255382877913,-64.64743163952757,-361.9606825444061,-220.20690889914496,153.40157039540952
109.7375,0.6003187501668874,-0.337351043044997,0.6539201130928861,0.0014459781377651,-0.0203404982072101,-0.0100171101160199,-0.0160311756692617,0.0057934248168016,-0.8602808984944539,0.509535088793946,0.1249512798342266,-0.2122755096341705,9.923870551342349,-0.0028269949161598,-0.0085563247940567,-0.004412432449574,-2.650316437921286,-0.8582415998696333,2.474075794955497,1111.6955642304065,1105.1650723897424,1106.2240627499873,1104.2159256033826,799.4371766992582,20.48594061425908,-376.8488004000112,-295.3764040369809,153.4023954172986
109.74,0.1963926264252983,-0.2234110102409051,0.6993478993025811,0.0031850388705742,-0.0206672150106238,-0.0070585282188228,-0.016064317525768,0.0057853839103686,-0.8602700692546142,0.5095524194133811,0.1267829172595458,-0.2120204646073076,9.923099543877177,-0.0027870026954161,-0.0085894400585916,-0.0040795664413722,-2.650333397891521,-0.8582234265944502,2.47406302249002,1113.751976325928,1105.3071487393654,1105.2621010671608,1103.38529274709,889.3809840910855,83.53434735679228,-375.7884594334441,-382.2268108737151,153.40327201945746
109.7425,-0.3221820717974686,-0.0539726349363649,0.6810709420774919,0.0029890629432355,-0.0209017875426208,-0.0036298534438321,-0.0160931277876522,0.005770810865102,-0.860260965515042,0.5095670404327272,0.1285064760743526,-0.2115768099267614,9.921895308047567,-0.002737991286631,-0.0086153676098473,-0.0037425914304596,-2.6503498241334076,-0.8582046707460845,2.4740511822167943,1116.1424691508705,1105.5827441265271,1104.3451204528164,1102.3047915490104,834.6154638184858,95.72360665719839,-251.61147321400824,-391.7840354289109,153.4043790265702
109.745,-0.7252915946788762,0.1192372056759254,0.6098636461782406,0.0009656406876836,-0.0210062582466862,-0.0015491924862711,-0.0161210305569815,0.0057489269170376,-0.8602543420476884,0.5095775772729882,0.1301629283964192,-0.2109902397073007,9.920259006227539,-0.0026802160952798,-0.0086354812961554,-0.0034032569608442,-2.6503656154789175,-0.8581853099129039,2.474039813614775,1117.9250536450168,1105.7857667726507,1104.004043701092,1101.4263725699473,641.7565051148738,46.201456555078224,-7.463162194615019,-328.95031519022166,153.40534411726856
109.7475,-1.0371975401880296,0.3312147722981906,0.500660981896987,-0.0025329476428089,-0.0209449611083709,-0.0003339771588299,-0.0161491898472565,0.0057188283520173,-0.8602517924944258,0.5095813124223729,0.1317616749021065,-0.2102780258441117,9.918200132516084,-0.0026142676262629,-0.0086513905716804,-0.0030637343720085,-2.6503801466673855,-0.8581650112383381,2.4740281546616427,1119.351251676442,1105.8137514093023,1104.3078046418434,1100.6600399730607,498.0267609295406,-35.291560896198725,240.12058470620116,-278.9879697103779,153.4063494441625
109.75,-1.2411316464191229,0.5756475909424306,0.3781710195367545,-0.0068816783853077,-0.0205939688786522,0.0003156335701355,-0.0161766598621186,0.0056825995885113,-0.8602536872162246,0.5095776270938381,0.1332514066853999,-0.2094840219986756,9.91573649434298,-0.0025413336469299,-0.0086648175396704,-0.0027267636852075,-2.650393308527612,-0.8581442672653606,2.474017136173648,1120.415187449662,1105.60930896817,1105.204646624622,1100.0314327213966,332.1798621976833,-146.0691740027833,487.4451137589744,-213.156506968665,153.40738516860975
109.7525,-1.2986067567847528,0.8505185006080976,0.2578316240633237,-0.0115097565129809,-0.0195989589835805,0.0005195759791879,-0.0162002732309657,0.0056420994474545,-0.8602597512113017,0.5095670645647131,0.13455193109872,-0.2086220826370333,9.912895691200754,-0.0024633894332255,-0.0086774896894271,-0.0023956537263038,-2.650405406935134,-0.8581245569784963,2.4740089681407174,1121.0121509874289,1105.083405539289,1106.745030210636,1099.5942574382184,158.7590789794001,-296.99128034867226,776.4656424413955,-148.3319757114244,153.4084539440831
109.755,-1.2085559759641704,1.1903056113869153,0.1297813521707133,-0.0161655041408418,-0.0172148996589277,0.0005119564927635,-0.0162216408039486,0.0055981822901024,-0.8602682918620626,0.5095524203899399,0.1356817750755198,-0.2077337557663923,9.909710875743261,-0.0023833057467716,-0.0086909361311872,-0.002074155914526,-2.6504173363553045,-0.8581075895825138,2.47400430164346,1121.2089828445585,1104.124352566428,1109.0869748368254,1099.28977284284,-4.86258999448152,-389.179741715564,890.552691467799,-78.88422609569933,153.40977000576552
109.7575,-1.0256912443357216,1.454974310176876,0.0396553674085623,-0.0188530969699252,-0.0139860979625422,0.0004305477069945,-0.0162446970854551,0.0055568511355921,-0.860277090108084,0.5095372498172415,0.1366548696005255,-0.2069681090326506,9.906220808818231,-0.0023046057550005,-0.0087062816569823,-0.0017662345966676,-2.650429826057497,-0.8580936539454407,2.474002262793603,1120.9878380374564,1103.1375068307075,1111.1977936679837,1099.1998363077391,-152.805198743886,-408.2772817367936,816.1643740857158,-9.207704824876084,153.4108912331366
109.76,-0.7673432015381674,1.6656644326033194,-0.036128770419551,-0.0203280632612944,-0.0095464554464725,0.0003634738964115,-0.0162734970950574,0.0055271758974086,-0.860284215392708,0.50952458462802,0.1374643894652699,-0.2065237470795253,9.902471290158278,-0.002231071835093,-0.0087241137515118,-0.0014756899621336,-2.6504440938164775,-0.8580822340428055,2.474002071504793,1120.4449568508376,1102.0829661577402,1113.167796707262,1099.2437343187155,-294.8578344994029,-453.7188598210412,780.8290955347101,40.322092395436194,153.4120337761543
109.7625,-0.4052936998869834,1.824063226437884,-0.1175575590384322,-0.0209832155517691,-0.0035656586812845,0.0003316276027147,-0.016306563832323,0.0055125171918635,-0.8602886818839589,0.5095160998650701,0.1380748015629529,-0.2064422814207166,9.898519934168302,-0.0021662971323658,-0.0087444853398034,-0.0012057420593368,-2.6504612472059854,-0.8580721718333965,2.474004015454735,1119.5135488649607,1100.8689125316043,1115.1019391456537,1099.401446769716,-377.1440551051247,-424.6840828071751,618.6601483644778,67.58824587829403,153.4134246441816
109.765,-0.0751386230814128,1.8645982101607697,-0.1819458300804681,-0.0209193271836384,0.0015378442851632,0.0003270996530083,-0.0163384256583011,0.0055097398588999,-0.8602902569491586,0.5095123960050437,0.1384548617812239,-0.206611277651279,9.894433815415256,-0.0021132911759159,-0.0087670486937143,-0.00095882550895,-2.6504810947983346,-0.8580626653396589,2.474008383692909,1118.5592365753137,1099.9595457437063,1116.2610974490815,1099.581675548107,-409.298214675445,-339.03565790318595,371.96346429516046,72.70165491083635,153.41459666125215
109.7675,0.2797963024407681,1.8077057929990528,-0.2437352807586095,-0.0207198961714008,0.0066764586999119,0.0002778712741557,-0.0163665685573757,0.0055157150909036,-0.860288457268583,0.5095144059287938,0.1386283649425912,-0.2069462129220168,9.890281472572669,-0.0020741834079551,-0.0087913019680766,-0.0007365096343224,-2.650503381742912,-0.8580539161857395,2.4740149105437608,1117.4670577915851,1099.17373424209,1116.9617564671275,1099.76495504427,-455.0459650721269,-298.60274166589863,219.26146096827253,66.99322291048429,153.41577784832268
109.77,0.6561405918456726,1.6773043925914066,-0.2990550499884666,-0.02046878367415,0.011666818393545,0.0001086202713411,-0.0163903830022289,0.0055305653411844,-0.8602825532683335,0.50952338675943,0.1386215090404691,-0.2074353940722038,9.8861307943086,-0.0020499456843499,-0.0088168808906839,-0.0005393210875918,-2.6505269996883287,-0.8580455407881864,2.4740225196717307,1116.284006749955,1098.466532035378,1117.3574047539219,1099.916641662659,-491.33799764604726,-274.4858864011955,108.19499352466671,46.338448704638296,153.41696340561123
109.7725,1.052512554359258,1.4789082542157317,-0.3341746415802444,-0.0196483352132813,0.015866968692859,-0.0003373133804459,-0.0164100736337306,0.0055555220805854,-0.8602736415738057,0.509537478688729,0.1384649625992419,-0.2080916894678188,9.8820480227967,-0.0020401271055734,-0.0088437893093813,-0.0003665624441222,-2.650550542125139,-0.8580369866601084,2.474029769968405,1115.0103678033504,1097.801304810081,1117.502731434752,1099.9966472877936,-576.9933167777925,-294.9594749849195,29.616188919942093,13.0718185107273,153.41815027199036
109.775,1.5229236146605427,1.200701470998315,-0.3294197212040753,-0.0171888898892319,0.0195550338930707,-0.0013672223134212,-0.0164193815842044,0.0055916675083311,-0.8602646332419909,0.5095519706097006,0.1380805972762314,-0.2088580994139363,9.878100758621725,-0.0020428213606083,-0.00887247008873,-0.0002162734759808,-2.650572016778516,-0.8580267048744658,2.4740356632308327,1113.3990401660603,1096.9917346604507,1117.5054856985219,1099.9820007552128,-599.9861793726723,-301.749587222095,-21.61190734456942,-25.75277500166135,153.41957084025984
109.7775,1.8736485850671671,0.9656769603214442,-0.2673224390504766,-0.0133867452542,0.0215886865075144,-0.0027146624206608,-0.016410631392852,0.0056312093275152,-0.8602601974329208,0.5095593181778937,0.1374533700170003,-0.2095106388015268,9.874354579700984,-0.0020549024954617,-0.0089037219245198,-8.528796703803455e-05,-2.650590052745664,-0.8580130336100003,2.4740398223058246,1112.0104369064895,1096.2925568739722,1117.3946718980294,1099.8678834127854,-555.1672219915009,-279.13264353012806,-76.97249540508616,-67.76220880616872,153.4207477520669
109.78,2.127111548894632,0.7573585882555516,-0.1279455245679838,-0.007536040126536,0.0227712275362737,-0.0044752062120585,-0.0163849651694822,0.0056591220997021,-0.8602612463670548,0.5095581016493355,0.1367838874316459,-0.2097923357736359,9.870864104653485,-0.0020727174462227,-0.0089384621778245,3.040644304499021e-05,-2.650605483429396,-0.8579972233053219,2.4740415741700827,1110.6232040561056,1095.5960714428013,1117.1206232214968,1099.6431897111822,-591.7595129968884,-289.60731705968976,-185.1598809319377,-125.12030707509903,153.4219128626754
109.7825,2.2645861206852578,0.5579500046575291,0.1278418873603786,0.0010665885859436,0.0236162745273332,-0.0064739374907503,-0.0163490736217778,0.0056676708822556,-0.8602669545063039,0.5095495757540015,0.136286258025652,-0.2096265138310043,9.867670530482728,-0.002092578145841,-0.0089775234216528,0.0001350764821542,-2.6506188463121068,-0.85798029536019,2.474040437418678,1109.051639341508,1094.844520288675,1116.4688724933703,1099.2422818774105,-543.6746214668743,-246.44319278085865,-315.519117007821,-169.0463986703153,153.42329187170793
109.785,2.221587848798835,0.4361668522130442,0.393255128634151,0.0083972148392667,0.0242767364939814,-0.0071458321149079,-0.0163118482211567,0.0056579353410296,-0.8602760768953149,0.5095355372113968,0.1361159815606038,-0.2091086126662637,9.86480272957113,-0.0021111295034645,-0.0090214479235608,0.0002327972814762,-2.650630535460396,-0.8579631098241823,2.4740364398702974,1107.9048309487737,1094.363855478898,1115.543027636459,1098.7979577178314,-404.24065183500807,-144.65701841913196,-469.47040727946154,-199.5999338725377,153.42442104559436
109.7875,2.025300230933852,0.3514072428204161,0.6628019004772375,0.0145613067224676,0.0250958662433615,-0.005771375156759,-0.0162781548285764,0.0056369268734278,-0.8602866546089782,0.5095190505240283,0.1362930155093176,-0.2083952701543315,9.862281899691764,-0.002125608573165,-0.0090702694285942,0.0003270836810631,-2.650641902436543,-0.8579460406764399,2.4740313515491485,1107.030436082329,1094.121235196578,1114.1215204569687,1098.244282208046,-303.90430186530847,-38.93966094353095,-743.5539864577731,-265.7622754080742,153.425524528139
109.79,1.6566434699011685,0.275233531617407,0.9207019181120621,0.0199610448109434,0.0262163560205585,-0.0021223677704244,-0.0162479699406044,0.0056073665735068,-0.8602984450208345,0.5095004875225251,0.1367916923210233,-0.2075217440376376,9.860124824633203,-0.0021338497269806,-0.0091233876742904,0.0004207587619021,-2.6506542282491767,-0.8579289388633585,2.4740273413929055,1106.385309439444,1094.16915717418,1111.825257704163,1097.4691463407885,-163.30179723050907,74.08875693279158,-928.223771924084,-299.1913626027319,153.42681317347223
109.7925,1.2789822057801068,0.2210281812801381,1.0384830343886167,0.0228840146532728,0.027306622398735,0.0017156387468276,-0.0162195474096343,0.0055676883581653,-0.8603104035471582,0.5094816806054359,0.1375936460289789,-0.2064358336392164,9.85834235110558,-0.0021343429073567,-0.0091795617917376,0.000515884176795,-2.650668406237275,-0.8579117962339942,2.4740249899824973,1106.2139270961773,1094.4916789812416,1109.4804015973525,1096.7483253950336,5.394400337723159,173.70803424671405,-998.6451019259664,-298.245329286827,153.4278531271362
109.795,0.8716891386304279,0.1679321985753602,1.0273151403697751,0.0245485107792148,0.0283405527314092,0.0058999115543778,-0.016192449418292,0.005518032697954,-0.8603220655388357,0.5094634265027949,0.1386805802351636,-0.205130028916501,9.856936812718551,-0.0021260880248807,-0.0092370919129066,0.0006137752605105,-2.650684322450701,-0.8578941145533727,2.474024086680539,1106.4122814411328,1095.0376973454129,1106.8320321945375,1095.9779196943557,133.3508935798212,235.48484149417664,-1081.8194081294512,-310.7103659597312,153.4288530662262
109.7975,0.4630267439040976,0.1161398509673292,0.9083283497969113,0.025616903444318,0.0291113795031509,0.0100746752283668,-0.0161698443861061,0.0054637491802524,-0.8603335139967333,0.5094454255386365,0.1400389895822737,-0.203724358408001,9.855900716801267,-0.0021085027502808,-0.0092940668146446,0.0007150980305335,-2.650701706184915,-0.8578757292284844,2.4740235661735857,1106.8806815640755,1095.6691031887115,1104.07130455671,1095.1947735652363,238.8346350291966,242.640871401493,-1096.5568504815078,-307.03421221756525,153.42981693570138
109.8,0.0699694714956919,0.0740346742272055,0.6853035571805264,0.0262006054377867,0.0294830857257066,0.0133315748294321,-0.0161518758375766,0.0054125008536435,-0.86034305529159,0.5094304504475655,0.1415764286951619,-0.2023519423163069,9.855222964590656,-0.0020814744295645,-0.0093485840441533,0.0008200509599359,-2.6507204204870742,-0.8578568225880822,2.474022831575324,1107.6064546162777,1096.2509017024192,1101.3492479421352,1094.4427486332693,358.279022552723,206.61742285488884,-1148.1883513937282,-308.57824339668167,153.43073486915938
109.8025,-0.3664278408531326,0.0505416014010266,0.3615901969517592,0.0260017158271708,0.0295082291851823,0.0150215448952005,-0.0161334188160043,0.0053707644429856,-0.8603491710186771,0.5094211590982288,0.1431206905139038,-0.2010761167510896,9.854892157910417,-0.0020452690333686,-0.009398972770058,0.0009284355272379,-2.6507403340222315,-0.8578381103531874,2.474022765816898,1108.6720766768428,1096.702190302988,1098.3303627997304,1093.65188234825,408.55589367095655,103.70737277201408,-1040.3181368674625,-259.3257553128741,153.43178147143215
109.805,-0.6867964122757053,0.0652879976088171,0.1025996338185477,0.0248479047718527,0.0292717344650665,0.0143603147494003,-0.0161082044559517,0.0053411759203038,-0.860352109843849,0.5094173036826746,0.1445182381811479,-0.1998856648588625,9.854895214619678,-0.0020004085465464,-0.0094439649424344,0.0010396921925689,-2.6507606877526713,-0.8578193591927001,2.4740243052072723,1109.6492340846364,1096.7694385662803,1096.1476572577878,1093.1461198567024,395.5332296005468,-47.50139507700396,-778.0338947670115,-157.91329131016747,153.432607514295
109.8075,-0.9432850020784705,0.1255838643356731,-0.0859168244312478,0.0228079605339675,0.0289498019696778,0.0123399897134467,-0.0160716149203572,0.0053237563971263,-0.8603525340455322,0.5094179156487451,0.1456693664334012,-0.1987437145210636,9.85521578838268,-0.0019476701695833,-0.0094827751860036,0.0011529940417566,-2.6507805317878828,-0.8578000518939422,2.474028207198331,1110.6497428248435,1096.464683327603,1094.4401933258987,1092.8623158916998,436.21659903577546,-209.68612935331265,-616.8721368149971,-65.47779800031593,153.43338638457715
109.81,-1.1550218750366943,0.25238011624319,-0.1962007259805774,0.0195881037927649,0.0287836463234172,0.0099112080058131,-0.0160232840682283,0.0053178238207265,-0.860351133288839,0.5094218533772868,0.1465536147066482,-0.1976457157667456,9.855832450003007,-0.0018881333276059,-0.0095151132660186,0.0012674520939203,-2.6507997487533497,-0.8577807846728475,2.474034656429493,1111.8303170798133,1095.7210079195147,1093.0632965737157,1092.8187308667011,426.60251731961273,-313.730435559695,-380.5028891785519,33.39576035503651,153.43426873977523
109.8125,-1.23669465626652,0.3967080408815812,-0.1923530781478648,0.0162437029174973,0.0290311921501544,0.0082295499031491,-0.0159699627001775,0.0053194157573751,-0.8603479920429346,0.5094288032105704,0.147304515515361,-0.196604008558371,9.856717391314689,-0.0018232428329072,-0.0095411228203407,0.0013824669571691,-2.6508191642021433,-0.8577630067143914,2.4740432189026533,1112.78275541144,1094.896031149806,1092.537678880008,1093.0292946934749,372.7955218641208,-334.8629668557668,-76.64017072750234,128.2345341916682,153.4349630405499
109.815,-1.207919867579533,0.5640458717321346,-0.1143673236615699,0.0122351580928035,0.029812923314337,0.0068547137862647,-0.0159204244445287,0.0053285531794194,-0.8603426477247547,0.5094392709836016,0.1480505759088548,-0.1957191525140633,9.857838320901838,-0.001754750503594,-0.0095613090878801,0.0014979249537074,-2.6508392209733485,-0.8577472612009037,2.474052625227679,1113.6942946891322,1094.0466930852372,1092.6800957200785,1093.4599035376589,355.1642119740383,-313.09616146010114,161.4862236331751,199.186359144641,153.43561883389182
109.8175,-1.087985131301745,0.7319932589221508,-0.008019672521336,0.0080498360104572,0.0311803117912544,0.0060772306533959,-0.0158831677449998,0.0053490000933798,-0.8603359391491407,0.5094515351061741,0.1488797476380065,-0.1951511443576741,9.859159904551827,-0.0016844140731312,-0.0095764738229282,0.0016143841334666,-2.650860370443983,-0.8577341239879251,2.4740613594513023,1114.5585764713085,1093.3305503425067,1093.345109998173,1094.0252264891972,326.271374683444,-223.01106767379324,372.28056340810224,245.004304878766,153.4362461275242
109.82,-0.8775611961912358,0.8743521486580706,0.0803316544015648,0.0045926544885646,0.0334369061866185,0.0065483953342584,-0.0158589488947462,0.0053841183226402,-0.8603291968768332,0.5094632892473065,0.1497536452387585,-0.1949739073795115,9.860649420616609,-0.0016137092322629,-0.0095876244549767,0.0017331716013064,-2.6508825529254216,-0.8577229418373143,2.4740686509748584,1115.3256515625524,1092.9316377468663,1094.5414985371226,1094.684925062055,297.6827840615601,-77.85284034051487,611.7598723115862,296.762846851488,153.4368434605225
109.8225,-0.5700381497893929,0.983937233490392,0.0972489747167004,0.0021088947061508,0.0371729748421298,0.0087414510759562,-0.0158427226172438,0.0054315158688445,-0.8603231400930823,0.5094734995192469,0.1505931881234583,-0.1951039534491837,9.862276314036595,-0.0015435182263874,-0.0095959058518551,0.001856279178045,-2.6509049798210937,-0.8577132934442003,2.474074888509464,1116.0469903916191,1092.9412861408036,1096.4039093597369,1095.5090407234575,215.65453259169377,88.48602549700307,722.5506074907775,300.4122651912898,153.437531611357
109.825,-0.3143780152506089,1.0097303100661672,0.0013379672122899,0.0015460621721442,0.0407256457974765,0.0113292375580615,-0.0158287769947355,0.0054828636112932,-0.8603176589368076,0.5094826148852754,0.1513668965660616,-0.1953485058950738,9.86400874190314,-0.0014738662839032,-0.0096025406020424,0.001986096451041,-2.650927005757964,-0.8577047163876813,2.4740801822574805,1116.40392422551,1093.3740678743509,1098.1542515745732,1096.18698638801,75.1477155644126,250.34680016920024,705.710680256612,265.914781006646,153.43808577623807
109.8275,-0.1130206995603315,0.9675057148189858,-0.2172528029809478,0.0023603085031048,0.0437704743626975,0.0133010570919628,-0.0158093478332752,0.0055304653273621,-0.8603141436150391,0.509488609991087,0.1520018531109132,-0.1955016249195074,9.865813515559108,-0.0014037323494381,-0.009608751215422,0.0021250813146797,-2.6509477810502577,-0.8576949457379319,2.474083870955418,1116.4227289694409,1094.1930201416485,1099.9324627610167,1096.8386146284895,-79.3730242740179,424.58081705547056,756.6531062959773,280.39828773374245,153.438625625596
109.83,0.0229889921675816,0.8575977803635839,-0.5817443237468507,0.0043962900871645,0.0462740509458091,0.0137818131771589,-0.0157793850304587,0.0055719687599566,-0.8603142128008,0.5094889319947856,0.1524160113911267,-0.1954727892654052,9.867652473623298,-0.0013312034609043,-0.0096156744066043,0.0022753861926129,-2.650967051923028,-0.8576823149847475,2.474085294966235,1116.0070591041404,1095.4969719596263,1101.9375171060497,1097.5889778266776,-221.2987208182506,510.5012245410403,698.139620293976,269.63539760251444,153.43926382912264
109.8325,0.0389473698387666,0.7348273721933589,-0.916423420424586,0.0062925204136388,0.0476437034985095,0.0124269795272221,-0.0157344083347552,0.0056125788729184,-0.860316940730967,0.5094852239857535,0.1524576993070694,-0.1953047869996099,9.869484356848798,-0.001253983995075,-0.009624309042366,0.0024385068016829,-2.6509848181099622,-0.8576664672094572,2.4740851841576643,1115.3162353653506,1096.7455262643512,1103.4231608624834,1098.1867916165008,-328.3130863941572,509.1921939288276,545.3904320956926,230.819642548076,153.439792910263
109.835,-0.0271287853032786,0.5958212402723853,-1.204264333749804,0.0071908274434391,0.048789505039266,0.0091285598489458,-0.015673101871187,0.0056581544574806,-0.8603202264052576,0.5094810127543586,0.1520198915715695,-0.1950822689748582,9.871265483876156,-0.0011698415746637,-0.0096355120629584,0.0026150774825707,-2.6510014063558094,-0.8576489390047559,2.47408563283451,1114.3654936721664,1098.0429329292751,1104.6644692665332,1098.7430760394202,-441.66982481379944,559.0793324177521,483.39521314912673,228.62878422971713,153.44032548879824
109.8375,-0.1509554686770458,0.4187713421774127,-1.4078786578943316,0.0063765518368954,0.0502306494650358,0.0029362157481162,-0.0155965790032367,0.0057078107494429,-0.8603225138528705,0.5094789069688898,0.1511035601940922,-0.1947982194037678,9.872952987564378,-0.0010769600836359,-0.0096499590688975,0.0028048862401106,-2.651017155441771,-0.8576317299969018,2.4740882384586027,1113.1078862412771,1099.5409229264455,1105.8401369282335,1099.3299355376516,-450.2922401727122,525.8704362946227,374.6652494209454,195.68825107393937,153.4409755540293
109.84,-0.2518506458324061,0.2657509611665357,-1.4151027968874823,0.0046770570059292,0.0515700231204102,-0.0031595524499969,-0.0155066472145043,0.0057517958121446,-0.860324090397932,0.5094784791008566,0.1498111391743482,-0.194300200307328,9.874507807102008,-0.0009741001058842,-0.009668043019066,0.0030070439059775,-2.6510320471166415,-0.857614911034875,2.474093034183981,1112.1140324713049,1100.672285110746,1106.5377955136364,1099.721517294789,-354.9202735381231,414.8720921229732,214.15211334639403,130.53244743840017,153.44153097089813
109.8425,-0.3179536786721956,0.1147702637068403,-1.2408351254886696,0.0028883856677279,0.052561531906667,-0.0085843945162528,-0.0154096372193113,0.0057805683913915,-0.8603279086316832,0.50947466143366,0.14832186008186,-0.1934833129454882,9.875891661390298,-0.0008606468157926,-0.009689795226423,0.0032200171081744,-2.651045978218338,-0.8575973062524411,2.4740985306159833,1111.3332848735884,1101.6152833870583,1106.9108974949647,1099.982597774843,-262.6703494950222,337.3372170553351,90.59125188336164,81.80871802313214,153.4421054233571
109.845,-0.3457597905252214,-0.022119694927255,-0.9380718045977664,0.0013858267992827,0.0526221243563973,-0.0127180087740152,-0.015316182643273,0.0057921857416914,-0.8603349203266862,0.5094655444693511,0.1468125603552723,-0.1924169396231059,9.877066989735567,-0.0007369308187718,-0.0097148112151926,0.0034416388812078,-2.65105977662008,-0.8575788534034138,2.4741040872154887,1110.8006807238307,1102.3589711960212,1106.9907517730528,1100.1305608849043,-150.6841764874031,240.70637505355143,-40.358885484638776,36.82226045142381,153.4426988009134
109.8475,-0.3298270499966738,-0.1236023257767338,-0.5354531505987629,0.0002994692121063,0.0513992459483414,-0.0148782377826443,-0.0152330286978939,0.0057942952424981,-0.8603434296540904,0.5094536928728469,0.14529936609092,-0.1912973298801752,9.878003106000666,-0.0006044758185043,-0.0097422382251549,0.0036691556652925,-2.6510748861321054,-0.8575606581982944,2.4741108617517,1110.579863991152,1102.8188152623252,1106.7091030675415,1100.1667090771,-38.07873427364856,128.79179890085317,-198.0172757921348,3.6714858204888494,153.44331823756147
109.85,-0.2724596580480568,-0.1924897705848537,-0.0252017098130551,-0.0006476501609999,0.0496296145807829,-0.0147234011017534,-0.0151646281942997,0.0057949277318693,-0.8603519740665236,0.5094413469589467,0.14376030271611,-0.1903061110986638,9.87867757353752,-0.0004658887150341,-0.0097708362059453,0.003899404430952,-2.651092033601912,-0.8575438118462057,2.47411945519808,1110.6102870524624,1103.0029301905267,1106.0006653940902,1100.1489183140068,44.473598625341296,4.0312884364915895,-304.73893303597146,-3.7862583415898863,153.44409515438403
109.8525,-0.2042008025554862,-0.2121525281999233,0.3608689573471113,-0.0012632674596462,0.0487999630879698,-0.0124309761208537,-0.0151093971355371,0.0057984947275791,-0.860358946741483,0.5094312157996321,0.1421128410280044,-0.1895050957807969,9.879079753592908,-0.0003247137597064,-0.0097990840116811,0.0041290518281361,-2.651111428569267,-0.857529106849371,2.474130415446831,1110.8022319842792,1102.8389717045077,1105.1854084023587,1100.147777785392,92.91534010475779,-127.88624748448264,-344.536759064426,16.986145735624618,153.44477258981735
109.855,-0.1291430333676607,-0.2123895733515139,0.6559387727737053,-0.0017672340153405,0.0486913248857292,-0.0087820512502509,-0.015062728868559,0.0058047944304388,-0.8603639760445047,0.509424065842482,0.1402766603686543,-0.1888490733601892,9.879208829583128,-0.0001850126096473,-0.0098253317765431,0.0043548225639482,-2.6511335007544017,-0.857517251901792,2.4741450295698235,1111.0748637529855,1102.363498953105,1104.2779815987697,1100.2338490426848,125.7315002237426,-267.47785153017276,-387.58879962960015,68.60016306265479,153.4454829523306
109.8575,-0.0495316176820474,-0.212655659911469,0.8920764365476597,-0.0021180887935449,0.0488053476657563,-0.00464020602556,-0.0150249550547553,0.0058110810481172,-0.860367119479655,0.509419820434516,0.1382881849278527,-0.1883014433270017,9.879067657317687,-5.085947604402567e-05,-0.009847993630473,0.0045737436731588,-2.651158733710148,-0.857508657766376,2.4741630434761848,1111.4308894853973,1101.501582446858,1103.2474644042127,1100.4907786007047,133.4582370868097,-348.46662738627714,-351.1246100983509,121.22544407172536,153.44637474023935
109.86,-0.0066823378697068,-0.2221597434237476,1.009533226296856,-0.0020756769693912,0.0487790057034926,-0.0022107605637518,-0.0149969054829152,0.0058195466161426,-0.8603690267842233,0.5094173339688384,0.1361496400273553,-0.1879163899530552,9.878663429523828,7.415734889239555e-05,-0.009865756688639,0.0047834581429804,-2.651186028345536,-0.8575016647155911,2.4741822939942586,1111.7421549384192,1100.621165816175,1102.5223585482795,1100.839976263043,132.1769466254247,-361.81254681611045,-255.48105080507,162.25063207217522,153.4471511086468
109.8625,-0.0056496381809362,-0.2431306042875522,1.0819591145304748,-0.001828657451528,0.0484058577077925,-0.0007070058096036,-0.0149789464501661,0.005836505279055,-0.8603706065039289,0.5094149936598957,0.133820120191633,-0.187814962155556,9.878007280655572,0.000187364833635,-0.009877743414578,0.0049824920513189,-2.6512141397962807,-0.8574948360785196,2.4742008234535,1112.0917742185238,1099.6925197127791,1101.9700591501885,1101.302031761065,171.20065099965012,-390.59701304324335,-212.66879764002448,217.0580122392846,153.44796182808676
109.865,-0.0690729930464172,-0.276533584468431,1.15128378408379,-0.001416065449671,0.0475246570742713,0.0007319506625351,-0.0149672557701359,0.0058689135314794,-0.8603718916136425,0.5094127822532384,0.1311857327974211,-0.1880882488116278,9.877115973785807,0.0002871268564604,-0.0098835914467981,0.0051703292246847,-2.651242092089636,-0.857486945654582,2.4742182246921605,1112.598158193419,1098.6681807509551,1101.459014560077,1101.9252663242414,203.73241678400248,-341.79751841204387,-177.7172006642762,229.54840200310372,153.44897347526162
109.8675,-0.1829798535607113,-0.3071023066253599,1.2019522489009302,-0.000927499438565,0.0465974786432467,0.0022163732400005,-0.0149554604862254,0.0059145454911534,-0.8603722212366701,0.5094120324307978,0.1281852745990597,-0.1886458402285186,9.876011366493662,0.0003728433876734,-0.0098834406872196,0.0053473658054261,-2.6512690544880133,-0.8574773404168541,2.474234746770785,1113.1104363024458,1097.9835321207156,1101.0814731468652,1102.4497737710828,219.130234847643,-223.38660278435177,-162.9069103083683,199.6311951283584,153.44984763233057
109.87,-0.3588357861956638,-0.3385247808362683,1.2306709980945392,-0.0005289966640706,0.0458013541960288,0.0046035626707676,-0.0149388890200101,0.005962794761371,-0.8603697024822681,0.5094162029589613,0.1248728986820203,-0.1892716435967616,9.874716320992512,0.0004447245417587,-0.0098779651826356,0.0055146318911471,-2.65129467823883,-0.8574667391588481,2.4742508420300138,1113.6938093676563,1097.5512477370344,1100.6444800085362,1102.9234222998823,232.60563677975605,-127.31334877460296,-197.89305043059167,175.07572844431257,153.4507520293871
109.8725,-0.5736936918932725,-0.3709486658582121,1.2180251954998687,-0.0006106892091387,0.0449670690011766,0.0079627671952539,-0.0149167279877812,0.0060054129416606,-0.8603622235058666,0.5094289809138564,0.1213459299462287,-0.1898267939297677,9.873250103924136,0.0005035110975021,-0.0098684176341691,0.0056734271647023,-2.65131867552533,-0.8574560190505893,2.4742673090472085,1114.2734644863435,1097.3469653768432,1100.092007894713,1103.3251524133036,205.39404070405487,-32.62885605984832,-254.87659716923636,140.17239261742378,153.45167949556003
109.875,-0.8050647338224833,-0.4052828784833931,1.1268798830739415,-0.0017246159662229,0.0436838403864415,0.012184284402898,-0.0148920770842344,0.0060431456238753,-0.860349237014216,0.5094511845835368,0.1176788188480135,-0.1903614073018877,9.871626020581004,0.0005502944212909,-0.0098565454819267,0.00582513856399,-2.651341157327453,-0.8574460110392104,2.4742839130845495,1114.7207795711756,1097.3881034567353,1099.3700970226912,1103.6242842629688,127.54834606160107,57.3179223962664,-348.5701651368332,108.77520030067788,153.45263184420847
109.8775,-1.0478527829136897,-0.453457890077635,0.9092127532450452,-0.0047029651514256,0.0418238678601779,0.0170675693654851,-0.0148666047723082,0.0060778872933476,-0.8603320924806998,0.5094804587598895,0.1139105506332185,-0.1909268825887997,9.869855749176459,0.0005864052217958,-0.0098442666152706,0.00597139259947,-2.651362066453798,-0.8574365212910658,2.474299738186512,1114.9112062166507,1097.6335549888242,1098.3491570690308,1103.8690284148065,-11.901105701792313,107.37368605160316,-384.3711541349279,73.56815375298862,153.4537994480851
109.88,-1.1797298536523266,-0.5092619442168327,0.6463911245149507,-0.0086452748959994,0.0406330754269582,0.0202086708313424,-0.0148418117801499,0.0061130936771425,-0.8603119368627967,0.5095147806261309,0.1100603232145842,-0.1915963469331163,9.867948051864333,0.000613274517676,-0.0098334415797776,0.0061139269868795,-2.651381697055087,-0.8574269844242115,2.474313992254468,1114.6612740426667,1097.9249718869928,1097.4482412520183,1103.9921250317332,-197.36783095702833,119.89928530192192,-346.88491858888744,35.18559511419447,153.45479033308126
109.8825,-1.20234246104711,-0.5979908398560436,0.3337332800496429,-0.0135838980204683,0.0401951586480598,0.0218435028031799,-0.0148209336582939,0.0061506768111697,-0.8602905993326767,0.5095509469257705,0.1061911911815397,-0.1924306365500424,9.8659082876551,0.0006324196846621,-0.0098256501848475,0.0062543941563479,-2.6514008612995057,-0.8574171447888149,2.474326397699935,1113.924367061864,1098.233051415335,1096.6147324760827,1104.0449563903778,-423.6167953839411,131.8861272318552,-325.9880666948968,5.331127914122289,153.45579667664097
109.885,-1.096936832571983,-0.752844016584844,-0.0405482201158352,-0.0191052497756928,0.0399933246900288,0.0215667005829579,-0.0148021494204911,0.0061919966072809,-0.860270221414184,0.5095853843058902,0.1022844155754754,-0.1934273047484917,9.863742615961696,0.0006452471451982,-0.009822050732526,0.0063941208646236,-2.6514200370907512,-0.8574067085053056,2.4743376337631795,1112.5431900657427,1098.5844025231531,1095.8183009185407,1104.018780671304,-563.0259508242152,126.7533619661906,-245.33745280727572,-29.548357989578605,153.4570188164139
109.8875,-0.9219339936677642,-0.913186906049024,-0.3096013135068783,-0.0222973085484527,0.0390307321621568,0.0194444716248751,-0.0147796778283168,0.0062353032580282,-0.8602533237599969,0.5096140311098833,0.0982840657303545,-0.1944886578482869,9.861458426824093,0.0006529872231323,-0.0098233422218324,0.006533868129136,-2.651439126897953,-0.8573957414336216,2.4743489108740593,1111.1092373077452,1098.8668182251652,1095.3880452120477,1103.89721460043,-591.0529399662128,116.85719543058154,-116.23966187163772,-77.18250865434783,153.45804709728722
109.89,-0.7060485368124643,-1.0747123983351428,-0.5034982439823869,-0.0236757130554759,0.0362676517164117,0.0163361260619493,-0.0147532985686581,0.0062717089345033,-0.8602410662431684,0.5096350450454741,0.094298643082207,-0.1954503353358193,9.85906053228388,0.0006566894858182,-0.0098298092951003,0.0066736591901787,-2.651458382716572,-0.8573847487311755,2.474361705223117,1109.5879253659143,1099.1686885003055,1095.237102609183,1103.6328681280327,-593.3119609382568,129.6171026215958,-13.207662085427007,-133.58250572876713,153.4590830584445
109.8925,-0.495594769707375,-1.2089228787773472,-0.6361304769976714,-0.0239411193248769,0.0322307864423304,0.0136554115204197,-0.0147263872673152,0.0062931655196186,-0.8602347297866506,0.5096462678819024,0.0904886044936307,-0.1961969702969731,9.85655145713334,0.0006571679235044,-0.0098414308052564,0.0068127281028096,-2.6514779681378715,-0.8573730367156066,2.474376424630288,1108.1426775030568,1099.5149037382728,1095.3220069016206,1103.2293020717868,-534.4781739215564,154.4294021474383,88.76925070575341,-194.24233041117463,153.46012364279468
109.895,-0.3261369890628852,-1.2887868534994211,-0.7220045373272456,-0.0234372364004964,0.0276042495972675,0.0121439403566448,-0.0147036437325268,0.0062989893658551,-0.8602367597433215,0.509643445431731,0.0869633341606772,-0.1967502031199385,9.853931904092788,0.0006549207295111,-0.0098580126794838,0.0069496221336016,-2.6514976863553734,-0.8573596611821124,2.47439220913555,1106.9155344963092,1099.9408355110422,1095.6809488627111,1102.6616564759777,-475.5658491458138,207.4628282385303,217.52891881791376,-277.1090497612123,153.46116785472117
109.8975,-0.1882249028054994,-1.3235827330908274,-0.8159060154668384,-0.0226333478826501,0.0225000307964062,0.0113426190376392,-0.0146870405907214,0.0062973545289494,-0.8602464506664212,0.5096276080982841,0.0836959061249312,-0.1972551755976905,9.851203207032892,0.0006497643814736,-0.0098793086286126,0.007082400031181,-2.651517247912023,-0.857344847451285,2.474409295413075,1105.7648482573231,1100.5522178794674,1096.4096514957123,1101.843756822978,-370.36973137716166,236.93170061833052,313.71365396920135,-308.9753351187423,153.462422790906
109.9,-0.1215367597087625,-1.3226454240124077,-0.9101735328235432,-0.0222689337451605,0.0192192554699049,0.0108205701301192,-0.0146787937865636,0.0062982885900803,-0.8602599925598607,0.5096049973727513,0.0806446514918924,-0.1978917339597574,9.848367814237385,0.0006407380554927,-0.0099050669303315,0.0072088617647853,-2.6515369795257286,-0.8573301055811595,2.474428226032668,1105.0636858394198,1101.125494014136,1097.2495171325604,1101.1167798003808,-238.4529959906453,232.00279657269857,377.7650467988476,-280.8439777144312,153.4634685957994
109.9025,-0.0805011150647789,-1.3260576106906188,-1.0264775111243463,-0.0225019779788217,0.0171640366000038,0.009369572563556,-0.0146831113086505,0.0063071328066504,-0.8602729034364545,0.5095829889990743,0.0778503195076787,-0.1987806212316002,9.845430347458436,0.0006262028874975,-0.0099350100612413,0.0073268217290485,-2.651557674634306,-0.8573170074970408,2.4744487440887544,1104.5725832773708,1101.7122318623299,1098.2984767297048,1100.4395369344072,-183.6470172915903,245.66987172915617,494.7653604668128,-266.9591357417329,153.46451274982945
109.905,-0.0248215359883489,-1.365894356558888,-1.1725169590952835,-0.0233931455379623,0.0152023885105081,0.0064141836109489,-0.0146999245585952,0.006324399932333,-0.8602831738889464,0.5095649667858445,0.0753331691209159,-0.1999177040448133,9.842401245109135,0.0006040403832478,-0.009968792745416,0.0074343877779817,-2.651579847483924,-0.8573058397550359,2.474470714473477,1104.1454507529627,1102.3538433727808,1099.7233439348922,1099.7819841216735,-138.7286590695009,215.0794643297241,532.9031970445457,-206.8963890406912,153.46576208337237
109.9075,0.0488757630566763,-1.4322543073990723,-1.2785199066216733,-0.0243830451317948,0.0130406369010027,0.0034680275204395,-0.0147265657600784,0.006344560245289,-0.8602900923965888,0.5095522729638606,0.0731330288099598,-0.201171230486129,9.839295916217656,0.0005719624850498,-0.0100060180526633,0.0075301486977228,-2.6516032367226776,-0.8572967580563176,2.474493809104995,1103.878939982024,1102.7876291839775,1100.9629927149251,1099.4050549892047,-93.81291794460942,145.87132439996446,480.36300550336847,-114.99362149490024,153.46679901039747
109.91,0.1632561837619685,-1.5139523653246456,-1.3421355509191628,-0.0252572233296834,0.0097765713398738,0.000327347050342,-0.0147613542328515,0.0063628706495217,-0.8602940227509013,0.5095443981395013,0.0713010832445295,-0.2024340029053822,9.836130357731475,0.0005278785362167,-0.0100463665883993,0.0076131681008996,-2.6516274093814975,-0.8572896737544549,2.4745173877604434,1103.67638616324,1103.08319999478,1102.1251589624069,1099.2070160141996,-75.97381861113587,96.9305089663467,459.7736515292791,-57.55727784878917,153.46783038166973
109.9125,0.3390418686690293,-1.592594018145488,-1.3396286089910419,-0.0257900725438647,0.0046553621653946,-0.003860760801622,-0.0148034464835597,0.0063789222414779,-0.8602946748729179,0.5095418603818228,0.0698600952220775,-0.2036826545753522,9.832919504309745,0.0004701545385017,-0.0100896233890923,0.0076830045513734,-2.6516518049500735,-0.8572837073028968,2.474540765128092,1103.4990708889677,1103.27228172881,1103.261860972576,1099.11726859996,-53.657460558120846,44.6574358366025,350.4690458207326,-22.72588159617199,153.46906037815998
109.915,0.495975157105443,-1.6169928523695016,-1.252033959022819,-0.025448157839958,-0.0003694590607331,-0.0078486121917243,-0.0148555377160083,0.0063932328163471,-0.8602925394897982,0.509543748165725,0.0688839957588282,-0.2049467555517976,9.829675889399315,0.0003980002356486,-0.0101355980481323,0.0077397239636016,-2.651676347178703,-0.8572784174022015,2.47456338999116,1103.4080988604487,1103.3064871739634,1103.877504191514,1099.0933866062185,-23.18741000415065,-4.549552903976792,155.28123627168975,-19.031397368070454,153.47007817974247
109.9175,0.6238559505925685,-1.5837585981461069,-1.0617986132065729,-0.0238954387275634,-0.0054197937237058,-0.012041636836307,-0.0149188509335236,0.006404226236815,-0.8602886832552915,0.5095482482764625,0.0684417796793745,-0.2062077641730632,9.826412515897086,0.0003115803812205,-0.0101839880779812,0.0077839100162509,-2.6517007363388374,-0.85727321419537,2.474585080761167,1103.383133838947,1103.2495339642903,1104.0382671539337,1099.02211161312,3.1404730081277563,-30.039852212648874,-20.559169410826648,-50.31900030990102,153.4710874078811
109.92,0.6944620323119363,-1.5068677216502495,-0.790291759502173,-0.021258920228804,-0.0097681383894033,-0.0156832324151277,-0.0149878893021311,0.0064084386792899,-0.860285095143528,0.5095522078683566,0.0685053265075425,-0.2073501758362707,9.823144981424807,0.0002120228284239,-0.0102342855932511,0.0078165770788896,-2.651724270161645,-0.8572672438003291,2.4746062770394084,1103.4238012254896,1103.1562879129003,1103.77470834446,1098.8417916046692,37.06575338177305,-35.29093697496618,-207.76220668468133,-110.8349907800046,153.4720884973679
109.9225,0.6656461286359414,-1.3964306470963623,-0.4468209871483768,-0.0177388693767942,-0.012819894520695,-0.017929417466859,-0.015055455884301,0.0064018915092285,-0.8602819507093862,0.5095555943220024,0.0690175812247194,-0.2082359799041126,9.819887713752413,0.0001013208537152,-0.0102857792838727,0.007838971241996,-2.6517472409720404,-0.8572599935763293,2.474627358054981,1103.5684626058555,1103.0730792794157,1102.9994561205112,1098.4679366592204,97.52104049534638,-22.278849125652663,-443.1919856574888,-217.32663696940767,153.47307825757022
109.925,0.5068840684256976,-1.2509836054991927,-0.0057545616729163,-0.013850564410443,-0.0156577791937811,-0.018683585279203,-0.0151136120500766,0.0063853350977394,-0.8602789066799856,0.509559212417742,0.0698555330451322,-0.2088026248131396,9.81665140970634,-1.779005078286999e-05,-0.0103375952646301,0.007852408651233,-2.651769661028531,-0.8572510857967263,2.4746488493827714,1103.9114064279659,1103.044893667272,1101.5587484161745,1097.7551584198231,162.75830160703129,6.112859996971574,-590.1236582191777,-305.1611203799908,153.47425056569568
109.9275,0.2906984897395749,-1.1293131827228955,0.3400149523316657,-0.0120423809093357,-0.0180206704811723,-0.0177095260175919,-0.0151626652772243,0.0063645982190248,-0.8602769910593239,0.509561240957122,0.0709785094315504,-0.2091581865457471,9.813437624658425,-0.0001418304829822,-0.0103887858585127,0.0078581739500658,-2.6517915477209963,-0.8572401567043133,2.474670186988493,1104.3822541138925,1103.1036435794003,1100.0488378294096,1096.9421310573175,235.8034395368112,37.683490561830624,-630.2494722608669,-363.77134822476086,153.47521271497072
109.93,0.0331198462097103,-1.0083872938873903,0.6130556911578818,-0.0122072750775311,-0.020270196854545,-0.0153005107012134,-0.0152061269547055,0.0063454436806092,-0.8602766331563964,0.5095607774434898,0.0723922950408234,-0.2094442383075364,9.810243047988607,-0.0002669272858251,-0.010438267226592,0.0078576663638664,-2.651813215425684,-0.8572269414572101,2.47469046459421,1105.090423625652,1103.2333111200817,1098.407501054864,1095.9363016786958,368.4408977823463,58.54803576385943,-703.0061167708509,-472.19642626830336,153.47615691108263
109.9325,-0.2676992732567939,-0.8571458911332487,0.8181633127936915,-0.0138593464998201,-0.0226695774572964,-0.0114006284134938,-0.0152450063182522,0.0063327514376825,-0.8602763699900811,0.5095602002578433,0.0740596244134622,-0.2097650941259241,9.807063112773072,-0.0003892060583539,-0.0104848433316052,0.0078523812306321,-2.651834960931548,-0.8572119421973217,2.4747090932010933,1106.2244586028023,1103.3963837582196,1096.5338072455584,1094.581148925978,454.9545386288673,43.973344357522336,-636.1178340506614,-507.0645440585004,153.47726576165655
109.935,-0.4820519311834409,-0.7171361221913513,0.8784802979391992,-0.0157968182849595,-0.0246439067303045,-0.0079902461548048,-0.015279650087997,0.0063289443608921,-0.8602763000777671,0.5095593050873535,0.0759489319858669,-0.2101783381729826,9.803891831130798,-0.0005048508019338,-0.0105273162133682,0.007843717861854,-2.6518568427186437,-0.8571951520700232,2.474725779085867,1107.3651963187945,1103.453177841869,1095.2269118846136,1093.4009789584056,474.29261958779927,-17.45029629993719,-433.96696937773766,-461.8427316693322,153.4781669155586
109.9375,-0.6418778777967116,-0.5508045102295948,0.8382564342703791,-0.0177550828000514,-0.0266242537696797,-0.005262562734531,-0.0153083878272231,0.0063364851928185,-0.8602762227389892,0.5095584584794632,0.0779858768412896,-0.2107233784406026,9.800722435239638,-0.0006104241771599,-0.0105646351201148,0.0078326950516118,-2.6518789897398825,-0.8571761654712428,2.47474172078644,1108.5959217007392,1103.30913227672,1094.3639723986719,1092.2719352676336,482.8946105391268,-107.53004324829593,-251.4302325944768,-425.5025818526751,153.47904108387107
109.94,-0.7547767932836028,-0.3570906220724756,0.7387713481587002,-0.0195858487689466,-0.0283254475324232,-0.0033766423393986,-0.015329833854255,0.0063540685059414,-0.8602762159394286,0.5095575953080982,0.080131425481393,-0.2113793001768516,9.79754800526396,-0.00070298942246,-0.0105960120681225,0.0078198226929201,-2.6519011527008405,-0.8571558235567952,2.4747587757910656,1109.779669371488,1102.915527625628,1093.9697607216424,1091.273466049144,429.7786942230503,-231.83472485446316,-31.92647595040573,-345.56829691905074,153.47989077554925
109.9425,-0.8149557087214966,-0.1317596677615286,0.6020387784894418,-0.0213642593710539,-0.0293565047290244,-0.002267720127405,-0.0153495033340338,0.0063751275301282,-0.8602758264657075,0.5095573959429007,0.0825090039836382,-0.2121051303335109,9.794358930110665,-0.0007802076552579,-0.010621080851268,0.0078050943836012,-2.651923541460549,-0.8571356040229058,2.4747773087468032,1110.7448151718527,1102.1499586524487,1094.20434001892,1090.54409378304,338.06923946456806,-430.4126648043488,246.31080591855297,-233.00178903150925,153.48070888602928
109.945,-0.8314623093120717,0.1631128338499961,0.43347094876446,-0.0236137313756533,-0.0296231105216493,-0.0015623322592237,-0.0153719300645493,0.0063996159363659,-0.8602738797747561,0.5095597032828992,0.0851550537101971,-0.2129588489335474,9.791144813029849,-0.0008405986103296,-0.0106400519590793,0.0077880191355046,-2.651945947600072,-0.857115487451303,2.474796906983539,1111.470015568814,1100.763464301602,1095.2013147512375,1090.1084571039844,177.52186010668336,-583.4161151669016,468.39940612435805,-73.98931401943878,153.48165203917935
109.9475,-0.8011318414659657,0.4152846027310796,0.3093957687981796,-0.0255519243137283,-0.028976671929541,-0.0014013767362635,-0.0154013317269725,0.006428869707665,-0.8602716730717486,0.5095621809863476,0.0880851024180926,-0.2140152668473609,9.787896529424525,-0.000883324455346,-0.0106536713303677,0.0077678900186337,-2.6519682071976254,-0.857094970143416,2.474816343276326,1111.6324244723878,1099.2328780766084,1096.5463370495463,1090.174147212942,-29.78732985355217,-676.2450225109899,609.7314521664973,117.99502331197618,153.48240477022327
109.95,-0.7267450956533494,0.6552825490712015,0.2146301550995571,-0.0273231064090701,-0.0274251254229371,-0.0013950707859812,-0.0154374307055345,0.0064636320471583,-0.8602698221720794,0.5095637892829223,0.0912429830949518,-0.2152910214334746,9.784610159689517,-0.0009083647158381,-0.0106631490840965,0.0077439367338789,-2.651990188577947,-0.8570738372355208,2.4748350817069102,1111.3210789195464,1097.3822391890503,1098.2499720120672,1090.6984322205435,-230.37200335204977,-858.3864550385063,781.0896414290538,321.54039179692654,153.48312222515565
109.9525,-0.587641399073889,0.9098184953302668,0.1348389517555828,-0.029034064918268,-0.0247142526163043,-0.0011725928235119,-0.0154766601603267,0.0065048910239838,-0.8602680388318481,0.5095651100909385,0.0945144464110962,-0.2167700498781117,9.781286890412327,-0.0009165626722972,-0.0106701744452622,0.0077152652154038,-2.652012062405865,-0.8570533172672536,2.4748539210975173,1110.4805644556286,1094.94094580142,1100.451785256688,1091.7818491719252,-364.9551514860968,-901.5544346000764,796.778148794007,450.41002819707535,153.48394211141596
109.955,-0.429504550138369,1.0844312770473508,0.090790705531035,-0.030057411607024,-0.0220571044862558,-0.0008279284822368,-0.0155154440624149,0.0065437259047341,-0.8602649365755468,0.509568700731269,0.097885127476852,-0.2182649201493511,9.77793469896588,-0.000909492719747,-0.0106767646363663,0.0076809980131471,-2.6520336426383104,-0.8570349035177591,2.4748732007403045,1109.4963031621176,1092.874467016054,1102.2338627560337,1092.950482361527,-422.052974931441,-791.2896557125724,666.551679472574,486.7855872747776,153.48459133100656
109.9575,-0.2236047891888424,1.2144371652813213,0.0618782831101162,-0.0307230977720547,-0.0191965080231957,-0.0004946143970874,-0.0155510509176151,0.0065702883271814,-0.8602600668834254,0.5095755230015814,0.1013677442549181,-0.2195756429876291,9.774565667639257,-0.0008892724945911,-0.0106852606431989,0.0076401380587555,-2.6520540549323424,-0.8570194330612925,2.474893109945824,1108.370299580973,1090.9844975228607,1103.7845436540479,1094.2157771082968,-492.6018502164,-744.7471002694031,603.389725778941,537.128313610409,153.48520578569628
109.96,0.0865342106547186,1.3164824236820465,0.0376101048988254,-0.0311812593450869,-0.0154921332779966,-0.0001973124415805,-0.0155872738143252,0.0065792064667483,-0.8602543245000998,0.509584015121879,0.1050450588213363,-0.2206368595620133,9.771191104824652,-0.0008582317014033,-0.0106981650278835,0.0075915012539859,-2.652073391042068,-0.8570073063311111,2.474913396977858,1107.0332939110308,1089.1507315146998,1105.250811384934,1095.6361239295843,-466.1903263981543,-575.1149867231816,464.3145330124419,481.8251514401037,153.48590371393664
109.9625,0.4025294707377031,1.355921163111541,0.0229776628108355,-0.0312507542926835,-0.0122475483636125,-4.454037199557609e-05,-0.0156279058580318,0.0065693518729659,-0.8602486887227616,0.5095924209385708,0.1089622435559812,-0.2214494954528702,9.767825681427405,-0.0008187199242627,-0.0107177160988939,0.0075338709515625,-2.6520923401375645,-0.8569979673796765,2.4749335946020046,1106.039347948978,1088.1089225892392,1106.1061163191143,1096.624902865502,-356.13647938658335,-301.78056944514697,268.0235561523823,343.366426681126,153.48645308903943
109.965,0.777334636854277,1.3482387859174931,0.0122628141159557,-0.030810709676826,-0.0089495949707224,2.89659850283226e-05,-0.0156711805656983,0.0065446638912264,-0.860243511248903,0.5096001494994922,0.1130250905107681,-0.222040146264584,9.764490774182295,-0.0007728811994571,-0.0107455364247742,0.0074660780898939,-2.6521116914234644,-0.8569899175461846,2.474953362235392,1105.2526115140995,1087.6418286674755,1106.590929165695,1097.3529560629884,-276.46596507754697,-93.88605844209805,138.69839682910305,250.21025033756837,153.48696980087078
109.9675,1.1903766006897731,1.302349952940615,0.0041613482791213,-0.0296911768521931,-0.0055954542620821,5.8091973026180126e-05,-0.0157131012323226,0.0065103693811905,-0.860239681452133,0.5096057569228882,0.1170944547440758,-0.2224311159182788,9.761213399622504,-0.0007222708874235,-0.0107824549094229,0.0073870361366599,-2.6521319930474285,-0.8569819816937144,2.474973087177329,1104.6570181235916,1087.6394922970292,1106.7996083032594,1097.8759541171887,-197.4183704570327,94.60447818218617,23.82603707890105,170.6067756403359,153.48746005916837
109.97,1.620209270938234,1.2132896575507273,-0.001207699554948,-0.0273479366267648,-0.0025396138387844,5.677472053691311e-05,-0.0157494054819345,0.0064698354438301,-0.8602379772719829,0.5096080224430276,0.12104993442401,-0.2226084824530124,9.758025485063321,-0.0006677076338847,-0.0108284987404088,0.0072957833028748,-2.652153178665007,-0.8569725301570383,2.4749934348654774,1104.2655196618152,1088.114851058386,1106.7100593510893,1098.2059899411893,-142.3670411777424,286.4071595245481,-106.13968626553844,116.33823681669703,153.48791923131813
109.9725,2.0959581237062843,1.0624427905545304,-0.0049877017443027,-0.0225137212131782,0.0005374319726895,4.1274811578788126e-05,-0.0157760509798813,0.0064275396675634,-0.8602396953248849,0.5096048287244347,0.124768342688465,-0.2225777798711537,9.754962122787958,-0.0006093193490158,-0.0108830941738804,0.0071914922327285,-2.6521748314889564,-0.8569598517422389,2.4750147627516066,1103.9451829177035,1089.0715280946506,1106.2689098719322,1098.4576453012717,-110.51372338899014,387.34832158518367,-220.96901052635116,75.71098630754851,153.4884354087632
109.975,2.4052126491626704,0.9036465035381172,-0.0063375379779659,-0.0164803463207764,0.0026840353731085,2.6037816169363408e-05,-0.0157939850781035,0.0063831764335231,-0.8602456846858064,0.509594716889125,0.12826128952934,-0.222314049187059,9.752059175167897,-0.0005467549872403,-0.0109452681460768,0.0070736740402784,-2.6521966166609894,-0.8569437752647995,2.475036148414172,1103.7129510448692,1090.0515926663156,1105.6052142984552,1098.5845448727275,-109.4165829530243,398.8775487073348,-332.96951535580087,33.54414714947663,153.488837378364
109.9775,2.562119843837901,0.7114967527669759,-0.0063708720012646,-0.0087683051501979,0.0045128427834688,1.3731540203091751e-05,-0.015806524532369,0.0063380117855098,-0.8602538644455073,0.5095810797152955,0.1315658130687075,-0.2218448287841968,9.749352236913648,-0.0004797853387885,-0.0110139534537928,0.0069421889856568,-2.652218495224928,-0.8569262656751913,2.475056919573568,1103.398100002937,1091.0659158381911,1104.60406229515,1098.6253660370191,-181.4341076292125,426.5490330649087,-518.614152219942,-13.298668023993104,153.4892110521523
109.98,2.528499397951454,0.4404623401775135,-0.0055099971734095,0.0012340861999068,0.0066220079995378,3.938963980043462e-06,-0.0158184904307488,0.0062949586458215,-0.8602631442162999,0.5095655742571757,0.1347310442100738,-0.2212419677330587,9.746876188929782,-0.0004084709397061,-0.0110881540209896,0.0067972592814242,-2.652240591554281,-0.8569093450895972,2.475076621693401,1102.805780506724,1092.1843378316382,1103.012143537358,1098.5180515326078,-263.1900193504527,380.9664696138779,-638.6091668064532,-77.5823370647027,153.48962750089228
109.9825,2.3102691849737127,0.1815654305831622,-0.0044276780644939,0.0093292762917293,0.0083394641208418,-4.850956120618895e-07,-0.0158295984576469,0.0062574760237479,-0.8602727512397106,0.5095494750082664,0.1377174669510263,-0.2205386727729442,9.744668987124223,-0.0003333520461671,-0.0111669104191908,0.0066394896669054,-2.652262826499908,-0.8568938315701545,2.4750953440433894,1102.0821499061863,1092.9707481862588,1101.4110164611207,1098.2374543516962,-336.4238450380402,278.14963028479553,-670.0121360887988,-163.92645502848055,153.4899481424452
109.985,1.9260541776993023,-0.0997862895031627,-0.003308254104103,0.0157508941676234,0.0093026831537906,-2.184123739475897e-06,-0.0158330948610424,0.0062255612300908,-0.8602821760782994,0.509533852203818,0.1404135552539459,-0.2196496309601864,9.742772673607027,-0.0002553383071045,-0.0112491771613092,0.0064698761361521,-2.652285225748634,-0.8568795932002603,2.475113770157538,1101.1236612815353,1093.5750859830607,1099.662082856917,1097.698419257466,-456.0689400711509,225.2698290227502,-756.1506190318197,-298.7163790141937,153.49024128214617
109.9875,1.3481308123014475,-0.430494673033303,-0.0021567761542489,0.0204274780561241,0.0086343413317355,-2.4230629987995233e-06,-0.0158282765027259,0.0061974967750099,-0.8602910417391894,0.5095193844406007,0.1428279972794559,-0.2185253810937917,9.741223231784659,-0.0001754160395363,-0.0113338251665857,0.006289601456845,-2.652307881352013,-0.8568667887493652,2.4751321594889846,1099.8018052058324,1094.0970973313715,1097.6302633659648,1096.7438724566266,-487.37543075887,161.71653596953215,-695.8688878866008,-391.0316535651592,153.49056065715067
109.99,0.8333536011425816,-0.6695535403479593,-0.0014303509262295,0.0220373464147927,0.006589162675872,-1.8763625136904632e-06,-0.0158205014407232,0.0061757150606576,-0.8602980152394964,0.5095081237445211,0.1450303717044171,-0.2172518613102977,9.740048000100208,-9.457548366219608e-05,-0.0114195952227547,0.0060999434531109,-2.652330823978728,-0.8568550965081683,2.475150551946825,1098.6867841277362,1094.38366866291,1096.1827384174771,1095.7432609896366,-409.9539810207978,89.70072398720676,-490.6429111993542,-417.74229257649705,153.49079905332437
109.9925,0.3513406936537367,-0.8397129891125671,-0.0009387862984173,0.0220160178066883,0.0037313657281919,-1.1358093843852703e-06,-0.0158170114091347,0.0061626476978323,-0.8603034858329885,0.5094991562332197,0.1471232536380078,-0.215938402313626,9.739268660013249,-1.3557688997857893e-05,-0.0115049299721378,0.0059024480474759,-2.652354190305912,-0.8568444392579428,2.475168142773952,1097.7520353007246,1094.5456009513084,1095.1770488099635,1094.65516099374,-314.8213867913135,47.82150396331218,-314.40840114365926,-425.05333223091384,153.49100736425763
109.995,-0.0684118104973709,-0.9406057040443386,-0.0005824129069614,0.0210655705834185,0.0008286819718971,-4.7440264309065356e-07,-0.0158240818940103,0.006155178838674,-0.8603071599412717,0.5094928186961484,0.149247348065339,-0.2145981274596222,9.738903671413198,6.718424783831137e-05,-0.0115878315601272,0.0056990672867065,-2.6523782953906703,-0.8568347571389625,2.4751838835437527,1097.112677193781,1094.6227761827265,1094.6106964117605,1093.617994328484,-157.61371048525473,13.037051905133044,-123.92861254104348,-372.4970727887671,153.49118948852683
109.9975,-0.3913582158020461,-0.9569462534257706,-0.0002709107184247,0.0193771441303849,-0.0017337296119608,-5.5556566172918156e-08,-0.0158423134635261,0.0061480865043512,-0.8603094657550882,0.5094884327539551,0.1514684343779318,-0.2131583971691331,9.738969971965492,0.0001476122478352,-0.011665852262257,0.0054920238477024,-2.6524034741449887,-0.8568250878670762,2.4751975241863846,1096.963966748299,1094.610786210834,1094.5574057472588,1092.792675629798,62.45900154364104,-24.924887609836265,66.72432159586307,-284.64755161010964,153.49133829692633
110.0,-0.6622695905803879,-0.8873326023244394,0.0002402528028079,0.0171770628526255,-0.0044199978557958,5.314281933562661e-08,-0.0158685672691634,0.0061377201242736,-0.8603110853534889,0.5094849910060639,0.1537722801836432,-0.2115417897583003,9.73948022453384,0.0002281744008558,-0.0117362026274859,0.0052835032170641,-2.6524300871067337,-0.8568141939043789,2.475209294246098,1097.424972201499,1094.4981517446774,1094.9443180197395,1092.1947565704347,267.8727889899327,-57.6747048848644,184.9086963688796,-144.3373760676371,153.49147606264398
110.0025,-0.7991154646798763,-0.7632908889744715,0.0009299081399991,0.0155564632957712,-0.006587002836649,-2.5704016440043693e-07,-0.0158938435012455,0.0061254735377782,-0.8603110027494496,0.5094844745907988,0.1559927243767138,-0.2097039552012371,9.740443208275357,0.000309662285133,-0.011795954186131,0.0050754038908951,-2.6524586382743016,-0.8568012899020425,2.4752208177003054,1098.3033306932475,1094.32241268641,1095.4819492291024,1092.0709887494604,423.9295194898877,-86.28391976584342,218.52448239139315,22.54031386721412,153.49155522713536
110.005,-0.857221687592251,-0.5821444136642905,0.002058750872278,0.0138495837246881,-0.0085516187958615,-1.0690573180468871e-06,-0.0159083927256705,0.0061141051208283,-0.8603087636794393,0.509487924739109,0.1579345880489828,-0.2076205779039635,9.741860852031849,0.0003932733322323,-0.0118423419261557,0.0048692764040879,-2.652489085480484,-0.8567860545153929,2.475233748895869,1099.5446197989463,1094.0667321458486,1096.0369404316955,1092.3074581397707,579.2272478781971,-127.27660527128094,210.1595219242912,162.45615694829647,153.4915954874984
110.0075,-0.8474717806448105,-0.3176661152757412,0.0040475522101037,0.0114491623683906,-0.0101055263736795,-2.660121257405271e-06,-0.0159089662022493,0.0061062248812586,-0.8603043423902749,0.5094954580845307,0.1595097842825846,-0.2053328465042038,9.74372318605139,0.0004805059691843,-0.0118731705415585,0.0046664138476206,-2.6525210862431945,-0.8567690531486014,2.475248936303767,1101.199466932644,1093.6860296600523,1096.5327468387259,1092.8832695342035,597.284077949308,-147.82191930774923,138.66211248292106,234.4498766573468,153.49159665960875
110.01,-0.7791831030491155,-0.0758420162828142,0.0062339112036427,0.0095441636481847,-0.0106445111956917,-4.387336507415469e-06,-0.0158955264534475,0.0061057542110274,-0.8602971895799298,0.5095079604195235,0.1606669866239897,-0.2029384504968735,9.746010153290397,0.0005728923142697,-0.0118871674823068,0.0044681919985762,-2.6525535177215263,-0.8567506921174652,2.4752658471179485,1102.5310401886989,1093.3276225493084,1096.7302509941114,1093.4797075230597,490.27214625029063,-146.46475096269248,34.19000761813021,231.27443126166443,153.49155680930585
110.0125,-0.6548002865273022,0.1650578836183504,0.0087815613440542,0.0081016721235171,-0.0101328243103607,-6.041955842326281e-06,-0.0158748076146963,0.0061158382178046,-0.8602886961522644,0.5095228349461016,0.1614736325248369,-0.200588852982303,9.748689413691903,0.0006719775174094,-0.01188421033125,0.0042764131920071,-2.652585275369575,-0.8567318922317324,2.4752826865693582,1103.650827663893,1092.9537059052395,1096.7036968768164,1094.0396416905107,400.8603019558003,-148.2062954449686,-36.94368922109511,198.46607179315328,153.49147278139776
110.015,-0.4866928994797277,0.3897293721215189,0.0112808961529434,0.0066655505070763,-0.0087082730589235,-6.83965545614115e-06,-0.0158547103635388,0.0061303364226341,-0.8602796799824102,0.5095385234003171,0.1621055935521894,-0.1982906567036596,9.751721943813939,0.0007790250565193,-0.0118652927687725,0.0040937236424832,-2.6526157199521454,-0.8567135281197559,2.475296654592719,1104.535341698476,1092.5865910720843,1096.545532548006,1094.4720378820243,295.62388639728454,-140.88663698179596,-74.82072880450217,128.8018473441105,153.4913508050553
110.0175,-0.2678981567968872,0.584928837627097,0.0129594872853799,0.00498411729546,-0.0069457079196246,-4.913163388839349e-06,-0.015838743070396,0.0061385160650629,-0.8602719794660244,0.5095519381227813,0.1627088565355198,-0.1959264005937057,9.755065110602468,0.0008948979817335,-0.0118324127146842,0.0039234439791006,-2.652644329562666,-0.8566960297450285,2.4753063110831937,1105.1289470958784,1092.2492727203312,1096.329593232794,1094.6836509272307,200.62878308417623,-136.10154478472947,-82.29971100702849,40.96784031698096,153.49118151653795
110.02,0.0415132995980993,0.7853276765800037,0.012525570400023,0.0035420209810287,-0.0052187624907117,3.71632152595919e-06,-0.015826955629444,0.0061324404704437,-0.8602668688634769,0.509561019885907,0.1633417433554868,-0.1933872539983821,9.758671060521475,0.0010198758945724,-0.0117883733938646,0.0037689639173033,-2.6526706920606777,-0.8566794204576618,2.475311489123745,1105.538485613896,1091.9060833481612,1096.1340339929711,1094.6768770836093,105.318370868714,-110.89391995648324,-47.170987262643166,-35.20317349468787,153.49092171835284
110.0225,0.3176392910015788,0.926842194643815,0.0086643024137439,0.0034901253089194,-0.0039747188040469,1.891670813666956e-05,-0.0158155392474851,0.0061128713247118,-0.8602644060068109,0.5095657752418583,0.1639099990944641,-0.1906675828409275,9.762486871360716,0.0011535144893802,-0.0117364795702666,0.0036330719113778,-2.652694895223061,-0.8566636023265908,2.4753140659153887,1105.6555389502228,1091.6948031205477,1096.0937382964803,1094.5076350597567,4.172934807630674,-61.500222834655965,16.23297701386537,-78.60778125312477,153.49065661988257
110.025,0.576461447092301,1.0368560176358974,-0.0008642694104102,0.0049545021880531,-0.0021613956127406,4.511483109164122e-05,-0.0158028517548137,0.0060842042983062,-0.8602648414002677,0.5095657777203773,0.1643200130630616,-0.1878385452161781,9.766452618266992,0.0012946879768262,-0.0116801606305156,0.0035175316714185,-2.6527176122446408,-0.856649398454533,2.475316673474514,1105.559350287934,1091.5985822339871,1096.2151988780408,1094.283838177343,-89.07087560295538,-4.87755919612471,86.5471356927051,-79.80633044292499,153.4903394610058
110.0275,0.8242315938593948,1.1127896965287032,-0.021137989950305,0.0082027068285226,0.0011853013659415,8.870980801804553e-05,-0.0157881822648313,0.0060510509742535,-0.8602675026727822,0.509562131608234,0.1644925360426001,-0.1849791243327396,9.770504414519369,0.0014415312976304,-0.0116226230025874,0.0034230217860579,-2.652739699672044,-0.8566378966800335,2.4753207166365585,1105.2101845722086,1091.670415324567,1096.5264739749437,1094.1086034075427,-162.70322917040423,65.45189923769199,132.9341452734597,-29.661616477441985,153.48989686662077
110.03,0.9570431113222622,1.1127196591140536,-0.0465187467265946,0.0115961248799936,0.0047485990780359,0.0001291978051472,-0.015771834808167,0.0060189753232997,-0.860270023474097,0.5095587596337344,0.1643573269769447,-0.1821902911523959,9.774575886410867,0.0015915602446903,-0.0115665865426183,0.0033492556262683,-2.652762058624143,-0.8566293191731658,2.4753265632725907,1104.745834142083,1091.9258417301755,1096.8798696044075,1094.1355300949558,-209.19339440088987,149.61993095616856,147.6577588593024,57.91062896165196,153.48947508132002
110.0325,1.0073572238856112,1.0365342863252887,-0.0805338617864249,0.0148327154382096,0.0085776522791098,0.000155135581502,-0.015757729445368,0.0059922723220732,-0.8602716512479553,0.5095567632196398,0.1639213177470061,-0.179582404043674,9.778598417139396,0.0017421517933754,-0.0115140600041898,0.0032952428259227,-2.652785273084883,-0.8566237623255699,2.4753334687827127,1104.1642176002051,1092.4185149793473,1097.2647627692395,1094.3981565523507,-257.11276113821174,272.8075442555772,161.1642702711025,163.74639933911908,153.4889968404843
110.035,0.9879952508576116,0.8678628874680314,-0.1279516193278825,0.0178466549721867,0.0123633095598367,0.0001259270186813,-0.0157491941058979,0.0059671519601825,-0.8602722468531353,0.5095563197731175,0.1632657093124704,-0.1771203262442519,9.782506679729295,0.0018908729904473,-0.0114661783822214,0.0032596991753304,-2.652809969842645,-0.8566203373518075,2.47534055212056,1103.460270336393,1093.289879451452,1097.6856909557623,1094.9542620916507,-234.81523503342123,360.40792218471694,136.91914305905723,226.8770777969784,153.4883560235596
110.0375,0.9237932574959568,0.6859242280109376,-0.1676301745440141,0.0196284636543476,0.0142735193306688,2.7540658166738915e-06,-0.0157433164881179,0.0059367081143071,-0.8602738192257177,0.5095542058809907,0.1624020866738244,-0.1746510228597117,9.786243041744376,0.0020358582614393,-0.0114231936083926,0.0032411532991773,-2.652836035583469,-0.8566176094819516,2.475347695156569,1102.9901414250355,1094.2205545902743,1097.949358484536,1095.5325419413375,-134.56220846279763,398.87538498542415,76.38347644546019,224.59415639425313,153.48776512715264
110.04,0.8281809953277212,0.4960926285935805,-0.1973311719556806,0.0209727582264417,0.0151224048224737,-0.0002962687347592,-0.0157358364450405,0.005900588580076,-0.860277756314003,0.5095482111034221,0.1612568239664463,-0.1721182576588858,9.789753905283844,0.0021759226888288,-0.011384656839614,0.0032377557166081,-2.652863027352988,-0.8566148493453863,2.475355798627635,1102.7874592940775,1095.2842563763832,1098.0676083379904,1096.077232873624,-19.73688849527183,429.7879369133896,17.67796574105676,187.25693806871936,153.48711420555435
110.0425,0.7125824685647517,0.3231308474783831,-0.2087944618046067,0.0222510380757686,0.0155323287182615,-0.000794154126509,-0.015725976849465,0.005862808950948,-0.8602841358230379,0.5095381796633321,0.1597737006021396,-0.1695759885605258,9.792987870359097,0.002310637775855,-0.011349571930515,0.0032473366483162,-2.652889997547408,-0.8566102891101458,2.4753651633272167,1102.8914569825595,1096.369494274839,1098.0377483132413,1096.4688266316805,124.02775212351482,413.4366551189154,-48.492734489808285,93.96367168141656,153.48641312096106
110.045,0.5702644077243987,0.1903119881322562,-0.1852821032970059,0.0236886096580082,0.0155164688480645,-0.0015550632134899,-0.0157179696762022,0.00582943309216,-0.8602933377913389,0.5095232669947374,0.157963301653861,-0.1671650279300449,9.795895998510115,0.0024402761160386,-0.0113165258256998,0.0032675687854215,-2.652916455050325,-0.856603106794662,2.475374689958798,1103.4075980546947,1097.3514396519759,1097.8251446655415,1096.5470512320308,314.25635355505096,374.4145175200396,-127.4594087088894,-58.00116304822768,153.48565151566652
110.0475,0.3593625107213589,0.0912060298198228,-0.1031923503263419,0.0255298281525969,0.0152717695907946,-0.0026610251265676,-0.0157155146853237,0.0058045352454071,-0.8603035552116922,0.5095063612383768,0.1558488177330594,-0.164992301744104,9.798436782278689,0.0025653468189496,-0.0112838158455639,0.0032962176995232,-2.6529427018910248,-0.8565943600651444,2.475383625538748,1104.4627387503333,1098.2415668624378,1097.4004512696974,1096.1788208164396,441.8182087795156,257.680705169703,-171.61027228973728,-214.09564863717068,153.48466814243
110.05,0.145830330304747,0.0608645335499895,0.0138470072720749,0.0267500761148295,0.0151797669346882,-0.0034753750338701,-0.0157169778715131,0.005789647683977,-0.8603135214855796,0.509489633184054,0.1533917228099136,-0.1630727371054084,9.800579722070733,0.0026863443267737,-0.011249526074982,0.0033312042575665,-2.652968878493005,-0.856584734053515,2.475392081667988,1105.6166890985903,1098.6398431778232,1096.9670933040936,1095.4765729888459,491.3773983026256,74.16488450693795,-171.30061285255215,-350.48079100084146,153.48379157821316
110.0525,-0.1036128655920899,0.0805133998996248,0.1753101071307314,0.0270773426299414,0.0154364476964565,-0.0036237473755918,-0.015718447717865,0.0057798867170246,-0.8603229637011304,0.5094737209920588,0.1505823688282116,-0.1612945936449253,9.80230389106509,0.0028035651815661,-0.0112115927044145,0.0033705466918781,-2.652995168977016,-0.8565747077855331,2.475400693701204,1106.9196257418512,1098.6123912849732,1096.543948205433,1094.426416861432,580.5217823284842,-107.1526016057508,-165.65568407063253,-513.82888292779,153.4828571819372
110.055,-0.4313746297227789,0.1550377177604673,0.4021007431020037,0.026222043085734,0.0158225468923149,-0.002888017643086,-0.015714920222305,0.0057674046229533,-0.8603313861914396,0.5094597098389106,0.1474254338145914,-0.1594903832816969,9.803596629365636,0.0029169167251203,-0.0111679090638521,0.0034122555588395,-2.6530222750169163,-0.8565646653830625,2.4754105394955435,1108.5192980102383,1098.1040801697934,1096.1388148837389,1092.907428574202,580.9677856711287,-249.82424382355913,-126.19526723499456,-574.8306226271551,153.48167130907987
110.0575,-0.7171439344875497,0.2556848000077263,0.6021400437538227,0.0246468562593616,0.0159963854505001,-0.0017796979837886,-0.0157031384848412,0.0057479270887954,-0.8603395473894859,0.5094464769686462,0.1439236375485277,-0.1575746807763877,9.804450652070567,0.0030259348529477,-0.0111164537459031,0.0034542675282897,-2.6530502742662767,-0.8565546971992213,2.4754220794827275,1109.824464670204,1097.3632700658563,1095.9129718692586,1091.5522637482989,512.5128455539766,-330.90792168030106,-74.81499395269094,-531.4751722715132,153.4806312509851
110.06,-1.0055753013016788,0.3896871885048373,0.7929434862471683,0.0225234725398185,0.0163012539474165,-0.0002241322172277,-0.0156826123805871,0.0057244211387513,-0.8603476030301329,0.5094337492529553,0.1400582079239195,-0.1556169010710063,9.804862629768143,0.0031297112830849,-0.0110554669231624,0.0034945619189114,-2.6530788240972503,-0.8565446116798335,2.475434952584146,1111.081862238006,1096.4495405613934,1095.7647399139755,1090.2500527128468,496.7302864008586,-365.2701272721199,-62.485339619809096,-494.23327589942727,153.47953998162745
110.0625,-1.2903019936337508,0.5416754043131498,0.9594433325032636,0.019950979383213,0.0171875658542412,0.0018342403718037,-0.0156536156658858,0.0057108803738178,-0.8603535479663958,0.5094247457123635,0.1357173359882461,-0.1538851969778537,9.804833507749638,0.0032268078629972,-0.0109836197554214,0.0035313411560944,-2.6531079958266006,-0.856534058938168,2.475448360021889,1112.3081161022062,1095.5369194294976,1095.6005451711599,1089.081097368804,484.8244380801905,-329.2418670521595,-96.48797430545208,-420.7011437151056,153.47840824143495
110.065,-1.5628159405494224,0.6986472824947453,1.0755670554345371,0.0165501564374278,0.0188529594346958,0.0046754285982127,-0.015622781065117,0.0057183866590724,-0.8603554591558468,0.5094223814171562,0.130931347982738,-0.1526647141322209,9.804366465768512,0.0033154216311739,-0.0109000567013687,0.0035632750600472,-2.653137935822089,-0.8565234805269686,2.47546076095428,1113.5059844284046,1094.803331226134,1095.2823000424487,1088.1465469942732,516.4362268029585,-243.63614555840613,-208.68350402275487,-347.1775257250076,153.47723018531218
110.0675,-1.8643231954541473,0.8713587601243746,1.1337654360048683,0.0112111607812645,0.0213797381960285,0.0088771818306645,-0.0155958834826397,0.0057465777469332,-0.8603515403657783,0.5094295077583038,0.1258365119939183,-0.1520401187918294,9.803472118376583,0.0033933698159358,-0.0108044503132699,0.0035896872589186,-2.6531690108803367,-0.856513878686953,2.475470854406401,1114.8902972362187,1094.3187387017067,1094.557127651047,1087.3452097401805,489.23260626444096,-95.36684804970477,-337.6100478519516,-239.17367236485163,153.47576628197217
110.07,-2.0883809184998063,0.9894291518793276,1.1068162104029104,0.0058981226034304,0.0237460290410862,0.0125374795152428,-0.0155711257557961,0.0057897110598598,-0.8603415052340587,0.5094467180969243,0.1205016845353895,-0.1519288508168565,9.802171100066321,0.0034581779614424,-0.0106971033204624,0.0036103146079666,-2.6532007156398847,-0.8565061376168605,2.475478999802065,1115.9521474597316,1094.3264969858847,1093.594249803186,1086.9506786324466,387.2962317938136,91.40987824662784,-457.26605814841446,-104.20128795770196,153.47450698754133
110.0725,-2.2853902097000653,1.068700272973334,1.0076600639460909,0.0002892021281941,0.0263327256785604,0.0156872605599984,-0.0155425632092762,0.0058431043002966,-0.860325482029559,0.5094740265468218,0.1149212546380208,-0.1522231316626528,9.800490389781832,0.0035072402886406,-0.010579047505436,0.0036248399379428,-2.6532323810653025,-0.8565006426343152,2.4754868938245846,1116.8267783951915,1094.7757880929407,1092.2707973603003,1086.8242033003908,314.7641883565618,284.0265543235855,-634.3138252840475,1.286802383448309,153.47320988454248
110.075,-2.502252278307578,1.1081269687643307,0.8291402517783617,-0.0064378177502854,0.0297373821559471,0.0184098172511711,-0.0155063845296494,0.0059034647053222,-0.8603040787279866,0.5095105622742215,0.1091174519201635,-0.1528567593359582,9.798459114050349,0.0035381215505449,-0.0104519995665002,0.0036326104750198,-2.653263532285804,-0.8564968407290113,2.475495915859369,1117.5259684015127,1095.7466297575013,1090.4226806767683,1086.9571126443639,177.9796400718423,407.95717391293505,-681.6081581046834,94.55758581543209,153.47161332211357
110.0775,-2.677103262038996,1.089135575619636,0.6531323842368648,-0.0120243597564818,0.0327024800627515,0.0197800396702969,-0.0154658255790085,0.0059692875692136,-0.8602796616212482,0.5095522506416897,0.1032188654234341,-0.1538590373065436,9.796105470781853,0.0035488657806463,-0.0103182323153431,0.0036325933305772,-2.6532938289668646,-0.8564945281145269,2.4755062918907615,1117.7166765955499,1096.8155739625035,1088.8627565697802,1087.2969912294675,-24.984411944956246,453.4055369458232,-571.0139968363555,185.5305790156631,153.47025218918824
110.08,-2.852503684319509,1.0145715171254643,0.4724449387480119,-0.017672027128858,0.0354021185169423,0.0204447231275839,-0.0154287835492074,0.0060344327446397,-0.8602569349260549,0.5095909800005775,0.0974832937707488,-0.1552214004227124,9.79345914821611,0.0035381905373789,-0.0101803587655157,0.0036236804682384,-2.653323140949656,-0.8564939443839377,2.475517694208049,1117.4010463417883,1098.0136574422284,1087.5676106925891,1087.884765539441,-268.44820851339904,524.5819734908533,-446.38479903769286,320.9281891769214,153.46886226433193
110.0825,-3.055013992422946,0.8642880542104686,0.2661251955864116,-0.0249130922729203,0.03807951961814,0.0207532176209437,-0.0154037123803328,0.0060943775784174,-0.8602393731463123,0.509620684783272,0.0921632822126016,-0.1569623868033812,9.79055236106654,0.0035054302373816,-0.0100412215902731,0.0036048475641754,-2.6533510473156547,-0.8564944025862457,2.475529301787505,1116.374435552984,1099.4384838299554,1086.6308325745936,1088.9016321753509,-484.1180557431665,499.7019623251509,-208.18245726118917,427.07527570668606,153.46716421629426
110.085,-3.196757501705628,0.6919696369253646,0.1054384941105936,-0.0317854041851697,0.0399514450380216,0.0207935692921811,-0.0153982892481624,0.0061506454208893,-0.8602283017155762,0.5096388799432284,0.0874374229102139,-0.1591883567952391,9.787419157676169,0.0034505669171216,-0.0099037287831389,0.0035752092696668,-2.6533774986957805,-0.8564948014585648,2.4755394224261744,1114.9804560630675,1100.5121672538587,1086.5266984062814,1090.020141917979,-657.7334627568712,388.6735150568475,113.72598538906306,501.8500969276225,153.46572610584465
110.0875,-3.2728628739397534,0.4746179167419462,-0.0494079671581464,-0.0398407011212045,0.0412401471775901,0.020739230979905,-0.0154134010206019,0.0062104350953257,-0.8602219507703032,0.5096484339836803,0.0833106355270344,-0.1620268203476806,9.784097858800017,0.0033741464030058,-0.0097706678069196,0.0035340495926471,-2.653403101348456,-0.8564951853234936,2.4755479118655708,1113.0857682391932,1101.3818514052434,1087.1994625015402,1091.4108826599938,-824.9225517344483,309.0623550633691,388.7034807316365,596.0291568142984,153.4642661965196
110.09,-3.264211666469196,0.2222066316030067,-0.2073382320007411,-0.0487565519853272,0.0421070290008713,0.0206244242702412,-0.0154463211996464,0.0062757280056359,-0.8602196696425681,0.5096504986217794,0.0797762357224671,-0.1654731389854158,9.78063077485189,0.0032774523937404,-0.009644479881466,0.0034807252418032,-2.6534281981639247,-0.8564957556329523,2.475556180553164,1110.8558433043993,1102.0574790291744,1088.4702158099378,1093.0002877020477,-946.4944946791969,227.64879321178128,617.5881620894576,672.8302738685878,153.4627896003078
110.0925,-3.127497414608964,-0.0702003587713057,-0.3780307137576972,-0.057735361907263,0.0427479129249015,0.020368238968836,-0.0154916713745,0.0063461643361463,-0.8602198814272833,0.5096479031947156,0.0768008757112636,-0.1694495981030911,9.777062711914983,0.0031624030360866,-0.0095272554603075,0.0034144958264106,-2.6534528763343834,-0.8564960020271437,2.47556548182128,1108.3532957658017,1102.5200953713013,1090.2874033119847,1094.7750340293337,-1124.0081362205947,169.00256683845237,859.0320250821686,805.1020845868198,153.4612943102702
110.095,-2.806410901535387,-0.459190208643963,-0.6026835958317451,-0.0672497340441345,0.0425734743758425,0.0197170493268498,-0.0155393108137051,0.0064216455320435,-0.8602207333594705,0.5096440870270498,0.0742616466925511,-0.1738285191881224,9.773441050971902,0.0030315271553409,-0.0094207267737123,0.0033345864977684,-2.653476642015652,-0.856494534050152,2.475576155656426,1105.2358026233014,1102.9024918633659,1092.7653759353448,1097.025798124978,-1131.2851495666848,124.35743103517267,903.1227963494558,828.7472677314589,153.45947988148575
110.0975,-2.416748983557754,-0.8022930943718655,-0.802414823354003,-0.0739119025815704,0.0410291492332603,0.0187224071205854,-0.0155826188200337,0.0065028234093091,-0.8602212342695693,0.5096409184956345,0.0720796322590584,-0.1785233738549824,9.769810638098807,0.0028879216665812,-0.0093263157759724,0.0032402578738135,-2.6534993860943374,-0.8564911630486803,2.475588576533732,1102.6968700179734,1103.1418825264764,1094.8030172937279,1098.9187703679872,-969.8945127596189,91.00306789128499,751.027681751979,738.0987286408814,153.45795201954618
110.1,-1.9208735598210944,-1.1463848231782847,-0.9995320904622632,-0.0794411912323743,0.0381769547237188,0.0170990853524996,-0.0156221367082313,0.0065836390346211,-0.860220438881677,0.5096400488747993,0.0703538307823103,-0.1834005665700925,9.766213024796139,0.0027350339001126,-0.0092451624713363,0.0031311238829734,-2.653521646474362,-0.856486817289603,2.475602012081368,1100.386330059494,1103.3575072028232,1096.520514344112,1100.7162917681896,-936.1967303199533,93.19296582534841,640.17785421669,742.4305983569615,153.45640853194942
110.1025,-1.235139906466692,-1.5446244459415053,-1.202159224674696,-0.0844849407715474,0.0341345756746204,0.014224501771631,-0.0156595369604251,0.0066594675231784,-0.8602184337111739,0.509641337201276,0.069177935423612,-0.188356974979608,9.762686937506917,0.0025764363354603,-0.0091781911141855,0.0030073735174804,-2.6535434866348298,-0.8564816322141295,2.4756149353231924,1098.0158863663646,1103.6078473556042,1098.0039065648175,1102.6309233597792,-792.3040487805267,87.09870697233518,441.1830667844617,645.4156433003803,153.45453891243884
110.105,-0.6174076684690046,-1.8572834386232888,-1.3145734803028166,-0.0869116003229044,0.0305222740003845,0.0107927126378872,-0.0156995913748812,0.0067296388572695,-0.8602173988961238,0.5096409616025286,0.0686483677992176,-0.1933824870990667,9.759265486925116,0.0024157548659059,-0.0091261534094117,0.0028697850894748,-2.653564587219668,-0.8564759768898863,2.475625553209124,1096.4248098155947,1103.7930007376845,1098.7264296780322,1103.9433699846886,-556.775430319937,62.22997289975157,201.96861717854696,453.1756791952859,153.4529666257852
110.1075,0.0086915355507908,-2.139543881522103,-1.336440370522462,-0.0874099590648153,0.0264187751666563,0.0064776297693497,-0.015745808734041,0.0067992088636924,-0.8602174933344933,0.5096384752028582,0.0687712986072755,-0.1985481975808775,9.755976891258419,0.0022564168221162,-0.0090896541249257,0.0027196101429512,-2.653585180710166,-0.8564700143630787,2.4756334131258964,1095.2320092147675,1103.9189972201027,1099.013749650709,1104.8968017557536,-442.03522957918,34.780067677442986,72.40468818792797,329.8272115510188,153.4513796029221
110.11,0.7238713481264338,-2.4193398743706247,-1.2376091968685339,-0.0860060085079838,0.0205082439486976,0.0012262651641018,-0.0157966051666546,0.0068714619610011,-0.8602176872996748,0.5096356198007961,0.0694734180417527,-0.2038431762019732,9.75284781564763,0.0021016444029558,-0.0090690494108458,0.0025584111705418,-2.653605423574757,-0.8564638675937266,2.47563923211222,1094.214633667701,1103.9669010760715,1099.0884531189715,1105.5925060424422,-311.3773115486414,-3.1818072885500275,21.94620514498815,180.37798743674136,153.44945794328174
110.1125,1.2594574888805028,-2.5774001245601155,-1.0532798272034762,-0.0831823753546431,0.0144848315442103,-0.0027102082538312,-0.0158472478227824,0.006944634012545,-0.8602172973774995,0.5096337198018182,0.0706683954289691,-0.2091396386250065,9.749902959174616,0.0019545137366671,-0.009064394176279,0.0023877813562367,-2.6536253672324994,-0.8564570998502851,2.4756442190858463,1093.6751226570257,1103.90308818366,1099.123480676434,1105.7986916929365,-155.64631095155096,-50.93923856665402,49.1629699480159,9.986837879959037,153.4478418754409
110.115,1.7029326523421413,-2.6227984076952007,-0.7864810080347447,-0.0789472047562108,0.0070764557714812,-0.0057848794387813,-0.015893476859789,0.0070134511199783,-0.8602169670318923,0.5096318947104067,0.0723036643178983,-0.2142557522774284,9.747162474123508,0.0018179633935851,-0.009075444359299,0.00220912572613,-2.6536443564910384,-0.8564489375798298,2.475649608689829,1093.4364021129416,1103.7122048832375,1099.334267968712,1105.642440231842,-43.36942480577622,-101.11757088564912,131.67065255767756,-115.54085902826452,153.44620996947543
110.1175,2.0552410197083595,-2.555959056603205,-0.482039494603395,-0.0740104868949772,-0.0011277718150429,-0.0076583991085177,-0.015936031045325,0.0070735809733135,-0.8602178544237427,0.5096282287684896,0.0743927189149133,-0.2190765459792498,9.74463781067679,0.0016946451614792,-0.0091016748744671,0.0020235755559309,-2.65366176274411,-0.8564395486152532,2.475655776261592,1093.4582755329964,1103.3975003292308,1099.7818339392238,1105.220987397794,78.19175355168971,-160.98600326446194,238.5357125895448,-220.88580999154223,153.44456433392256
110.12,2.288276890725858,-2.3551613145082144,-0.1784159124882425,-0.0683323946909057,-0.0088061393609006,-0.0076430553028805,-0.0159790070235569,0.0071240676512791,-0.8602196513670654,0.5096231295744552,0.0769634444183295,-0.2235799035573204,9.742331480165968,0.0015866458514883,-0.0091422127386706,0.0018321277496353,-2.65367793043334,-0.8564302390430351,2.475662394886325,1093.8273608806999,1102.907274866916,1100.5269465316587,1104.5380111818852,249.24692165486636,-261.6229899272745,377.6474076738192,-343.40314511709346,153.4429012457611
110.1225,2.4271010536801385,-1.998376438820593,0.1311312654841139,-0.0607470888930133,-0.0158066201633603,-0.0060372379599269,-0.0160249682698487,0.007169924054318,-0.8602213424428954,0.5096181621374739,0.0799521016787924,-0.2278321841016615,9.740238789293162,0.0014953656040852,-0.0091956803639128,0.0016358315845761,-2.653693821675368,-0.8564212213365667,2.475669192641745,1094.7045101412696,1102.0893853795956,1101.6700709775912,1103.50397167221,392.95929767912907,-338.7959719674553,437.0497437633613,-401.2656332128256,153.44088398998167
110.125,2.4313687378457334,-1.6502206417304333,0.3194726802107575,-0.054339161322634,-0.0196141207283518,-0.004163000855504,-0.0160790206037974,0.007215930827499,-0.8602222453293809,0.5096142551898714,0.0833355026694836,-0.2319252558394636,9.738347394944288,0.0014215888152509,-0.0092600609693091,0.0014359454367833,-2.6537110276049423,-0.856412430425062,2.4756755586197885,1095.7921573690935,1101.2132950070804,1102.7121952504735,1102.531683015823,498.31868517503455,-385.0041694995389,406.055774045768,-395.8642009180456,153.43918383444225
110.1275,2.3377719342708265,-1.3038961975251515,0.4301092922892932,-0.0483715888826326,-0.0217576444596911,-0.0024988600975253,-0.0161419560849453,0.0072621585077764,-0.8602214511840816,0.5096129235385192,0.0870617692075413,-0.2358342763743405,9.736643073358996,0.0013655475160955,-0.0093327212276827,0.0012341285491215,-2.6537307703940027,-0.8564031967972706,2.4756805674884275,1097.1961035671425,1100.1643645320996,1103.700349847818,1101.5246506676217,667.1455330113687,-485.3199400600127,398.83337898622705,-434.28367996401386,153.4374623021744
110.13,2.142175511057885,-0.9333425519058948,0.4889006685298639,-0.0418127842878193,-0.0231784358329987,-0.0010817130091275,-0.0162078813938773,0.0073036281844704,-0.8602190545339171,0.5096142697282546,0.0910163396003749,-0.2393886208628171,9.735111935198004,0.0013271030153861,-0.0094106468838138,0.0010324116686079,-2.653753281801677,-0.8563927613683203,2.4756841142248898,1099.1278850341475,1098.7866953067823,1104.7063621454029,1100.3602646160048,726.9487643065123,-508.8656918514686,333.88603476945764,-409.4728795091486,153.43536975729717
110.1325,1.9342837011315055,-0.673348277280955,0.4936040709587505,-0.0369946029895612,-0.0240090165821331,-0.0003467844614726,-0.0162700612630458,0.0073373277276935,-0.8602155542157583,0.5096177132766108,0.0950515404864825,-0.2424477033499608,9.733735256362733,0.0013058341526847,-0.0094908468439149,0.0008328862305383,-2.6537780866644516,-0.856380744634456,2.4756863059160774,1100.830847388682,1097.6200360728371,1105.3697800216687,1099.477286270072,671.4009443020798,-450.8515674855443,237.5091608089363,-327.0093751196829,153.43360213279686
110.135,1.7092104442996683,-0.4555923976476915,0.4697716863475224,-0.0330889736245943,-0.0249068655828904,0.0001338685019677,-0.0163233055115774,0.0073669199930343,-0.8602099905839767,0.5096249872873123,0.0989801358958966,-0.245003854021002,9.732487085655784,0.0013009854110586,-0.0095707652049057,0.0006374516373757,-2.653804477354393,-0.8563671756022125,2.4756871292128726,1102.4848897556644,1096.5324374693505,1105.8939079494498,1098.7252177404034,633.309641116178,-409.98112981515993,199.94510139877087,-277.0027773734246,153.43180773432027
110.1375,1.488979101817922,-0.2563918931498609,0.4284106098679842,-0.0298690787381413,-0.0259443925926871,0.0006040990306382,-0.0163689962303207,0.0073955871653445,-0.8602039705843509,0.5096332875077073,0.102734527192009,-0.2471102659220129,9.731334208489551,0.0013115779507903,-0.0096485748834818,0.0004477036998455,-2.653831441489689,-0.8563530011956714,2.475685942379222,1103.99739559426,1095.5701304237634,1106.3695055286616,1098.092272383206,551.654094513198,-346.3317307054661,195.9489949106191,-226.5860098453473,153.42998951366678
110.14,1.289845176523872,-0.0577819564992747,0.363597797209938,-0.0270514303865858,-0.0271115804780968,0.0012871006958371,-0.0164121488651764,0.007422927547758,-0.8601993525869334,0.5096393195221359,0.106347961530067,-0.2487998248758378,9.730240060972813,0.0013362626321399,-0.0097233616579969,0.0002648242849344,-2.6538584174027844,-0.8563400460554306,2.4756828263016,1105.243160228228,1094.8007788158247,1106.873652924002,1097.5922876911775,469.751360730306,-292.1032407690219,244.1734021321683,-195.7642714188712,153.42814049089608
110.1425,1.084565517893592,0.1974593346603911,0.2476655682604201,-0.0236333448625402,-0.0281839285105607,0.0025338542293988,-0.0164519617997303,0.0074483594536758,-0.860198230774864,0.5096395806853374,0.1097633592132191,-0.250047614106304,9.729171183744372,0.0013733581292857,-0.0097951077649812,8.942998623847834e-05,-2.6538847046845686,-0.8563292633467617,2.475678800130355,1106.3461523979095,1094.1096142199196,1107.5903725393212,1097.1134510261127,332.4899782390571,-219.53150059036443,284.8580863019696,-160.59286480627688,153.42588323369148
110.145,0.9452289578286756,0.423722793663638,0.1114844984336597,-0.0207200784448473,-0.0283524347603816,0.0039010988804568,-0.0164873341632033,0.0074683978582276,-0.8602015462666106,0.5096325699019186,0.1129526891551105,-0.2507798662803741,9.728096121622936,0.00142097805154,-0.0098645047043117,-7.858832630022274e-05,-2.6539095680821188,-0.8563204839238358,2.4756748896394245,1106.9056101194217,1093.703121312874,1108.2979433555104,1096.789323367147,147.5143082920445,-138.6977834935399,299.69193097455275,-118.19690304850958,153.4239680108804
110.1475,0.8475275694811228,0.6470006914052852,-0.0647044697936226,-0.0180930840726228,-0.0274433348019875,0.0052364539002355,-0.016518979302591,0.0074763602008959,-0.8602086510802373,0.509619456724592,0.1159555492092844,-0.2508897187255888,9.726985568828631,0.0014771878060339,-0.0099326473500012,-0.0002400750861747,-2.653933059595706,-0.8563130124463982,2.4756721937148143,1107.083723939371,1093.4161253024506,1109.088832194197,1096.5224665108688,-3.139447223287178,-115.90420034654352,349.44433934256944,-104.62937928698707,153.42201464781175
110.15,0.7988287727449331,0.8782011842742979,-0.2978400520559795,-0.0158017753359075,-0.0249123267084187,0.0057423771831487,-0.0165506389713902,0.0074720368987477,-0.8602183601977972,0.5096021235853103,0.1188046390555066,-0.2504104878754359,9.725809709875962,0.0015401568863776,-0.0100007000397867,-0.0003966142062592,-2.653955828746898,-0.856306733017909,2.4756708602563924,1106.8899128833052,1093.12360031114,1110.0451650522268,1096.2661764707111,-128.13168227224023,-111.83505837558351,335.09514586829494,-81.2163952147159,153.41962330617463
110.1525,0.8336558724907375,1.015146207485891,-0.4770072868234414,-0.0148820341825685,-0.0215461876343963,0.0043732344848161,-0.0165837088777783,0.0074592488354024,-0.8602292061212866,0.5095829458533357,0.1214603649905318,-0.2494214070689711,9.724544028348685,0.0016082543465815,-0.0100696326793248,-0.0005501675142395,-2.6539782985436897,-0.8563015926460025,2.4756711297219542,1106.4430655280105,1092.8569500105732,1110.7643079235368,1096.1163845347955,-218.5121052747204,-125.113229593103,252.41051624157296,-43.41846077631401,153.41758868592743
110.155,0.9598066221704608,1.0761418414597332,-0.5975637846305066,-0.0144538293145166,-0.017369169505592,0.0013167618343609,-0.0166168672157401,0.0074381258065882,-0.8602402389522708,0.5095635674730915,0.1238818210091322,-0.2479146866189158,9.723173210235661,0.0016801663137945,-0.0101400430240875,-0.0007026625656241,-2.654000344508197,-0.8562964180428099,2.4756723430513694,1105.7973523569326,1092.4980341631751,1111.3072176334335,1096.0490841668295,-301.90223204122213,-188.5054661906347,184.01298529796256,-9.586053063466883,153.41550768704488
110.1575,1.20339200799184,1.0698778129386335,-0.6479527654953632,-0.012754919346913,-0.0128256612256332,-0.0024143943634021,-0.0166472991537932,0.0074084346108676,-0.8602510947549163,0.5095446968024105,0.1260142935110535,-0.245863929040166,9.721690008812612,0.0017549136009703,-0.0102120446277034,-0.0008558105847723,-2.654021881973986,-0.8562902074027348,2.475673705344593,1104.9335543678055,1091.9144226796209,1111.684372850026,1096.0684542694785,-310.3598285758475,-239.20928837509487,90.42824648871868,20.297164500261985,153.41295338639975
110.16,1.4532750653094328,1.0249913198122307,-0.6158813489317732,-0.0096284353811503,-0.010153089220592,-0.0043501559423294,-0.0166743964700008,0.0073678615315347,-0.8602595010631022,0.5095302202527696,0.1278665199182224,-0.2432339736553816,9.720093725035792,0.0018316322005447,-0.0102852382274379,-0.0010109776252672,-2.6540436203087365,-0.8562829607612186,2.4756747214815946,1104.2455532140548,1091.3019877213007,1111.7593588658767,1096.1505699893307,-247.5358281126537,-261.0481637320802,-13.064026879075971,36.4403569556294,153.41077477200997
110.1625,1.7064062020320447,0.9821036501986136,-0.5295304029166013,-0.005141093163191,-0.008768836520448,-0.005154275508127,-0.016699083396269,0.0073169408034892,-0.8602651874173501,0.5095205526914562,0.1294529732741104,-0.2400558001073102,9.7183894620768,0.0019095684681025,-0.0103587008694992,-0.001169208045062,-2.6540658766396845,-0.8562751954606825,2.475674805378252,1103.69587522724,1090.609181860958,1111.6190527156305,1096.2506560542568,-187.45919363773436,-276.61135648150974,-82.84834088319617,32.1799829530679,153.4085416373138
110.165,1.9320819205983095,0.9687465890942604,-0.4148891617557406,-6.31050666509295e-05,-0.0082660534158995,-0.0057773898067785,-0.0167203352730786,0.0072586831908143,-0.8602686445577087,0.5095148533435055,0.1307383192285233,-0.2363872919477357,9.716590943601432,0.0019879263157491,-0.0104310514379509,-0.0013312173951922,-2.654088195207404,-0.8562676831193062,2.475673030079551,1103.3082572458643,1089.9189309388903,1111.34511716146,1096.3114699040966,-114.06292804923764,-254.78049834814993,-131.21968684516216,1.2237500066941935,153.40626164390332
110.1675,2.0992167512206423,1.0032058243924915,-0.2785436031271694,0.0054821681426744,-0.0078402145455248,-0.0066816448246936,-0.0167360304390301,0.0071963998707609,-0.8602698004206106,0.5095132655032322,0.1316723205867922,-0.232286783852825,9.714720736446049,0.0020657770853035,-0.0105004756700259,-0.0014975243422502,-2.654110588864489,-0.8562606310193784,2.475668897407513,1103.1255605869944,1089.3352793692184,1110.9629542814052,1096.2567748042904,-41.28041935177069,-206.42067846980024,-185.98026879006824,-63.625106931079806,153.40392351139354
110.17,2.2137072821757795,1.078812630445,-0.1022861385976981,0.0123375176968126,-0.0059663751744718,-0.0078115043051283,-0.0167443106029851,0.0071338374425195,-0.8602695082940355,0.5095143574563824,0.1322120626992402,-0.2278288689990752,9.712809330506744,0.0021421294503179,-0.0105646742129936,-0.0016687241308301,-2.654133481686411,-0.8562536762684718,2.4756626127195567,1103.1018551491056,1088.8868275465425,1110.4152158175104,1095.9933443694415,13.24940707464816,-108.028577888088,-217.9640296934103,-132.90865662359727,153.4010488973619
110.1725,2.233054808000257,1.134902661096528,0.0419372434373479,0.0178037828024038,-0.0029683026883331,-0.0080251777066428,-0.0167439373041806,0.0070737507420799,-0.8602687900402946,0.5095164083148681,0.1323413721288238,-0.223085004366739,9.710895279570856,0.0022159131252422,-0.0106208625791106,-0.0018457372196592,-2.65415738121102,-0.8562463018733403,2.4756554424575734,1103.1918076223676,1088.7951364797784,1109.8731341329392,1095.592231521173,45.6939957956326,31.03376430856864,-247.22527070202636,-194.3910215015825,153.39859515544586
110.175,2.1743207498533645,1.1369389584387286,0.1624728627340296,0.0229290664470747,0.0009737978893878,-0.0070243406585985,-0.016731894691281,0.0070182385608288,-0.8602697453153054,0.5095159459643434,0.1320276355750731,-0.2181053106582093,9.709026592062807,0.0022860222717752,-0.0106658539334312,-0.0020299336868223,-2.654182833501652,-0.856238033871544,2.475649178510002,1103.3303251280836,1089.0419963680852,1109.1790894640014,1095.0213892619345,61.218947555989786,186.56801007910283,-364.80443263019407,-278.77313363552054,153.39608037772877
110.1775,2.014918879378256,1.0393168889591151,0.2620117272045346,0.0289202041810849,0.0060903165203626,-0.0053024606790146,-0.0167096407757219,0.00696989511383,-0.860273786374362,0.5095105042597023,0.1313135546661716,-0.2130004351757754,9.70725588799312,0.0023512088527608,-0.0106962550651856,-0.0022231871273872,-2.6542101477918525,-0.8562288231638078,2.47564446601754,1103.497902360148,1089.7279765301755,1108.0491119697847,1094.1983658529928,57.21552212096722,309.65002008319243,-483.94878462806594,-314.4018460146816,153.39299196494787
110.18,1.8078695878753688,0.8675763835589588,0.3062504052754075,0.0336890212461731,0.0100150042713289,-0.004154409739444,-0.0166837532733202,0.0069282980068192,-0.8602798280316288,0.5095017052243059,0.1303612910533347,-0.2078895773118263,9.70564042478804,0.0024099718183934,-0.0107087735571349,-0.002427606737253,-2.654239459944693,-0.8562188923720203,2.47564068030815,1103.6164027386887,1090.590246468504,1106.7593455408564,1093.449380031858,40.780653838774725,391.1270501510363,-608.4277903560254,-301.92592813237013,153.3903598203258
