t,ang_acc_x,ang_acc_y,ang_acc_z,a_vel_x,a_vel_y,a_vel_z,quat_x,quat_y,quat_z,quat_w,acc_x,acc_y,acc_z,l_vel_x,l_vel_y,l_vel_z,pos_x,pos_y,pos_z,mot_1,mot_2,mot_3,mot_4,dmot_1,dmot_2,dmot_3,dmot_4,vbat
1.895,0.543734565940217,-0.6495987746949229,-0.1169540466282115,0.006975571814767,0.0147662644879198,-0.0014353704003859,0.010564149683212,-0.0056550016378373,0.0639172048393403,0.9978829376632156,0.0836745251550289,0.0536781488055027,9.815634146210881,-0.0153665237054722,-0.0076862386898283,-0.0038740368868594,4.774650331255349,0.8053320544008282,1.2936579449913268,1126.879589147453,1142.313565261875,1137.8075916783337,1129.3216884339668,269.5190088108632,816.8900921968262,-809.2270910579091,441.1081445009225,160.4663513141109
1.8975,0.3346019079425731,-1.0934058601733054,0.0761503201415381,0.0094857141599391,0.0110162369633932,-0.0008155005803602,0.0106021784990745,-0.0056764450310054,0.0638897269875338,0.997884078766404,0.0846053315029045,0.0538591129222538,9.816272817089544,-0.0155616276752684,-0.0078369319452519,-0.0037821951801403,4.774621325723548,0.8053077646221296,1.2936472792871168,1127.673303916246,1144.1436136332386,1135.98575643596,1130.485762195323,303.30730812428766,676.3825353216206,-635.1172772654389,485.3250934063341,160.4621119622276
1.9,0.1082289192800389,-1.3654159857845363,0.1824586520582625,0.010863578081184,0.0059089114254801,0.0009728866170691,0.0106385590710733,-0.0056876666297236,0.0638637669213173,0.99788516388956,0.0854709262842045,0.053749659201362,9.816579492463568,-0.0157582928096142,-0.0079866125396206,-0.0036846710262614,4.774589291257704,0.8052849439851195,1.2936383382859824,1128.3961256880743,1145.6954779384832,1134.6320052920064,1131.7483139009987,208.76731936891215,580.5883829147526,-415.2877907835677,528.4317034703569,160.45780031720415
1.9025,-0.1194030341222106,-1.4532759869486211,0.1597941735478904,0.0099170152732192,-0.0009909074292833,0.0039605749664841,0.0106729131937038,-0.0056855972689324,0.0638383069969454,0.9978862772878812,0.0862014962074549,0.053341018976486,9.816540714368456,-0.0159537848316124,-0.008138975771804,-0.0035855504116192,4.774553697858827,0.8052629740784362,1.2936310442175432,1128.7171405130905,1147.0465555478124,1133.9093174820423,1133.1279207126747,-17.47299746548416,397.0763906352288,-93.87275111921754,449.19818803697166,160.45255923305675
1.905,-0.2251314541023154,-1.330422083028079,0.0043689601423803,0.0070016852432638,-0.0065636461810539,0.0066401643680495,0.0107046052327762,-0.0056682648026633,0.0638135267986279,0.9978874295955208,0.0867431794937726,0.0526293751242537,9.816154458366173,-0.0161449539252531,-0.0082973944674514,-0.0034885940990581,4.774514471972468,0.8052412608836008,1.2936253901666364,1128.3087607007471,1147.680859891659,1134.1626415364103,1133.9943048411835,-310.43733140041445,153.66101713953285,261.94606590971136,253.757122584062,160.4481482244648
1.9075,-0.2150654812305393,-1.0457109120901655,-0.2681464973565579,0.0034162078360233,-0.0107694523023539,0.008448944380086,0.0107309159634982,-0.0056401902410602,0.0637909355912676,0.9978885397856844,0.0871616404863868,0.0515730735932267,9.815429985274342,-0.0163287269178685,-0.0084646766295443,-0.0033968974058487,4.774472164811104,0.8052191017691476,1.29361980626712,1127.1649538560885,1147.81486063351,1135.2190478115908,1134.3967063255952,-547.0103092736155,-17.65361377188087,517.6675079355272,66.4744817979211,160.44370758142077
1.91,-0.1224030798627306,-0.681245822107492,-0.5899826080431853,0.0011894119424953,-0.0128848763468269,0.008484533226685,0.0107513413184977,-0.0056091454598771,0.0637704307172702,0.9978895990798244,0.0875843858501045,0.0501803013563553,9.814386819191908,-0.0165024524830968,-0.0086430822778912,-0.0033128225530328,4.774428710257409,0.8051957904580637,1.2936126205777432,1125.573709154379,1147.5925918228,1136.750979076088,1134.3266772501731,-669.2689667876793,-154.20217998493723,667.7234877103119,-150.54259036096136,160.4392542893641
1.9125,0.0171550701489171,-0.2966081447384663,-0.8898001800595599,0.0016739711006433,-0.0122919640433769,0.005610422183617,0.010760525350311,-0.0055826305381231,0.0637534772460627,0.9978905673861104,0.088123865539213,0.0483741348242274,9.813056037269138,-0.0166641906106444,-0.0088341872251032,-0.0032383730355268,4.77438529028368,0.8051711325942635,1.2936038728033024,1123.81860902215,1147.0438497335851,1138.5576652501425,1133.6439933737904,-694.7413478204146,-289.4412078451358,788.8793741378489,-435.4077810697256,160.4348005798009
1.915,0.1618540141174955,0.1094319647269852,-1.1221898645471493,0.0040361995128577,-0.0098598595604842,-0.0004014568594264,0.0107512922766213,-0.0055662156629733,0.0637407963107083,0.9978915005395824,0.088850031413597,0.0460529102532767,9.811478775602557,-0.0168127365058627,-0.0090390908356904,-0.0031754398306584,4.774341886213467,0.8051448615139922,1.2935944788463136,1122.100002415277,1146.1453857835743,1140.6953759467772,1132.1496383448243,-490.2282335111172,-351.9118873959617,744.2163129014875,-643.2374412118999,160.42947439058003
1.9175,0.2241666989530771,0.372411582530584,-1.1615278236095692,0.0060944969138556,-0.0076239023195715,-0.0060548881622484,0.0107276845037573,-0.0055634735134201,0.063732016924115,0.997892404607738,0.0898068893542987,0.043344354740982,9.80970228402092,-0.0169476085529178,-0.0092586697504973,-0.0031257216811223,4.774297774348835,0.8051165986932203,1.293585975924276,1121.3674678545945,1145.2842902966056,1142.2787468146498,1130.4278061677308,-93.43331790396604,-351.2100775773963,571.9429916991097,-753.8953980384736,160.42506373197102
1.92,0.20783994040887,0.5558393195131726,-1.0300884755090745,0.0077222554980552,-0.0058876314313098,-0.0109056094322436,0.0106973740391127,-0.0055767025747869,0.0637260368893124,0.9978932092944643,0.0910188999737355,0.0404545186209185,9.807780376698185,-0.0170690819155121,-0.0094936918452331,-0.0030908489137394,4.774253314826636,0.805087077802977,1.293578590561468,1121.6328358257572,1144.389335395687,1143.5550909052727,1128.3801613546323,348.34383802312107,-387.73894659711016,484.07675277070456,-922.2346255254947,160.420695561329
1.9225,0.1053698034370858,0.7067896183853809,-0.7173397683660931,0.0091327745957522,-0.0045899429654767,-0.0147550425814351,0.0106644633764538,-0.0056038129010542,0.0637248965167051,0.9978936963743614,0.0924227384242992,0.0375291023743509,9.805773866027412,-0.0171782788539612,-0.0097447792306431,-0.0030725152604044,4.774209357661523,0.8050572445908878,1.2935720515949856,1123.10918704471,1143.34559556362,1144.6991305785034,1125.8166330401032,694.592370425455,-371.1196876431955,353.6248831208841,-910.150812951976,160.4155168462794
1.925,-0.0296572979088034,0.7926706162320608,-0.3821975702030673,0.0097006942559655,-0.0038062409231738,-0.0158352966407914,0.0106293100355921,-0.0056378999530248,0.0637309231037376,0.9978937136008617,0.0938604400939922,0.0346489950206393,9.803748890376193,-0.0172770784746043,-0.0100125324762049,-0.0030723680232496,4.774165797568876,0.8050278493937383,1.2935662792829103,1125.1057976778843,1142.533736957471,1145.3232153208771,1123.8294072898723,877.1889996385383,-309.37973608698235,178.42775970284873,-702.6994722529403,160.41126286603313
1.9275,-0.1826757508059459,0.8459073469269978,-0.0415351455538768,0.0091818047511782,-0.0025888283683935,-0.0147460011671892,0.010596372673538,-0.0056741326348405,0.0637447228844991,0.9978931765297908,0.0952255600524956,0.0319735567516283,9.80177258151467,-0.01736801148038,-0.010297543132737,-0.003091479009364,4.774123098990258,0.804999842306017,1.2935620782292518,1127.4951320429027,1141.7986968831851,1145.5912693770176,1122.3031356788388,950.9197982975568,-281.4370209025643,44.876340439078426,-490.80688760915245,160.40708234165646
1.93,-0.3237662865566323,0.8672910757476239,0.2608196787512072,0.007469420317982,-0.0008774436143481,-0.012340520735928,0.0105689825228344,-0.0057104566959744,0.0637657227021658,0.9978920843443116,0.096471527528723,0.029635551447144,9.799911856079047,-0.0174541079790012,-0.0106001219778602,-0.0031302491592014,4.774081610940235,0.8049728424089699,1.2935593255520774,1129.8603966693722,1141.1265518529583,1145.5475970230725,1121.3753728518263,863.7494134537776,-254.3276747822288,-94.88141766187037,-186.9221076828537,160.4029688403822
1.9325,-0.4286905856248489,0.8360212072453665,0.4936387613300935,0.0049159415132349,0.0012622693246049,-0.0095151767459941,0.0105483573872346,-0.0057463685521556,0.0637951278606695,0.9978903471926928,0.0975870707062132,0.0277214118060851,9.79823138984622,-0.017538738663749,-0.0109199279599055,-0.0031882512333554,4.774041085995244,0.8049463534241778,1.2935575941161532,1131.8138791101717,1140.527058509274,1145.1168622887083,1121.3685251404245,695.2574509026657,-244.2843825258422,-274.6994809603557,234.11562258742748,160.3989423350911
1.935,-0.5124897586418616,0.7174208327892011,0.7021654020933791,0.0023529140623117,0.0041596989010059,-0.0070866477248606,0.0105362149271942,-0.0057799698546532,0.0638334774306233,0.997887927077268,0.0985422088300952,0.0263240552681718,9.796791151289936,-0.0176253335445228,-0.0112558589752714,-0.0032640710847629,4.7740014253546255,0.8049195296515598,1.2935562674324175,1133.3366839238856,1139.9051299403293,1144.1740996182707,1122.5459509647635,399.7692355408702,-206.63035577586453,-406.7274118925157,622.1182655340859,160.39421755415015
1.9375,-0.5658628624684576,0.5408329634222525,0.8414393339281285,0.0012162951435933,0.0066597243784725,-0.0061177632469207,0.0105319737110059,-0.0058081801758106,0.0638739874611809,0.9978852866018028,0.0992889810878681,0.025485991264464,9.795644621305392,-0.017717031877424,-0.011606159277502,-0.0033552521804767,4.773963615516904,0.8048910674426502,1.2935537124668899,1133.812725287876,1139.4939067303947,1143.0832252292455,1124.4791164680948,35.058780546342696,-135.13043459697943,-481.7147229299383,930.4041104029891,160.39037304510495
1.94,-0.6316331959723414,0.2842895702910894,0.9717151097837566,0.0008871281822749,0.0090187915182101,-0.0055466292900751,0.0105360117224612,-0.005827317892471,0.0639119077324955,0.9978827524582156,0.0997759566642035,0.0252602196382889,9.794836093242631,-0.017816653049659,-0.0119681560021022,-0.0034582458583155,4.773927906771535,0.8048606999226037,1.2935485252497068,1133.511977826617,1139.2294777673444,1141.765526003621,1127.1979715167784,-264.6570402655409,-78.79274630558757,-609.2239459700381,1294.81849983528,160.38662792530894
1.9425,-0.7457828486368275,-0.0899291244996367,1.1227789117008062,0.0007000715790324,0.0109294239795464,-0.0036629979315189,0.010541186841521,-0.0058342528180547,0.0639446776514641,0.9978805862334204,0.0999589679668804,0.0255412515553741,9.794400346455888,-0.0179264276467878,-0.01233835277064,-0.0035688495680491,4.773893570663399,0.8048284374201004,1.2935399918408303,1132.4894400865483,1139.0999429988667,1140.0371054993955,1130.9532089672712,-435.52049451035504,-20.149579342978075,-642.8546358506843,1382.6707424920323,160.38225075686455
1.945,-0.8670027465396908,-0.4184417888462323,1.2298019358409606,9.621862215285231e-05,0.0109327126696771,-0.0002508237053622,0.0105396278145682,-0.0058286877980002,0.0639688646452798,0.9978790966365138,0.0998527724115928,0.0261936675633867,9.794360006100653,-0.0180476969911168,-0.0127127664158239,-0.0036823757736336,4.773859702047195,0.8047945574910024,1.2935280074291307,1131.3343753540655,1139.1287298706295,1138.5512528243676,1134.111325229239,-460.4143937550005,25.472238614429983,-587.2879686788235,1176.115208397166,160.3787012121206
1.9475,-0.9877513487021136,-0.7019402900521543,1.2971146995537752,-0.0016736658119255,0.0087752807808126,0.0044444519122978,0.0105275056155579,-0.005809250982061,0.0639850174460611,0.997878300319458,0.0994587286007078,0.0271491266154907,9.794724716395757,-0.0181808738236346,-0.0130869429125541,-0.0037941133278863,4.773825110447668,0.8047593582962229,1.2935137070677163,1130.1873681177733,1139.2273041919389,1137.1006656560014,1136.833785009257,-436.7021494088569,32.9834868342921,-611.9492629959626,1011.0392093875575,160.3752530717559
1.95,-1.0814156350440487,-0.920196073213642,1.332344231711481,-0.0052594459021695,0.0044101582357418,0.0094656677220123,0.0105049260271344,-0.0057788268050163,0.0639959863026687,0.9978779994300774,0.0988671129591876,0.0283970585164296,9.795490469223859,-0.0183254673334212,-0.0134561169721614,-0.0038995196822457,4.773788742035448,0.8047218968557132,1.2934978530786867,1129.1508646070213,1139.2936473048007,1135.4915065093878,1139.1665212761764,-289.04864100522235,-5.33400916197012,-554.9924394482657,664.6003842104011,160.37123055431684
1.9525,-1.0801288557293767,-0.9670543029367364,1.343227768466594,-0.0090395616518585,0.0002439158634512,0.0121317867890308,0.0104770684839741,-0.0057417897151056,0.0640042617211709,0.9978779567396168,0.0982027670791561,0.0300104636741303,9.796640357586455,-0.0184801702244582,-0.0138154520058073,-0.0039945089820894,4.7737505576868005,0.8046813621408582,1.2934818901889127,1128.7421249127472,1139.200634146129,1134.32570345876,1140.1567869303092,-50.497845998414704,-87.06300721523601,-414.4927026837099,195.7904123294111,160.36797209838275
1.955,-0.9671946969066906,-0.8643942579454967,1.3624076121838065,-0.0128260597945577,-0.0036478379717665,0.0134104595508345,0.0104473757459442,-0.0057054784422422,0.0640115880166218,0.9978779842207172,0.0976437611460233,0.0320114902572004,9.798146678380377,-0.0186431046141919,-0.0141602176726892,-0.0040756671415408,4.77371160827054,0.8046385880464173,1.2934664078259528,1128.8983753770292,1138.8583322687248,1133.4190429959692,1140.1454733378237,151.8556724987807,-183.34414761880393,-308.30870950772555,-145.5777269581662,160.36480725510813
1.9575,-0.7556633918008753,-0.65371877151855,1.3943124321947142,-0.0161529582448638,-0.006759402044497,0.0145233305716393,0.0104165416018775,-0.0056733609463917,0.0640204418844897,0.9978778986801172,0.0972850260333389,0.0343612686311716,9.799973516194466,-0.018811995461965,-0.014485963596422,-0.0041404808147195,4.77367180425184,0.8045937067535922,1.2934507294519844,1129.501403275241,1138.283913408035,1132.7841599112214,1139.4288982955184,323.3835264150526,-278.7159736860363,-175.56495297149388,-404.54942880115544,160.36171730132875
1.96,-0.4377441644106132,-0.3546135517100744,1.4175469425812675,-0.018598886744385,-0.0082023942748421,0.0170703943258093,0.01038452216713,-0.0056428828221492,0.0640326572431439,0.9978775997461024,0.0970976160305189,0.0370035797374276,9.802078392827656,-0.0189842434204354,-0.0147887808751587,-0.0041873196858909,4.7736300525995805,0.8045466671441912,1.2934341526623727,1130.5152930091044,1137.4647524002946,1132.5412182311115,1138.122726193818,488.7576113448063,-395.43286824522505,-3.9560748695293113,-632.9065507441863,160.3587144749087
1.9625,0.0285175836951147,0.0388908726024214,1.3766955770293712,-0.0200445448901923,-0.0080371922789098,0.0225587392665478,0.0103530650644058,-0.0056167728009495,0.0640483624533676,0.997877046207818,0.0971521699737612,0.0399022770753136,9.804412220981405,-0.0191571781447147,-0.0150655284915526,-0.0042150018766122,4.773586455148354,0.8044978502543311,1.2934163941005263,1131.9451913319651,1136.3067490668088,1132.7643795368735,1136.2643655417971,513.8894314411909,-434.3555409457522,170.11951877311338,-675.317647447794,160.3552078948127
1.965,0.4473785129845986,0.3483043714988777,1.2455883886436077,-0.0197387383052983,-0.006866459352785,0.028024753241365,0.0103215241662212,-0.0055986027996469,0.0640713004905193,0.9978759855755795,0.097526379087063,0.0429673873380297,9.80692277163066,-0.0193284229073961,-0.0153137602025254,-0.0042232039274743,4.77354166119176,0.8044466497611,1.2933979064949424,1133.0847401663104,1135.2929746955658,1133.3918158249771,1134.7461379565789,389.8298731898732,-394.20949151309213,333.29099199814465,-548.4111934722595,160.3523637199679
1.9675,0.8420391305383634,0.5930355833917224,0.9964235760366752,-0.0176908746522224,-0.0048605274476501,0.0326397842689082,0.010291471753647,-0.0055917762448574,0.0641030695395751,0.9978742827624036,0.0982909066482022,0.0461495790822041,9.809555914321523,-0.0194959153599387,-0.0155321686645796,-0.0042124587062193,4.773496631745728,0.8043936269163376,1.2933799132355583,1133.8943406979145,1134.3357016092434,1134.4308344968645,1133.522309574436,226.6816959079327,-389.1033258657527,523.010821408627,-432.5697444882372,160.34959745887775
1.97,1.2259475430169693,0.7762856970834047,0.58600345077897,-0.0133575969882177,-0.001775083494853,0.036378654135234,0.0102710210543035,-0.0055953975524655,0.0641418115317113,0.9978719792870452,0.099433999759646,0.0495331676211677,9.812257054910136,-0.0196579108590541,-0.0157208727182964,-0.0041841521431006,4.773451800257328,0.8043399149965934,1.2933639897164912,1134.21814864585,1133.347458066237,1136.0068699320204,1132.5832892341375,-14.106431673235093,-326.1646587864031,600.7320633750485,-245.88057965010532,160.3463647840399
1.9725,1.4375018278218983,0.8235880480237431,0.1919922494876189,-0.0086743743118015,0.0010649415013024,0.0374798859038226,0.0102620310695084,-0.0056036615326048,0.0641827899507682,0.9978693918291108,0.1008336082963885,0.0530895456241769,9.814975699648585,-0.0198129520458873,-0.0158813965625679,-0.0041407872322154,4.773407690613219,0.8042857767372357,1.2933509078661098,1133.8238085395483,1132.7048783153111,1137.4344948137395,1132.2929066761856,-303.05262416954275,-213.93467102411208,550.37220812536,-22.086475503919644,160.34374108032878
1.975,1.5189962911284867,0.7611188396980113,-0.1960766166940438,-0.0034107854235592,0.003982972953611,0.036385605418403,0.0102638277226237,-0.0056111653726724,0.0642191293400159,0.9978669991173273,0.102366485433561,0.0567462855769179,9.817665515417808,-0.0199598146091469,-0.0160167001026411,-0.0040853247497621,4.7733647603211695,0.8042312192997387,1.293340465804352,1132.7028855250023,1132.2777847111165,1138.7587309726473,1132.472856856618,-556.4073825224232,-135.62099908145063,481.10958345651966,130.7684248283777,160.3411878756122
1.9775,1.4998008509028704,0.6195814988716639,-0.5395093071013939,0.0018034613118283,0.0067495382244342,0.034174192314138,0.0102725588529251,-0.0056139142956401,0.0642515843757165,0.9978648116633476,0.1039281173384682,0.0603755653711888,9.820285459963488,-0.0200976419520751,-0.0161307861874931,-0.0040207747326271,4.773322418270633,0.8041771503271442,1.2933323406011723,1131.0417716269362,1132.026773319904,1139.8400427310223,1132.9467488003274,-759.6453299616021,-63.670266716645976,346.1161132010676,225.1636879721948,160.33869154420577
1.98,1.3929328278300668,0.4132579816026024,-0.7993264657263915,0.0058599730536367,0.0086925792394149,0.0314610908346715,0.010288758531258,-0.005614135182899,0.0642828773322784,0.9978626316178342,0.105537466793076,0.0639386114898241,9.822797866310596,-0.0202256364680376,-0.0162289048922519,-0.0039493928639832,4.773279260703874,0.8041252402155433,1.293325498952264,1128.9046588751944,1131.9594333775333,1140.4893115386526,1133.598675296479,-986.458356091839,2.5882170418298607,168.71340861379915,273.19025545711435,160.3362620764102
1.9825,1.2269098240163492,0.1474247199131927,-0.9997237916537368,0.0082403653829773,0.0092262790240655,0.0281042940292254,0.0103112499029691,-0.005613922083588,0.0643184301832391,0.9978601071859968,0.10720581599743,0.0673757203468567,9.825170941648087,-0.0203429648522663,-0.0163172149223878,-0.0038728884369419,4.773234398356728,0.8040766531843943,1.2933184942690779,1126.1094798464767,1132.0397144051133,1140.683609774091,1134.312700077613,-1009.867400597772,50.5757663259362,-24.444628334730968,208.31583094281515,160.33342209464823
1.985,1.0992841831832432,-0.044561633751339,-1.0752795282758922,0.0089422451216668,0.0083789111399229,0.0252062117682089,0.0103373622491009,-0.0056143211386713,0.0643605220772044,0.997857113023069,0.1089197840848856,0.0706125608877106,9.827378846909884,-0.0204486368571504,-0.0164025417371507,-0.0037924001683738,4.773187573905293,0.8040325843770068,1.2933102272173047,1123.8553218722054,1132.2123122091627,1140.3670883969787,1134.6402544511932,-824.014838867851,89.91008519815486,-208.89017993454664,29.4800292384486,160.33111709067535
1.9875,1.0054094150793516,-0.1629767564771174,-1.0663117064637888,0.0099914264974801,0.006936688126495,0.0222079299299176,0.0103658668534793,-0.0056171183757971,0.0644064423379572,0.9978538288577076,0.1106809860378857,0.0736154183684042,9.829400446965186,-0.0205416005380236,-0.016491829661654,-0.0037084533925184,4.773139563085069,0.8039922691410492,1.2933008673959343,1121.9894056521375,1132.489264831104,1139.6391588744186,1134.4601002238053,-673.9559265238001,151.98238085345434,-381.1514169388456,-235.0204675243326,160.3288749680237
1.99,0.9203604876244886,-0.1932896874096203,-0.9789539555313764,0.0117867522011855,0.0049283885847529,0.0187827112004493,0.0103965376346359,-0.005622696136465,0.0644529605320236,0.9978504680241504,0.1124648998025222,0.0763840207358889,9.831219402164782,-0.0206209995662655,-0.0165912870545487,-0.003621260879513,4.773089806560244,0.8039544655164163,1.2932910861388665,1120.4855422395865,1132.9722241134302,1138.4613313122848,1133.4651521135715,-403.6090057390169,208.52191025638135,-451.3412235352558,-506.5341314258711,160.32625620935667
1.9925,0.8480396379488225,-0.1230554255522394,-0.8635724218748285,0.0137058358462532,0.0034723455399526,0.0162554034330414,0.0104347877549994,-0.0056346846778121,0.064497023849271,0.9978471548191404,0.1143194914345463,0.0790345880890131,9.83282180110305,-0.0206863760359101,-0.0167058318607881,-0.0035305307408877,4.773037987453738,0.8039186735569143,1.2932812332482913,1119.9713606234427,1133.531874382386,1137.3824527567424,1131.927429566676,-45.975687326562216,261.0664521143402,-411.9615545058328,-752.8833425120691,160.32413332784662
1.995,0.7366004787166406,0.0296745498428102,-0.7351696069691948,0.0161772548588258,0.0026641923191493,0.0144040847660627,0.0104784685384801,-0.0056561253244945,0.0645375518834028,0.9978439649079104,0.1162748938148267,0.0815427593397683,9.834200177065089,-0.0207378933850395,-0.0168384952768172,-0.0034361773158887,4.772985188932339,0.8038837251027792,1.2932710042472313,1120.2556638029537,1134.277556374002,1136.4015235397555,1129.7007354010111,233.20907361502947,327.0177891145901,-348.7912325631361,-980.3155396837385,160.32207193543252
1.9975,0.5664789374918516,0.2269867164782612,-0.6211500519113213,0.0186362437443345,0.0025156304840082,0.0135246681364563,0.0105213062586871,-0.0056811898655306,0.064571959915409,0.9978411624896876,0.1181864488067236,0.0838183823613402,9.835353920367806,-0.0207763320061367,-0.0169903250865278,-0.0033386106411139,4.772932297152297,0.8038477902249845,1.2932601740551597,1121.1374059915179,1135.166963327959,1135.6384965939267,1127.0258518682572,464.48933785082846,379.4579033098752,-228.43863063540567,-1131.0825796651227,160.32006162258693
2.0,0.304891759699,0.4406693640355214,-0.5485296627386979,0.0205281434123618,0.0035069486164992,0.0136491367541921,0.0105561714995949,-0.005699675752889,0.0646014426968656,0.9978388011556663,0.1198289483285262,0.0857601902386574,9.836287702298698,-0.0208033853092073,-0.0171601321884371,-0.0032385556290574,4.772879411905363,0.8038099058623193,1.2932489010064527,1122.5781104922075,1136.1748458905513,1135.2593303865783,1124.0453225026856,710.6017698883685,449.18603127626784,-63.80951558490005,-1310.1798211042756,160.31811331171383
2.0025,-0.1242266920929479,0.666217969690785,-0.5171514666045557,0.0219437928713353,0.0063243560367751,0.0136017031828568,0.0105758105600314,-0.005706869212445,0.0646254745263474,0.997837015660294,0.1210921218974792,0.0872545454908386,9.837009593110215,-0.0208215654301278,-0.0173448761872185,-0.0031367522185742,4.772827506876274,0.8037688761904134,1.2932369912665551,1124.6904148409596,1137.4128934843402,1135.319449016002,1120.474952762736,799.1735369294644,442.14176625151623,105.10057039587306,-1256.234419305319,160.3158479391484
2.005,-0.5718473303436004,0.8007200076971221,-0.5237639417394188,0.0222821326935852,0.0098253987048617,0.0126278141010646,0.0105797524559925,-0.0056982138523284,0.0646427616212241,0.9978359179012772,0.1218859161031712,0.0883147986190903,9.837529794031616,-0.020834146112728,-0.0175400132149207,-0.0030340174198021,4.772777805082654,0.8037239682707841,1.2932248243782365,1126.573978176855,1138.3855547218088,1135.784833238558,1117.7641504061592,737.550377903942,361.87347393857493,257.1867758140852,-978.649068400612,160.31402159201556
2.0075,-1.088430382784022,0.8702592588778417,-0.5354242241499304,0.0213693125292424,0.0135685672835583,0.0106052867609838,0.0105719336630935,-0.0056722584832111,0.0646548067439748,0.997835375082886,0.1221963650989963,0.0890283328176367,9.837860794678672,-0.0208451265626597,-0.0177398121824035,-0.0029312915121255,4.7727308277906175,0.8036751955316201,1.2932134380608846,1128.3781667304793,1139.222260854033,1136.6053828950724,1115.5817074207328,738.850743993039,329.5250035440636,419.85075520162246,-802.3839793105167,160.3122605453922
2.01,-1.7359419552852184,0.9046295882948948,-0.526867458858215,0.0182837159210838,0.0170913298002845,0.007677371467544,0.0105564483451929,-0.0056310843698799,0.064660788297119,0.9978353847634516,0.122088255434565,0.0894713936377348,9.838018595548393,-0.020858756509966,-0.017938092847297,-0.0028297585698531,4.772686543691142,0.8036230827566028,1.2932036896176584,1130.2682318968205,1140.0331797395293,1137.884087014566,1113.7522305096063,629.3929765086007,267.3745182725544,502.7097064108718,-530.9616763771925,160.3102249822607
2.0125,-2.2468692264761905,0.9294421787544213,-0.4940074098296569,0.0137576421810397,0.0188105092068071,0.0055946706684248,0.010535420454409,-0.0055810072040663,0.0646606995267491,0.99783588920675,0.1217160275854881,0.0896656499932964,9.838023210050412,-0.0208792917098163,-0.0181286134986234,-0.0027307674106751,4.7726455050885805,0.8035676936044047,1.293194947640784,1131.5251316130225,1140.559133445396,1139.118931427127,1112.9268990388468,425.2639117052785,189.7691039725982,515.427000540387,-192.8865072212416,160.30859531331035
2.015,-2.658220292187542,0.997197600900623,-0.4434310238774788,0.0071199375057579,0.0193490962324607,0.0044566411635921,0.0105076020550941,-0.0055246158788051,0.0646574859054374,0.997836696265441,0.1211647801332383,0.0895611336804074,9.837900291729028,-0.0209106254269765,-0.0183054779784558,-0.0026360409525946,4.772607578717188,0.8035092177133089,1.293187296574699,1132.3945514553468,1140.9820252593922,1140.461222017268,1112.7877979735,280.41289540088343,163.62049264198853,546.0330304510196,45.09822260101924,160.3070371927335
2.0175,-2.9375992269473006,1.1224165744386168,-0.3910912054854112,-0.0009490270699931,0.0196319239293429,0.0039803965720665,0.0104720747849106,-0.0054642513338943,0.0646556576375345,0.9978375115588471,0.1205214943015695,0.0891060668678868,9.837678966795213,-0.0209558518814433,-0.0184636844408265,-0.0025472526078294,4.772571333944683,0.8034480366656401,1.2931812694959832,1132.9271960900269,1141.3772359086058,1141.849096579382,1113.152390151852,131.9859491589369,165.36301255050955,553.2444855655403,252.50195127987888,160.30553998288522
2.02,-3.014336152036857,1.3130138794461579,-0.3486199989584242,-0.009983873861532,0.0209004073089726,0.0036894031391289,0.0104281988249851,-0.0054007777864864,0.064654400396995,0.997838390738616,0.1198480120369894,0.0882502595605689,9.837391396404614,-0.0210166902420382,-0.0185998274238934,-0.0024658972441939,4.772535503404062,0.8033849911252686,1.29317666543796,1133.0544812011415,1141.8088403221448,1143.2274444450957,1114.0503077298995,-34.54377228067716,210.15000193165628,581.4709780533245,509.72201265082,160.3041177187519
2.0225,-2.849010909451394,1.574624298350344,-0.3134171826429139,-0.0207991022165154,0.0242629913174975,0.0031640539710608,0.010381799011251,-0.0053385075515752,0.0646539299246926,0.9978392355813316,0.1192837093481585,0.0870629251145383,9.83706920272716,-0.0210935968830487,-0.0187121657312486,-0.0023926564030493,4.772499279443154,0.8033206859923536,1.2931727652170624,1132.7544772286235,1142.427985918264,1144.7564514696487,1115.701000215106,-180.9906550499857,245.67211899284823,519.4287482181718,703.2883761977396,160.30249904793695
2.025,-2.5072544408666926,1.7725809785563118,-0.2938017451523335,-0.0289533669931888,0.0284944013431533,0.0026696433373502,0.0103427519034005,-0.0052802747629576,0.064655431971483,0.9978398513748196,0.1189429902915046,0.0856951140661088,9.836744083215965,-0.0211857331107606,-0.0188007994105944,-0.002327554562176,4.772462018868397,0.8032559375270584,1.2931685408776477,1132.1495279258916,1143.0372009171087,1145.8245881861865,1117.566749610888,-306.9526427455977,257.6153618393674,358.6795422385498,855.7582475963682,160.30122417418326
2.0275,-1.997147175762006,1.8899853886913207,-0.2753421916292545,-0.0353226444322181,0.0339619634220859,0.0020066501797133,0.0103145102146057,-0.0052227404418452,0.064659051558078,0.9978402090229204,0.1188069157196181,0.0841839392161149,9.83645062776756,-0.0212909576137735,-0.0188677730048402,-0.0022705618489334,4.7724233743379845,0.8031919489419833,1.293163647475074,1131.2197140148955,1143.716062727461,1146.5498491808414,1119.9797914530875,-469.6784539306146,302.98099133417736,211.61106720099656,1189.535147305616,160.30002647011145
2.03,-1.269515126228996,1.8824687396304427,-0.2415483007713551,-0.0403723053053984,0.0409420723179912,0.0010345871851109,0.0102911942286274,-0.0051652692763428,0.064665675803072,0.9978403122881923,0.1188914683206745,0.0823878262814144,9.836224415058492,-0.0214060931710087,-0.0189168980166686,-0.0022214601266225,4.772382330157333,0.8031298266987646,1.2931579392359756,1129.8011356562383,1144.55210587378,1146.8826435221915,1123.5144253474164,-558.253470663302,300.4146224953526,14.951952513500956,1389.4934966822318,160.29867832329177
2.0325,-0.6338729582302566,1.729029143859573,-0.195517628012763,-0.04234664258245,0.0461776944892686,0.0002589079863635,0.010265650786144,-0.0051076686898933,0.0646761412361964,0.9978401811470768,0.1192111626654337,0.0801511209212136,9.836098733926367,-0.0215271234621284,-0.0189535700288617,-0.0021797394185993,4.772337802520728,0.8030701502258285,1.2931518819945966,1128.4284466615788,1145.2181358399375,1146.6246089434087,1126.9272589364991,-574.639989212586,248.85962891567564,-228.21149264723803,1424.4888277872028,160.29762868572314
2.035,-0.0467746393902662,1.4132387154187669,-0.1249357838534709,-0.0422202739745034,0.0504252804588999,-0.0003624440241675,0.0102342589901003,-0.0050489724889074,0.0646929893774311,0.9978396949708762,0.1197597202079527,0.077402701799283,9.836102260524312,-0.0216496209795956,-0.0189843132589042,-0.0021445575257862,4.772289043709633,0.8030133013099928,1.293145874867878,1126.9279357101755,1145.7964040183583,1145.7415860589551,1130.6368694863525,-613.3576774264515,209.58408995175424,-458.2635689565093,1489.3075497153268,160.29665473764976
2.0375,0.4486729399955853,0.964736787041409,-0.0326173808007929,-0.0404859897561518,0.0539919163215348,-0.0008025228632887,0.0101942483569501,-0.0049911784020725,0.0647157192650779,0.9978389079340858,0.1205785274496016,0.0741009831145604,9.836258213837116,-0.0217690624564384,-0.0190164675240776,-0.0021147463237865,4.772236482448332,0.8029601521568306,1.29313981137445,1125.3616582744467,1146.2660562896965,1144.3332910986264,1134.3737966850758,-635.7324307742282,155.91197261719904,-675.5099725609087,1435.9881389440795,160.2957425505938
2.04,0.7883453034856249,0.3677913811593751,0.0838745267922271,-0.0369561855870025,0.0568652805215449,-0.0009182217133366,0.010150676620362,-0.0049375446209398,0.0647381633145783,0.9978381533245524,0.121731475305802,0.070374480284938,9.836581867921092,-0.0218811955614311,-0.0190577597760404,-0.0020886227400572,4.772182194911458,0.8029098689745447,1.2931334540494173,1123.7492735563044,1146.5759638814443,1142.364036196151,1137.8168101810727,-711.3862890763054,96.00092017299379,-953.6456485879827,1359.8438772867044,160.29490325145463
2.0425,0.990806693547675,-0.4848335783245951,0.2449320125872221,-0.0315977657684126,0.0590223945218037,-0.0004384577443768,0.0101109329069204,-0.0048921309705681,0.0647575934044678,0.9978375135553568,0.123289752814156,0.0664139855905278,9.837081600971036,-0.021982680364717,-0.0191153413050972,-0.00206427809953,4.772128315031839,0.8028608673873363,1.2931267178185313,1121.8047268290652,1146.7460608905615,1139.5650628556866,1141.1730160715092,-704.2562396714097,26.820004480442208,-1052.531912834206,1046.677622191714,160.29397783768462
2.045,1.0009488891359,-1.2600227272125106,0.3907426549345859,-0.027200318800326,0.0586790815812739,0.000538317332141,0.0100768014559929,-0.0048532659458601,0.0647732849578118,0.997837024954972,0.1251938124792802,0.0623243731325583,9.837761608580498,-0.0220710281418197,-0.0191954752865105,-0.0020402320760107,4.772076540774887,0.8028115960574853,1.2931202605845336,1120.2279923579474,1146.7100639038465,1137.10137663198,1143.0501982920312,-601.6862320942565,-57.16981890800648,-946.1441746413329,519.5578045292788,160.29327261332628
2.0475,0.8975215812003324,-2.0139923117378085,0.5432231328595686,-0.024256799359135,0.0547126140202286,0.0015438540160444,0.0100506284657053,-0.0048210065660362,0.0647840520695386,0.9978367405173264,0.1274083644026764,0.0582346497490819,9.83861847185241,-0.0221443271424259,-0.0193035640756468,-0.0020148847767818,4.77202647818915,0.8027620886573441,1.2931148797327483,1118.796295668594,1146.4602117960214,1134.83434198248,1143.7708050941555,-566.2789286201253,-171.68835727889385,-874.1838395087784,45.56620593593932,160.29263289626164
2.05,0.7292571119755163,-2.774416828361184,0.7285324358231388,-0.0232514406506354,0.0457192059655252,0.0024184476336177,0.0100330302471247,-0.0047973734055097,0.0647931233314289,0.9978364362060697,0.1299253782341251,0.0542496325310298,9.83964138081123,-0.0222011462375227,-0.0194439267996965,-0.0019865092703272,4.771976297212136,0.8027133691807335,1.29311104740878,1117.3965977148468,1145.851622117452,1132.730457434436,1143.2780293217108,-438.4745471393375,-283.4833787876768,-621.7130182830296,-382.5963062203952,160.29193707288118
2.0525,0.6124456697489119,-3.212788165195952,0.8742716599667723,-0.0238215763058454,0.035924211521734,0.0034124484384338,0.0100286478255222,-0.0047842481029955,0.0648044092748921,0.9978358051370912,0.1327311963634694,0.0505626754966166,9.840811005181273,-0.0222402430124937,-0.0196198946204349,-0.001952925019352,4.771924105471159,0.8026669027917547,1.2931080571256979,1116.6039229328971,1145.0427949020827,1131.7257768910647,1141.8578235630534,-220.5294550518225,-389.09114724330817,-212.57747666853376,-726.8069119557786,160.29141392165957
2.055,0.5634763618032612,-3.396573580233705,0.983908712939399,-0.0244601930056018,0.0254382869130192,0.0054565598495131,0.010036707455161,-0.0047851089502111,0.0648168204459176,0.9978349097293824,0.135829974136097,0.0472648423479229,9.842101488320077,-0.0222604331792169,-0.0198337284278436,-0.0019116807577799,4.771870175335536,0.8026224735282156,1.2931036199144397,1116.2939504395877,1143.9061663812352,1131.6675700510934,1139.6439947619317,-38.14847613885002,-501.05502449151726,138.4798955814888,-971.8942988574079,160.2909455493835
2.0575,0.576447750052577,-3.363533277433767,1.03589542512552,-0.0244671440739378,0.0153048344459528,0.0086188376824077,0.0100494244459408,-0.0047951863866137,0.0648312267382107,0.997833791031231,0.1390501899619613,0.0443210637130742,9.84348304423682,-0.0222610137410604,-0.0200859100657805,-0.0018606169067905,4.771815822406424,0.8025791724548836,1.2930966870665195,1116.413180552203,1142.5375197796254,1132.418176368972,1136.9983520687665,146.25200159389664,-579.5347630731281,476.48192477323494,-1107.988821898267,160.29051949139557
2.06,0.6450636977173678,-3.096999322999845,0.9892322506842504,-0.0232011547001777,0.0065998898809018,0.0127303038614321,0.0100590640909165,-0.0048095589453866,0.0648460813552158,0.9978326493851284,0.1422143341990237,0.0416943702884835,9.844919513007197,-0.0222417502207166,-0.0203750397791783,-0.0017975404191086,4.771762051845163,0.8025350875564694,1.2930869225250503,1117.0252104475571,1141.0084925658698,1134.0499796749596,1134.1040506524405,363.03197500147553,-666.0146329261494,872.8317110741687,-1266.8070344558416,160.2901407332269
2.0625,0.7532714685012193,-2.5714726343157874,0.8066053279559153,-0.0204525132193358,-0.0015719829559184,0.0172711852753783,0.0100582848429831,-0.0048242695982378,0.0648547515895695,0.9978320094874464,0.1451632373148609,0.0393470220619211,9.846369212399084,-0.0222027706766814,-0.0206978486472505,-0.0017205804315743,4.771708854447946,0.8024884866534471,1.293074945852987,1118.2283404272102,1139.2074466149948,1136.7823349243429,1130.6643168964874,497.8902769773974,-620.6322350513478,1083.9180248589175,-1214.3598736926635,160.28973615311668
2.065,0.8401374989345087,-2.0158374560163694,0.5632574224787044,-0.0179947740764671,-0.0065442602690727,0.0196534527399539,0.0100440319115556,-0.0048392380374969,0.0648550391759322,0.9978320468682684,0.1478203218324881,0.0373077764736911,9.847784975195232,-0.0221449278525909,-0.0210489309086876,-0.0016282979077852,4.7716560780565125,0.8024386064335584,1.2930614041399804,1119.514661832444,1137.9053313906131,1139.469569799254,1128.0322512839773,546.1436886903018,-445.9644920293253,1098.4515910770604,-962.0701670180755,160.28943718697835
2.0675,0.9040744850107348,-1.3967379328929075,0.2621341272450515,-0.0161500135431041,-0.0096743434446341,0.0202616893554303,0.010013344213092,-0.0048512966944487,0.0648504887032787,0.99783257878988,0.1500511942524354,0.0355942525828926,9.849118435234537,-0.0220698375774284,-0.021421003386167,-0.0015204668684697,4.771603902152836,0.8023846279416122,1.2930471641478716,1120.9590588706617,1136.977624154848,1142.274592879728,1125.8539660613972,644.7794920234311,-300.1112663238992,1190.797764550214,-815.837464780242,160.2891738252458
2.07,0.9350565917681084,-0.6326804242908631,-0.1194290439857015,-0.0140576490809866,-0.0116961157456702,0.0195341431948322,0.0099692248595103,-0.0048494426170935,0.0648423781654971,0.997833544652345,0.1515795568753698,0.0343323768851387,9.850322015208148,-0.021979558691204,-0.0218057405547074,-0.0013981706616767,4.771552333170702,0.8023251292317543,1.2930345000950332,1122.7385592925611,1136.4047750589937,1145.4235586220047,1123.953063960076,644.9025305022152,-118.91097926003673,1072.1559797458399,-560.7637179910929,160.28889435171726
2.0725,0.903559932736854,-0.0045970251525449,-0.4283589523248518,-0.0115445835840284,-0.0123467484021652,0.0182426157026719,0.0099152091071044,-0.0048290955242082,0.064829215928416,0.997835024953979,0.1522622856020374,0.0336293814408902,9.851348638377033,-0.0218766378574876,-0.022194359830606,-0.0012633968558725,4.771502241080785,0.8022605053744288,1.2930245360840145,1124.1835715231728,1136.383069258548,1147.6353727784576,1123.0501474714415,555.733881704108,70.14838966915231,755.7555275342509,-215.3686427793073,160.28868861736643
2.075,0.7883802122212091,0.5912931398123455,-0.7094469116053441,-0.0078892279891885,-0.0116080553818703,0.016673171249512,0.0098534546640303,-0.0047845484719077,0.0648118869485478,0.997836965742928,0.1519401103272142,0.0335440625970019,9.852155527718018,-0.0217642753450549,-0.022578046964293,-0.0011191571105952,4.771453838510555,0.8021921053278961,1.2930180319326383,1125.5172287010819,1136.7555170073394,1149.2023362596765,1122.8762207461796,544.7148378778481,221.85049109316893,511.03346544392656,71.4412772229495,160.2885072520865
2.0775,0.5462444040149678,1.2440339873524355,-1.00226063786672,-0.0032611419343346,-0.0089019638223919,0.0143107901110633,0.0097889336453145,-0.0047192918796389,0.0647907194403216,0.9978392763921063,0.1506472561337616,0.0341563859573698,9.852702262947634,-0.0216461120457199,-0.0229486442736227,-0.0009684510303975,4.7714074137979985,0.802120773111504,1.2930145764415475,1126.907145712562,1137.4923217140135,1150.1905401056772,1123.4073538575562,461.0436859538011,292.3647215738191,208.95317561822128,285.2129213398318,160.28831377635228
2.08,0.2804343966989683,1.7179741072447692,-1.2008462244281013,-0.0009563350941438,-0.0055133302567351,0.0115731873967519,0.0097241958008053,-0.0046460592104137,0.0647662219877498,0.9978418350960536,0.1486066259466408,0.0354653529515708,9.852952971003027,-0.021526057621508,-0.0232990095183205,-0.0008140931327296,4.771364128489304,0.8020475065721032,1.2930130644539628,1127.8224471308508,1138.2173406152085,1150.2471021377676,1124.3022853528787,299.7465023630475,290.92144340662054,-121.32577357597513,397.05578293106487,160.28817013581067
2.0825,0.0048761061079932,2.09727681605768,-1.342528703876729,-0.0018352131068679,-0.0010514616169943,0.0080758215615056,0.0096622033361603,-0.0045739938601065,0.0647420027190555,0.9978443350339417,0.1459816122156455,0.0374626500910015,9.85287967154648,-0.0214080872756544,-0.0236231799478638,-0.0006587747507229,4.7713240441960645,0.8019734257637605,1.2930128749094247,1128.4058782243771,1138.9469289310468,1149.583911237797,1125.3926327722115,170.43032602487435,288.58701611935135,-359.6659492506282,424.044567204246,160.28804217014007
2.085,-0.23410049914675,2.379995876548149,-1.4330536039068384,-0.0047016434871903,0.0045131624662988,0.0044673023309862,0.0096035717975483,-0.0045035294469764,0.0647240092285402,0.9978463835727824,0.1427721165374766,0.0400877301693712,9.852464307207093,-0.0212958229208947,-0.0239165555173271,-0.0005052024068999,4.771286086641731,0.8018982427159521,1.2930132719537712,1128.6745987609752,1139.6602756958052,1148.4487723915145,1126.4225081888999,31.91324397803396,292.4470083638942,-528.1835675278784,351.964657856259,160.28792563322062
2.0875,-0.4035356168875752,2.525154560308556,-1.462440069241704,-0.0077309201028937,0.0112470460123945,0.0010885977827885,0.0095472327115157,-0.0044341556947847,0.0647143105081158,0.9978478635559476,0.1389679785564737,0.0432349949499256,9.85169670825712,-0.0211919399386654,-0.0241762568660469,-0.0003556628820059,4.771248131164767,0.8018213459842937,1.293014082317001,1128.5654444442675,1140.4091639728663,1146.942993400158,1127.1524560614928,-119.98511879801553,363.60726444732654,-696.8157388131352,217.5561810720911,160.2878214198743
2.09,-0.5410865577901247,2.524270207210943,-1.4292310027506252,-0.0098831684262915,0.0197971686810104,-0.0028572868729009,0.0094984733633232,-0.0043740221020703,0.0647133018929039,0.9978486653765282,0.1347476694600269,0.0469028031657867,9.850570568093516,-0.0210981807835775,-0.0244011267268954,-0.0002112155533181,4.771208542805574,0.801744505967914,1.293014969484759,1128.0746731669851,1141.4783120180418,1144.9646936974489,1127.5102890942603,-219.5161411243896,439.28668627101376,-722.9422471642432,42.69043153935566,160.28770928934847
2.0925,-0.6321085871050715,2.379428653567283,-1.3441196776654412,-0.0103667205070566,0.0265509110866748,-0.0062717842832399,0.0094663474335645,-0.0043287304162611,0.0647161547688781,0.9978489931442608,0.1302539008639365,0.0511607727403873,9.8490859630338,-0.0210153219332415,-0.0245918427888773,-7.228493549851939e-05,4.771166125617214,0.8016703979292981,1.2930150930413216,1127.4678637386455,1142.6055974042215,1143.3282821643363,1127.3659082191896,-253.7665907872735,512.3062064074129,-626.4737983044174,-124.41623874314315,160.2876260580551
2.095,-0.733552790118135,2.1033450719704323,-1.1980413120663855,-0.0102277372919981,0.0323194128324381,-0.0097366802174931,0.0094501585590896,-0.0042961761176535,0.0647163825118843,0.9978492808180596,0.125474482713211,0.0558935252790199,9.847252757031319,-0.0209436810956605,-0.0247504441113128,6.033155749515876e-05,4.771121137347559,0.801598652269831,1.2930143449342923,1126.8058402130487,1144.039843050079,1141.8323247059263,1126.8882079005443,-269.20400305967297,695.4984357381511,-607.9677544196004,-230.607963792368,160.28755314094525
2.0975,-0.8795019636088814,1.655278307242642,-0.956095259262878,-0.0109656136871066,0.0379992226719436,-0.0132741212663861,0.00944915895175,-0.0042715102220167,0.0647061799684408,0.9978500608846154,0.1203518908806973,0.0609881900537175,9.845086804404438,-0.020883526496063,-0.0248798511256621,0.0001859872819378,4.771074302850446,0.801528558564883,1.293013635633903,1126.1218437233472,1146.083089582912,1140.2884433922386,1126.2128684002275,-210.01078026748007,783.40913436711,-514.9150813908929,-215.2636134718296,160.28747722269043
2.1,-1.008126616000874,1.2145859731646096,-0.7073792604061442,-0.0130294703305138,0.0418071808730598,-0.0152033275298169,0.0094559283901544,-0.0042477635874005,0.0646811453059983,0.9978517187990898,0.1147871975070227,0.0662058867050887,9.842610931352592,-0.0208356452564078,-0.0249832584461408,0.0003037491777965,4.771026294663629,0.8014595784279608,1.2930133677217903,1125.7557863117113,1147.9568887219143,1139.257749298972,1125.8118898331854,-82.31278073804053,748.3515976996091,-348.49302531075244,-73.53005540858403,160.28742308802506
2.1025,-1.115584246500203,0.7442069793088332,-0.4221353922626593,-0.016205906307556,0.0443309712163152,-0.016046233675507,0.0094610460168383,-0.0042192008177668,0.0646455252215734,0.9978540950228362,0.1087124507608378,0.0712715510921785,9.839852927149373,-0.0208018362327379,-0.0250636250672237,0.0004127455461812,4.7709782602146324,0.8013911813106969,1.2930138965124731,1125.7102798196568,1149.82484757141,1138.5459782656849,1125.8452181231848,46.5217060802398,713.094187901849,-224.24979453581292,111.86174175936924,160.28737743857997
2.105,-1.186401175125251,0.2827390381323315,-0.1124502306206729,-0.0197171136373194,0.0454232703603912,-0.016452000895341,0.0094579660609385,-0.0041788557232045,0.0646103468992081,0.9978565689954344,0.1020486214611766,0.0759754648957132,9.836844284119788,-0.0207849122481136,-0.0251235531402579,0.0005123694952276,4.770930806054726,0.8013239542496245,1.2930149706925091,1125.9883948421125,1151.5223596614237,1138.1365003262931,1126.3711985419823,194.57458101388016,597.018396360967,-86.18322025613635,338.6812637648363,160.28733780782093
2.1075,-1.2004102878089633,-0.1273098507691955,0.2250504132556508,-0.0232357741092864,0.0447775689915348,-0.0168592284299256,0.0094413617937996,-0.0041284899328372,0.0645795136756025,0.997858930385846,0.0948976529738283,0.0801306877914761,9.833618907681554,-0.0207879438938376,-0.025165702864292,0.0006026068756476,4.770885101900529,0.8012569901775992,1.293014762429088,1126.6831527247264,1152.8099395532147,1138.1150621644042,1127.5386244420088,393.40795563240073,425.78541670637605,73.5366419558447,645.2907847328016,160.28730386798054
2.11,-1.1491351439912512,-0.5176378530597197,0.656076062943656,-0.0270846145256887,0.0426749013908278,-0.0169307435893651,0.0094117722218217,-0.0040748754134022,0.0645516995138476,0.997861230656439,0.0874743863730997,0.0836696544821377,9.83021254628396,-0.0208141422028947,-0.0251926118077456,0.0006840356724207,4.770842843755046,0.8011897635885695,1.2930127037679304,1127.9554346202744,1153.6512867449555,1138.5041835360723,1129.5976524656462,521.1401780943672,167.82966594519525,194.36339670292412,835.3033818670334,160.2872672686333
2.1125,-1.055392462768676,-0.7397400382625978,1.0204060288566863,-0.0298563453940784,0.0403343677748984,-0.0159042373654563,0.0093652350531503,-0.0040239148718192,0.0645255186291516,0.9978635722987907,0.0799772728901921,0.0864485282666517,9.826666576889325,-0.0208667218863759,-0.0252065411181539,0.0007567994038297,4.770805232905665,0.8011205580684594,1.2930091598567994,1129.288853615198,1153.6490878829409,1139.0868791479188,1131.715141351344,556.2920661547275,-156.08066384801387,251.52639117525845,882.5133693803168,160.2872381212736
2.115,-0.9198534193890262,-0.8483294781398544,1.3529955504793052,-0.0323295528085255,0.03738577855073,-0.0131189756976549,0.0093032632379413,-0.0039785601771689,0.0645015991904438,0.9978658872837404,0.0725590993563652,0.0884461866490512,9.823025287900991,-0.0209484268819879,-0.0252096119150174,0.0008207751839923,4.770771383238553,0.801049673601541,1.293004530707003,1130.7368949510483,1152.8708834257154,1139.7618154919487,1134.010219312548,617.1759789436729,-503.1690668087891,267.40723668679504,990.0167653086796,160.28720762030835
2.1175,-0.7245529726609566,-0.8600819640210329,1.6616466375445267,-0.0349956807607826,0.0336867733188397,-0.0077578880512255,0.0092253794012978,-0.0039335737393045,0.0644838724147826,0.997867942811678,0.0652133468727545,0.0896248979575637,9.819338215615629,-0.0210610189441219,-0.0252040829423106,0.0008747551869596,4.77073855819049,0.8009781100949334,1.2929999735695437,1132.3747335099167,1151.1332425488968,1140.4239153313529,1136.6652251778878,550.9729441197695,-739.0117650031856,183.02251192858807,916.0106035745424,160.28716618316042
2.12,-0.5487405590975813,-0.7950035907900485,1.8096854882736848,-0.0365383989832197,0.0313062868051024,-0.0022472969281113,0.0091365930322281,-0.0038880162583813,0.0644781463874261,0.9978693158111368,0.0580263768478447,0.0900614629278179,9.81565680369575,-0.0212048353604156,-0.0251926032788103,0.0009172240005436,4.77070386358022,0.8009072646917283,1.2929965271413615,1133.491759671647,1149.1758246006996,1140.6769280515916,1138.5902723304207,363.6943173515724,-836.8882072589892,10.992211952725718,673.0992355861106,160.28712528192239
2.1225,-0.3783719444350857,-0.6926331892057866,1.8229991399930616,-0.0370260579855033,0.0300096750062894,0.0034669182365102,0.0090439805246576,-0.0038391988795355,0.0644912899060683,0.9978695051406808,0.0510520811384422,0.0898877936017242,9.812035837084116,-0.0213787581392016,-0.0251782506829756,0.0009460071543498,4.77066590913114,0.8008371479532229,1.292994954489165,1134.1932050966743,1146.948801512602,1140.4788763911165,1140.0307213558183,197.4218517688356,-895.1823823808545,-158.69522710113753,481.0358272649512,160.28707503972507
2.125,-0.2232530192194449,-0.5895462374223497,1.7258082313484202,-0.0369312025755689,0.0293245998250357,0.0088431367605598,0.0089510306612824,-0.0037844705063827,0.0645241495937237,0.9978684341032295,0.0443366157631902,0.0891772983264641,9.80853462235836,-0.0215801553927834,-0.025164689519026,0.0009582566054305,4.770623804535961,0.8007685964989947,1.292996508628085,1134.4788689304912,1144.6999126887952,1139.883451916086,1140.9954514667454,10.501054263977716,-864.1679971484974,-316.7462401964325,272.01657303394893,160.2870150610452
2.1275,-0.0886532216938302,-0.5120036252107325,1.5156669056861989,-0.0365707895939685,0.0289189691132315,0.0132214472499425,0.0088619325898442,-0.0037240493121997,0.0645748285020191,0.9978661894601724,0.0379775836501017,0.0880245388404381,9.80521487184808,-0.0218055056935248,-0.0251557672583094,0.0009511800081938,4.770577317105523,0.8007025801232193,1.2930028912454734,1134.2457103679944,1142.6279615268595,1138.8951451901344,1141.390804220988,-211.84614063281967,-834.9145885830872,-478.9956462954353,64.7317406327161,160.2869409913342
2.13,0.0613081589383241,-0.4651425959214737,1.1742362955396153,-0.0366725504306447,0.0282646451576021,0.0168981901414437,0.0087782631679432,-0.0036678154872394,0.0646340815834007,0.9978633182451182,0.0322504060537772,0.0864703441665986,9.80214056327877,-0.0220506744482444,-0.0251553292026902,0.0009227379743189,4.770527220901681,0.8006395879089913,1.2930135026869976,1133.4196382273271,1140.52533974588,1137.4884736846088,1141.3191101699088,-379.2786346712172,-692.242548184837,-508.76281805714086,-90.87330161414877,160.28683285260297
2.1325,0.1902253885682897,-0.4659291495664537,0.8478940479279432,-0.0374879560279296,0.0273449036393348,0.0186086948697095,0.0086970548116707,-0.0036283693656709,0.0646922524195001,0.9978604262364456,0.0274694201727237,0.0844717737822341,9.79937695636635,-0.0223117220426119,-0.0251664522214326,0.0008719237106979,4.7704757076894175,0.8005780812110934,1.2930253991307314,1132.3493171946384,1139.1667487859352,1136.3513310998487,1140.9364377129173,-487.36817112663977,-452.89338425265333,-397.0103605613263,-185.674672195488,160.28672457956702
2.135,0.3295902970910678,-0.5029131614360413,0.5091542290914889,-0.0385094040908678,0.0259942805174692,0.0193993042520847,0.0086186725028202,-0.0036125148813049,0.0647439059921722,0.9978578399234732,0.0238309449251687,0.0820659673054525,9.796985749114329,-0.0225853905391331,-0.0251908581601228,0.0007992492810722,4.770424373317961,0.8005157601472545,1.2930363518253944,1130.9827973716936,1138.2608728246166,1135.503421881802,1140.3907368089315,-646.409952029082,-288.949654437764,-265.47083864514235,-245.88960893355008,160.28659506317723
2.1375,0.4871621926078889,-0.5831481798458955,0.1080088268810122,-0.0384215786271084,0.0242349763651126,0.020075987972576,0.0085469761427827,-0.003616993180424,0.0647890655687231,0.997855537728602,0.0213297097720498,0.0793773395378082,9.795022092501272,-0.0228691921397758,-0.0252287544649864,0.0007066257967901,4.770372532856573,0.8004527544853203,1.2930450436828327,1129.1172674344928,1137.7220005137465,1135.0239769066227,1139.7069896682494,-703.9169106110571,-104.91304144898317,-75.37428344858358,-243.62965640703416,160.28641272955028
2.14,0.5762137268361494,-0.6782214345156681,-0.2143077678580207,-0.036479024625034,0.0229673343162574,0.0203690280854321,0.0084871215328648,-0.0036340670131175,0.0648258145510939,0.9978536292727808,0.0198640003679715,0.0765653231119381,9.793532692382398,-0.0231609752801131,-0.0252792462284681,0.0005972543063652,4.7703202966193405,0.8003887875977954,1.2930503823487656,1127.4632128186383,1137.7363076173715,1135.1265504645592,1139.1725885268963,-658.6715513056473,98.42427699459432,134.02453875424104,-207.771766189221,160.2862370394716
2.1425,0.5787019800099753,-0.8002425361880103,-0.5133747188282433,-0.0329061109496981,0.0218669881009319,0.0199967136413158,0.0084353073782234,-0.0036579900106201,0.0648488993275159,0.9978525064431266,0.0193485042099677,0.0736142042854261,9.792556534506494,-0.0234587883825856,-0.0253405614299693,0.0004749662476059,4.770270000904587,0.8003217114353514,1.293052670538209,1125.8239096779644,1138.2141218987194,1135.694099600394,1138.6681308373031,-633.6713178211675,258.93145047057806,281.92045241076505,-206.6904634571118,160.2860356196621
2.145,0.4944640897418364,-0.9375227231579236,-0.7793983677597599,-0.0290008991662451,0.0205656182748541,0.0187506896409254,0.0083900665136886,-0.003684020160571,0.0648585007158746,0.9978521838952148,0.019709705064832,0.0705549132763959,9.79211995939301,-0.0237611247442864,-0.0254099686151938,0.0003443568716549,4.7702226114563695,0.8002495309285667,1.2930528740821663,1124.2948562295328,1139.0309648697244,1136.5361527266127,1138.1391362096108,-560.5802244601938,387.4757536600637,369.91606963061594,-233.25402409387195,160.28581241651366
2.1475,0.3237793648269839,-1.073883624662641,-0.9829837001090548,-0.0264777762770432,0.0184273055585695,0.016079893012419,0.0083524908017741,-0.0037120566254409,0.0648583624290339,0.9978524076761988,0.0209563058237491,0.0674640006614111,9.792235497630696,-0.024066459329202,-0.0254844846420597,0.0002106138016617,4.770177558922149,0.8001723682869906,1.2930509560627337,1123.0210085556637,1140.1515006670195,1137.5436799485472,1137.501860716834,-473.280139389236,525.6432759195944,444.79230936118296,-322.6163864520527,160.28556280578204
2.15,0.0818358576900578,-1.2019777831536211,-1.1296234285290598,-0.0265753226524118,0.0145412920122274,0.0112469409734719,0.008323360889859,-0.0037447414421127,0.0648520766890055,0.9978529289201032,0.0231373839632853,0.0644094296254378,9.792901789705633,-0.0243726663800518,-0.0255618089657778,7.900392114174128e-05,4.770133935196864,0.8000919884289439,1.2930463807386636,1121.9284555325867,1141.6591812493225,1138.7601142734188,1136.5260542773503,-313.5122599066175,549.9392035294594,430.90945636286966,-400.3874205847836,160.28523306310473
2.1525,-0.0980633902003307,-1.2557005566770163,-1.1663418068182523,-0.028576563979361,0.010594141736461,0.0067603170084243,0.0083009725914358,-0.0037821022120466,0.0648425029720173,0.9978535793829088,0.0262342370097385,0.0614151065744017,9.794103708456609,-0.0246766778184036,-0.0256409863151284,-4.5791791518043866e-05,4.770090103505613,0.8000096471529347,1.293039471279469,1121.4534472561306,1142.9011966846667,1139.6982272303615,1135.49992361391,-94.14499108447036,462.05311777440846,355.2654661806388,-455.714171855576,160.2849337344337
2.155,-0.2145255916576004,-1.2394326711868935,-1.1367616094628032,-0.030525600050161,0.006732250616447,0.0032457584691697,0.0082800931131887,-0.0038194615688147,0.0648320463219786,0.9978542679756914,0.0301176728960814,0.0584436605951819,9.795812909513565,-0.0249743411098293,-0.0257227843656688,-0.000160161027848,4.770044602785062,0.7999267732662257,1.2930308693617867,1121.4577305771643,1143.9694468381947,1140.536441604322,1134.2474834180723,101.740850666913,404.12533528990014,357.0486279543033,-593.0230139319574,160.2846101366295
2.1575,-0.2709374333667617,-1.1415562064972966,-1.0768180064701511,-0.0318656479173923,0.0028447932375943,0.0007722020562992,0.0082622814803601,-0.0038493842522846,0.0648225389969232,0.9978548932776669,0.0345988326856739,0.055596257343258,9.797986417509488,-0.0252604721020907,-0.0258098297110845,-0.0002611569352685,4.769994852477352,0.7998462028085084,1.2930229003680411,1121.9621515094652,1144.9218233611164,1141.483470370133,1132.53480854425,249.95996301300315,284.2369087026388,351.3964605698295,-647.4966392742,160.28419549547925
2.16,-0.255855730517366,-1.0054936514636774,-1.0456790221499703,-0.0325192432758678,0.0003697896796465,-0.0002361346421709,0.0082485232692069,-0.0038663351424102,0.0648107781154485,0.9978556787114444,0.0395107398951998,0.0529628013812869,9.800569772285508,-0.0255289473741433,-0.0259065853576361,-0.000346705759315,4.769939642481708,0.7997712114861637,1.293017162885318,1122.7075303922293,1145.3906313817079,1142.2934239071712,1131.0100002217016,336.7649835887804,117.20652253493677,344.4605347426278,-605.3377120117732,160.28382936346603
2.1625,-0.1895552181351033,-0.8279665862132753,-1.0626605547090444,-0.033132249679879,-0.0015033574416259,-0.0009437052827045,0.0082415389267472,-0.0038705179570127,0.0647939981469679,0.9978567850039418,0.0447875603219552,0.0506624905407323,9.803497789375834,-0.0257735252841692,-0.0260183472548771,-0.0004150610385923,4.769878571150273,0.7997039044095303,1.2930136323610828,1123.645976427409,1145.5078559737913,1143.205773043846,1129.5081199841911,385.3149383669088,-8.755829354140774,390.1735678498964,-577.4057271437537,160.2834435110179
2.165,-0.0912607195539276,-0.624822233899813,-1.1199316137889035,-0.0337001808883801,-0.0029206232604419,-0.0019841884946701,0.0082428561546676,-0.0038672414142949,0.0647733192011041,0.9978581105115037,0.0504502261384172,0.048786504988561,9.806696503906345,-0.0259886482035325,-0.0261499296185384,-0.0004646345272882,4.769812354957912,0.7996435110544617,1.2930119705327627,1124.6341050840635,1145.3468522349372,1144.2442917464207,1128.122971585983,386.2328930282811,-124.82719085960792,449.8796086275074,-506.2591776280095,160.28304259200868
2.1675,0.0308299451511248,-0.3962900316527274,-1.2005266921199205,-0.0337588888381759,-0.0036206167231299,-0.0040034739698191,0.0082422575842275,-0.0038582126146343,0.0647514737225236,0.9978595541683458,0.0564246165333277,0.0472003218916848,9.810087156529518,-0.0261699070783029,-0.0263045445576961,-0.0004946883364936,4.769742634249625,0.7995870227275887,1.293010648556008,1125.5771408925505,1144.8837200194932,1145.4551710869837,1126.9768240960511,390.48261551139063,-261.4439328930585,571.5630071113659,-433.0291263863365,160.28262512085126
2.17,0.1839431806973162,-0.0913359519963712,-1.2698538208990056,-0.0331992812461151,-0.0040394640424912,-0.0079369506800969,0.0082310558548676,-0.0038462466634209,0.0647327754645556,0.9978608964142536,0.0626532156678647,0.045794675053496,9.813584929786495,-0.026314510575491,-0.0264828751879129,-0.0005042129711567,4.7696713658941405,0.7995306763149395,1.2930085687336732,1126.5865181616207,1144.039632570472,1147.1021067819775,1125.9578259540513,350.47121037465166,-345.18504752268933,631.5778237971379,-310.37874193967326,160.28210718541555
2.1725,0.3034254492596473,0.1947074429490559,-1.2620282588128606,-0.0323724660721388,-0.0042505385186192,-0.0123189075960113,0.0082056939888704,-0.0038336209483967,0.0647175004560308,0.9978621421065884,0.0690702888812102,0.0445551355221197,9.817100195022292,-0.0264212546020635,-0.0266829802191138,-0.0004918198813896,4.7696012795134655,0.7994699463546971,1.2930048244636048,1127.3294969444237,1143.1577947818798,1148.6130602059693,1125.424930386353,289.22763096577773,-369.0501043385417,622.1066959395138,-152.30599477957975,160.28166306835095
2.175,0.4023064691268209,0.5209663114132994,-1.1493944874263833,-0.0311642242191668,-0.0040905677512143,-0.0171679920669858,0.0081740031184534,-0.003822987501703,0.0647024347547913,0.997863425345561,0.0756310696412212,0.0436810069464999,9.820539299039751,-0.0264905594635432,-0.0269005309016698,-0.0004555097318342,4.769534359729131,0.7994016747936173,1.2929985814173968,1128.0326563164497,1142.194382048779,1150.2126402616752,1125.1962959801533,322.2023205097012,-410.323336713936,701.8197930279238,-46.84373587837992,160.28120799591065
2.1775,0.4895462237213097,0.9563112310831726,-0.8857924795434386,-0.0295672218829215,-0.003055457340204,-0.0222580657253706,0.008142927178225,-0.0038221760120252,0.0646836316011191,0.9978649139134336,0.0823937425361679,0.0433363720370476,9.823808964731114,-0.0265243658012863,-0.0271294855956714,-0.0003934289695736,4.7694724737832805,0.7993256057284454,1.2929894425199155,1128.9405085469723,1141.10617809831,1152.1221591711092,1125.190711706961,357.32852581878285,-360.1436961836575,674.6346696500184,24.965400338442652,160.28065168172938
2.18,0.5349047883139249,1.3421746526105789,-0.5805882979249047,-0.0284084121690481,-0.0011357348075715,-0.0250490518887699,0.0081137520622164,-0.0038310477245579,0.0646647292266835,0.9978663571730944,0.0892590488662936,0.0435707903397967,9.826820895046035,-0.0265260883060612,-0.0273627549349533,-0.0003051959337781,4.769414949065648,0.7992446957807137,1.2929785487820775,1129.8192989455436,1140.3936635678608,1153.5858136099253,1125.3211229818455,381.26891530392544,-212.85896150166536,522.3427061164441,55.76377752609124,160.28018140210975
2.1825,0.5521335757556267,1.7217749799782722,-0.2357837699611848,-0.0275314278716142,0.0023373223983939,-0.0258413443895295,0.0080877585183844,-0.0038415077236771,0.0646517532447886,0.9978673819074017,0.0959797945931552,0.0444284662568382,9.82949378694712,-0.0264997894315547,-0.0275934115693879,-0.0001919341745885,4.769359198980563,0.7991629111935336,1.29296742942146,1130.8468531234919,1140.0418832908017,1154.733872701691,1125.4695305945916,426.04798414018654,-63.57552349518436,375.4498084688829,44.54253150247591,160.2797064472182
2.185,0.5433431716505066,2.0668088557544713,0.098897965404042,-0.0267088286046658,0.0071039268313915,-0.0251034806193657,0.0080664534141715,-0.003842320853413,0.0646448905928403,0.9978680058763798,0.1022571768757614,0.0459465851943709,9.831755848810058,-0.0264493343761017,-0.0278155539991369,-5.61896021247472e-05,4.769303716102672,0.7990821898590384,1.2929580172275252,1131.9495388662444,1140.075785950385,1155.4630626522696,1125.543835639358,432.5701214858419,112.85025776419629,153.27667593624355,-5.462742973668472,160.27922936188511
2.1875,0.4929983863715323,2.3349105207375738,0.3776792577758771,-0.0256249786589696,0.0130093337919628,-0.0231355933636312,0.0080505616397423,-0.0038280696467008,0.0646380820871494,0.9978686364166564,0.1079168157833291,0.0481248148731676,9.833546409251712,-0.0263781928354703,-0.0280242964930701,9.851238758888381e-05,4.769248132264064,0.7990020921737359,1.2929508123456204,1133.009703730921,1140.6061345796227,1155.5002560813723,1125.4422168797232,411.2491976615362,333.70202821302684,-180.12235304231965,-96.84074787396845,160.2787518925444
2.19,0.3654484368613318,2.531239577281597,0.614490144522363,-0.0238674507964999,0.0206303801811088,-0.0201517805271599,0.0080328093182986,-0.0037976994556507,0.0646233392077755,0.9978698537014478,0.1128723927951939,0.0507863263997874,9.834819762224006,-0.0262896357059156,-0.0282153749801112,0.0002673752127203,4.769192793753524,0.7989205968221355,1.2929450444959503,1134.005784854552,1141.74429609145,1154.562450887058,1125.059631899988,286.09251029038813,475.5096843604962,-517.733605329715,-180.00114629294714,160.2781814025216
2.1925,0.1912187884306822,2.5716579367829926,0.7250919143184577,-0.0221800761341391,0.0271631056404045,-0.0174834959475573,0.0080048964289814,-0.0037550923248723,0.064598478465885,0.9978718526185364,0.1171469345946528,0.0537146108911337,9.835545407904249,-0.0261871767587159,-0.0283847316855372,0.0004449743093127,4.769138191349987,0.7988366904939364,1.29294053843218,1134.4401662823727,1142.983683001425,1152.911588054724,1124.5422111482585,62.39314812437575,513.6207361438774,-826.1554484708261,-226.5267172365432,160.277710252879
2.195,-0.0557436054122458,2.469837216885948,0.7592703714464923,-0.0206378637710725,0.0337664497303155,-0.0149809494324791,0.0079641123486554,-0.0037078962629974,0.0645663996958365,0.9978744398503168,0.1208585662738144,0.0567866506792823,9.835707988646474,-0.0260745254637412,-0.0285287584172738,0.0006257494125912,4.76908455765046,0.7987501684219682,1.29293702245439,1134.317750595174,1144.312399772169,1150.431673644704,1123.9269983138051,-194.7749854429144,550.0312805806599,-1231.3047006697238,-250.4132709653108,160.27724620423223
2.1975,-0.4132579874229594,2.1773626147287977,0.7466925871451812,-0.0197918591130596,0.0416115344853824,-0.0127426251681266,0.0079150083408063,-0.0036570876810916,0.0645339874766984,0.9978771267448268,0.1240175666741469,0.060021415192905,9.835309335394772,-0.0259555037956441,-0.0286446545751535,0.00080374395367,4.769030967446248,0.7986624833570838,1.2929362408240073,1133.4662913551583,1145.7338394043284,1146.7550645513747,1123.2901447934319,-422.37798871539655,454.57667707598034,-1409.475255142111,-180.68798468283293,160.27670054602595
2.2,-0.7264629557972233,1.7983070206184903,0.7224088701396875,-0.0208540908757883,0.0475989228625957,-0.0116934598305773,0.0078581419029434,-0.0036039224892931,0.0645025752201469,0.9978798129575616,0.1266471978286272,0.0633538031564341,9.834370126084686,-0.0258334953529693,-0.0287311468052897,0.0009725125113231,4.768977925547715,0.798575437001447,1.2929393631420951,1132.2058606515968,1146.5852831575492,1143.3842973689927,1123.0235583903911,-592.730738540662,235.78358170357708,-1336.1309586114487,-14.575014294632949,160.27625712392077
2.2025,-1.000091317074954,1.3046153043467996,0.7149987726167807,-0.024170676811724,0.0521629141489789,-0.0110480652747059,0.0077922393709387,-0.0035483357159388,0.0644722606423097,0.9978824994778552,0.128754359776977,0.0666816454298142,9.832929076089496,-0.025711673018307,-0.0287882715440176,0.0011255988330594,4.7689258993289,0.7984895011870102,1.29294669283643,1130.502637662455,1146.9127573128465,1140.0744097583179,1123.2172697219587,-805.2683742466969,-1.1784648592311235,-1358.4673667161785,213.97941519049252,160.27582743719165
2.205,-1.2286143709019663,0.6316274080222716,0.7428460622561002,-0.0294116502920872,0.0556815024920359,-0.0101157883521107,0.0077196831255205,-0.0034954537057393,0.06444597672492,0.9978849566762246,0.130463508515871,0.0699674890744688,9.831038831912204,-0.025593133878989,-0.0288170151380439,0.0012577105039668,4.76887478970486,0.7984044286399717,1.2929570703373832,1128.1795187803634,1146.5793908332532,1136.5919605354122,1124.0934554663436,-857.8091166281139,-247.63310999692823,-1146.4767287005786,424.3145876108064,160.27532960909
2.2075,-1.317146083868167,0.0522203884699677,0.7948172585358501,-0.0337890355357283,0.0568667662238008,-0.008960864097693,0.0076401331104343,-0.0034494071463789,0.0644296151372456,0.997886789477466,0.1318856642444509,0.0731238693782793,9.828766554343396,-0.0254807918973,-0.0288191559282252,0.0013645086707788,4.768824834061041,0.7983210265687207,1.2929688126907573,1126.2135920793144,1145.6745917628618,1134.342026114815,1125.3388426600127,-742.9815432515783,-480.9577324746544,-727.7411179683595,574.6921702009909,160.27493070462438
2.21,-1.3032613541070883,-0.4811473073104127,0.8606815867703369,-0.0375465941160419,0.0557059793679498,-0.007041336086604,0.0075543880826914,-0.0034087572195059,0.0644293773938854,0.9978875953663052,0.1330315789467728,0.0760976205428083,9.826191048301142,-0.0253770974665203,-0.028797198457037,0.0014429153560901,4.76877560763196,0.7982394234158695,1.29298073678662,1124.4646110641056,1144.17460217088,1132.9532549455705,1126.9669163173485,-630.6555308973336,-678.861992630951,-403.219727458017,678.0846824245745,160.2745493720277
2.2125,-1.2199063661664735,-0.9287045414665988,0.9209955326019156,-0.0404588770969919,0.0526300935069796,-0.004603182168958,0.0074645406820841,-0.003371159649778,0.0644477096204633,0.997887209960478,0.1339009851657711,0.0788695801923044,9.82339856420384,-0.025283668299678,-0.0287543323868827,0.0014914278268353,4.768726535251687,0.7981596766892126,1.2929918932150744,1123.060314424828,1142.2802817997072,1132.325927477525,1128.7292660721355,-449.4488774815732,-817.3522546118139,-77.82370085860913,687.952777784236,160.2741831273213
2.215,-1.0753102554427747,-1.2305895803831055,0.9557541778244832,-0.0426474505065492,0.0483136517405329,-0.0020309906365384,0.0073792401930979,-0.0033348227921321,0.0644819952421216,0.9978857447559552,0.134515424851658,0.0815576754012701,9.820477443222293,-0.0252011481817195,-0.0286942197102189,0.0015104403429346,4.768677008779945,0.7980814641333979,1.293002635489441,1122.2173666766976,1140.087840897821,1132.5641364412775,1130.4066802062696,-221.28901616736908,-978.2644225489795,267.8042128391372,663.9868835174191,160.27383549947203
2.2175,-0.8528807006870411,-1.4009071456744262,0.9499541374377188,-0.0450768938352289,0.0430971496125136,0.0010360438090045,0.0073069738449325,-0.0033015557672495,0.0645262973113231,0.9978835170017832,0.1349673929264065,0.0842820759298499,9.817515815111813,-0.0251293191105829,-0.0286206942240561,0.0015018503481838,4.768627615434333,0.7980036108250834,1.2930116330516215,1121.953869343991,1137.388959686962,1133.6649485417208,1132.0492004897228,29.16699725737802,-958.16127265064,501.2972299162018,515.2091192565985,160.27344065638036
2.22,-0.6368406388273374,-1.385919798640136,0.8966306165393916,-0.0468759425071381,0.0391262808912212,0.0036609590722783,0.0072518725366702,-0.0032755277356055,0.0645734642229641,0.9978809486071204,0.1353887274799798,0.0870848995085988,9.814599751448743,-0.025067253810299,-0.0285375561871692,0.0014685473367502,4.768579234030699,0.7979253081602268,1.293018008195096,1122.3632016629847,1135.2970345345675,1135.0706225908586,1132.9827258025527,280.8864013749431,-757.5832411823901,614.0032311490944,273.4463303889756,160.2731312042392
2.2225,-0.3984195254358992,-1.226651677940958,0.7881189846619076,-0.0482349920775638,0.0356818514430341,0.0063405145090832,0.0072085449815757,-0.0032561297121328,0.0646202565051592,0.9978782914676648,0.1358029976291129,0.0898376208766092,9.811813345968961,-0.0250135860735151,-0.0284483549406681,0.0014134562933635,4.76853140732972,0.7978474853559416,1.2930221510425006,1123.3583013508655,1133.60104348105,1136.7349646974662,1133.4164321416677,540.7739831900132,-615.6683420939447,739.014590255117,85.7379286333544,160.27284379814304
2.225,-0.0987268643031917,-0.9003876567624828,0.600031465071543,-0.0491349956127413,0.0323123067556906,0.0091712230598623,0.0071704101696876,-0.0032349963545273,0.0646626411487897,0.997875883798742,0.136075461515324,0.0924086627124386,9.80923430177823,-0.0249661814910034,-0.0283566272627662,0.0013395643909373,4.76848228053051,0.7977708418031173,1.2930248444375632,1125.0670715789347,1132.2186928240978,1138.765695542134,1133.4114154457195,678.5627494729541,-383.42704734955896,718.5979417403968,-73.49205605851395,160.2725270695207
2.2275,0.1512630508702694,-0.5428989528143797,0.409112887515626,-0.0491816186044515,0.0303027353655329,0.0107354232467483,0.0071322955783695,-0.0031983510947598,0.0646968949576679,0.9978740524597534,0.1359611557774497,0.0947104432157783,9.806930475634154,-0.0249222732734574,-0.028265746382555,0.001249924181329,4.768429955797573,0.7976951878884179,1.29302680922833,1126.7511150982305,1131.6839082443023,1140.327954406168,1133.048971861375,678.1290583730114,-84.67054766333784,570.6915516877083,-197.41519727950129,160.27228899294633
2.23,0.3863030647399821,-0.13269870540808,0.2081194164372093,-0.0485182807465774,0.0292561671930383,0.0111384496395752,0.0070887368640487,-0.0031422637172829,0.0647185558612664,0.9978731396192972,0.1354001667134536,0.096645712127263,9.804955613918448,-0.024878686168221,-0.0281788151668162,0.0011480997657538,4.768374857339399,0.7976202370094864,1.2930278875754875,1128.4577168707997,1131.7953400857812,1141.6191533005726,1132.424339459322,645.7034727355359,142.8838734571885,458.9043882843368,-277.4081435576195,160.27208115785737
2.2325,0.5969584404053708,0.2910896299295318,0.0183047820275761,-0.0473741599589931,0.0290614549542611,0.0106399156089026,0.0070375721701788,-0.0030704907868373,0.0647267721536053,0.9978732042815268,0.1344798329674618,0.098178459149779,9.803347456371197,-0.0248325128401909,-0.0280982821589792,0.0010381897180325,4.768318399488377,0.7975464892576493,1.2930292180868703,1129.979632461908,1132.3983276115882,1142.6224763475896,1131.661931143587,516.2991466067633,341.6154585759232,325.2040939142786,-319.6424179892415,160.27190133668387
2.235,0.7635127092265748,0.6901870127719779,-0.1429186856038622,-0.0457630710504145,0.0300335298128514,0.0093067141134352,0.0069820795309996,-0.0029966577951808,0.0647218344954752,0.9978741567143936,0.1334794933235711,0.0993714953185168,9.802125985676195,-0.0247812803274928,-0.0280259025739168,0.0009250378595583,4.768262173297392,0.7974742574897444,1.2930308122088767,1131.0392126038334,1133.5034173786607,1143.245173770144,1130.8261273693759,308.7519486134416,573.3512929196036,187.78205406373317,-359.1325996100053,160.27175930231573
2.2375,0.8929428911800059,1.0820032880397514,-0.3034816724896961,-0.0431232117932212,0.0328378736186386,0.0076625927033172,0.0069234456367027,-0.0029286375115025,0.0647036725999917,0.9978759607230124,0.1325552592599683,0.1002571847349037,9.801298866801309,-0.0247229853401312,-0.0279626505085796,0.0008131105087767,4.768207002054232,0.7974033699293049,1.293031255581502,1131.5233922049752,1135.2650840761864,1143.5613866179085,1129.8662681455369,24.979974993992204,694.1418260487793,52.814623396394445,-323.1901889817673,160.27163792110088
2.24,0.9290896822309668,1.2928633696601604,-0.4242631110246771,-0.0401564749126384,0.0367098417524929,0.0069441297089505,0.0068597611733056,-0.0028662287184927,0.0646772732008986,0.9978782977652466,0.1316950931345439,0.1008179040199357,9.800862546065117,-0.0246563129317038,-0.0279082852140066,0.0007062947035306,4.768152543944357,0.7973328359026998,1.2930299282344546,1131.1641124788034,1136.9741265089049,1143.509246887126,1129.210176424467,-301.10365127766914,701.0367961224496,-68.42154627738783,-203.7307135799481,160.27158139289975
2.2425,0.883659917033772,1.3429608807367068,-0.5545601159370399,-0.0366320503283956,0.0419850071678651,0.0069685032557069,0.0067874263698097,-0.0028042414407874,0.0646470383875804,0.9978809158045978,0.1307809066456182,0.1010084018897646,9.80080195089093,-0.024580203522198,-0.0278615471156627,0.0006079565766564,4.76809764787768,0.797261830848868,1.293026793463802,1130.017873948587,1138.7702680567986,1143.2192788865216,1128.8476145776372,-648.4660369660244,771.4205971915072,-156.46204910158636,-60.72159696814325,160.27157532579974
2.245,0.7492465230613253,1.2036323665014643,-0.7342942498170117,-0.032954924135795,0.0486227645084252,0.0069331254718632,0.006702662050127,-0.0027363436997949,0.0646165225065965,0.9978836251537306,0.1296667957069749,0.1007785969131306,9.801090478648351,-0.0244938399010007,-0.0278202063388364,0.0005209863537528,4.7680419297341805,0.797189261218424,1.293022572685024,1127.9217822939731,1140.8312294948623,1142.726936641618,1128.906568439626,-840.5013429982498,714.7518092661965,-186.44107993250543,117.36274617933555,160.27163080105305
2.2475,0.5986417897904973,0.9439547687270275,-0.8931858134004651,-0.0311612689588064,0.0527725435076672,0.0059903613030722,0.0066061657387304,-0.0026620803141837,0.0645863128342857,0.9978863822438228,0.1283231396176649,0.1001544891153097,9.801688797868318,-0.024396651719769,-0.0277813317794592,0.0004481954955949,4.767986033722882,0.7971143023870653,1.2930166719557483,1125.815367233596,1142.3440271031295,1142.287073486859,1129.4344283085338,-847.0583646502017,540.8882136680519,-166.90008757878232,306.5015242146339,160.2717323159035
2.25,0.4519184875336732,0.5959873455690924,-1.0280382856825467,-0.0310632671968574,0.0541634905696536,0.003469031498348,0.0065051144602597,-0.0025843430190274,0.0645575151446967,0.9978890586572248,0.1267918014057375,0.0992789623911866,9.802546761371271,-0.0242886503574342,-0.027741425688321,0.0003921233100994,4.76793083911301,0.7970369746127584,1.293009093715598,1123.6864904707224,1143.5356705632023,1141.892436203724,1130.439076060699,-803.6876754569392,414.7876824782632,-146.497415156185,459.68672870650227,160.27189449037544
2.2525,0.3359748997987182,0.2285991265823597,-1.1121007645312209,-0.0318597878038392,0.0536630549167411,7.272306718055027e-05,0.0064086119177607,-0.002503370376719,0.0645320728354999,0.9978914698762048,0.1250646407708035,0.0983297850499183,9.803608367357088,-0.02417049878175,-0.0276967996639839,0.0003542862551841,4.7678767395579165,0.7969570858929386,1.293000970872435,1121.7969288563113,1144.4179655155208,1141.554586411078,1131.7328619520663,-648.9281133843772,277.74518085889804,-126.74042531366736,543.0045801998974,160.27210917880737
2.255,0.2686873319130185,-0.1117810250575676,-1.105349470799942,-0.0323806273845763,0.0521636324875057,-0.003534066884936,0.0063245816333837,-0.0024177052311166,0.064510199444621,0.9978935602519,0.1230994141800112,0.0974580604090329,9.80481500232906,-0.024043332387986,-0.0276440996185544,0.0003349119461386,4.767823455119664,0.7968758171555729,1.2929940470342312,1120.4418499038006,1144.9243964674968,1141.2587340771559,1133.1540989616988,-436.35823913638,148.261257423886,-136.5288962264487,590.380030273276,160.27238960644803
2.2575,0.2303178079527491,-0.4550543937378935,-0.9719859116751975,-0.0319064373060146,0.0500638118099392,-0.0078070902115733,0.0062532773970309,-0.0023299447046975,0.0644891437233326,0.9978955077093212,0.1209253921953101,0.0966547300257628,9.806108885929433,-0.0239086318465043,-0.0275806920038567,0.0003328821774302,4.767770828379011,0.7967937551798293,1.292989475342501,1119.6151376606294,1145.1592718026402,1140.871941929946,1134.6847621034326,-166.08152683669476,41.736422052551376,-160.96893918819484,493.7989991072876,160.27280512524695
2.26,0.2135264176126074,-0.6810296880156566,-0.7559007016851623,-0.0309407771858781,0.0483212831464072,-0.0112856168690946,0.0061929836474495,-0.0022486944226949,0.0644683065756331,0.9978973540215694,0.1186912381050218,0.0958600300614526,9.807433160154758,-0.0237684582365226,-0.0275046261355659,0.0003463985730232,4.767718829614026,0.7967109790812928,1.2929866052849763,1119.611442269617,1145.1330785777595,1140.4538893812148,1135.6230939572351,119.2639624904506,-29.04951548966696,-200.04419411974155,283.0728965646167,160.27321948430347
2.2625,0.1906817724887516,-0.8501977026726663,-0.450688533969698,-0.0298410689704788,0.0465728090388733,-0.013989705525935,0.0061435010596676,-0.0021812008109065,0.0644507268318757,0.9978989054539334,0.116526678835205,0.0950424576715055,9.808734036188943,-0.0236254927828941,-0.0274147290712816,0.0003731484871342,4.767667836385834,0.7966273228133341,1.2929849419180088,1120.2114574730815,1145.0140242251919,1139.8717209593472,1136.1001265862556,352.0372967693295,-42.911486271123984,-299.34783647536915,110.29660389545148,160.27370732077372
2.265,0.1421291154916826,-0.9973388316315244,-0.0325455764700963,-0.0287276403364625,0.0440519311600391,-0.0153059703834139,0.0060994861313976,-0.0021279277175654,0.0644368809382899,0.9979001856167896,0.1144275482883341,0.0940779976171214,9.80996530207852,-0.0234826238411015,-0.0273110673292077,0.0004099145340883,4.767618804269347,0.7965436927399042,1.2929843888853274,1121.3716287534637,1144.918521146404,1138.957150198838,1136.1745769767126,450.25204056129087,-11.418965858684048,-366.8812887143837,-34.429138378573775,160.27438105095743
2.2675,0.0819408355809695,-1.0789771951009108,0.3091098443006928,-0.0281062341679012,0.0415737484606536,-0.014571849867864,0.0060583063052373,-0.0020849166650601,0.0644253571419291,0.9979013402077388,0.1123125074997367,0.0929028331912952,9.811086446128272,-0.0233428166629197,-0.0271950102042864,0.0004533293954876,4.767571994065113,0.7964619191445106,1.2929859412230649,1122.462717675888,1144.9569293958984,1138.0373145157753,1135.9279808943627,401.34106283831846,44.63109051234919,-384.9920938395908,-129.65856371893372,160.27501864986138
2.27,0.0061632591061318,-1.1236241578852753,0.5835304793197728,-0.0278375297266196,0.0390301288790088,-0.01230384254669,0.0060177102809431,-0.0020444703679392,0.0644170365047742,0.9979023780788924,0.1100343806739343,0.0914684048828796,9.812063919512369,-0.023209080200215,-0.0270689680780114,0.000500008924721,4.767526550741445,0.7963826527583895,1.2929896064561872,1123.3783340676553,1145.141676598966,1137.03218972964,1135.526284158118,296.5375327699866,88.88117997958224,-397.6659101690614,-163.1021380464552,160.2757384420774
2.2725,-0.0754507176808586,-1.1411136945111335,0.7668809266438106,-0.0278736794233471,0.0364638849975036,-0.009155983579843,0.0059826282725701,-0.0020066545894604,0.0644101573025065,0.9979034174302788,0.107612873364191,0.0898625461928006,9.812867588822394,-0.0230839306124977,-0.0269363689179302,0.0005477176391241,4.767482200608565,0.7963065036933659,1.2929947404668989,1123.945405339738,1145.4013352957963,1136.04898496493,1135.1124702041307,108.7234850434948,96.08085202267124,-361.1123560883775,-147.68997427695783,160.2765288151803
2.275,-0.1539311201600858,-1.1283042192720698,0.8186123648306602,-0.0282480024031635,0.0337557870845266,-0.0052405984681124,0.0059536931689366,-0.0019750523682956,0.0644056583694481,0.997904420873526,0.1051374047213685,0.0880909396690511,9.81347502914661,-0.0229694787271256,-0.026801070270482,0.0005947538289225,4.767438918742031,0.7962330393341159,1.2929997417068775,1123.9219514928727,1145.6220808590792,1135.2266279491982,1134.7878342867332,-161.414929130209,45.42767475368333,-292.94134520787964,-107.82911986830416,160.277407283935
2.2775,-0.2320604079885165,-1.0796640182683863,0.7358721719888976,-0.0289968325942063,0.0306068550292209,-0.0006182817965773,0.0059312396110104,-0.0019512400746894,0.0644061058726566,0.9979052519790682,0.1026629030010405,0.0861636456083514,9.813870746457997,-0.0228672053341063,-0.0266670502797919,0.0006400168849839,4.7673958207029274,0.7961614591379783,1.2930034943440711,1123.138330694087,1145.6284736695648,1134.5842782388906,1134.5733246047891,-398.3696911577412,-69.21273841916887,-164.00032454179183,-48.32314275572245,160.27856698772675
2.28,-0.2765237412739691,-1.0124733392651164,0.5800064949570553,-0.0298665978108416,0.0282285224003908,0.0019999569584215,0.0059180721307232,-0.0019322688293702,0.0644110379037971,0.9979059557943124,0.1001620862871768,0.0841535942336938,9.814045129812465,-0.0227776367836685,-0.0265383201161293,0.000682951035924,4.767351290971992,0.7960919598705468,1.293006126501462,1121.9301030370839,1145.2760171669831,1134.4066263264892,1134.5462185729543,-550.5877473334832,-234.6056996508947,3.1033206454592523,11.413781989448719,160.27962379454593
2.2825,-0.2945453133899441,-0.9175338136768764,0.3993136870989608,-0.0310645911973645,0.0261778221841763,0.0022177336047648,0.0059114671062047,-0.0019177586822721,0.0644155050247159,0.99790687269547,0.097653009324753,0.0820310704238945,9.813995246817997,-0.0227003541766963,-0.0264187247908076,0.0007232011127451,4.767305227252657,0.796024283287248,1.2930072346265011,1120.3853919574194,1144.4554451713102,1134.599794842118,1134.6303935147364,-673.3380275388441,-464.13299578040176,149.5371155675034,40.39232356117368,160.28077699880822
2.285,-0.2881530828298749,-0.7673153275951288,0.2301079134398127,-0.0326464587743494,0.0240860089191012,0.000237833837033,0.0059073056872292,-0.0019092863838917,0.0644158247546523,0.9979082318883672,0.0951922419112555,0.0797443527045106,9.813723122110488,-0.0226344993099365,-0.0263114107226211,0.000760597079539,4.767258314794182,0.7959577786118796,1.293007205528774,1118.5634128993895,1142.9553521880814,1135.1543119043267,1134.7481801907604,-594.9572774789103,-612.6764584515189,233.11888140970535,24.681932243357167,160.28227486602515
2.2875,-0.2694360444487864,-0.6050047611330556,0.1604943274029181,-0.0336630269090393,0.0224338722167478,-0.0017606667403219,0.0058969481935948,-0.0019058708362452,0.064413617719868,0.9979098996728863,0.0927821117684363,0.0771630384274568,9.813236646424986,-0.0225791759173814,-0.0262184535030061,0.0007945750445067,4.7672105449049615,0.7958914328337899,1.2930062892638652,1117.4106055700247,1141.3920628790527,1135.7653892491664,1134.7538031759532,-316.1543403712198,-645.1648087046716,246.44833859988992,-41.91404241660256,160.28361969511613
2.29,-0.2568496224110341,-0.3935111551916807,0.1613394017722547,-0.0339759413330416,0.0206673052508502,-0.0026846561711709,0.0058748438116039,-0.0019030804514907,0.0644080910735583,0.9979118134931216,0.090360708752782,0.0742278688055928,9.812546981391348,-0.0225331923012586,-0.0261411199218067,0.0008243910724163,4.767162116288508,0.795824692882172,1.2930049294196022,1116.9826411975337,1139.729528144558,1136.386553597326,1134.5386099786774,-21.332997094805705,-642.9237631152911,234.37468598654553,-136.07953704322716,160.28506633768242
2.2925,-0.2649909239368302,-0.136520091632253,0.1931259528853718,-0.0336994601703688,0.0190113937413926,-0.0023456854156818,0.0058368126767846,-0.0018934909580408,0.064399309683443,0.997913759395616,0.0878085942099042,0.0709148236126936,9.811668598898848,-0.0224953712204169,-0.026079758185134,0.000848918618538,4.7671134171872,0.7957567968744385,1.293002922120646,1117.303940584551,1138.1774440634763,1136.9372626790991,1134.073405490737,306.8693760725702,-555.2112171024081,195.0542708891176,-252.3648832463149,160.28659828942247
2.295,-0.30769921846932,0.1689659864874564,0.2183743381130287,-0.0330529373003498,0.0179526592310543,-0.0006653077702729,0.0057778923169995,-0.0018726391348401,0.0643867145374256,0.99791544276314,0.0850619990366406,0.067184111623271,9.810618838499108,-0.022464569769438,-0.0260340190474529,0.0008666844575208,4.767064762558532,0.7956863816191375,1.2930010641713698,1118.5169880778965,1136.953472059046,1137.3618249517715,1133.2767855624459,687.4583308874354,-436.7476151378107,158.58441769092107,-421.18465019999337,160.2882338202165
2.2975,-0.3887937086475005,0.5624529080367348,0.1970541463843498,-0.0327833205019906,0.0181236135694967,0.0018018828845025,0.0057012782015845,-0.0018369930019792,0.0643708037314542,0.9979164971072868,0.0820842817914463,0.0631562258692957,9.809415501966102,-0.0224398350178887,-0.0260030616430423,0.0008762599470124,4.767016481120027,0.795613443852243,1.2930017667824132,1120.741232238988,1135.9937059877873,1137.7301847675535,1131.9674822397371,879.2564507879295,-270.36807048501026,116.58656952453507,-526.0418869058967,160.29031646346715
2.3,-0.4567839633159793,0.8782356124200515,0.1236627334932759,-0.0339193609814195,0.0199624126391966,0.0034673692807837,0.005616634388655,-0.0017875519924486,0.0643530107871175,0.9979170696442128,0.0789340003638899,0.0590728756822287,9.808076789387405,-0.0224204150652873,-0.0259859345725444,0.0008765168304212,4.766968787991092,0.795539519937653,1.293005449619837,1122.9132703318364,1135.6016317066208,1137.9447577993944,1130.6465761279162,848.4125708346138,-99.21464955122487,73.19418875426396,-554.0947971007507,160.29215162319582
2.3025,-0.4882003802207015,1.135278135941131,0.0015342880625244,-0.0366448055309934,0.0232796827570678,0.0043366389248986,0.0055346321338149,-0.0017307178400469,0.0643366336887401,0.9979172383858406,0.0757750336332992,0.0551877126937705,9.806622241847496,-0.0224057862357722,-0.025981812103638,0.0008667483637957,4.766921112152136,0.7954660260821687,1.2930110018348675,1124.9832950931611,1135.4976327400311,1138.096155711325,1129.1970082542332,802.9358450117969,-24.47357400628841,57.19418032754342,-640.003627575893,160.29408901490368
2.305,-0.4589791547610737,1.3331131344144715,-0.1694945851431205,-0.0401375393582752,0.0280615678802218,0.0044307092073111,0.0054606519467284,-0.0016767309249867,0.0643248385052745,0.9979169973820964,0.0728376836677608,0.0516440709134668,9.805073595661428,-0.0223955286702712,-0.0259901511309942,0.0008466108885957,4.766872969040536,0.795394194967029,1.2930166823089195,1126.927949556895,1135.4792638365896,1138.230728701032,1127.4465579900368,585.6679973572807,-17.95183833655794,42.658522250304486,-625.487553056441,160.2965297005651
2.3075,-0.3847962395666317,1.3880481032720295,-0.3019450160460821,-0.0421626559069017,0.0323601357860688,0.0035385377498993,0.0053888895418219,-0.0016280421740269,0.0643214492589056,0.9979162729541086,0.07018381952722,0.0483732216515342,9.80345575378912,-0.0223893956361373,-0.0260105141476684,0.0008154811649069,4.76682471764621,0.7953245481457719,1.2930216743575103,1127.9116350799477,1135.4078735483483,1138.3094483225764,1126.069570488951,250.5053500392986,-56.197067033691674,22.715651170074608,-515.7187296803496,160.2986576957317
2.31,-0.2895011322167649,1.3252057563708732,-0.3881991571495505,-0.0427516648130582,0.0368252427952061,0.0016821000689919,0.0053124358569552,-0.001580905949796,0.0643321828482092,0.997914814876459,0.0677510965652192,0.045288543904733,9.801792816350511,-0.0223873769554926,-0.0260422132210105,0.0007730562268669,4.7667766656363675,0.7952565413994696,1.2930260753230318,1128.1804763070916,1135.198278501421,1138.3443069568823,1124.8679643416351,-22.48622735578513,-112.72141409622476,1.4946400969165867,-471.08399674540226,160.30087963632948
2.3125,-0.1946054246575115,1.1335879552012331,-0.4114362000631126,-0.0419533839349932,0.0417946005550785,-0.0010136935735537,0.0052279712013281,-0.0015308082296709,0.0643607420048383,0.9979124370889734,0.065464811670131,0.0423695526701567,9.800105509945837,-0.0223894556730564,-0.0260841976753385,0.0007197534824374,4.766728521263401,0.7951887944961389,1.293029988283757,1127.7992039431688,1134.8442664778672,1138.3169215230612,1123.714150505224,-224.22993418945703,-122.30395332681188,-22.611647772510448,-364.54623474461056,160.30364921294205
2.315,-0.1534246005977099,0.9087925140925412,-0.3606504480037986,-0.0408014903757651,0.0446318248452425,-0.00321361520082,0.0051395238016579,-0.0014730151055904,0.0644048372021748,0.9979092702637192,0.0632531092255476,0.039733620323303,9.798409526531564,-0.0223953799031509,-0.0261350767136001,0.0006568761770791,4.766680002603193,0.7951202531260977,1.2930340106962868,1127.0593266361443,1134.586758734787,1138.23124871802,1123.045233167912,-339.96715635858703,-57.311782874695695,-44.81228835861752,-196.26491268941624,160.30603867065005
2.3175,-0.1536598413589025,0.667128617036432,-0.2546750412684804,-0.0406269663601127,0.045092906320905,-0.0047619868829501,0.0050515657727984,-0.0014090456783855,0.0644545444440215,0.9979059092009644,0.0611648059225343,0.037491569226271,9.796715866019044,-0.0224045943629054,-0.0261932086037576,0.0005864940148232,4.766631791531182,0.7950509824100405,1.2930382995113037,1126.0993681613759,1134.5577075634935,1138.092860081268,1122.732825941777,-392.43655986320766,52.65527725282593,-60.740276456455305,-59.72247560516862,160.30850673423228
2.32,-0.1757407645699613,0.4439812589618197,-0.1296721887620891,-0.0415161660012885,0.0439760761031419,-0.0053556369361556,0.0049668923258946,-0.0013393845707286,0.0645020950867157,0.99790281919634,0.0592250203824377,0.0357140234640717,9.795031155301533,-0.0224167705521568,-0.0262563441745319,0.000511054539183,4.766584055975679,0.7949814729116084,1.2930417392551672,1125.0971438368283,1134.8500351210512,1137.9275473357377,1122.7466207898863,-389.0738096021515,214.37627976086705,-70.84969642286954,88.45457221786403,160.3110354117646
2.3225,-0.2086092643255554,0.253142757855098,-0.0211842159910736,-0.04290140527019,0.0427321412640114,-0.0049477483905113,0.0048856749978662,-0.001265452856825,0.0645417138213408,0.9979003613595622,0.0574722139954308,0.0344097844366685,9.793357359894866,-0.0224317457169896,-0.0263216977426929,0.000433365196824,4.76653735493572,0.7949115306643174,1.2930424731542085,1124.1539991133648,1135.629588962298,1137.7386115991535,1123.1750988028664,-389.62537981712654,458.6184634365654,-93.48556766730604,284.26596560468977,160.31363163316047
2.325,-0.2549723705747983,0.0304039785087059,0.044367777157422,-0.0440236245095209,0.0428710637465183,-0.0039366681089603,0.004799451171162,-0.0011869067535926,0.064570190064235,0.997898792275132,0.0558974484149044,0.0334114239630058,9.791693101380767,-0.0224494416824818,-0.0263859902794216,0.0003558961663868,4.76649222843388,0.7948400369233449,1.2930394557413785,1123.1490169377428,1137.143127438234,1137.4601194974011,1124.1679506179098,-348.19357674956166,636.7463736485796,-119.67086543204717,438.2117309669504,160.3168179837782
2.3275,-0.3046588255607944,-0.1888223102111795,0.0216467052417857,-0.04408860245859,0.0443541111700094,-0.0027962499709793,0.0047087770726134,-0.0011052510048166,0.064585639864078,0.9978982537392628,0.0545367577604644,0.0327157823335213,9.790030666081607,-0.0224696307944922,-0.0264456522264719,0.0002814624848662,4.76644781559233,0.7947662283221019,1.2930331815106484,1122.4130312296172,1138.8133208305408,1137.1402572719935,1125.366157457701,-279.5193525048549,721.5435836677597,-159.11696940216072,541.3345743771631,160.3195270591941
2.33,-0.3704480728231303,-0.4771563379570853,-0.0936079956773883,-0.0438107556583477,0.0459465066944031,-0.0014741135593394,0.0046193688686707,-0.0010246844368841,0.064584635306141,0.9978989599608232,0.0534819662940262,0.0324077714352545,9.788357756344796,-0.0224916531251999,-0.026497250029944,0.0002125630533837,4.76640384055244,0.7946898525862859,1.2930249293467473,1121.7514201752183,1140.7508453565729,1136.6645346503904,1126.8746234897956,-280.1380897813547,871.7673149794067,-254.0496522447083,707.5822831153497,160.32228560058647
2.3325,-0.4556838818210275,-0.8998530298480537,-0.3267400297075528,-0.0440847120143509,0.0463314131666203,-0.0004105200056782,0.0045369480025709,-0.000955093920655,0.0645654140613052,0.9979009218343619,0.0529322911885379,0.0325564642520708,9.786659639407722,-0.0225145324922118,-0.0265376944139409,0.0001508564550825,4.766360034405749,0.7946118019394982,1.2930164829686919,1121.0123407807105,1143.172157405438,1135.87000901077,1128.9040688732775,-262.50042145648524,876.2849710081541,-324.82468468397894,754.8829140873456,160.32564557997975
2.335,-0.5098317447633337,-1.2825687947486115,-0.5712805729382925,-0.0451533673235411,0.0446068593388494,-0.0007332226479439,0.0044682945664875,-0.0009062271711973,0.0645309136269114,0.9979038369150186,0.0530814548231169,0.0332440611052959,9.78492067229475,-0.0225371235493268,-0.0265643985280665,9.683918562599378e-05,4.766316308691033,0.7945333922708377,1.29300952097913,1120.438918067936,1145.1322702116136,1135.0404112269705,1130.6490380602322,-216.0790989987664,749.1001844573179,-346.7546822260448,675.9633284180981,160.3284814998993
2.3375,-0.5129271263150958,-1.6334534036489783,-0.816023539413571,-0.0469606269715901,0.0403803890148918,-0.0027495709798813,0.0044172801051435,-0.0008788732112695,0.0644849015195638,0.9979073915870506,0.0539395952951556,0.0345010416102905,9.783126872132737,-0.0225578993555109,-0.0265755930176336,4.936727667131428e-05,4.766272082459804,0.7944557347827924,1.2930049601166231,1119.9319452857167,1146.9176583277244,1134.1362355996398,1132.283885515368,-185.74667710500248,675.9849351810461,-348.8916133946606,613.5728047664674,160.33134806651267
2.34,-0.4512440123551587,-1.908468216384472,-1.0189206480361086,-0.0490518338751689,0.0343675111997451,-0.0060503399587019,0.0043795023407426,-0.0008679519475577,0.0644312224280728,0.9979113299057812,0.0553865431533703,0.0361991075791279,9.781268287751482,-0.0225749330621542,-0.0265703181324172,5.773921071980744e-06,4.766226727335899,0.7943794272223083,1.2930023251606475,1119.5101846824111,1148.5121948875187,1133.2959531599972,1133.7169020840645,-139.9633457167871,587.1159259842956,-283.6716276166762,507.32869511144816,160.33423500271067
2.3425,-0.2958092000506614,-2.051266200781264,-1.1317589350047703,-0.0511357705954327,0.0272991806532416,-0.010344216708452,0.0043464798735568,-0.0008658505482013,0.0643746094584159,0.9979153737874557,0.0572423030821678,0.0381305705076887,9.779339516535536,-0.0225860317904982,-0.0265482083269808,-3.742137418410999e-05,4.766179940510482,0.7943047816769964,1.2930012748784807,1119.2321285571327,1149.853237957646,1132.7178774615563,1134.8205289909256,-79.38142215575145,527.6756036782998,-148.93242072265724,403.3242410452386,160.33714029704103
2.345,-0.0020466797265674,-2.0584063156006938,-1.1404993407890691,-0.0532851633544501,0.0190381309674569,-0.0153857390449171,0.004315478998181,-0.0008682556644345,0.0643195150522837,0.9979192449755032,0.0593932809826536,0.0401945215775479,9.777338550992493,-0.0225888344387652,-0.0265093050485341,-8.343599224014595e-05,4.766131275233231,0.7942309593285636,1.2930008679514235,1119.1132775716324,1151.1505729059104,1132.551291056384,1135.7335232892908,-1.7775861205791823,419.52183534996016,49.00378344737069,272.0575594718015,160.3406397120139
2.3475,0.31263460250412,-1.9495165149538227,-1.0483619077561563,-0.0543945775801819,0.0130669919269352,-0.0188093135111742,0.0042851887473148,-0.0008765877101769,0.0642682203320654,0.9979228008715412,0.0618343860651186,0.0423109979786828,9.775267894376409,-0.0225809288462551,-0.0264539522657452,-0.0001351755201654,4.76608144863742,0.7941563780434032,1.2930006593168368,1119.2232406265296,1151.9508471343959,1132.9628963787932,1136.1808167882843,92.46979036288592,254.40992383869883,284.70031451634594,127.43211728634648,160.34356070666814
2.35,0.6525412779281403,-1.7737641209663093,-0.8793858137418719,-0.0539422113088208,0.0088402843503902,-0.0211948391668353,0.0042551114394148,-0.0008889247836748,0.0642220221026102,0.9979259663978076,0.064491861696987,0.0444220005398784,9.773135199282168,-0.0225601309360908,-0.0263827169659908,-0.0001955400811497,4.766030981071461,0.7940809942634226,1.2930014440025954,1119.5756265234468,1152.4226225251039,1133.9747926289656,1136.3706838757223,211.89324276443128,123.84735513160459,561.4139881654073,39.83915927242464,160.3464793170486
2.3525,1.0121068357981176,-1.5560292801584596,-0.6277119755975281,-0.0504296140454238,0.0060448022196886,-0.0228279147467053,0.0042241505026616,-0.0009001516265762,0.0641797097169536,0.9979288369315144,0.0672252297337329,0.0464652713156214,9.770953287387512,-0.0225245638649619,-0.0262965523064075,-0.0002673700406905,4.76598000165343,0.7940055036707852,1.2930037100556186,1120.282706840352,1152.5700839100539,1135.76996631962,1136.3800125846467,301.4276741320892,-17.621097159372233,722.0091792316606,-25.001865864670055,160.34997013730094
2.355,1.216406383819978,-1.4068225063538895,-0.4037953080528347,-0.0453415951388602,0.0045626598968631,-0.0232171449144936,0.0041888162739708,-0.0009050324448653,0.0641381098164914,0.9979316470136224,0.0698862686547657,0.048336798577945,9.768739683426483,-0.0224727968127739,-0.0261968512585809,-0.0003532012940041,4.765928756387996,0.7939301985813833,1.2930079810525683,1121.0827648941072,1152.334517039307,1137.5848385251238,1136.2456745463992,348.619378067686,-165.3628228035849,740.2820086679797,-77.99366783783792,160.35286302091643
2.3575,1.2846724879673095,-1.3046161916881744,-0.1855914856935245,-0.0398543567938018,0.0023977267822955,-0.0230740571831741,0.0041465782944424,-0.0009023844469001,0.064095605923522,0.9979345249252344,0.0724064526396328,0.0499519547025061,9.766514507790871,-0.0224041155947783,-0.0260853032565459,-0.0004546305900491,4.765876660257468,0.7938558329758328,1.293012713472794,1122.0258037306903,1151.743269796036,1139.47137636296,1135.9900442454575,382.99052541452414,-290.1071802812174,724.5409710261965,-119.96060082310832,160.35573104091847
2.36,1.2434918220808269,-1.2309389827306398,0.023445267788129,-0.03525540657882,-0.0006482333486908,-0.0228972796794363,0.0040984181101928,-0.000896181628558,0.0640546508805716,0.9979373164471445,0.0748235022195849,0.0512946056706917,9.764298337129475,-0.0223187538700066,-0.0259637277070498,-0.0005719330201151,4.765823761353024,0.7937824667477937,1.2930164832628919,1122.9977175211795,1150.8839811379007,1141.2075433802547,1135.6458715422837,368.8975247837994,-400.366535223948,612.4382993174136,-155.84534109451707,160.35857197719335
2.3625,1.10513140625283,-1.1708712686976046,0.2253000938210593,-0.0322197533357655,-0.004266713994165,-0.0228298515845159,0.0040384148907167,-0.0008858708886201,0.0640221462280179,0.997939609481851,0.0770812509916811,0.0522268638866959,9.762113773601724,-0.0222180186270147,-0.02583395392064,-0.0007050234780794,4.76577078214275,0.7937091877826136,1.2930187428684627,1123.8702913546094,1149.741437119916,1142.5335678595472,1135.2108175399849,326.5803925562302,-557.0081727233252,446.23335315924743,-207.3252430638464,160.36137185503253
2.365,0.8875809758766495,-1.0961706826327142,0.4647871275747761,-0.0301832995273838,-0.0082332227761942,-0.0226124921190997,0.003960985698022,-0.0008721056356906,0.064004000961892,0.99794105267968,0.0791512613020589,0.0526239499597935,9.75998192978932,-0.0221040827326193,-0.0256980347544477,-0.0008529545953645,4.765719128969009,0.7936355993865541,1.2930189710744984,1124.630619483961,1148.098940274284,1143.438710146051,1134.6092453269644,211.1947213629309,-638.3693583624017,202.7408503672675,-230.36594857886064,160.36467265236098
2.3675,0.7044262332482983,-1.0280587771309266,0.6597188943791766,-0.0294277275401801,-0.0106401250319137,-0.0218428170165328,0.0038709777076173,-0.0008550645120226,0.063997897153133,0.997941776285222,0.0810128302167367,0.0525737453145415,9.757918832700518,-0.0219795584636831,-0.0255586396948714,-0.001013648264324,4.765669300475169,0.7935630447196275,1.2930182374768187,1124.926264961424,1146.549590328104,1143.5472721113836,1134.0589877970904,36.287740327635085,-645.1460109576739,-89.02904567526284,-228.45320094762005,160.3673651575419
2.37,0.5523484458211023,-0.9535607827149148,0.8369013922357502,-0.0291342332209355,-0.012452406335165,-0.0198596000358638,0.00378125967217,-0.0008413744191184,0.0639995945889122,0.997941994466888,0.0827866239253819,0.0523205296081281,9.75593411624992,-0.0218476547655601,-0.0254187864317229,-0.0011839236644342,4.765621495863984,0.7934926563563323,1.2930173504312987,1124.8120581855992,1144.8732102194958,1142.9935649176748,1133.4669793222263,-139.0855441235119,-753.9260634922063,-375.31123957529303,-271.63268500394804,160.36998603181814
2.3725,0.4188863583671372,-0.8494834934368418,1.0100947900886663,-0.0288050102671313,-0.0148654160383833,-0.0163102338509025,0.0037046332919001,-0.0008394966778785,0.0640058332639343,0.9979418603673113,0.0846356447146161,0.0521124465684235,9.754032421395177,-0.021712045735698,-0.0252815583953656,-0.0013601862205774,4.765576148281089,0.7934252222020045,1.2930156252585054,1124.2308372408063,1142.7799600106432,1141.6707159135071,1132.7008243720709,-268.2655394332017,-774.9751600817655,-570.0597657659849,-292.21344987959753,160.37303436328435
2.375,0.3433089616896031,-0.7403810674523473,1.1144295800662127,-0.0282787585633956,-0.0170994216539114,-0.013197338640856,0.0036443183340259,-0.0008516654609366,0.06401526009146,0.9979414464661456,0.0865966559389365,0.0520254747478656,9.752215889680723,-0.0215765449798964,-0.0251497569139962,-0.0015392941244511,4.765533646527969,0.7933608366282604,1.293012118773306,1123.4707304884332,1140.998334419087,1140.1432660888447,1132.0059120728283,-322.7040606635524,-718.0846628287026,-663.1547288909273,-289.59421187856316,160.37548339445627
2.3775,0.2878173652932757,-0.5974534695883068,1.1801016417888333,-0.0273347410363155,-0.0191448226983503,-0.0104499288345114,0.0035972959563077,-0.0008764702088135,0.0640265171176522,0.9979408554438473,0.0886340192605622,0.0520244647991187,9.750483078838041,-0.0214445969570023,-0.0250256338118761,-0.0017183947913405,4.765493811505258,0.7932993243596272,1.2930063701594807,1122.6173169374888,1139.1895366964995,1138.3549422690523,1131.252853312678,-319.80790281350664,-727.5262818791061,-728.958228515573,-306.2712700382756,160.37782529424393
2.38,0.2346970617997557,-0.4233310433484319,1.219877881838748,-0.0261073201134878,-0.0208198797290054,-0.0080600571093772,0.0035561896858141,-0.0009092704524375,0.0640421578857292,0.9979399590959516,0.0906498318871156,0.0519974520629629,9.74882884836763,-0.0213190490578404,-0.0249103979248956,-0.0018950245692491,4.765456150187579,0.7932384200160679,1.2929990026380236,1121.8716909743655,1137.3607030096916,1136.4984749462672,1130.4745557226368,-226.17394438262207,-730.7038843208076,-721.7135259514787,-305.09213868377367,160.3800701807807
2.3825,0.173230925381918,-0.2146066999605212,1.2321570635907375,-0.0249272383984936,-0.0219001532838364,-0.0059886695213802,0.0035207088758595,-0.0009523789156366,0.0640602060839089,0.9979388859523364,0.0926937445189708,0.0519648441051642,9.747241320782196,-0.0212014148818455,-0.024804463103106,-0.0020663384108089,4.765420307990249,0.7931763598047809,1.292989479203471,1121.4864472155757,1135.5360172748958,1134.7463746392953,1129.7273926192593,-38.389641304863424,-781.3287610435436,-698.7473062709779,-300.64343955166595,160.38218984141406
2.385,0.088261383920981,0.0645822517860778,1.2063365556770331,-0.0241941578441291,-0.0222228501010818,-0.002992005134506,0.0035001402162403,-0.0010095709816564,0.0640775524574947,0.9979377999118916,0.0948580557645266,0.052132567538777,9.745702979776292,-0.0210917886018641,-0.0247074198766735,-0.0022294492493436,4.76538485354836,0.7931133446878549,1.2929775083606083,1121.6797427678412,1133.4540592044737,1133.004738414912,1128.9713385248783,198.2291795491485,-720.8046617770345,-545.8527261038939,-239.09875525612935,160.38458000001523
2.3875,0.0140653546289623,0.3099206761638553,1.135357329575567,-0.0242641187927403,-0.0215092671954891,0.0003441828261936,0.0034957475989644,-0.0010759902278129,0.0640947485081606,0.9979366609210448,0.0970584480365516,0.0525600042410197,9.744197435608237,-0.0209889496803727,-0.0246179757988115,-0.0023830152565232,4.765347516604111,0.7930489849314984,1.2929640090948786,1122.4775931133215,1131.9319939660104,1132.0171110087756,1128.5318988429783,445.6097341139052,-530.665517391128,-267.9294160710981,-124.01476957980132,160.3864390609745
2.39,-0.0557232412646545,0.5566984334446438,0.995094158169502,-0.024749609798726,-0.0202030569933768,0.0039515391925823,0.0035046172944796,-0.001144953477392,0.0641082800234911,0.9979357081646943,0.0991685206823533,0.0532257475508116,9.742709596768947,-0.0208901910439873,-0.0245344889035476,-0.0025269979732111,4.7653064143638755,0.792983457624521,1.2929494237613957,1123.9077914384109,1130.800731617518,1131.6650913345563,1128.3512646769796,732.3529000552909,-376.8461677859785,8.79454282799107,-15.868764764036651,160.38815630796938
2.3925,-0.1317709789423963,0.8463361775041315,0.742578920364405,-0.0254616215778634,-0.018686894066734,0.0075460407665616,0.0035172129449776,-0.0012113304427981,0.064115507671142,0.9979351498715232,0.1010820346962907,0.0539740833715105,9.741227742596449,-0.0207920588271307,-0.0244549080400395,-0.0026628034821841,4.765261231461377,0.7929169040132029,1.292934163294046,1126.139357613598,1130.0477631270803,1132.0610837229156,1128.4525550191584,852.4942226244275,-168.4929808158849,275.3990416496494,84.6589603589582,160.39005062021891
2.395,-0.1924798058954152,1.0749929552872675,0.4729980385733096,-0.0259053251178577,-0.0171766364373634,0.0093706967351784,0.0035242497563702,-0.001270134155627,0.064117421377845,0.9979349645616536,0.1026938327726887,0.0546491556151322,9.739743997619508,-0.0206911166400987,-0.0243768254073074,-0.0027930441103712,4.765212942739844,0.7928491098308736,1.2929197952028069,1128.1702625515327,1129.9582667134387,1133.0420865428048,1128.7745594787743,773.8839349908795,59.59374373637856,495.51236178914365,161.0600805443062,160.3914902302109
2.3975,-0.258479769368783,1.2717760488490295,0.1656880108427152,-0.0258805343690405,-0.0146248751859822,0.0099010299607031,0.0035229039955347,-0.0013121316194497,0.0641140095434166,0.997935177442484,0.1038214521102699,0.0552210683283015,9.738255116489821,-0.0205843007768049,-0.0242978499931966,-0.0029212933744005,4.765162190541831,0.7927800201080363,1.2929082935457723,1130.0087772885522,1130.3457318457624,1134.5386455318612,1129.2578554218799,650.146384167115,205.12674385441167,644.2302062998489,200.12505033169387,160.39278636365643
2.4,-0.3321045903022032,1.4212788292010454,-0.1540108075444187,-0.0258119702330505,-0.0108563201271141,0.0097316128357381,0.003516333904776,-0.0013382413618629,0.0641002286384832,0.9979360953323874,0.1044841715294771,0.0557587537988772,9.736761755276861,-0.0204692987678118,-0.024215922298247,-0.0030512410257302,4.765110407291099,0.792710788651277,1.2928994598450787,1131.4209944723684,1130.9839004327107,1136.263237574304,1129.7751847304328,415.2119988372394,270.0130848322317,685.5775295900149,186.203095935802,160.39396435685316
2.4025,-0.4088241706638776,1.4909591550068833,-0.4687598041807559,-0.026313932696686,-0.0057932070507464,0.0091709562978704,0.0035027488164596,-0.0013525927701094,0.0640776473548368,0.9979376097095985,0.1047570869197694,0.056224771158488,9.735272679849553,-0.0203453847185772,-0.0241288716009201,-0.0031870663896469,4.765059805111153,0.7926420875649121,1.2928931809315063,1132.0848372827384,1131.6957972699236,1137.9665331798112,1130.1888709015589,94.19438451868065,277.02039390781414,668.6469304574533,124.06979006599684,160.3950009316581
2.405,-0.4855929512900923,1.4749424775378857,-0.8145795611456152,-0.0276350858892675,0.0003439057513804,0.0079461168151859,0.0034763358096542,-0.0013568089175586,0.0640498844105384,0.9979395000086088,0.1046616060186787,0.0565014961653943,9.733805516266795,-0.0202131922952747,-0.0240346280452198,-0.0033331443379064,4.7650115495059,0.7925737642439887,1.2928892110075292,1131.8919663949619,1132.3690024022499,1139.6064722265914,1130.3955336807628,-226.27763331782555,194.9603803102814,489.48927374791646,12.468611706571275,160.39608270068007
2.4075,-0.5205106629350988,1.395558793197602,-1.051722002962164,-0.0291092368125884,0.0041907240733956,0.0057484087722744,0.0034319195343394,-0.0013499492001396,0.0640196124449385,0.9979416110591072,0.1041709549602262,0.0564828519510914,9.732385131639507,-0.0200743541619617,-0.0239313805380514,-0.0034933815771513,4.764966142386537,0.792505384805857,1.292886751832626,1130.9534491161492,1132.670599171475,1140.4139795485507,1130.2512139600915,-498.8561599239908,71.76244580059728,178.46163934255327,-123.02922215363004,160.39685009017876
2.41,-0.5084563240761698,1.284568637959938,-1.2020941719775302,-0.0308957749111185,0.0064696246884062,0.0020267365463858,0.003366786770756,-0.0013304813220854,0.0639887109367548,0.9979438337068944,0.1032519588692012,0.0561082075750317,9.731041748297178,-0.0199311852691664,-0.0238176488150253,-0.0036707043408232,4.76492324234671,0.7924362152778965,1.292884839808382,1129.397685595342,1132.7278146312528,1140.498780423304,1129.7803875699947,-762.5180213026104,13.011034289229704,-123.38485131154164,-258.598272962996,160.3974795284707
2.4125,-0.4290572633159663,1.1523075302914738,-1.2537161547671092,-0.0331385306580818,0.0084131405857904,-0.0033857964280708,0.0032865474794687,-0.0012984320318025,0.0639586468039375,0.9979460550701116,0.1019150832400284,0.0554746023595497,9.729807585745373,-0.0197863801002768,-0.023692473040985,-0.0038664808632225,4.764882242292497,0.7923657026242881,1.2928816519238548,1127.140859009636,1132.7356543429212,1139.7970552919933,1128.9582225952768,-841.5605076943118,41.060513782032075,-360.9336487867117,-316.1963722697305,160.3980768030974
2.415,-0.310222728129787,1.0544713900340497,-1.1867373305053999,-0.0347449279371265,0.0099635232121896,-0.0079401655669487,0.0032031884434801,-0.0012557696491014,0.0639317082225583,0.9979480850186384,0.1002202024576984,0.0547995616911847,9.728715331361144,-0.019642809898129,-0.0235555980369211,-0.0040805957422402,4.764842741787224,0.7922947814482976,1.2928771115694444,1125.1898830568705,1132.9331172001628,1138.6941121793707,1128.199405708646,-741.3058652241192,174.64158763182613,-490.4576350623406,-282.59134709179,160.3984438741927
2.4175,-0.1506414932194888,0.9630962490710416,-1.0291963134438626,-0.0356497694541994,0.0119757485516854,-0.0114434762765048,0.0031228844236651,-0.0012050824625224,0.063908556981683,0.9979498553984112,0.0982356013335266,0.0541877557022892,9.727799045216623,-0.0195031899920806,-0.0234076798991035,-0.004312211554308,4.764805023182992,0.7922247658536453,1.2928718024984687,1123.4343296835157,1133.6088622810803,1137.3447671166816,1127.5452658598178,-641.8616717165287,374.48300175084,-529.630086679492,-222.31207758691673,160.39867658484772
2.42,0.0253122469399127,0.8622682241482836,-0.8304710288119648,-0.0357944551473916,0.0145459108522705,-0.0134885894647528,0.0030495493362421,-0.0011486411995822,0.0638885759790092,0.99795139051203,0.0960241648927905,0.0537025089522904,9.727091149284783,-0.0193698832930665,-0.0232503455080711,-0.0045597061177795,4.764769203869107,0.7921564121059644,1.2928658327176064,1121.980574698288,1134.8055322089172,1136.0459617459733,1127.0878453207115,-495.11546732097634,599.1143015731395,-450.8630692447337,-122.14819002529372,160.3987988166975
2.4225,0.1974416471344602,0.7319412579093308,-0.6279711698291952,-0.0349635701045563,0.0171531543709622,-0.0139877355013529,0.0029839267580298,-0.0010901582112829,0.063873252171517,0.9979525911239508,0.093676549902507,0.0533468022990862,9.72662018586912,-0.0192448386987624,-0.0230859494446332,-0.0048206793038202,4.7647341281206685,0.7920903458763778,1.292859603580976,1120.9587523469108,1136.604433788946,1135.090451770458,1126.9345249096912,-357.51103772920345,876.4093499095769,-292.3901924121113,0.0957307531734776,160.3987889651601
2.425,0.3754422056226338,0.5292438162651864,-0.4245067516774774,-0.0333183477391969,0.0195215184960465,-0.0139490954887377,0.0029294710994146,-0.0010373465044788,0.0638656096584223,0.997953249541038,0.0913673879087907,0.0531753010536253,9.726407159834334,-0.0191294173267156,-0.0229174263604169,-0.0050915796973595,4.764698839608217,0.7920275272715787,1.292851349916846,1120.1930195096415,1139.187578958465,1134.5840107839126,1127.0883239744771,-223.2307217860429,952.9049441503768,-69.32564818548131,98.03471028125632,160.39862591754869
2.4275,0.4912003325192564,0.3211326686645187,-0.3020104866210437,-0.0318792790202571,0.0207084389794537,-0.0140069535899408,0.0028886988701984,-0.000995692986917,0.0638663557669763,0.9979533152419132,0.0892283536761567,0.0532321958042342,9.72646547333432,-0.0190241071749072,-0.0227480698562868,-0.0053682109648539,4.764662551221812,0.7919673481433575,1.2928395528364611,1119.8425987379803,1141.368958509698,1134.7438235295303,1127.4246984610977,-109.18684420926417,792.0332123416471,163.1771424866236,151.02773520107215,160.39836510059396
2.43,0.5720004465236137,0.0767259175351588,-0.2272414057271074,-0.030547343305781,0.0212549470973944,-0.0141128768568959,0.0028607020158467,-0.000962957388341,0.0638736849052706,0.9979529188139412,0.0872372948551542,0.0535097770153608,9.726800758849203,-0.0189285260579519,-0.022581138558231,-0.0056463397455335,4.7646248544906005,0.7919086809463083,1.2928247277874747,1119.6470852885955,1143.1477450201735,1135.3998964963455,1127.8434626504827,-75.80791606892652,608.0279263312734,346.3113164882162,169.7869599458081,160.39797588242166
2.4325,0.632198992943758,-0.2507278103292757,-0.1768874484388928,-0.0289483513136258,0.0213463203248923,-0.0140906157959666,0.0028486171633052,-0.0009336784035517,0.0638863076369574,0.9979521490453034,0.0853145222888691,0.0540870502161393,9.727407778903016,-0.0188417810255633,-0.0224195312235659,-0.0059215359720878,4.764585304999253,0.7918514745885021,1.2928088728249283,1119.463559157636,1144.4090981413544,1136.4753801119716,1128.2736332608267,-64.55549994107197,285.7075542916452,391.86366098693645,125.47639622912624,160.3973618736249
2.435,0.6539236807794736,-0.5437342377380636,-0.1489559665066514,-0.0274685416645277,0.0209468759442061,-0.0141552129789209,0.0028468113245862,-0.0009057324503895,0.0638975341975061,0.9979514550718412,0.0834323082535542,0.0548724605828425,9.728272504175962,-0.0187625149686894,-0.0222656411529104,-0.0061897539169477,4.764544356382346,0.791796129680368,1.2927929984342776,1119.32430778889,1144.5762827916317,1137.3592148012804,1128.4708446316283,-42.707385907716336,-113.0955911856769,296.92608650175947,31.411902704940744,160.39672884683955
2.4375,0.6472444212023508,-0.8409702269996393,-0.1063448556105212,-0.0257862319568195,0.0198852156644748,-0.0148202161546822,0.0028552178346821,-0.0008904439425523,0.0639019777151029,0.9979511653165504,0.0818294249352801,0.0558676311609472,9.729368316459505,-0.0186895929900672,-0.0221210306088308,-0.0064463179655696,4.76450326198061,0.7917424377231991,1.2927763374492458,1119.2500222280971,1143.843620185426,1137.9600105444804,1128.4306927743514,8.143231028725669,-480.96853909688554,160.27068150424725,-73.66624359419959,160.39597131105563
2.44,0.6083586987938338,-1.171103031056146,-0.0050685306181277,-0.0237707744958998,0.0175167994909453,-0.0164435273596855,0.0028734361532032,-0.0008978189149394,0.0638965667831073,0.9979514648833032,0.0807167826252299,0.0570695391531601,9.730659972050562,-0.0186220823609397,-0.0219861286674763,-0.0066867159385486,4.76446316656019,0.7916897891388291,1.2927571338761534,1119.3650239440335,1142.1714400961473,1138.1605682088016,1128.102513413657,96.51633876260554,-689.8009875042281,-20.140801207708567,-158.59127648077785,160.39492045900116
2.4425,0.5537808903526396,-1.393551921346544,0.1339598051416092,-0.0222999133067698,0.0144322303081789,-0.0177725621390989,0.0028972835941153,-0.0009272870190093,0.0638814131777535,0.9979523577961568,0.0800930588059073,0.0584133157426259,9.732106774811612,-0.018559092594779,-0.02186002575697,-0.0069072441473025,4.764424682121484,0.7916373596440215,1.2927338682390939,1119.7326039219104,1140.3946152479048,1137.8593065384418,1127.6377363919476,220.29479882794945,-717.3012907397758,-202.27286689978857,-207.49348197633012,160.3939284986495
2.445,0.4825390557704273,-1.5215710136932803,0.3222525634984503,-0.0210789119056359,0.0101884461331307,-0.0181127596744986,0.002920338627817,-0.0009738381291398,0.0638633519222175,0.9979534313322844,0.0798660653264894,0.0597925878243855,9.733663684835225,-0.0184998295544753,-0.0217403461465668,-0.0071051241325142,4.7643868105355835,0.7915836150274062,1.2927060049433368,1120.4664979381735,1138.5849336424485,1137.1492038743027,1127.0650460037757,356.2999691264154,-680.6106249444379,-327.955617480871,-230.04209354551944,160.39281860914753
2.4475,0.4026684957741444,-1.5459237802183428,0.5304801367905714,-0.0200595726619387,0.0051432814645059,-0.0173386437932411,0.0029308731866565,-0.0010275827541644,0.0638483032278476,0.9979543501846704,0.0798388298538763,0.0609995639625858,9.735284767693166,-0.0184431262312598,-0.0216236509520155,-0.007279208815741,4.764348519380641,0.791527317095682,1.2926746385472527,1121.5141037675423,1136.9915621231823,1136.2195284510371,1126.4875259242199,480.57447834322767,-544.0644661000166,-391.392555388048,-211.61707710692488,160.39161330004205
