t,ang_acc_x,ang_acc_y,ang_acc_z,a_vel_x,a_vel_y,a_vel_z,quat_x,quat_y,quat_z,quat_w,acc_x,acc_y,acc_z,l_vel_x,l_vel_y,l_vel_z,pos_x,pos_y,pos_z,mot_1,mot_2,mot_3,mot_4,dmot_1,dmot_2,dmot_3,dmot_4,vbat
0.0025,2.0072990426559967,0.047973289870014,-0.334119715743439,0.0742767796085364,0.0090742894153334,0.0270528151451298,-0.00813017158407,0.0090919145068212,0.9979524380413216,0.0627854377051522,0.1242285432756987,-0.0533216558982721,10.30644854142312,-0.0743698261470294,0.089797951538589,1.177586229987435,7.325153830194457,-3.467697460768352,0.6102595088637108,1193.1597540672376,1192.8400563486612,1189.7795028471076,1206.8887023375553,543.0766741990738,421.1498525190109,312.4821176580553,-670.8078367413691,157.87992581491164
0.005,1.82706360406375,0.4751638759286228,-0.3650350804345222,0.0809015793840304,0.0111777219130015,0.025468510341556,-0.0081108138997882,0.0092022361525814,0.9979534025302228,0.0627562957740976,0.1213300888047396,-0.0523159453868947,10.31336299415585,-0.0737171715633768,0.0897535731973106,1.178753770193825,7.325263596180326,-3.467885420344563,0.6132159843450984,1194.5174457527353,1193.8929309799587,1190.5607081412527,1205.2116827457019,496.1907089009401,409.83999498794225,198.04654619119904,-615.2283047680613,157.88475635493467
0.0074999999999999,1.6030682643354528,0.783473380208404,-0.3631887023687115,0.0862338021230593,0.0138867751191878,0.024161586242795,-0.0080912134373944,0.0093120552526095,0.9979542941914163,0.0627283742484613,0.1184157234691441,-0.051321451141059,10.320251036391179,-0.0730626931796488,0.0897077322348827,1.1799251984829675,7.325372944370205,-3.468072659931599,0.6161740855567693,1195.6407076117423,1194.8892563236009,1190.7697355780635,1203.8125608137148,450.5669370194937,385.5190215100265,-11.19165635200261,-564.066795922281,157.8888796237785
0.01,1.3023968541766275,1.0276552332553397,-0.3346296538829525,0.0906004144285631,0.0166481205648021,0.0229932313605575,-0.0080722841597772,0.0094203857421112,0.9979550456037736,0.0627027262084074,0.1154497052064346,-0.0503633056942231,10.327083140532055,-0.0724076549743977,0.0896573657016586,1.1811034739757138,7.325482010067229,-3.4682593368797616,0.6191339634629389,1196.7702804378328,1195.8205260875088,1190.5047498594927,1202.3913487660905,494.3707925455782,356.82140054950645,-212.30815567755596,-634.1091650397174,157.89309945509734
0.0125,0.8754659813267339,1.248531868727572,-0.2799653875922957,0.0943694954252224,0.0198073260813968,0.0218046487085626,-0.0080573609730847,0.0095278996272683,0.9979556222868418,0.0626793188842984,0.1123407739718569,-0.0494365774970652,10.333816004440338,-0.0717591716422284,0.089603019674459,1.1822913936107184,7.325591226724456,-3.4684456516431843,0.6220954672856801,1198.11256157447,1196.6733633263484,1189.7081947996755,1200.6420149885164,477.6704407574016,249.7376491439809,-352.25405119999783,-646.4516999984427,157.89826981694063
0.0149999999999999,0.491406448649675,1.3772993453916549,-0.2292904774593854,0.0961488020412306,0.0225163715207263,0.021127668826288,-0.0080497727734259,0.0096350602346329,0.9979559986072044,0.0626580279574597,0.1089962577500627,-0.0485409138030819,10.340390868356463,-0.0711246136030131,0.0895447457846701,1.1834920694890982,7.325700721783231,-3.46863169221956,0.6250582142056633,1199.1586326416195,1197.0692143332287,1188.7434796034927,1199.1590902660982,378.34492486531406,86.22521836437043,-419.1384201573782,-585.5411461987841,157.90266427945218
0.0175,0.1152724485447952,1.4501429056471524,-0.1901236292041196,0.0964241180328676,0.0255962066461793,0.0208803582434687,-0.0080514066918186,0.0097426123283908,0.9979561732581672,0.0626385023562803,0.1053528937889532,-0.0476684262162884,10.346732447654976,-0.0705085280913932,0.0894835578581547,1.1847087864795915,7.325810317314323,-3.4688172535900406,0.6280228901008702,1200.0042861987968,1197.1044894181703,1187.6125026988889,1197.7143092575225,282.709870444296,-37.12888261916304,-458.6610571927848,-553.8651939891223,157.90714513758627
0.02,-0.2279320154323729,1.4731529407988464,-0.1721488331418849,0.095495370322031,0.0290028084053452,0.0209532811138707,-0.0080639698861809,0.0098492563946248,0.997956124774086,0.0626210643783509,0.1013558331653668,-0.0468529511655831,10.352749213218466,-0.0699156714751287,0.0894156885496227,1.1859450434001269,7.3259193058696175,-3.4690017599224996,0.6309895085354404,1200.5721819938412,1196.883569920133,1186.4501743175288,1196.3897642961526,135.85654270673336,-125.48646100340198,-453.19848195258623,-472.97478009732026,157.91169625878817
0.0224999999999999,-0.5089400719629157,1.4289682760385412,-0.1880876103841465,0.093533049094829,0.032647248470176,0.0212544955307301,-0.0080873845649469,0.0099536568640264,0.9979558007654044,0.0626067754857595,0.0969911228512879,-0.0461265246046173,10.358333460179303,-0.0693476906293302,0.0893375748408012,1.1872041980722294,7.326026519822475,-3.4691846639615664,0.63395864791622,1200.6835689123304,1196.4770571131533,1185.346510289126,1195.3494353570359,-77.43855332910243,-180.6375091296104,-459.968316267168,-358.456347461788,157.91633118029145
0.025,-0.7637553730522209,1.290433206982487,-0.2449174231683248,0.0907246206931555,0.0370578202353949,0.021518601555457,-0.0081181422829275,0.0100559511673243,0.9979552848032608,0.0625947460597801,0.0923193862900297,-0.0454868609652595,10.363362126005084,-0.068799035540255,0.0892499640736299,1.1884892511135705,7.326130912981198,-3.4693660887651574,0.6369306826636323,1200.1849892271955,1195.9803823744849,1184.1503327361927,1194.5974825588437,-293.17675054394374,-154.4966837429001,-418.51970730099293,-180.04060743892293,157.92198968971724
0.0275,-0.9128534346087296,1.1022907905014765,-0.3123014691977341,0.0883557273335733,0.0405076415904582,0.0212924962627075,-0.0081507791356054,0.0101567362235382,0.9979547494057326,0.0625828580324551,0.0874482356465791,-0.0449198667896996,10.367698939942239,-0.0682602617395246,0.0891551587124133,1.1898027599976466,7.326231505870128,-3.469546229021079,0.6399057619289458,1199.2176851596107,1195.7045736944387,1183.2539117526208,1194.4492323198413,-493.6572423126565,-56.65774323560984,-349.3712901420624,30.82888400817866,157.92678605759787
0.0299999999999999,-1.012707296548568,0.8453878804477736,-0.3771783441089792,0.0861012721929928,0.0435763161762921,0.0203863371852242,-0.008180570992902,0.0102540247834365,0.9979542976215888,0.0625704164086249,0.0824816500150342,-0.044465332373018,10.371197431795627,-0.0677240968470675,0.0890490531148556,1.1911470167088087,7.326327353725462,-3.469725138820084,0.6428834756655303,1197.7167030156324,1195.6970936583068,1182.4034762854826,1194.7516269788844,-756.7313509549421,68.97135610861368,-383.09187860136257,192.61986787091695,157.9316675429571
0.0325,-1.0981539474688733,0.4794779468224216,-0.4214903338489786,0.0832847225848847,0.0462167724888558,0.0186456543715962,-0.0082082736857455,0.0103477802446397,0.9979539483944544,0.0625570202818306,0.0774161220611088,-0.0441296620607071,10.373703732300703,-0.067196808245302,0.0889313394708159,1.192522552399869,7.326418331226704,-3.4699025720383765,0.6458635409440668,1195.434028404836,1196.0494304749818,1181.338452359614,1195.4123316591958,-886.685755378675,183.4460458951524,-409.27012343558965,243.2399575818633,157.93762515432655
0.035,-1.1555609748315039,0.1522640820145648,-0.4121230170161418,0.0808237244813697,0.0471121233720866,0.0167886306269028,-0.0082389470051998,0.0104389402941308,0.9979537604871882,0.0625409074953997,0.0721657211256946,-0.0439049974043602,10.375059582718851,-0.0666945728607706,0.0888035878512927,1.1939283656187727,7.326505250469825,-3.470078726056669,0.6488455875409361,1193.283274238739,1196.6143238877823,1180.3571256683047,1195.967826766794,-867.9623183934385,261.8140673650943,-413.78454659202384,160.375293807465,157.94267395562392
0.0374999999999999,-1.2130185746423598,-0.1614231025142654,-0.34421035518134,0.0784284593811537,0.0466172814633421,0.014848731646003,-0.0082756758563759,0.0105280950864455,0.9979538329896231,0.0625199910289996,0.0666930934513533,-0.0437881463628961,10.375105459901013,-0.0662280508947691,0.0886669381091091,1.195362761585026,7.326589084531322,-3.470253545830517,0.6518296888987835,1191.0942168128688,1197.3585008118073,1179.269529626654,1196.2142081282332,-923.3107697161363,334.1551750267173,-485.54700405161407,-22.97576896312422,157.9478110314353
0.04,-1.291660315908294,-0.4832885930749556,-0.202823623735853,0.075658230841483,0.0448645613281344,0.0131543723440732,-0.0083175913122491,0.0106159443020259,0.9979541677712012,0.062494231529001,0.0610487880536803,-0.0437679808190835,10.373684530740237,-0.0657977157666526,0.0885232273449523,1.1968232852798675,7.326670692190371,-3.470426886002399,0.6548170898465155,1188.6667203901584,1198.285099762916,1177.9293906480464,1195.8529479219783,-830.9294000768197,316.8301602850076,-474.3714447241469,-266.7386141935365,157.95407845319403
0.0425,-1.364480947164723,-0.6856451270939837,-0.0534064820605593,0.0730780206164411,0.0427755964941217,0.012598811276391,-0.008363650858826,0.01070338006728,0.9979547490772988,0.0624638646428125,0.0552909137336266,-0.0438291469621082,10.370647339977667,-0.0654023744760948,0.0883748068809607,1.198306107951634,7.326751305333317,-3.4705989987633616,0.6578085740764014,1186.9395698124847,1198.9426516132323,1176.8976724030333,1194.8805150572655,-616.0701946901103,205.8811700635944,-367.1927361586314,-528.4095222278213,157.95938754807563
0.0449999999999999,-1.4334974852469726,-0.8071187215985087,0.0988312780519975,0.0697258807220575,0.0401271132012111,0.012994113416585,-0.0084133061801641,0.0107904382105362,0.9979554849248204,0.0624304281133406,0.0494707097870479,-0.0439743992326827,10.365856317458215,-0.0650407116580402,0.0882217937231757,1.1998061360311747,7.3268319785327405,-3.4707700466937506,0.6608044671307088,1185.5863694167078,1199.314505613234,1176.0934269672534,1193.2109003108392,-516.9469847544408,64.83337673935242,-285.832020578073,-858.6684227685514,157.964786492238
0.0475,-1.4930005182924204,-0.8613812314114446,0.2510235756388797,0.064928189018551,0.0368201724092279,0.0143343633143384,-0.0084645526692152,0.010876520236682,0.9979563290549094,0.0623950375864505,0.0436703234476361,-0.0442178138826443,10.359189951248752,-0.0647064968881056,0.0880630552467729,1.2013172667427228,7.3269137380854525,-3.470940102081803,0.6638042416366055,1184.3548348887125,1199.266818496929,1175.4685123001427,1190.5871729434227,-404.7834040074573,-116.94809474060992,-180.24813669162523,-1019.5493775439436,157.9713691664394
0.05,-1.51307842978221,-0.8431601576137475,0.3350561682466124,0.0606869736452884,0.0344172596446149,0.0158315218445991,-0.008514871444604,0.0109602169628904,0.997957228858562,0.0623591266622825,0.0379815252522584,-0.044589292235747,10.350546966972912,-0.0643911722863159,0.0878955333236687,1.2028323545073338,7.326996861627605,-3.471109230940632,0.6668077362973892,1183.5624523966703,1198.729765139531,1175.1921862837953,1188.1131534231195,-298.07296092935775,-327.89274113347363,-91.58365445791792,-984.307750314793,157.9769411645284
0.0524999999999999,-1.500364642103298,-0.7836857213908156,0.3665655668728314,0.0567750301972145,0.0325454742624091,0.0173588670206403,-0.0085630272507706,0.0110398031082407,0.9979581456962924,0.0623237924058614,0.0324660652110399,-0.0451265132513884,10.339849994664126,-0.0640884908166639,0.0877151995944902,1.2043429147291835,7.327081137656601,-3.471277359394192,0.6698152048944926,1182.8644700840655,1197.6273547912615,1175.0105940278531,1185.6656341918488,-284.57773901823214,-532.4847773343665,-90.88614318939112,-927.2897752954128,157.9826023674624
0.055,-1.4652627808521164,-0.7105761966833695,0.3579047603952278,0.0531371144072073,0.0311837485348302,0.0186330953386866,-0.0086104716944025,0.0111139171115214,0.9979590207436992,0.0622900233585635,0.0271246541399449,-0.0458623101560178,10.327048559240787,-0.0637984017246336,0.0875184259245552,1.2058388479763276,7.327166047148667,-3.4714441855377287,0.672826969487263,1182.1395637015792,1196.0673412528593,1174.7377555678484,1183.4767045466424,-313.4391037434395,-718.7936469027584,-170.99891560337696,-767.9242470676392,157.98833692183956
0.0575,-1.412253875429234,-0.6421037554739701,0.3131100792318337,0.0498479291029269,0.0303189406424452,0.0194752786684574,-0.0086572635990497,0.0111831588518757,0.9979598908016558,0.0622571174156106,0.0219782312049394,-0.0467864848693034,10.312121266883288,-0.0635175440189219,0.0873065855099993,1.2073086878056207,7.3272511192349805,-3.4716095795007735,0.675843836396094,1181.2972745653483,1194.033386556748,1174.1555994498365,1181.8260129565103,-405.7073894046428,-970.3296896524541,-361.091358289241,-568.8380299594885,157.99415886166815
0.0599999999999999,-1.3389357906491695,-0.5806901802795155,0.2373506618769374,0.0466996371503099,0.0295167239790748,0.0200373992025602,-0.0087044801120336,0.0112490015319709,0.9979607600148784,0.0622246039757814,0.0170195013111784,-0.0478708377501605,10.295077550796703,-0.0632453903906928,0.0870828341530792,1.208739677317612,7.327336049363475,-3.47177390978188,0.6788669376597887,1180.111026754556,1191.2156928045968,1172.932298776402,1180.6325143968447,-461.263569777748,-1065.8065604968674,-540.6694914059701,-304.9420818799719,158.00124440661725
0.0625,-1.2721482575910372,-0.5472725649263211,0.1692448801032004,0.0444100569786075,0.0287635732858418,0.0202303302758349,-0.0087535388728971,0.0113139617835366,0.9979615769117532,0.0621926787094519,0.012226988569232,-0.0490646210115965,10.275958219968542,-0.0629828648494926,0.0868525631665925,1.2101181364675015,7.32742059385708,-3.471937021502918,0.6818975559522574,1178.9909567164596,1188.7043537542636,1171.4522519928066,1180.3013025471107,-465.27819784823765,-1004.7081260870063,-668.8651828455016,-21.10013524857093,158.007230059082
0.065,-1.189917265484283,-0.5213200781737805,0.107744328731973,0.0416555121040484,0.0276496312056942,0.0202574496414987,-0.0088047182419547,0.0113818908547217,0.9979623440170976,0.0621605987825301,0.0075954137890476,-0.0502869395836506,10.254834928153493,-0.0627286904369252,0.0866245042852563,1.211430100221604,7.32750527456928,-3.4720991273596975,0.6849371209082314,1177.7846357653148,1186.192152174162,1169.5879728621746,1180.527013720602,-536.3625894701267,-1078.2033792358552,-864.794251341572,167.5115216841276,158.0132974355238
0.0675,-1.0521235454193572,-0.4782918176062921,0.0489228676450282,0.0376769553572982,0.025804056201636,0.0202040650778052,-0.0088580376383365,0.0114554264894717,0.9979630198568789,0.0621285916311777,0.0031218403790951,-0.0514797842195579,10.231808664856308,-0.0624815444297933,0.0864042550161961,1.212662404129767,7.32758997432143,-3.472260597381553,0.6879854761223231,1176.3091437691091,1183.3133368580843,1167.1282807360988,1181.1388601555311,-537.213813310063,-1023.8738856923636,-900.5418500079933,224.76500642314912,158.02066944288805
0.07,-0.8925885446237312,-0.4189296590537288,0.0140385467538248,0.034410048670148,0.0240505225658701,0.0201372375793323,-0.0089093382605781,0.0115313811819689,0.9979635839718896,0.062098184200525,-0.0011075453779768,-0.0526967019203914,10.207007427495691,-0.0622300552804306,0.0861837010359256,1.2138047785631962,7.327673542739466,-3.4724217134302817,0.6910405666848441,1175.0985666987647,1181.0727827457,1165.0852636121347,1181.6508387527178,-476.6343142724063,-865.1235323925464,-773.6690160722006,136.07114255737568,158.02688596765012
0.0724999999999999,-0.6854627154302019,-0.3275353543257856,-0.0073242284913102,0.0319179101757966,0.022593443376298,0.0200782502001632,-0.0089545777036614,0.0116034843623196,0.9979639095062918,0.0620731531712819,-0.0050080221337383,-0.0540509654334258,10.180581645553726,-0.0619637853942061,0.0859469697244996,1.21484954383451,7.327754707704291,-3.472582368716397,0.6940998453356653,1173.9259721977471,1178.9877191961216,1163.2599356557375,1181.8192158683182,-513.2475871374037,-894.5056384747675,-719.9592020573177,-71.28495487672821,158.03317490212763
0.0749999999999999,-0.3968726782151348,-0.1850676006661727,-0.0208532918197497,0.0300402235927033,0.0215526383059536,0.0200287388789118,-0.0089921406898526,0.0116680068854296,0.9979639552373883,0.0620550759163414,-0.0085497343708407,-0.0556041488179291,10.152698370306204,-0.0616789348001058,0.0856843083550246,1.2157907458450827,7.327832856108762,-3.472742645823487,0.697161523334698,1172.5323287630777,1176.6002545533263,1161.485467601848,1181.2944139783342,-518.648005271461,-868.388928420699,-572.8392074527616,-343.04078969698793,158.04080105867376
0.0774999999999999,-0.1402946095084669,-0.0479089901169563,-0.0250865778191411,0.029342953130404,0.0212702253432819,0.0200053101931376,-0.0090207002030498,0.0117229868414537,0.9979637715634492,0.0620436957829815,-0.0117116744371136,-0.0573796213174518,10.123535778640315,-0.0613728618275859,0.0853906729673862,1.2166246587013607,7.3279077598679585,-3.4729021134966476,0.7002235959036448,1171.3327321713898,1174.645774554018,1160.395739618474,1180.1040119198333,-501.53913639078337,-786.8313403141194,-364.8073001519148,-639.0382689037318,158.0472191556096
0.08,0.1099292492892835,0.0958381317646143,-0.0254042006791479,0.0294417420049301,0.0215306957710245,0.0199960000860115,-0.0090398336847626,0.0117684664844815,0.9979635099749306,0.0620366298164504,-0.0144933952318148,-0.059359183447756,10.093277157705359,-0.0610452607039294,0.0850663780598424,1.2173495392751708,7.3279799935248064,-3.4730599540068248,0.70328474924349,1170.0246330811235,1172.6660978517557,1159.6614311010885,1178.0992226338155,-549.4106397801256,-801.00049591424,-254.749345601658,-919.2575898146508,158.05369859967743
0.0825,0.3380492518180588,0.2367958739641002,-0.0244918736200706,0.0301715118688321,0.0222618986286164,0.0199941943205041,-0.0090509998750482,0.0118059671899844,0.9979632847366426,0.0620315478215051,-0.0169326300149888,-0.0614953916029895,10.062104952638759,-0.0607004730309452,0.0847154930343785,1.2179652858072492,7.328050724646005,-3.473215284341664,0.7063449358869291,1168.5856789724892,1170.6407720744469,1159.1219928904657,1175.50772397076,-610.8059337407208,-820.2047815528651,-201.95031685798293,-1132.6865997676111,158.06022578428326
0.085,0.5217047533943387,0.3685642533998381,-0.0236924438373269,0.0316826051532909,0.0234477125223369,0.0199967065425175,-0.0090563716608425,0.0118374024816036,0.9979631992687348,0.0620261242481042,-0.0190794020738715,-0.0637325580691325,10.030195357976188,-0.0603442796643774,0.0843432774933804,1.2184733657316424,7.328121142725432,-3.473367705374125,0.7094041772367858,1166.97060341242,1168.5650739439911,1158.6516795167984,1172.4357896349775,-745.8987646683901,-916.2655076711408,-234.03365768131127,-1385.3735827328808,158.0668065551462
0.0875,0.6747164860443308,0.5164387821559686,-0.023760107062725,0.0343618279594693,0.0249874042514812,0.0199993979349875,-0.0090600099053121,0.0118659659410506,0.9979633045475585,0.0620183594805606,-0.0210198755537158,-0.0659907416316111,9.997713084030448,-0.059986888039823,0.0839579145598051,1.218876162001103,7.328192180043808,-3.47351761432422,0.71246284563591,1164.8561851491472,1166.0594445360912,1157.951824602059,1168.5808560570956,-793.4777668833262,-912.1676532552573,-304.14788689663567,-1382.6175199460092,158.0747600066327
0.0899999999999999,0.743321405542154,0.6362170375208263,-0.0244847974228294,0.0370720716837811,0.0261875545466132,0.0199978568631153,-0.009069695471815,0.0118976742017179,0.9979635526832132,0.0620067402103846,-0.0229137633853949,-0.0681377386043933,9.964806712516936,-0.0596477543647302,0.0835737352067291,1.219176210821484,7.328264260755087,-3.4736654011278256,0.7155211752353806,1163.0032145780035,1164.004235677715,1157.1309400823154,1165.5227020352474,-740.4379032274405,-804.2589263535789,-395.0552647635057,-1132.157102308158,158.0814308483093
0.0924999999999999,0.7626338012134312,0.7590595828432151,-0.0247151796569636,0.0394817019475433,0.0274100088040657,0.0199883797918468,-0.0090893024446539,0.0119364997747383,0.9979638952475774,0.0619907021871297,-0.0248355460767848,-0.0700769555518967,9.931606324069923,-0.059336542356499,0.0832002871917145,1.2193776664797351,7.328336845083737,-3.473811249159362,0.7185793370850432,1161.15399563301,1162.0381499043233,1155.9765482782416,1162.9200705455548,-787.2965193466817,-831.3973710829025,-588.4698868972004,-998.9783297085513,158.08814130611069
0.095,0.7593625649999607,0.9112644442126954,-0.0219235063777339,0.0410517743998379,0.0290011635421508,0.0199638545062762,-0.0091200037789935,0.0119847432755504,0.9979643433715916,0.061969440935014,-0.0268001227903936,-0.0717409095565077,9.898220766331384,-0.0590561386147833,0.0828430154346205,1.2194859281678183,7.328409347803326,-3.473955818223659,0.7216372863790231,1159.06673198127,1159.8472488223003,1154.1885906478294,1160.5278103867047,-727.061878290123,-763.8726947512616,-715.246018863035,-747.9839261562112,158.0962339713269
0.0975,0.7574699207157538,1.0351333255255633,-0.0146137383019304,0.0413838271783917,0.0306208577854685,0.019931172703852,-0.0091612872790885,0.0120438360334154,0.9979648726935936,0.0619431439636749,-0.0287844464896344,-0.0730759101258967,9.864735879261092,-0.0588055517495988,0.0825048715438553,1.219507258752556,7.328481008506464,-3.4740996032637104,0.72469426567104,1157.5186862415594,1158.2187864305668,1152.4003181839264,1159.1801509147735,-567.2573251842546,-594.1175483722867,-759.0328814376783,-420.9394186613732,158.10300719513936
0.1,0.7670981989108514,1.1363376908036829,0.0011677382365771,0.0418383774251886,0.0329078327659859,0.0198891348544282,-0.0092142574219878,0.0121140499076284,0.9979654403260187,0.0619122818489703,-0.03079264193451,-0.0740515144824816,9.831213535393033,-0.0585878661656473,0.0821852014537158,1.2194483212460008,7.328551770838802,-3.4742432766193088,0.7277487824040785,1156.2304453553488,1156.8766610804391,1150.393426240641,1158.4231132933978,-505.32942740560384,-506.873512196898,-905.9161308807224,-237.13463555304753,158.10980601787372
0.1025,0.7747636338331895,1.198531318759534,0.0335721075206938,0.0434823641816728,0.0367123788296854,0.0198438166489616,-0.0092766960772145,0.0121904285222339,0.9979659467879448,0.0618797183923377,-0.0327536580054123,-0.0747336643368294,9.797692926194733,-0.0583978808577372,0.0818705226224632,1.219317105739591,7.328621179265186,-3.4743872611298965,0.7307990610188926,1154.9920391045312,1155.6844188695825,1147.8707375295228,1157.9944777370083,-410.67232918776506,-361.5650463320442,-924.5165881133306,-113.77452056563035,158.11798857548487
0.1049999999999999,0.7525668253604677,1.1773467725579352,0.0737573636411322,0.0455081259395286,0.0406131619646047,0.0198347133141557,-0.0093448149105877,0.0122685854237768,0.997966319756506,0.0618480083167285,-0.034564363960556,-0.0751726897834675,9.764191593038674,-0.0582268302103341,0.0815488463269411,1.2191212516050627,7.328688814820722,-3.4745316265663715,0.7338451338959752,1154.17708370941,1155.0688358487787,1145.7708433000744,1157.8542406905697,-298.2135880762604,-175.6006201118001,-822.8006369098708,-54.956930091930296,158.12482322202607
0.1074999999999999,0.6683489620460764,1.0642168405942587,0.1282264807550944,0.0477345294678547,0.0444387912836591,0.019904480052019,-0.0094144938596849,0.0123450198575649,0.997966581890456,0.061818070973508,-0.0361151679205994,-0.075399642267998,9.730707870548176,-0.0580651653851761,0.0812106363361957,1.2188672854815747,7.328754238264864,-3.474676144024072,0.736887878877355,1153.50097116415,1154.8064157690235,1143.7567343449734,1157.719693086549,-262.7825387671234,-65.53085022010231,-786.2791704059865,-81.60195141422255,158.1316693371986
0.11,0.5128100287530116,0.876585226765515,0.1931124920099574,0.050119866581624,0.047560428563716,0.0200916123562993,-0.0094834637957256,0.0124182567611913,0.9979667499884552,0.0617902561365239,-0.0373341977132051,-0.0754080564074823,9.69722402710452,-0.0579080179315775,0.0808514049741479,1.2185596991255745,7.328817665241605,-3.474820161174782,0.7399283952625703,1152.8631710155744,1154.7411815976784,1141.8394474480444,1157.4462309334983,-262.368576907056,-16.09805735542976,-746.30777424154,-167.96680441443627,158.13852117777103
0.1125,0.2587497537129451,0.6158148770094002,0.2661005470160665,0.0526268098095171,0.0496008709188901,0.0204922563114869,-0.0095522615613231,0.0124887559384395,0.9979669092079542,0.0617630087003403,-0.0382060873120445,-0.0751588539315395,9.663710323688823,-0.0577571434888898,0.0804716673618419,1.2182005447249535,7.32887999862545,-3.4749635402381664,0.7429681608175084,1152.1891282796148,1154.7259254822463,1140.0251954737655,1156.8798590644767,-319.9264036926249,-54.03219057297969,-786.6568891563921,-331.9275496645784,158.14537523681346
0.115,-0.1504128497016576,0.2496167258143827,0.3540409051781902,0.0550216190556546,0.0508841764425568,0.0212882543633833,-0.009622763705264,0.0125554462711286,0.9979670826510068,0.0617358906451161,-0.0387392645482266,-0.0746471818318692,9.63013008971728,-0.0576171099228383,0.0800686017678983,1.2177900563417723,7.328941719560186,-3.4751062180541137,0.746007725163421,1151.2635389971113,1154.4710206448135,1137.9061630022625,1155.7865931851757,-365.6580234119243,-175.81873805202108,-779.8879338341969,-466.61371642139744,158.15359644739692
0.1175,-0.5468982983622757,-0.0749306906281329,0.4194431574339947,0.0555705735921274,0.0510948980091813,0.0222077399467027,-0.0096927697093557,0.0126161894719194,0.997967287711314,0.061709407006224,-0.0388636758377513,-0.0738883078576816,9.596445348373885,-0.0574821217496356,0.0796381431679946,1.2173271836623218,7.329002528759853,-3.4752478006508296,0.7490473211044073,1150.3608381625552,1153.8468317919862,1136.1257558045947,1154.5467904823695,-394.4831550941224,-376.1269782223287,-731.3199695730887,-545.5777909862273,158.16043971688532
0.1199999999999999,-0.9371105477591714,-0.3899112072092376,0.4663622837725584,0.0534499860053001,0.0504522574197549,0.0233840520298475,-0.0097567362425694,0.0126693852552845,0.9979676212893696,0.0616831919079447,-0.0384498946898194,-0.0728894609684471,9.562621450043764,-0.0573378016258291,0.0791790247912806,1.2168093778690174,7.329062215299428,-3.4753875553888007,0.7520868258757955,1149.2911232216406,1152.5903857537019,1134.249563154397,1153.0587042302443,-517.3063706096409,-722.351770572915,-864.3796078001302,-679.5704247835159,158.16726915314467
0.1224999999999999,-1.313657151084175,-0.723448750634858,0.4906654354178088,0.0480340558717269,0.0485833738910055,0.0251086467615318,-0.0098117135284217,0.012713412894456,0.9979681713658208,0.0616566238498473,-0.0374239626506764,-0.0716693592895525,9.528630736499789,-0.0571755760788428,0.078690473231372,1.2162322339398468,7.329120945016881,-3.475524686640651,0.7551260832809166,1147.7743063095068,1150.2350729391217,1131.803857765594,1151.148938358452,-602.7396187118933,-1001.177956438777,-938.1930644652576,-696.2469286841036,158.1754414577265
0.125,-1.504597060099196,-0.9419734117340068,0.4793707761267225,0.0423890147701366,0.0460030581572371,0.0267037698300806,-0.0098573290359084,0.012747935545443,0.9979690635399958,0.0616278081107527,-0.0357695105890047,-0.0702349875284251,9.494456317356,-0.0569926142691062,0.0781753738270525,1.2155894829557754,7.32917907477295,-3.475658701425965,0.7581664700829627,1146.2774251280812,1147.584495971508,1129.5585978320707,1149.577469586824,-658.9025086228952,-1174.5277930013788,-946.8057517799472,-600.8233310735699,158.18222718013544
0.1275,-1.54730302361648,-1.0792086636220617,0.4355665431646243,0.0370560188146227,0.0424259697725616,0.028117762385507,-0.0098951894560591,0.012773967226775,0.9979703882358648,0.0615948328862961,-0.0335169552801967,-0.0685811461664792,9.460095220390489,-0.0567904818563648,0.0776402118155253,1.2148733781335073,7.329236875633955,-3.4757891534485377,0.7612095048190123,1144.4797937663925,1144.3624339741148,1127.0698290066944,1148.1448217030843,-877.0672030957022,-1495.3447710206533,-1151.1273674513168,-584.8427720924514,158.1889807634555
0.13,-1.4448670881809529,-1.1458171868797382,0.3536249739810022,0.0319414514209796,0.0377035090211076,0.0293372704547976,-0.0099280106611237,0.0127952188214661,0.9979720948803946,0.061557336737072,-0.0307291254946769,-0.0666651899016448,9.425560507335916,-0.0565733953103451,0.0770980580574281,1.2140751215545829,7.3292945775015745,-3.475915989044818,0.7642553924213453,1141.8920891126027,1140.1077721164047,1123.802960994814,1146.6532557263615,-1033.4332731308668,-1579.7857714640015,-1240.4404625414816,-511.38962452437187,158.19703986419057
0.1325,-1.2608294987151363,-1.1337200136598156,0.2696124226806403,0.0287654986593525,0.0342105042653519,0.0299556632896208,-0.0099569766399576,0.0128171936046322,0.997974059785636,0.0615160196840342,-0.027451524549818,-0.0644221034178903,9.390882617849588,-0.0563416268198477,0.0765665001602949,1.213185995100463,7.329352514663871,-3.4760397314551366,0.7673036299536549,1139.312627400738,1136.4635051167947,1120.8676266939867,1145.5878735804624,-1132.88381296229,-1429.2801130635312,-1209.6344975522231,-407.51411654969127,158.2037124503821
0.135,-1.0142622374145835,-1.085431544187549,0.1791429299024526,0.0264189707965215,0.0315974461213049,0.0302654369260029,-0.009984324151257,0.0128437452054206,0.997976086627393,0.0614729324783903,-0.0237579376374835,-0.0618320689309863,9.35610913908451,-0.0560973675866485,0.076058600393727,1.2121983550691773,7.32941124072642,-3.4761609526811617,0.770352646889104,1136.2276700477912,1132.961371551087,1117.754788507053,1144.6156851436133,-1323.152245127584,-1350.0460775735962,-1265.4747099669737,-396.5058797903108,158.21033407270437
0.1375,-0.7431860663367414,-1.037758986803208,0.088548018710773,0.0246250490892582,0.0295871032018564,0.030410997222248,-0.01000959508029,0.012873663525877,0.997978054503082,0.0614303836727809,-0.0196770685657898,-0.0589783028406889,9.321304326879508,-0.0558351545629937,0.0755750929513605,1.2111071265018167,7.329471306216154,-3.4762800914133702,0.7734004179422082,1132.6968661751002,1129.7132747289268,1114.540253144152,1143.6053441815109,-1516.050639022113,-1220.3156573133117,-1295.9550935617233,-446.2851191821297,158.21690959217415
0.14,-0.4703903866939741,-1.0237965106674165,0.0011195283654464,0.0236424386703635,0.0279424878216921,0.0304399316845175,-0.0100317752524466,0.0129036431479211,0.9979798507142922,0.0613910851549629,-0.0152365400119318,-0.0559913351230958,9.286546545253625,-0.0555477651472992,0.075111115930541,1.2099094365268839,7.329532890946513,-3.4763974121371604,0.7764449571649478,1128.6474168526806,1126.8597932645205,1111.2750130392444,1142.3842595477026,-1878.926653508232,-1160.8261990320887,-1425.9197024413863,-623.2915786957159,158.22342561213085
0.1425,-0.1692650077085112,-1.0752375106047032,-0.0981543356764894,0.0235121292319686,0.026001911104187,0.0303827188457244,-0.0100533583557768,0.0129316746578946,0.9979813936269908,0.0613564110027123,-0.0105416329207925,-0.0529885749282987,9.251924861882115,-0.0552366297240402,0.0746638452774598,1.2086037432079824,7.329596180932167,-3.4765131832872345,0.7794842971372863,1123.302232907559,1123.9091437337663,1107.4106546319451,1140.4888862880323,-2010.571198803482,-1011.719624805669,-1389.9537336708884,-782.9533608106467,158.23117191229773
0.1449999999999999,0.0469442713872852,-1.18448941539242,-0.1747298132629661,0.0240071453856591,0.0243266648364047,0.0302413138358329,-0.0100796507474141,0.012959731609532,0.997982643764524,0.0613257637972569,-0.0057630753252596,-0.0500223252403838,9.217535751909523,-0.0549107658951579,0.074239025320874,1.2071893287071187,7.329660928980617,-3.4766278739917738,0.7825174460222222,1118.5945608586633,1121.801195140492,1104.32524437089,1138.4694927436494,-1886.2251621558328,-788.9860791448463,-1185.626279955164,-900.9191022005821,158.23756400572003
0.1474999999999999,0.2227098631227121,-1.3584187165398596,-0.2411174677291618,0.0246170672496219,0.0224696420777781,0.0299320140451017,-0.0101159688838225,0.0129913988595438,0.9979836352790173,0.0612970092547478,-0.0010800160753132,-0.0471188897261753,9.183480184430108,-0.0545800249363554,0.0738455289603154,1.205666612175025,7.3297268192299345,-3.4767418574947526,0.7855440157568903,1113.87110709678,1119.964213338042,1101.4825232321691,1135.9842907770294,-2015.9948790396793,-770.5871241340894,-1176.4707225308018,-1181.7837062955264,158.24388841558127
0.1499999999999999,0.3914616393730621,-1.6140354885128991,-0.3007116948640984,0.0254217082364081,0.0193765589804041,0.0292501705942165,-0.0101583389074851,0.0130244405502366,0.9979844491339588,0.0612699319944303,0.0035009380929983,-0.0444012531467157,9.149861530555762,-0.0542323323534537,0.0734785423322954,1.204038782584108,7.329792739280477,-3.4768546064498067,0.7885638237724685,1108.5145864634649,1117.9482595198217,1098.442890758236,1132.5605742121716,-1865.1220307371188,-724.1295345733755,-1045.6099356131735,-1303.7356552376411,158.25139786145797
0.1524999999999999,0.5016040004928701,-1.830734810548852,-0.3256372963828774,0.0263867669404502,0.0154562387464355,0.0283535162954654,-0.0101974885201688,0.0130558092516132,0.9979852132620538,0.0612445794925651,0.0080666321780842,-0.0419979093987241,9.116781303791152,-0.0538441679855538,0.0731312112672876,1.202310150476344,7.329857569850794,-3.4769658503055587,0.7915772398816052,1104.5454969430943,1116.3435656651752,1096.2544735541035,1129.4656125008412,-1438.451542147321,-641.047167855549,-804.0087171856151,-1251.2607811298935,158.25758858247147
0.1549999999999999,0.5841806922861852,-1.9998387558227784,-0.3159321074980697,0.0275999620354319,0.0099401514510429,0.0271345132625787,-0.0102265291402346,0.0130850170958441,0.9979860048092268,0.0612209003998153,0.0126554234950739,-0.039987289557976,9.084335319342818,-0.0533995994262251,0.0728015816444875,1.2004844871552467,7.329920657688382,-3.4770757554227782,0.7945852755341442,1101.3223287527283,1114.743023680544,1094.422847172308,1126.3042703065223,-1211.6491208453667,-714.810905179956,-732.5505416305525,-1364.6155494302536,158.26370950003687
0.1575,0.6540918254336495,-2.096395563921364,-0.2602333669976422,0.0291263217263302,0.0022925183638111,0.0256061015329971,-0.0102416701238822,0.0131126825443344,0.9979868681600748,0.0611986408773197,0.0172497298017895,-0.0384228424321815,9.052611221921172,-0.0528916659464693,0.0724889409033653,1.1985649680970447,7.329981209332241,-3.4771848650490984,0.7975897318434644,1098.4872513388675,1112.7695111392754,1092.5917208459507,1122.64253475369,-858.0570525107751,-738.4288209867456,-620.5774479004953,-1296.7466931493152,158.2709745397005
0.16,0.6877985707314251,-2.0678189600774246,-0.1814784740277798,0.0304980830409279,-0.00417222852958,0.024693979074951,-0.0102404484051303,0.0131401426525711,0.9979878450683436,0.0611772284606535,0.0218122095751424,-0.0373358083744975,9.021686213827284,-0.0523178582051197,0.0721931631877682,1.196554439008214,7.330038378155992,-3.477293789022811,0.8005919517340847,1097.0320434901744,1111.0508795756102,1091.3199599328054,1119.8205368407755,-400.9109142343274,-708.0893760291467,-469.5478126352096,-1064.0054346527895,158.27696296512647
0.1625,0.6921001619535718,-1.9267016457920996,-0.0823909373776446,0.0321488861114953,-0.0100300038977276,0.0243958723038324,-0.0102241003993804,0.0131693157262165,0.9979889376447942,0.0611559971928087,0.0262463379214866,-0.0367382056161311,8.991624838580515,-0.0516855071398925,0.0719141103404952,1.1944555080342747,7.330092214826571,-3.4774027598062154,0.8035925938249083,1096.4826967676959,1109.2290642591297,1090.2439817827747,1117.322507580426,-87.42935856762406,-747.894507768887,-407.23558392733105,-941.2056298767304,158.28288478387864
0.165,0.667518578341684,-1.7093546932692352,0.0211140807799305,0.034117692280999,-0.0149190386041746,0.0243890387742098,-0.010196887538431,0.0132019022380319,0.9979901672806936,0.0611335097477784,0.0304124943270861,-0.0366348173145246,8.962477122389886,-0.0510096192711099,0.0716500512653747,1.1922712124365575,7.330143343539177,-3.477512116577993,0.8065902306439628,1096.5948966973363,1107.3114070367656,1089.2837820131688,1115.114508691392,170.88239043077903,-788.4683548086734,-365.0762674872109,-816.6827424072828,158.28875299629863
0.1675,0.6053650307309066,-1.4330450885115726,0.1153690536930274,0.0363054754090433,-0.0183802211695846,0.0244646192169652,-0.0101630840478455,0.0132386024475616,0.9979916003251492,0.0611078124882787,0.0341849542390352,-0.0370324537451229,8.934276824137452,-0.0503053228756594,0.0713964471189004,1.1900058618115756,7.330191963006184,-3.477622158055255,0.8095823699081955,1097.3371087198495,1105.2867224850863,1088.4186004453384,1113.2390938683895,420.8565685857589,-906.1318251452112,-367.2815707074274,-761.834589744739,158.29455897779667
0.17,0.494057425698222,-1.077442316387196,0.1986526633659867,0.0385280721101531,-0.0211234005833079,0.0249179603941707,-0.0101263360258709,0.0132792511326962,0.9979931817119708,0.0610792257398953,0.0374643037537737,-0.0379353830491026,8.90703975185367,-0.0495864946943468,0.0711464312127223,1.1876652624934732,7.330237891019118,-3.4777331968207594,0.8125669866253211,1098.699179540265,1102.7807479110395,1087.4473741596316,1111.3053357426684,539.6664977276481,-919.9723650270689,-349.6794084604514,-672.0066686536023,158.3014578356302
0.1725,0.3841369739997587,-0.7864397555910803,0.2285014049457888,0.0396564902621863,-0.0225881318247155,0.0258700491660277,-0.0100897807727656,0.0133245685618118,0.99799483388953,0.0610483330462153,0.0401733782073827,-0.0393146151433656,8.880762348171123,-0.0488658992369637,0.0708954057677047,1.1852563275347783,7.330280725067005,-3.4778453340779745,0.8155424648206626,1100.035441208488,1100.6868606599508,1086.6702034030363,1109.8790605251215,534.0203453263707,-822.1940756939596,-309.066194274055,-556.1065532042444,158.3071527620756
0.175,0.2774127802539643,-0.5185888002231647,0.2034066575192778,0.0398436781509037,-0.0235097823608048,0.0272178426909567,-0.0100559252837908,0.0133766870416995,0.9979964666748102,0.0610157248404892,0.0422584673895936,-0.041099496801592,8.855421109544098,-0.0481547404253409,0.070642620063749,1.1827866390331183,7.330320069574739,-3.4779583809949055,0.8185077701192794,1101.369281266897,1098.66977753257,1085.9020431882611,1108.5248029766472,544.2346466973073,-851.7134165331795,-342.21965392998914,-608.8617733906659,158.3127945989672
0.1774999999999999,0.1718389587127237,-0.2297175925571486,0.1070138432470357,0.039275504851953,-0.024192084883334,0.0286371256819336,-0.0100245243733801,0.0134359237203332,0.9979980072431304,0.060982557067252,0.0437293548973673,-0.0432339375633589,8.830973206471704,-0.0474569928495835,0.0703841099137446,1.180264550709768,7.330355652445066,-3.478071676398507,0.8214621537811848,1102.7566144419743,1096.428293577285,1084.9591051333864,1106.8347516581682,447.7679485863085,-781.9923443084044,-355.11674783984,-648.4139923161396,158.31950643771177
0.1799999999999999,0.1050822511456808,-0.0138297078714211,-0.0191022547264713,0.0385491484007207,-0.0246202824804337,0.0293138122245586,-0.0099949791109824,0.013500616762675,0.997999440633538,0.060949536483745,0.0446152710769131,-0.0456836133559189,8.807357736136776,-0.0467746537797253,0.0701123383645838,1.1776983242608379,7.330388145545808,-3.4781845956444473,0.8244058990075532,1103.6081210098284,1094.759815811028,1084.126459449062,1105.2827330150665,254.82516023321273,-619.3758095062998,-350.78065175589444,-661.9066404496601,158.32505278941213
0.1824999999999999,0.0460864252958355,0.1806675519002793,-0.1701688881441716,0.0384124812074207,-0.0248446350445869,0.0292585549553902,-0.0099672985975626,0.0135684673010553,0.9980007921489484,0.0609167610609335,0.0449448271753371,-0.0484154476620771,8.784497712036739,-0.0461098837827445,0.0698194302223389,1.175095171707916,7.330418695434713,-3.4782961944986632,0.827339616194782,1104.0307402431404,1093.3314145297536,1083.2052018746067,1103.52521845592,73.38430503286865,-573.3825807563329,-433.64100285575614,-818.5434490432264,158.33055214432224
0.1849999999999999,-0.046453349723252,0.38856593501965,-0.3463980702544552,0.0393000546520954,-0.024354422045678,0.0282508920797611,-0.0099410366938392,0.0136368160993194,0.9980021308468264,0.0608837750589391,0.0447625623161044,-0.0513941982735554,8.76230294256717,-0.045462363294621,0.069498020995547,1.172460712407226,7.330449074563154,-3.4784054720860595,0.8302645649589767,1103.9750425349928,1091.8929029072463,1081.9582544347832,1101.1900157698503,-113.9379302848737,-487.89153365782977,-482.89239487144147,-883.8633593386921,158.33709825653355
0.1875,-0.1609993537018518,0.5348981848767317,-0.4646130926675827,0.0404415984416675,-0.0231619086292776,0.0266581904578641,-0.0099162691276185,0.0137047415400412,0.9980035692034802,0.0608489392649467,0.0441074862288107,-0.0545498117773454,8.740673456234715,-0.0448318367746483,0.0691459540716537,1.169798166955043,7.330481060317819,-3.478512335389496,0.8331831841978466,1103.4610505917162,1090.8919568614645,1080.7907399002495,1099.1059016592264,-290.93478700633534,-374.0362560528407,-488.97580347715984,-844.4715059852562,158.34250951380946
0.19,-0.3197342770150867,0.6450638048264477,-0.5312390439034769,0.0410004652566042,-0.0214177327560126,0.0245541281675129,-0.0098906951979523,0.0137692620502482,0.9980051598665528,0.0608124370561625,0.0430662345973262,-0.0578430314517056,8.719503762310506,-0.0442113874023003,0.0687573963455106,1.167108992232068,7.330515189251798,-3.478616964814613,0.8360966682051135,1102.520368599961,1090.022721626982,1079.5133754173976,1096.967658239924,-432.17165671949215,-340.01981469523315,-519.2515533538422,-848.986261084564,158.34787522514918
0.1925,-0.503175037021439,0.7215627960609612,-0.5482591803754289,0.0405075569157391,-0.0193745260286203,0.0224164845430725,-0.0098640817683438,0.0138284917690497,0.9980068754948448,0.060775180609405,0.0416903272592613,-0.0612178645511506,8.698686764685121,-0.0435985933713019,0.0683294633704581,1.1643921901881327,7.330551304765493,-3.478719792735369,0.8390061559879968,1101.3001923081188,1089.1918577879883,1078.1944821334805,1094.8609703538036,-534.6096761802978,-337.89286456099006,-518.8035985143865,-815.9124052836426,158.35320287917267
0.195,-0.6898386331828614,0.758695696243501,-0.5104566309761213,0.0388567423019425,-0.0170117999712392,0.0205682304016388,-0.009838153215099,0.0138835566347277,0.998008621103898,0.0607381958252057,0.0399952065319721,-0.064571127996538,8.67811750573131,-0.0429958856092289,0.0678665416025327,1.1616443976441044,7.330588568473389,-3.478821082496361,0.8419126247610148,1099.8473202190596,1088.333257304177,1076.9193574248256,1092.8880962135058,-667.7272620438538,-391.75906789541807,-522.7529734579545,-813.1266138867423,158.35848436765332
0.1975,-0.8816745968511271,0.7694501298916011,-0.4218360287468511,0.0359935410122058,-0.0139937841278308,0.0187825450537378,-0.0098133176467694,0.0139340504474469,0.9980102492085932,0.0607039389190457,0.0380214469491921,-0.0678301251930821,8.657696864909449,-0.0424028111728622,0.0673699914789232,1.1588613017284508,7.330625834273251,-3.478920640309731,0.8448164759576735,1097.9615559978995,1087.2330624485112,1075.5807172661907,1090.79533728437,-700.1405094915293,-409.4750880788976,-439.82145989571063,-706.2588216602301,158.36476865430268
0.2,-0.9935762092979424,0.7678699488979109,-0.3333722220859385,0.0331408026202391,-0.0118024783236958,0.0176675446982216,-0.0097876577374818,0.0139783422878618,0.9980116679315548,0.0606746103714559,0.0358508500305443,-0.0709482866988344,8.637334254479478,-0.0418138617473161,0.0668390950275169,1.156038274612918,7.330662144592813,-3.4790181171735663,0.8477170635709533,1096.346617671602,1086.2858818637826,1074.720250125347,1089.3568021052047,-642.2813627177214,-367.3451691518945,-275.574788974154,-498.942960133581,158.3699610293617
0.2025,-1.0399446458839363,0.7850481340027885,-0.2600377547905839,0.030315099136146,-0.0106917572539129,0.0170985028352343,-0.0097613901431917,0.0140171167174123,0.9980128270987728,0.0606508443048359,0.0335251466560141,-0.0738505302233297,8.616949470737893,-0.0412292730040871,0.0662786308925398,1.1531701550917155,7.330696873644418,-3.479113526126284,0.8506134616769325,1094.7501491843109,1085.3963366027515,1074.20284332132,1088.300622483702,-689.0433588666377,-351.2215471165743,-144.44039800991945,-370.37555941756153,158.3751073945868
0.205,-1.0122448659105858,0.8575112851364352,-0.225242254357063,0.0272164176828758,-0.0103110110430585,0.0173701048178436,-0.0097338647286945,0.0140516686713363,0.9980136545738656,0.0606336424702468,0.0311001047062864,-0.076460659813928,8.596473969469358,-0.0406479965595539,0.0656951364910742,1.1502522477332515,7.330729552334493,-3.479206682163068,0.8535042689387256,1092.9014008772688,1084.5297741281995,1073.9980481352975,1087.5049243081169,-662.0875137255547,-267.184811064544,-14.321793926728777,-216.38004597971283,158.38123024543768
0.2075,-0.9177216495887524,0.9662849320509308,-0.2601102379615063,0.0246612978104033,-0.0096739032943421,0.0181438841022047,-0.0097045004578648,0.0140826172694129,0.9980141263579884,0.060623366714958,0.0286306417255586,-0.078725500343809,8.575851409133422,-0.0400694614258199,0.0650937948395285,1.1472807984025228,7.330759996630789,-3.4792969923338752,0.8563884574659946,1091.439711615683,1084.0604125474288,1074.1312343516863,1087.2187222538034,-563.5760991326177,-125.23548998810897,92.97709924430865,-50.88576902767296,158.38628901243757
0.2099999999999999,-0.7496785883404482,1.104999802742114,-0.3666025149920268,0.0219506550685546,-0.0076754621865908,0.0187351914037363,-0.0096766466079562,0.0141121565685251,0.998014292998812,0.0606181488345154,0.0261023646247697,-0.0805809772514306,8.55503736028631,-0.0395023764540495,0.0644830262678729,1.1442526278172178,7.330788791650319,-3.4793846128488832,0.8592652592048238,1090.0835203816057,1083.9035966782592,1074.462933631519,1087.2504954629785,-568.3119825841485,-4.225877108592632,152.43712716528603,56.220919100224165,158.39130304779877
0.2124999999999999,-0.4742616736275093,1.2616055246051208,-0.5552380638037334,0.0186701182487644,-0.0039263924702948,0.0185505669758851,-0.009655487938743,0.0141413959475584,0.9980141983346982,0.0606161946918554,0.0234713322479257,-0.0819951107066149,8.533998762732091,-0.0389595380136904,0.0638683939535075,1.1411657457799755,7.330816513672265,-3.4794697730830966,0.8621337452792603,1088.5981517027624,1084.039283161886,1074.8934199875127,1087.4998268493043,-520.7733985750106,85.42712283092433,130.86985454474404,96.50539605113401,158.39726886533742
0.2149999999999999,-0.2055880797796819,1.350276034125639,-0.7310890549598537,0.0165052244363515,-0.0001777886490623,0.0173080231367294,-0.0096457037468494,0.0141707093008921,0.9980138925536014,0.0606158682255491,0.0207038293992401,-0.0829590246690724,8.51271305040672,-0.0384524105005099,0.0632536135985994,1.138019438854515,7.330843328562682,-3.4795525442167774,0.8649930640695873,1087.4796533887306,1084.3307322924138,1075.1172829042428,1087.733022443234,-428.07082349358967,122.52535565457936,24.710436485975126,60.02026768878744,158.40219839003387
0.2174999999999999,0.0556321232976609,1.3635656765388326,-0.8781455284072452,0.0162052237274889,0.0039612384018973,0.0147388401502108,-0.0096477620751503,0.0141994279316884,0.9980134139909478,0.060616644089852,0.0178393766005572,-0.083487301040789,8.491167367659525,-0.0379827398175312,0.0626402158698289,1.134814412222966,7.330869047296593,-3.4796329950751943,0.8678427080047226,1086.4577975852944,1084.6519099401587,1075.0169721699426,1087.7999281877485,-401.55537916098154,109.68459470295772,-116.12363717163124,-26.32787225857098,158.40708497444032
0.22,0.2646811573239745,1.2999843777545808,-0.9669956067996448,0.0178525443632298,0.0082697939780291,0.0112057940300412,-0.0096599380399896,0.0142270219541297,0.9980128958225934,0.0606167535772004,0.014953613940384,-0.0835991956134312,8.469357811947114,-0.0375471400485559,0.0620299704324362,1.1315522403805875,7.330893458512363,-3.479711195579467,0.8706813889582322,1085.4718764929255,1084.8791552659286,1074.5366647183844,1087.601383081941,-400.90533226484655,45.7917107304183,-300.41521310372417,-164.42188314322252,158.41193642367168
0.2225,0.3637917950764496,1.1416842499523039,-0.9591070788428367,0.0207535973288705,0.0121841026881005,0.0072629285703663,-0.0096829005476199,0.0142548495278805,0.9980124027594108,0.0606147138555677,0.0120783703700347,-0.0832922901565021,8.447288749790868,-0.0371478179429409,0.0614279973028823,1.1282344787839604,7.330916651913743,-3.4797874064825485,0.8735082274448364,1084.45327092397,1084.880868493811,1073.514896104424,1086.9778187720324,-477.4873402249337,-69.42831146488965,-581.0184544300677,-383.53554321556624,158.41674604832275
0.225,0.3291775013125659,0.8601694330713485,-0.8329139477251132,0.0238643331480797,0.0155099182903177,0.0032731171355462,-0.0097120448402402,0.0142828194521704,0.9980119306158636,0.0606113195314226,0.0093341630083298,-0.0825894126766712,8.424972999358934,-0.0367748938317229,0.060836079262719,1.124863133722236,7.330938198111034,-3.4798619909298414,0.8763232971333974,1083.084439791801,1084.532013708604,1071.6315724462343,1085.6837053658635,-540.5323666240744,-192.47165295273567,-794.0336520337944,-562.003012832974,158.42246988549795
0.2275,0.1802078850520169,0.5720488363393226,-0.646669816634138,0.0255269256172211,0.0170172327412226,0.0009801161634062,-0.0097429693203378,0.014312080967628,0.9980115145452264,0.0606063907957925,0.006832730235651,-0.0814976911888607,8.402431772971966,-0.0364187913606828,0.0602580982307521,1.1214394244284565,7.330957839578211,-3.4799352198626505,0.8791270810501471,1081.7506090908498,1083.9185102290471,1069.544727844255,1084.1678037078675,-584.139564840188,-313.6752790390344,-924.3792099833165,-682.0269057587204,158.427200395418
0.23,-0.0610210027086814,0.2566372736277526,-0.4095304653547607,0.0260014959932879,0.0176944076389434,-0.0002292759510066,-0.0097728757650087,0.0143436282225269,0.9980112387957776,0.0605987321215194,0.0046539028820167,-0.0800319456496218,8.379695081102318,-0.0360730172173821,0.0596966930103343,1.1179634174892892,7.330976060134371,-3.480007643145076,0.8819209119835696,1080.1637419676,1082.9636373134088,1067.0096763963177,1082.2735708370699,-755.8517795440814,-496.0784506203249,-1187.8166938502532,-894.0096313290261,158.43189044633104
0.2325,-0.4050199479600198,-0.1257893968240953,-0.1097822252391393,0.0251579454359874,0.0180950576956975,-0.0006199494548833,-0.009798694805326,0.0143765718895803,0.9980111752835472,0.0605878505551241,0.0028780412679658,-0.0782398027746924,8.356802472271125,-0.0357297259572538,0.0591496585360172,1.114434062594252,7.330993491678545,-3.4800797066807645,0.8847062738287739,1077.9713501931294,1081.4381179759455,1063.6056443750035,1079.6977555512224,-840.9642125528981,-619.1891896293777,-1280.2299661318543,-972.0892637543776,158.43747203900188
0.235,-0.6978312594734702,-0.4282233593213895,0.1231035955701711,0.0234633583745995,0.0178264800249836,-0.0001855531504871,-0.0098182244368713,0.0144099068988895,0.9980113556579528,0.0605738154842812,0.0015638685141153,-0.0761716675489714,8.333803471304245,-0.0353824341746159,0.0586139222792067,1.110848823932963,7.331010680442875,-3.4801518365292687,0.8874849599183443,1075.9589209048356,1079.867691365262,1060.6085265656584,1077.413124518298,-819.7458079391248,-685.8029492724194,-1195.0328246883134,-914.6276663590008,158.442084751597
0.2375,-0.9551477035806556,-0.6859890078632804,0.3094904735596255,0.0209512331986429,0.0164277680304992,0.0009586985341185,-0.0098310970464715,0.0144424802762884,0.9980117185076888,0.0605579768521489,0.0007315225225931,-0.0738809841357182,8.310757812737526,-0.0350282293906094,0.0580855047665541,1.1072038276142817,7.331027818073518,-3.480223752123124,0.8902588784141237,1073.8726211534336,1078.0091032295836,1057.630480251562,1075.1246172194271,-901.0092863651648,-878.2276111231608,-1265.1665341601588,-977.7813045163427,158.44665735694417
0.2399999999999999,-1.1842678706438639,-0.9083556478739548,0.4570286020066297,0.0170691544478362,0.0132371049046143,0.0030667308658051,-0.00983732305506,0.0144716336170357,0.9980121085975908,0.0605435308869984,0.0003874099998954,-0.0714442785708234,8.287735423077251,-0.0346644575302111,0.0575569055649673,1.1034946015661566,7.331044884404274,-3.480295004919717,0.8930279943925398,1071.4538744730098,1075.4765533096463,1054.2826938948576,1072.5242179957163,-850.4455718773937,-972.323855582822,-1166.5634202278907,-910.259212035639,158.4520978615
0.2424999999999999,-1.2890200665033005,-1.0009682574725185,0.5103502134909286,0.0131383521532348,0.0096079192097512,0.0052435013837999,-0.0098396012189148,0.0144941654158469,0.9980124546003972,0.0605319817292517,0.0004836998630478,-0.0689471084851875,8.264815437437559,-0.0342937279229242,0.0570192772151521,1.099716456385774,7.331062095201693,-3.4803652411675174,0.8957915787028442,1069.6203932940468,1073.1474839516695,1051.7976631504227,1070.5733211592492,-680.3245750252239,-965.0058343367608,-914.708387509244,-717.9492824804122,158.45659241338151
0.2449999999999999,-1.2946307779053694,-0.990765945664334,0.4994843898911925,0.0088793208098879,0.0059587626731022,0.0072397094226839,-0.0098395704718353,0.014507597843479,0.9980128006354017,0.0605229351157855,0.000978810211852,-0.0664591095364009,8.24208478682123,-0.0339158953317859,0.0564658149525545,1.0958651985191479,7.331080123940764,-3.4804344397449567,0.898548301571448,1068.0522515978837,1070.6515241379625,1049.7091519573114,1068.9344715833142,-583.7998664675973,-1014.6925132282822,-767.4503267024186,-595.7043335075008,158.4610456405984
0.2474999999999999,-1.2242262490319011,-0.9068390015189408,0.4529561735856373,0.0050116272512432,0.0029903121240776,0.0084145420583494,-0.0098378729355107,0.0145101235528858,0.9980131396244146,0.0605168550126437,0.0018365146416505,-0.064034868547673,8.219635876062169,-0.0335286404492931,0.0558915194898687,1.0919376307238275,7.331098900459043,-3.4805026446994134,0.9012965430679536,1066.7013939617088,1068.074021385528,1047.9604115169107,1067.5947994917117,-502.446579459956,-1037.140847859745,-625.3606329376447,-462.16297394435014,158.4654639495618
0.25,-1.0847670893639692,-0.7626370465112217,0.390612957674696,0.0021341939318843,0.0010776882319151,0.0085400123602253,-0.0098336081849395,0.0145013319011316,0.9980133916376384,0.0605153306896065,0.0030342006518663,-0.061701960525261,8.197563552637702,-0.0331266397576045,0.0552948403079643,1.0879318168619527,7.331117755769475,-3.480569964535237,0.9040355199828288,1065.540018700584,1065.4658198986635,1046.5823487926232,1066.6236567135925,-496.42211166401427,-1141.7229200825195,-539.5716290306605,-352.6991724083924,158.46983913731486
0.2525,-0.8754279361238112,-0.5619119891653777,0.3233270740755199,-0.0002125333116117,-0.0001653033966385,0.0085413955385739,-0.0098261608241338,0.0144842272283742,0.9980135533993592,0.0605178176755857,0.0045308893080772,-0.0594310633019766,8.175961291731916,-0.0327057465084715,0.0546819256300799,1.0838469202795529,7.331136567741407,-3.480636624430901,0.9067650784353084,1064.2192834033888,1062.3654067851155,1045.2625533717571,1065.8313036296695,-494.4354178556291,-1127.1132371743067,-444.9934926577494,-244.95802579099268,158.4750379813914
0.255,-0.6917953520226665,-0.3978604324633724,0.2802068504236502,-0.0015142052102704,-0.0005734989733125,0.0089224009712073,-0.0098121768505799,0.0144605741338066,0.9980136266441112,0.0605244343043073,0.0063227035472569,-0.0572098647251932,8.15491784250883,-0.0322561891592201,0.0540567813719454,1.0796840328965391,7.331154963954616,-3.480702536737568,0.9094845380634126,1063.0678416113055,1059.8302537127922,1044.3573813293344,1065.3988665846375,-491.16739854280195,-1003.3709509980316,-341.1578502327754,-152.8618094613192,158.47932641947855
0.2575,-0.5211682916982913,-0.257499079618971,0.248380569264895,-0.0024541492635507,-0.0006229579550057,0.0094533309379538,-0.0097882391379276,0.0144327947374154,0.9980136576066698,0.0605344231575288,0.0083982163733785,-0.0550156358658935,8.134512949526666,-0.0317686400443897,0.0534251719642559,1.0754458645633336,7.33117300434099,-3.480767358330828,0.9121932907817965,1061.7634464106748,1057.3485520301251,1043.5567641205935,1065.0669945823631,-618.2852629389338,-1082.6053697569923,-346.54033395959203,-157.305056164614,158.48356802981667
0.26,-0.3462833687916306,-0.1245370341482318,0.2159907920582775,-0.0032857297015803,-0.0005214519914691,0.0101636997646195,-0.0097583726256239,0.0144063988767468,0.9980137782928404,0.0605436237574443,0.0106160081102867,-0.0527845468331511,8.114812958090278,-0.0312504735495026,0.0527989499745211,1.071136071281082,7.331191523246627,-3.480831130299029,0.9148909011395148,1059.976415296611,1054.4172268640073,1042.6246796595365,1064.6123413038144,-688.7087246066579,-1069.5781756709027,-346.1639284019836,-198.9987934589406,158.48860251566978
0.2625,-0.2304866420611615,-0.0403805153959344,0.1880554876869866,-0.0035616167853976,-0.000419825661731,0.0110564339982389,-0.0097271706925713,0.0143859816634694,0.9980141455907978,0.0605475877480625,0.0128237422135606,-0.0504706038527393,8.09586800985179,-0.0307106543594795,0.0521881798905627,1.0667600703782805,7.331211033051299,-3.4808939661762435,0.917576327534628,1058.3199027876415,1052.0006611517708,1041.8259444785836,1064.0720006150684,-684.3932917075102,-962.2543339624816,-329.29056281009224,-269.9781364039152,158.49275082004195
0.265,-0.1454818942743374,0.0265941686180384,0.1559128790389466,-0.0033131268881787,-0.0003688665418004,0.0119396360389356,-0.0096993275741853,0.0143731956431146,0.9980147181769587,0.0605458180986039,0.0148705302347509,-0.0480778331907211,8.077709324207774,-0.0301589869982387,0.0515967710747189,1.062325127977695,7.331231163421781,-3.4809556086104267,0.9202477341628293,1056.5544488380735,1049.6059551941948,1040.978226845486,1063.2624506217949,-782.5131702673837,-1044.9733389419623,-383.8041841787796,-429.16736973388606,158.4968492197698
0.2675,-0.0671270024208622,0.103067056475513,0.117783450369328,-0.0030525070206393,-0.0003719516543064,0.012057553816212,-0.0096764523950512,0.0143690660203204,0.9980154703862584,0.0605382117644707,0.0166577659710809,-0.0456203783396912,8.060346868029931,-0.0295996150593347,0.0510280368704286,1.057839927442359,7.331250617076782,-3.48101553530538,0.9229034716441942,1054.4073369363043,1046.775794457061,1039.9069235576897,1061.9261637663988,-779.2988399068684,-1023.4561338625545,-398.02309601927806,-548.5070241179069,158.50170846936143
0.27,-0.0047366912636074,0.1744838909634435,0.0919229166849728,-0.0032601005999354,-0.0003896744731076,0.011289232992613,-0.0096575622808835,0.0143731773441363,0.9980163622671024,0.0605256714940638,0.018133894549386,-0.0431362336477913,8.043768147727278,-0.0290322312017306,0.050482853043944,1.0533140465129327,7.331267936727606,-3.4810733116708015,0.9255429020153259,1052.6579546385392,1044.488674524882,1038.9881113653896,1060.519915501205,-681.3991561394225,-885.7606373715035,-365.4938209217559,-608.6482191311455,158.50570800661663
0.2725,0.0775549537334974,0.262708482925917,0.0684318325339782,-0.0039631181820617,-0.0003274031183634,0.0105198542430497,-0.0096410020081171,0.0143844857168374,0.9980173149005612,0.0605100140635353,0.0192646685859725,-0.0406759704600533,8.027937937252814,-0.0284562062873185,0.0499610593480208,1.0487570417619931,7.331281990729224,-3.481128383569607,0.9281658992264716,1051.0003411556074,1042.3469912702035,1038.0794544530809,1058.8829226707433,-644.336165700451,-818.1310241789555,-354.8088126337458,-674.8818138591099,158.50965493861872
0.275,0.1882462825242941,0.366489820399473,0.0316551377598177,-0.0047826149769103,-8.957596474846515e-05,0.0106506417888202,-0.0096260609363486,0.0143996236893926,0.9980182056659253,0.0604941822024496,0.0200108552854048,-0.0383310584463865,8.012799493571112,-0.0278734941765702,0.0494575663424703,1.0441777847432572,7.331292272836556,-3.4811802604732724,0.9307734400519247,1049.4362738100367,1040.3980194039873,1037.2140673022209,1057.1455064319096,-601.6011333226281,-714.3020359109407,-326.8235873413684,-692.6933698242459,158.5135578077317
0.2775,0.3332063867700886,0.4836714896721842,-0.0463800461360621,-0.004979806875663,0.0005282179031593,0.0120305416551641,-0.0096154406330865,0.0144152783354039,0.9980190422307406,0.0604784040019823,0.0202879190271227,-0.036197890020843,7.998276377381555,-0.027293331472318,0.0489669885715965,1.039583435935905,7.331299479618254,-3.481229299340212,0.9333675430910672,1047.9923354889943,1038.7754810906488,1036.445336516374,1055.419455821622,-605.6460440468067,-618.549804938902,-306.16754868765355,-724.2546448869227,158.5174073535582
0.28,0.528157171387472,0.6241956065960305,-0.2049220496671664,-0.0039093003139072,0.0019229603670953,0.0138999432150108,-0.0096106684948778,0.0144298728923032,0.9980199196789632,0.0604612384440214,0.0200393215944083,-0.0343454289037013,7.984275300307399,-0.0267224958964705,0.0484874151532032,1.0349790813957311,7.331304729918737,-3.4812761144757585,0.9359501764750496,1046.408043589803,1037.3052703792928,1035.6832295587826,1053.5242332074752,-553.3274009065276,-451.859717719844,-248.99250561925305,-647.3889390338168,158.52196533974
0.2825,0.6878961547653679,0.7258792907579699,-0.3807155494813432,-0.0022404867714718,0.0037099901929931,0.0144794108724648,-0.0096136258489501,0.0144427787091082,0.9980208832145764,0.0604417908614004,0.0192137237340377,-0.0328278171874357,7.970689836684648,-0.0261682989354796,0.0480182430654518,1.030367597309119,7.331308702352451,-3.481321034071903,0.9385223934340386,1045.2256984844616,1036.5161825020496,1035.2003739882775,1052.1825111264527,-439.14897344557136,-225.9032765412028,-163.61205351963676,-476.16006685016106,158.52571285761033
0.285,0.8217414877440694,0.7935503984253731,-0.5634230150267294,-0.000116105359116,0.0059970893744021,0.0133232396286129,-0.0096242863014389,0.014455280860366,0.9980219731834,0.0604190941637742,0.0178002422502723,-0.0316654385670189,7.957404393710331,-0.0256338903430776,0.0475622743255781,1.0257497502776676,7.3313117068847395,-3.481364270807098,0.9410848162907068,1044.212298722575,1036.1757539965868,1034.8651692911844,1051.1434328732244,-400.6708780794266,-58.78784660449122,-125.1193356740258,-390.23814258862296,158.5294084704032
0.2875,0.9314369599285386,0.8214520223547112,-0.733172594111199,0.002887419681211,0.0089397670399316,0.0100956219954145,-0.0096413218950772,0.0144670834723366,0.9980232125199496,0.0603930572040434,0.0158219360906913,-0.0308992282558803,7.944298923663688,-0.0251191788462952,0.0471182885379764,1.021124730242192,7.331313694548054,-3.4814062077236287,0.9436375360949312,1043.2223440940645,1036.222243269027,1034.5747773099076,1050.2313204135098,-323.14562667866414,77.35955800171801,-101.88299207775448,-291.25273941886303,158.53378455077083
0.2899999999999999,0.9701677480235265,0.7970038982846896,-0.799585241173735,0.005705634162155,0.0113979923587506,0.0066859265505024,-0.0096626971835478,0.0144776409860181,0.9980246248178676,0.0603637562763641,0.0133244823419294,-0.0305681646898605,7.931252900663902,-0.024622215277535,0.0466837026137174,1.01649026746203,7.331314618684013,-3.4814473718854244,0.9461807201262395,1042.5965705891815,1036.5625517865951,1034.3557543307957,1049.68716917613,-212.55610260596077,174.68856892628716,-103.93541932026088,-196.7313351770392,158.5373836336813
0.2924999999999999,0.9499811017539898,0.7277383741720242,-0.7707100017253458,0.0084851215147431,0.0133825053177358,0.0036704420261727,-0.0096883757118619,0.0144870185176229,0.9980261120850528,0.0603328095669307,0.0103319611701236,-0.0306962061570019,7.918148949695061,-0.0241448963845567,0.046255952371966,1.0118427535220564,7.331314761830485,-3.481488327706571,0.9487153189677786,1042.1595635810347,1037.0956861136583,1034.0551002133063,1049.2476637376246,-162.99237181533485,246.37805974762136,-177.94702256146576,-201.0821046333147,158.54093489842725
0.2949999999999999,0.8636442593687942,0.6053597220527375,-0.6342653670078178,0.0113586303502408,0.0147650906436155,0.0010591092939142,-0.0097152045747897,0.0144963665661736,0.9980275325660156,0.0603027869318633,0.0069265690219736,-0.0312784466410989,7.904876261676547,-0.0236826262219688,0.0458341529867569,1.0071778166372232,7.331314454985425,-3.4815298320421695,0.951241082975878,1041.781608730105,1037.7944420853335,1033.4660192179883,1048.6817586529635,-130.80729283788048,240.6711419283963,-272.99283262645963,-235.0893970249215,158.54514296502393
0.2974999999999999,0.7492775785003574,0.4777880952066801,-0.4532452402446942,0.0132212875356771,0.0153940528379232,-0.0002832363841398,-0.0097421275333776,0.0145074097824725,0.9980287214788812,0.0602761604427599,0.0031655928179674,-0.0322931140479343,7.891333277819815,-0.0232348549964663,0.0454175867063358,1.0024905837213467,7.331314183779026,-3.4815725140704235,0.953757415661173,1041.505527116845,1038.2990418233005,1032.690136050174,1048.0722167525,-126.40055431716053,156.31613172022284,-388.14778907712895,-290.64327158494024,158.54860633544357
0.2999999999999999,0.6032551382552348,0.3228015946181573,-0.2273694152886631,0.0145711483315,0.0163006491752545,-0.0009416507251448,-0.0097709553393096,0.0145204584880949,0.9980295324642868,0.0602549765787633,-0.0009295226371025,-0.0337327645795466,7.877429964810599,-0.0228064069853123,0.045001895336354,0.9977762301318668,7.331313939537962,-3.481616486891912,0.9562634538175356,1041.1496059585193,1038.5760227439343,1031.5252802726027,1047.2285422950388,-173.58064008112692,53.44925372351094,-538.6218432999608,-382.67958638439234,158.55202593555373
0.3024999999999999,0.4382985178367293,0.1395221341084846,0.01762607755018,0.0156999286168805,0.0175438315129687,-0.0011605247638316,-0.0098017233634935,0.014534841011083,0.9980299400288803,0.0602398050236427,-0.0053014270010122,-0.0355925690971338,7.86308939436559,-0.0223983008545469,0.0445809025799474,0.9930304042591834,7.331312854095558,-3.481661617443217,0.958757908368601,1040.6376239164397,1038.566288091918,1029.9970268336742,1046.158818820578,-259.52086607721844,-91.68731754039064,-698.6893312004207,-480.2670956786637,158.5554100001718
0.3049999999999999,0.2565766287082466,-0.0798412025859189,0.2652586640023359,0.0166909067232065,0.0185783438800256,-0.0008968966318249,-0.0098342131409467,0.0145501262356772,0.9980300216659304,0.0602294977819082,-0.0098832392522983,-0.0378525686945414,7.848248419868303,-0.0220110800873174,0.0441492036959489,0.9882491709661002,7.3313103159937825,-3.481707711018189,0.961239624123727,1039.8520016281332,1038.1175861562326,1028.0318336166004,1044.8272068166455,-419.7022628516148,-313.48472342110625,-951.1090297068669,-631.4229274832081,158.55875193295367
0.3074999999999999,0.027701459919947,-0.3708337082850048,0.5385838808066002,0.0172801386786017,0.018912900348328,8.297138748471887e-05,-0.0098670425560946,0.0145659019008176,0.9980298633411324,0.0602229568544675,-0.0145851766391001,-0.0404807904235456,7.832858200299552,-0.0216431157753701,0.0437020832261129,0.9834290305724662,7.331306059883185,-3.481754277172653,0.9637082867284688,1038.5391126021816,1036.9988644748123,1025.24148168514,1043.001704183162,-540.6225292644644,-508.6085418138732,-1075.720697010296,-689.3045599056217,158.5627141988532
0.3099999999999999,-0.1634761230249662,-0.6136361941595224,0.7251537313511096,0.0170362558256288,0.0181168204335668,0.0016173899947741,-0.0098986428355253,0.0145793514061126,0.998029515311154,0.0602202891499145,-0.0193088775496982,-0.043473110935324,7.81688446171019,-0.0212922658819823,0.043230889955196,0.978566970117676,7.3313001318947775,-3.481800356968245,0.9661644426980052,1037.1488889818108,1035.5745434471633,1022.653230131549,1041.3806840171171,-602.5983322646873,-661.4928664879238,-1060.4391334996071,-644.249524115184,158.56597631435793
0.3125,-0.3445101266952022,-0.8198767505168125,0.8427258428607004,0.0161264035171108,0.0159922888243995,0.0040769558727489,-0.0099276230252263,0.0145867346839253,0.9980289764094255,0.0602226528145982,-0.0239559649982305,-0.0468318208771443,7.800306903114822,-0.020956626432307,0.0427261553859651,0.9736602134024352,7.331292460323666,-3.4818451758749926,0.9686089196532423,1035.526120940858,1033.691400142373,1019.9392860176418,1039.780456562586,-739.2979653891864,-906.7505414615872,-1186.1705967698742,-673.7143255595123,158.5691973064762
0.315,-0.5416435889500302,-0.982919734580126,0.880357988023846,0.014822764368872,0.0120305986070175,0.0079966587504285,-0.0099541175899812,0.014584346010954,0.9980282846619614,0.0602302969051174,-0.0284516841635134,-0.050553890336775,7.783118277949309,-0.0206369690838771,0.0421794245488696,0.9687060895863882,7.3312831279902655,-3.4818883423287548,0.9710412314084724,1033.452399154865,1031.0407907398553,1016.7223771476996,1038.0121123893196,-757.631501775358,-1007.6581334129504,-1146.0346179741227,-610.6005478424771,158.57301518948555
0.3175,-0.6852769312867845,-1.0284647325148446,0.8207133113055435,0.0137702584585937,0.0081143621265014,0.0115215906444567,-0.0099786864136998,0.0145728119918447,0.9980275527934545,0.0602410991661475,-0.0327336032236184,-0.0545653967066331,7.765323161506036,-0.0203347948895086,0.0415916506177229,0.9637017667476456,7.331272455243939,-3.4819296951966927,0.9734617004684528,1031.7379634319811,1028.653109475308,1014.2091129277712,1036.7274538233737,-656.8477194635301,-951.1479562283504,-940.2698857211808,-469.1072088509368,158.57615761061865
0.32,-0.7999182677608772,-0.9787076824640054,0.6832873539022608,0.012133184386011,0.004643532971275,0.0142493714413012,-0.0100024187571907,0.0145548686171862,0.9980267917949404,0.0602540237369179,-0.0367525573274224,-0.0587587496435438,7.7469372339184925,-0.0200522900171041,0.0409685640461418,0.9586445461376206,7.331260702339171,-3.481969224073712,0.9758708335499832,1030.1681605575473,1026.2850509587136,1012.0210277190938,1035.666576345065,-635.6204645673182,-991.7130411246936,-858.2536199282905,-419.6037484704444,158.57925983815932
0.3225,-0.8898422413901514,-0.8341319009731146,0.4731204197153551,0.0090555668336708,0.0016806115836665,0.0160085028240415,-0.0100253659030965,0.0145324610659274,0.9980259525688354,0.0602693987882582,-0.0404475380452834,-0.0630385988054915,7.7279866121502865,-0.019788859082718,0.0403151323781916,0.9535323196937708,7.331248104824772,-3.482006746793116,0.9782681552765852,1028.5598611091448,1023.6945442696846,1009.9178448281295,1034.6294350810215,-535.2483107586518,-883.0567894709011,-670.0667982120416,-349.66564257024373,158.58293668018797
0.325,-0.9176655318930512,-0.6709947063202301,0.2999993815965245,0.0060333832056019,0.0002188123754134,0.0163271456373348,-0.0100470290812623,0.0145066522859704,0.9980250699944986,0.0602864737827048,-0.0437556029791873,-0.0673257133079452,7.7085064972156285,-0.019541865915907,0.0396353145357435,0.9483637143003428,7.331235369480952,-3.4820423926558806,0.9806525148786288,1027.491919003754,1021.869767011359,1008.6706937280336,1033.9182481322139,-367.9122143318178,-646.9789203735439,-389.8909463735205,-266.51942829603263,158.58596305823204
0.3275,-0.899605202672943,-0.4964408333219732,0.1716124834486282,0.0033937597471304,-0.0004545473537504,0.0156402099690687,-0.0100670918335524,0.0144793632817119,0.9980242624896836,0.0603028858433406,-0.0466268556426212,-0.0715325794660767,7.688539592966643,-0.0193081958334531,0.0389352005342125,0.9431379953970352,7.331223476299779,-3.4820764022023027,0.98302344224138,1026.7203000374857,1020.4596496678168,1007.968390096262,1033.296837939541,-273.62257135146115,-530.3167227221588,-196.34225264455816,-269.2976983504648,158.58895105869055
0.33,-0.8422932485317871,-0.3007961023251929,0.0990495311515971,0.0009947062867088,-0.0007145152838503,0.014076774842667,-0.0100834052665525,0.0144524018737826,0.998023645317437,0.0603166663399513,-0.0489940647437181,-0.0755780607919751,7.66813523205736,-0.0190805568633011,0.0382212420871742,0.9378551888168736,7.331212848848273,-3.4821085555986895,0.9853801602285912,1026.1238061469967,1019.2181833977482,1007.6889824648108,1032.5717596404616,-167.10724233494133,-395.72728159055225,-28.669059213166268,-272.6350791625007,158.5924931805524
0.3325,-0.7802589078770812,-0.1588699378638318,0.1081164777494312,-0.0005014218316056,-0.0006925768018903,0.0129326629250326,-0.0100947447257001,0.0144279743959995,0.9980232387138926,0.0603271793964362,-0.0508167860578051,-0.0793833382180978,7.647347806290219,-0.0188529895785378,0.0375007705286802,0.9325158248162632,7.33120346768032,-3.4821383332151234,0.9877213491485536,1025.8847638258108,1018.481013259864,1007.8250448001965,1031.9336625437288,-46.3831434433359,-260.3526324490756,99.56078537782096,-270.11058518846744,158.59540930310337
0.335,-0.7173515086871036,-0.0392503465426697,0.1662772073875112,-0.0017977290577706,-0.0005915741459702,0.0130141933094945,-0.0101032807386117,0.0144086792818961,0.9980230657480784,0.0603330754310139,-0.0521200510345366,-0.0828751840045755,7.6262354248757935,-0.0186254912341748,0.0367815689581747,0.9271206138274558,7.331195721329114,-3.482165724178481,0.9900463925115092,1025.89189042978,1017.9164202355028,1008.1867863917,1031.2212067145192,39.27556245007505,-220.3325283013781,157.1555658362284,-299.42838726883537,158.59828861802094
0.3375,-0.6583717144828949,0.0674798086552799,0.2369053341805364,-0.003132583037158,-0.000481788004753,0.0141881509386055,-0.0101074973073906,0.0143937950710841,0.9980232455577184,0.0603328172835236,-0.0528831173581545,-0.0860362345690468,7.604860560707326,-0.0183906320028225,0.0360656147599851,0.9216705992022984,7.33118947787397,-3.4821908782887347,0.992355454906861,1026.0811416380611,1017.3793506183572,1008.6108226293774,1030.4365206073846,110.33946814077343,-235.10780200672323,157.25683572698003,-330.16920972340785,158.60113696429354
0.34,-0.603787704381423,0.1685541898813059,0.2917666804214467,-0.004540546991805,-0.0003576173715473,0.0159632187100407,-0.0101042251641297,0.014380516741717,0.9980238575493148,0.0603263143134118,-0.0530718744423343,-0.088887423965887,7.5832892360429565,-0.0181379249077038,0.0353510692494934,0.9161666016664742,7.331184059522029,-3.4822138994671374,0.9946498949219906,1026.4435877704839,1016.7408812254693,1008.9730705703348,1029.570360665902,179.88188405556667,-333.55490534429435,116.91241344888103,-395.63190723447366,158.60394667074524
0.3425,-0.5392602215469953,0.2949028636304985,0.3181769224783738,-0.0060324288318392,-0.0001134819878778,0.0179052898696384,-0.0100904825134438,0.0143651283090264,0.9980248724223352,0.0603154626643087,-0.0526674040869644,-0.0914710808061018,7.561590457131051,-0.0178575891982007,0.0346341485974302,0.9106088188962094,7.331178611748358,-3.482234459472248,0.9969309628385408,1026.9805510583392,1015.7115760916358,1009.1953846966218,1028.4583610712123,193.6033533886528,-436.57975584699176,31.19811061001198,-415.124274707841,158.60727099514523
0.345,-0.4818328200013675,0.4092183135633897,0.3061250801503709,-0.0069339620257138,0.0002643490110628,0.0190849573075148,-0.0100713650229386,0.0143477485724933,0.9980262393607076,0.0603001965517429,-0.0517887144790306,-0.0937856296692406,7.539834697884717,-0.0175552247221441,0.0339167997906608,0.9049962058106992,7.331173679813126,-3.4822526952027912,0.99919919524055,1027.4116045374271,1014.5579824462342,1009.1290611233848,1027.4947392923627,138.75409904762807,-532.110417679723,-90.9636992778359,-385.32302003154626,158.609999180465
0.3475,-0.4116224417849884,0.5319380331238492,0.268339944336518,-0.0075607155338758,0.0009505429421343,0.0197770106194873,-0.0100539162568912,0.0143307613251715,0.998027907666028,0.0602795860913343,-0.0505958015893067,-0.095803231979644,7.51809502072643,-0.0172402907181577,0.0332041925235357,0.8993269382168112,7.331169929729634,-3.482269401368931,1.0014547969176213,1027.674321553577,1013.0510240032372,1008.7405662002328,1026.5317459710543,36.90592262000788,-742.0543190325809,-253.9929990716016,-411.98352879009656,158.6126796660547
0.35,-0.2944565204472158,0.678328850717865,0.209147514495382,-0.008733573323202,0.0022267479279075,0.0201777322682554,-0.0100441729358494,0.0143158063910843,0.9980297705553804,0.0602539991479046,-0.049239861947437,-0.0975113543770983,7.496447479475888,-0.0169206273387087,0.032499422879327,0.8935989251189236,7.331167426420307,-3.4822854234613807,1.0036974053462395,1027.5961341505272,1010.8477108510712,1007.8590961280267,1025.4348216484125,-123.352098366105,-861.7603857179206,-395.435291936023,-384.1552466560682,158.61583539652474
0.3524999999999999,-0.1540233350787101,0.7860325234812499,0.1582744764151317,-0.0103649729667523,0.003622643227252,0.0202764190646433,-0.0100469531160642,0.0143020001453546,0.9980316667860466,0.0602255125480048,-0.0478563171743204,-0.0989376292731329,7.474970678652042,-0.0166021709493571,0.0318004305975016,0.8878101371440235,7.331165816952627,-3.48230117338274,1.0059269084436515,1027.0575610617468,1008.7422220746475,1006.7633897405526,1024.6109697377742,-343.7554563741777,-872.2898960259814,-513.2138147640997,-305.6146402062299,158.6184096816469
0.3549999999999999,0.0390992945947292,0.8566688827454069,0.1127836831396381,-0.0119724652436249,0.005203273341437,0.0202590407618267,-0.0100598720061518,0.0142896684701383,0.9980336090934684,0.0601942039901141,-0.0464775428272435,-0.1000870988795502,7.453745786737915,-0.0162789472927724,0.0311075120727496,0.8819587320665078,7.33116434455847,-3.482316676899426,1.0081438889185443,1025.8773568686563,1006.4862613709416,1005.2930270542064,1023.9067484473812,-690.4406767336462,-987.1047416617091,-729.1267433537989,-287.56164643202715,158.62092027222707
0.3574999999999999,0.3146874616650221,0.8651881084608098,0.0653215980776175,-0.0124089098978593,0.0077087314770683,0.0202092935323982,-0.0100786602790107,0.0142781563723061,0.9980356446849968,0.0601601353731947,-0.0451081015265498,-0.1009786828019755,7.432854475554622,-0.015942795967922,0.030418955841187,0.8760432931085707,7.331162025484083,-3.4823321328642294,1.0103483943640708,1023.6053576780783,1003.8066983663392,1003.1177560237836,1023.173161505614,-981.5063995516985,-946.820406574192,-860.2532225927907,-263.17250325489545,158.6238521387078
0.3599999999999999,0.5525452440953263,0.7817117880640395,0.0282086410078886,-0.0111807604788219,0.0106310184343848,0.0201918234785583,-0.0100997756153249,0.0142652971784503,0.9980377372642962,0.0601250078280012,-0.0437600434026622,-0.1016542167184779,7.412376944362816,-0.0155880689764172,0.0297300720619871,0.8700631019977065,7.3311583278724015,-3.4823478169454622,1.0125402630898623,1020.9698248708978,1001.7521593380704,1000.9917609412424,1022.5908859311068,-1200.600915780227,-752.4716246433164,-906.1449772249025,-249.73257373303545,158.62622267776052
0.3624999999999999,0.7605671665757011,0.5799933314955315,-0.0137738762461247,-0.0086527880715814,0.013908940695091,0.020227422677204,-0.010121925458431,0.0142504077031837,0.998039781403952,0.0600909481325843,-0.0424752913868688,-0.1021346026608816,7.392389807035629,-0.0152144269814505,0.0290385530428836,0.864018250267991,7.331153308070832,-3.4823637204194915,1.014718637568515,1017.6023530991774,1000.0443402431224,998.5870311376592,1021.9244986369488,-1450.7089493466979,-608.6172053841432,-999.8536135821032,-298.65695767678034,158.62851135352156
0.3649999999999999,0.9218852674261928,0.2779058676515027,-0.0661449848874511,-0.0053783678017998,0.0165823841544995,0.0203077011555471,-0.0101417307856633,0.0142368297449658,0.9980417586387988,0.0600580319273783,-0.041261471602855,-0.1023784753803425,7.372964651247862,-0.0148193487482951,0.0283494765895292,0.857909899723532,7.331146566182816,-3.482379219149572,1.016881736761233,1013.7162801241644,998.7090733111497,995.992492873332,1021.0976011427229,-1643.2731578036723,-434.6863163463236,-1072.2800822195259,-385.52400946577984,158.63072728120218
0.3674999999999999,1.0170448216305283,-0.1235039669399713,-0.1372473649597317,-0.0020720457711838,0.0177184254766519,0.0204138831095841,-0.0101560474886366,0.0142295996027035,0.9980437472675064,0.0600242961708936,-0.0401219864018406,-0.1023191663851616,7.354165523456442,-0.0144018356704073,0.0276710456703427,0.8517404874465044,7.331137739025286,-3.4823935828607087,1.0190279996386726,1009.385987310159,997.8709086613909,993.2256307265615,1019.99687858962,-1945.6843102654807,-256.1685286797453,-1241.2787302238244,-554.2069686768396,158.63284951183107
0.3699999999999999,1.0636701995816165,-0.6676571149439776,-0.2468736911271066,0.0010208639685719,0.0168062774859821,0.0204851740415792,-0.0101637186086884,0.0142332379223329,0.998045837357499,0.0599873827474655,-0.03907749166036,-0.1018989528225835,7.336046593109313,-0.0139649977813074,0.027010655572865,0.8455137144996084,7.331126668956454,-3.4824062504688897,1.021156447293785,1003.9878585728368,997.4282306677512,989.7860992222128,1018.3265662993388,-1961.3705424151233,-80.39556749924934,-1268.583546449189,-664.0783026868115,158.63528002754612
0.3724999999999999,1.060171842963338,-1.12686859970494,-0.3542944567811824,0.0030780524603023,0.0140768341418695,0.0203884312391199,-0.0101653650526401,0.0142499274631334,0.9980479865804645,0.0599473873321413,-0.0381590732600143,-0.1010954740830143,7.318650369997866,-0.0135152416450749,0.0263718789440607,0.8392343857372582,7.331113271680163,-3.4824166069115488,1.0232668224358383,999.5791345980833,997.4689308238945,986.8827129943155,1016.676487076186,-1685.3376832368879,76.26247708399198,-1152.9810361395207,-694.8473555670483,158.63720291352055
0.375,1.0259431644625998,-1.540965328026453,-0.4640098308677552,0.0051358817781793,0.0096619366821132,0.019937708718058,-0.0101583931016115,0.014277545471569,0.99805008332498,0.0599070999224743,-0.0373328948490674,-0.099945825112612,7.302007008027649,-0.0130533791152231,0.0257517667851035,0.8329082832975588,7.3310972203668205,-3.482423973357444,1.0253595142308263,995.5611701566525,997.8095430531711,984.0211940415152,1014.8523295215036,-1623.2459921446875,180.03933992035837,-1228.2881223329002,-814.5862320392773,158.63901286865888
0.3775,0.9553100989581031,-1.9457858686111893,-0.5696417082722547,0.0076957807806015,0.0033816938237561,0.0187125755281837,-0.0101431017998982,0.0143131300918001,0.9980520682659514,0.0598681407593459,-0.0365935865403214,-0.0985011219019286,7.286132565291156,-0.0125848317075642,0.0251460897891085,0.8265414989156936,7.331078489894742,-3.4824283184393905,1.0274348322624547,991.4629046373601,998.3691275234963,980.741272382651,1012.6035559159895,-1357.980619419526,198.56803275006297,-1159.8721338180655,-815.1465185836735,158.64104755695814
0.38,0.8714711875039362,-2.193187335099583,-0.6097331608714405,0.0099765642458308,-0.0022081041921054,0.0169433376915263,-0.0101215907007619,0.014354731439884,0.998054027453271,0.0598291674476858,-0.0359507193195768,-0.0967987871796629,7.271028885115857,-0.012117463272428,0.0245523378553903,0.8201401233805073,7.331057801647277,-3.4824302937742626,1.0294929453855384,988.7712670595549,998.8023832169213,978.2218333724248,1010.7765969285851,-917.2218838137944,129.8519633137174,-942.1729791040652,-704.6932320292847,158.6426244447051
0.3825,0.7600929716751395,-2.3461619877995066,-0.5700966961732807,0.0122827867481314,-0.0080367309242052,0.0143622647791076,-0.0100948956964414,0.0143995537449761,0.9980560686204112,0.0597888694794761,-0.0353862970121092,-0.0948871670096518,7.256684364996169,-0.011656434695825,0.0239667139103184,0.8137102122780837,7.331036120502338,-3.482430304652512,1.0315338733540944,986.876795218291,999.0183873400649,976.0304074871306,1009.0800897558432,-659.1731048615651,10.642963545660669,-865.8901233787211,-708.9355856823424,158.64407368784424
0.385,0.5975314328840498,-2.4307512177727406,-0.4119705893919198,0.0145501159349381,-0.0149713398012102,0.0108273455836028,-0.0100612499622945,0.0144428352691029,0.9980581827461896,0.0597488264771792,-0.0348303134122887,-0.0928400460212237,7.243075199660013,-0.0112012652326213,0.0233824072929135,0.8072576801012658,7.331013567887601,-3.482428594120884,1.033556771395421,985.4754015352468,998.8555980346496,973.8923827555312,1007.2319190001734,-385.005082459838,-145.34455990294632,-689.6265365694939,-648.3903661145172,158.64566089991388
0.3875,0.4445691085957703,-2.4295396760162173,-0.1953578009351376,0.0157914332966004,-0.0204941581030108,0.0083680915148482,-0.0100199159807881,0.0144817445801378,0.9980602446386492,0.0597119212712268,-0.0342226172857773,-0.090703443964883,7.230166374955677,-0.0107523780724857,0.0227955056752566,0.8007877821950862,7.330989900210562,-3.4824255320299504,1.0355605948781423,984.9517698059918,998.2916645405504,972.5822748042832,1005.8381379252704,-100.8457834891714,-317.8379788232175,-419.2217465221798,-535.5151758987627,158.64685442534184
0.39,0.2833888373161341,-2.365098562419293,0.0716648161706301,0.0163210115090583,-0.0259758026991539,0.0075463639955662,-0.009970640962379,0.0145156118959925,0.9980621646441808,0.0596798485519664,-0.0335082874815418,-0.0884919984767261,7.2179138160695615,-0.0103100361859075,0.0222052680644284,0.7943047767173621,7.330965413216445,-3.482421695121564,1.0375455259684825,984.9711726178012,997.2664081405337,971.7962740229203,1004.5543431206796,78.37894105969092,-477.35947955145514,-229.37750066203057,-503.3281393328248,158.6479114689267
0.3925,0.1209027328336676,-2.2534097547889576,0.3365965549872702,0.0165293250598552,-0.0316094282989427,0.0084834012131748,-0.0099141936781327,0.0145443291790015,0.9980639691669824,0.0596520647104431,-0.032646898988434,-0.0862125905209258,7.206266900472205,-0.0098749113964967,0.0216114445580383,0.787811597455747,7.330940935060362,-3.482417591131735,1.0395125249139618,985.3436645112903,995.9048671427929,971.4353873009729,1003.3214972286064,213.2877489530072,-602.223594773522,-52.24145588149435,-489.64910795757487,158.6488540086584
0.395,-0.0409847318693946,-2.0902619665259503,0.5443743998681627,0.0166141995190132,-0.0372520054224777,0.0111145155462757,-0.0098537924672791,0.0145688490180545,0.9980656161676682,0.0596285056596961,-0.0316356494257911,-0.0838582778699121,7.195171130334328,-0.0094503744735369,0.0210149685556502,0.7813094989004595,7.330917448910288,-3.4824132929390874,1.04146354600767,986.037611362566,994.2552901666659,971.5350667435127,1002.1060975808916,358.46823967701727,-751.6194310298935,129.76804476541008,-539.2879664196694,158.64965745605667
0.3975,-0.2341769280146929,-1.8482622335308996,0.6782251725695447,0.0164781004630972,-0.0432082967556809,0.0148041631780566,-0.0097907758184309,0.0145906938558111,0.9980669826918354,0.0596106352798383,-0.0304490260766937,-0.0814116730591731,7.184571658887456,-0.0090357532365595,0.0204176656173324,0.7747980607001627,7.330895492825613,-3.4824088491649006,1.0434005486974478,987.1360057096751,992.1467699876436,972.0842275248002,1000.625057396508,435.74139396789593,-761.9223575243034,255.52926462025857,-551.520901402318,158.65046022099995
0.4,-0.3924207831038842,-1.6230615250182234,0.6797010846306655,0.0159936276758315,-0.0469785748262576,0.0174640283720106,-0.0097279249880259,0.0146112697891039,0.9980680163066262,0.0595985341530317,-0.0290887689078541,-0.0788578671402914,7.17441573781234,-0.0086316912238487,0.0198209931372617,0.7682753497655571,7.330875432863007,-3.482404264912829,1.0453249152031838,988.2163183324056,990.4456783790445,972.812713066614,999.34849307388,456.3330350772045,-632.9318482835782,326.9006683586892,-524.4626721359505,158.65099483274983
0.4025,-0.5418116412277615,-1.39028135430248,0.5724950587155364,0.0148505322739604,-0.0496162323979745,0.0193307888251877,-0.0096687508443234,0.0146317935999067,0.998068802041912,0.059589918000925,-0.02757535936221,-0.0761851174946375,7.164655325461667,-0.0082392882670508,0.0192261365435572,0.7617383789107895,7.330857219043907,-3.482399288461061,1.0472373116877376,989.4176708850613,988.9821107462255,973.7187308665935,998.0027440358285,546.2553868953586,-558.9037069888941,417.90215418163785,-613.8473100417281,158.65139075080793
0.405,-0.7015908918123379,-1.1079433128316127,0.3395673743034787,0.0125946864577435,-0.0521432998828342,0.0206956860367693,-0.0096152790116172,0.0146524355044599,0.998069514077698,0.0595815196558803,-0.025916534526425,-0.0733955234139692,7.1552493815675,-0.0078570308658275,0.0186330369463478,0.755183769348086,7.330840938481643,-3.482393516125159,1.0491373018476224,990.9475952668824,987.6511598441001,974.9022238375225,996.2792565236717,566.942911237606,-405.92055404256337,436.2868626568566,-653.5079248379809,158.65170718856592
0.4075,-0.8147046807324622,-0.8616924047942385,0.0769660985500115,0.0103874670546486,-0.0542419865318641,0.0212115256577427,-0.009565671256062,0.0146725188151224,0.9980702627771252,0.0595719797363731,-0.0240738515893123,-0.0705004318272613,7.146165463528646,-0.0074777545679293,0.0180410297301059,0.748608378246633,7.330825906135328,-3.4823866836456063,1.0510231379788106,992.2523854412494,986.9525079760128,975.9001651798777,994.7352044116385,514.1831145662304,-194.78486291268365,388.1002013343274,-641.4626824905092,158.65184041252834
0.41,-0.9093171679058524,-0.5844226556250811,-0.23479559954928,0.0083561484832115,-0.0566864254994622,0.0211367452603704,-0.0095157864564953,0.0146889869667773,0.9980709828257018,0.0595638333633228,-0.0219837992834214,-0.0675439639225862,7.137380328198369,-0.0070913845690924,0.0174464993394623,0.7420097833945168,7.330810974312624,-3.4823784363919486,1.0528928497536083,993.5185108397137,986.6772355295363,976.8427248441939,993.0719431112188,526.6802118126628,-40.21814537509268,389.3520708213824,-755.301482879417,158.651840906092
0.4125,-1.0080249181854444,-0.198276890668167,-0.639061322816537,0.0060057362081978,-0.0597014582735926,0.0202425318786431,-0.0094651290874593,0.0146981269508383,0.9980715832324139,0.0595596119167509,-0.019644283406372,-0.0645839515412341,7.128879349626374,-0.0066940658306993,0.016845011955701,0.7353863444717142,7.330795469150471,-3.482368245767039,1.054744794194978,994.8857865003127,986.7514172491373,977.8469255339847,990.9586969972413,457.60574298287753,73.34285509839438,339.5161941968806,-786.4417901120524,158.65169192460272
0.415,-1.0801633884365571,0.1643821515276833,-0.978621436865958,0.0038795996356363,-0.0614555633292869,0.0186242783481724,-0.0094140014643025,0.0147003696432504,0.998072152082117,0.059557682366048,-0.0170775529133111,-0.0616218446173391,7.120656156487934,-0.0062841621312654,0.0162385138220797,0.7287370391839578,7.330779332368831,-3.4823560588355726,1.056578226655322,995.8065395546282,987.0439498050284,978.5403058151786,989.1397341606587,300.1383349719648,133.1499432168143,240.60138978579988,-723.8153085010099,158.65144631428527
0.4174999999999999,-1.1386809526947523,0.5379347452073431,-1.2895693384377749,0.0015289553287513,-0.0612579336075657,0.0158343478890763,-0.0093637591908045,0.0146973665052203,0.9980728075282288,0.0595554407258737,-0.0143295921338346,-0.0586450383226717,7.112712128013595,-0.0058623096822625,0.0156306969966999,0.7220613723185744,7.330762692603537,-3.482342036577448,1.0583933612625755,996.3864781751724,987.4171669652214,979.0499324829136,987.3396204547363,160.11841315680775,138.25906501338207,170.0308831471847,-701.258607894836,158.65107866437896
0.4199999999999999,-1.1794317876667448,0.8815165148612317,-1.551784656267176,-0.0010394278006939,-0.0590392702395028,0.0120194844158482,-0.0093137914660501,0.0146880966268436,0.998073508459694,0.0595539091235507,-0.0114219961834585,-0.0556795986664645,7.105056131619271,-0.005426690142716,0.0150215055927991,0.7153592832322944,7.3307451024268575,-3.4823261615996,1.0601905879409184,996.607131620412,987.7352451300953,979.3904602309144,985.6334411211843,-11.331753803187883,89.34888423414115,93.90309246634834,-639.0619707758782,158.65061296587945
0.4224999999999999,-1.1872990590867452,1.140982322528135,-1.728863423582128,-0.0040510256424269,-0.0549126890036153,0.0073784486513179,-0.0092617093545065,0.0146730847979392,0.9980742045489364,0.0595541558984865,-0.0083573904213756,-0.0527306575374333,7.097703071272231,-0.0049736695912832,0.0144131393620174,0.7086307992048279,7.330726193597907,-3.4823084561433526,1.061970927496168,996.3298194061566,987.863911386392,979.5194479452455,984.144310600857,-242.43472655552955,-6.808453301118782,8.6685757039504,-580.9384464384942,158.65003302405083
0.4249999999999999,-1.144473628140367,1.3164118556125415,-1.8204533045350169,-0.0082010902968993,-0.049185921979913,0.001644498301946,-0.0092092639112046,0.0146520204105739,0.998074859443494,0.0595565620795597,-0.0051998825992023,-0.0498212213970061,7.090672490830848,-0.0045058866037129,0.0138060060718941,0.701875975049498,7.330706053335403,-3.48228933842361,1.0637348280966823,995.3949579876344,987.7012028635897,979.4338031094339,982.728748888992,-436.9911069604764,-116.16148056446026,-69.68166245592323,-444.36726292624326,158.6492103996368
0.4274999999999999,-1.0609627309510987,1.345755050152183,-1.7882463911796809,-0.0117082477982465,-0.0446817207092649,-0.003097689536109,-0.0091579596155946,0.0146252520824299,0.9980754841428016,0.0595605936075562,-0.0020125218097037,-0.0469671149498984,7.083987575654619,-0.0040258893141936,0.0132011651453964,0.6950949190442167,7.330684972797094,-3.4822694778252647,1.065482364494239,994.1448638713542,987.2831039835697,979.1710396329657,981.9224742862256,-578.6962209293273,-218.0851630230561,-142.28508636808772,-237.47695418385297,158.64842339159873
0.4299999999999999,-0.9356587361318328,1.275875048852084,-1.6421481436196244,-0.014581102134723,-0.0412409640673056,-0.007848677303906,-0.0091070687341404,0.0145944784901711,0.9980761088651448,0.059565415239801,0.001171638369483,-0.0441653180752796,7.077673791299749,-0.003533400154892,0.0126014026361961,0.6882878718974831,7.330663262757223,-3.482249312401733,1.0672137051348076,992.5014768829875,986.6107770484743,978.7223776775936,981.5413641180728,-780.3201035230807,-333.94080904274654,-236.7140486467404,-71.02233458060704,158.64753612024967
0.4324999999999999,-0.7603198749173959,1.1200634532696825,-1.345419732978492,-0.0168064044193323,-0.0385249125075651,-0.0131434813458102,-0.0090549870839442,0.0145607540410365,0.9980767525287076,0.0595706840114026,0.0043333220562615,-0.0414230036968436,7.071757490618968,-0.0030271261813947,0.0120083886692238,0.6814553601513813,7.330641260042813,-3.4822289527371133,1.0689290088398606,990.2432633537388,985.613399938356,977.987469389732,981.5673626133225,-847.4580081106061,-378.35643199909975,-298.0934986377403,82.33711190032403,158.64636159334455
0.4349999999999999,-0.6127733802221984,0.95934608498462,-1.0150918822392647,-0.017807337438955,-0.0370392037970619,-0.0165616130188588,-0.00899916444586,0.0145255539606808,0.99807738445527,0.0595769405085313,0.0074682789414084,-0.0387420573484863,7.066264234955895,-0.0025048427849563,0.0114242727282322,0.674598305202873,7.330618778423683,-3.4822081678928254,1.070628174670558,988.2641868424347,984.7189948884791,977.2319101844048,981.9530496775744,-779.4808641088133,-348.32014310807125,-324.2876744701104,213.81829866795647,158.64529579414602
0.4375,-0.4800126914025644,0.7876594752807046,-0.6318476082299563,-0.0186608565105634,-0.0355860654038589,-0.01854234471076,-0.0089381622157258,0.0144898275560357,0.9980779669112942,0.0595848150428148,0.0105600249167838,-0.0361339288027303,7.061217242525048,-0.0019661601378968,0.0108503193149843,0.6677181907610006,7.330595277899875,-3.4821865451273335,1.0723109554354575,986.3458590331949,983.8717992228156,976.3660310173816,982.6364541066624,-800.4717831727696,-341.8854301219196,-394.08229559473926,344.4589050746342,158.6441448295305
0.44,-0.3454729735801164,0.5763799557873561,-0.1558263581277493,-0.0198032355393534,-0.0337209186188393,-0.0193808690951486,-0.0088704014571353,0.0144533887168399,0.9980785684867214,0.0595934679291817,0.0135988817094173,-0.0336269975185843,7.056636025434281,-0.0014107403769838,0.0102862837473415,0.6608172201280877,7.330570538114547,-3.4821638942222752,1.073976961060369,984.2618279265708,983.0095677378695,975.2614987064312,983.6753442029477,-713.8530294228751,-282.8570330894761,-405.2025564316406,396.73974324173247,158.64267094548512
0.4425,-0.2564844728930979,0.3965422472541275,0.2227721669390385,-0.0205226572527255,-0.0322455701749463,-0.0190644625861151,-0.0087963694025208,0.0144173266635556,0.9980792490828516,0.0596016006756298,0.0165497214192507,-0.0312340595075227,7.052534617031276,-0.0008413331043773,0.0097334850587986,0.6538983585035318,7.330544796939473,-3.482140214698783,1.0756253944432228,982.7765938860803,982.4575140573684,974.3400182352234,984.6201528228712,-534.1055296640429,-186.67706855940176,-355.4502572036196,369.91081743640245,158.64136945074773
0.445,-0.1942839203324618,0.2153927359343835,0.549392948312746,-0.0207751993053097,-0.0311876911390636,-0.0179662797107404,-0.0087215101598291,0.0143824056558667,0.9980800039162716,0.0596083504282011,0.0193133159417405,-0.0289769117687879,7.048920609439837,-0.0002671818877134,0.0091924336344262,0.646965389451634,7.330518379126944,-3.4821153106329445,1.0772547439940576,981.5913002782505,982.0761823950724,973.4842474204131,985.5248982901296,-423.8565256555599,-130.70439800317203,-321.824783551028,339.5832402613675,158.63999651078527
0.4475,-0.1548053386659492,0.0390915319481263,0.8107907831989543,-0.0207974408402931,-0.0306720035794418,-0.0161115523652682,-0.0086541130648768,0.014350046819294,0.9980807458756286,0.0596136403532403,0.0217556903461476,-0.0268703291786482,7.045794328459973,0.0002989728359216,0.0086642558003117,0.6400227644203045,7.330491209394348,-3.482089064768152,1.078863944716258,980.6573112578023,981.8039920673523,972.7308943174681,986.3180690241779,-316.615348931941,-94.82951316545032,-266.2498009883618,277.18937491854354,158.63856761369456
0.45,-0.1383673393071762,-0.1201240324377611,0.9699971338448972,-0.0208037857698158,-0.0308965719601269,-0.0131916288234296,-0.008594363335322,0.0143188619091632,0.9980813267626432,0.0596202211028804,0.0238651969308596,-0.0249609648662478,7.043149054304268,0.0008552253616937,0.0081470621254062,0.6330753186596798,7.3304625428655585,-3.482061251873123,1.08045289510083,980.0082235335907,981.6020348292451,972.1529984154712,986.9108451647224,-227.67300443192633,-88.21471207188544,-203.04571841215855,205.86976099496025,158.63707505326607
0.4525,-0.1326230272830278,-0.2764884620270493,1.0231202136333484,-0.0210123996296809,-0.0320073528863386,-0.0088654413882856,-0.0085405356192973,0.0142854997987673,0.998081595796188,0.0596316402157314,0.0256642041224535,-0.0233203110086121,7.040970847562634,0.0014022111393178,0.0076365922168767,0.6261278128236837,7.3304319410450365,-3.482031916571348,1.0820222937852333,979.5189462356428,981.362918506993,971.7156657254073,987.3474178291528,-138.57306660227084,-94.20518266538227,-113.24524733272472,113.14294105425223,158.6352150711311
0.455,-0.1268547104538851,-0.3708885032996067,0.9519773428063688,-0.0214190986357545,-0.0335055878366733,-0.0052827937108589,-0.0084910558878234,0.014249361577039,0.998081571487354,0.0596479373560419,0.0271755932741946,-0.0219801431804612,7.039238473437037,0.0019402113311333,0.0071318597842056,0.6191844841317744,7.330399685461998,-3.4820015525326133,1.0835728257169372,979.3153582005796,981.1310089159184,971.5867721788077,987.4765598699937,-49.66694931351863,-99.82048150343408,-3.2938109657379724,5.756884497441201,158.6336107850212
0.4575,-0.1046218057249348,-0.4295727328779595,0.7806960627358162,-0.0220070432874698,-0.0351753176475037,-0.0025025007980739,-0.0084452221491833,0.0142129444460149,0.9980813653607284,0.0596667414362215,0.0284118691390394,-0.0209277019253201,7.037924493164508,0.0024684191299853,0.0066352742781768,0.6122487803260175,7.330366128666109,-3.4819706359392555,1.0851047969551737,979.2706114890752,980.863816099476,971.6991966705789,987.37620225164,2.8500451611989748,-117.38636614761607,95.87293715064781,-90.8909687158938,158.63195332212163
0.46,-0.0453171320402009,-0.4754282856596687,0.5024476491096994,-0.0227047522888118,-0.0364969787093391,-0.0004051427355912,-0.0084027478945251,0.0141789507078657,0.998081038316188,0.0596864314483951,0.0293833626794644,-0.0201450104102976,7.0369973134928605,0.0029858914968935,0.0061490159926779,0.6053232065127734,7.330331532292275,-3.4819394225810374,1.0866187940186944,979.3296084263856,980.5440770851801,972.0661368645608,987.0221050264141,29.996942476964225,-109.21220621830788,161.01573792589065,-163.46572170875774,158.62990586373576
0.4625,0.0362036660856824,-0.5105015671134416,0.2479069561534191,-0.023271497883537,-0.0368030881421603,0.0003621416251687,-0.0083612345584115,0.014147122105157,0.9980805339448212,0.0597083467834832,0.0301355325483459,-0.0196503863570796,7.036423598052382,0.0034949041338046,0.0056715148937208,0.5984092102185036,7.330295822173815,-3.481907813268935,1.0881156223889383,979.42059620146,980.3177550683844,972.5042753602081,986.558873643096,35.77173085295723,-76.15041857275166,183.51845622769343,-214.34800928279836,158.6281525942228
0.465,0.1489743943271237,-0.5559619888884952,0.0153705439419356,-0.0238817747126621,-0.0370701781324146,0.0002590452180382,-0.0083203756334296,0.0141163133764158,0.9980798680992296,0.059732535859935,0.0306870178205843,-0.0194728859575079,7.036170042445479,0.0039957117899985,0.0051997991074957,0.5915071278139623,7.330259284272678,-3.481876106143319,1.0895951098688543,979.5084670806503,980.1633249923165,972.9837291456992,985.95036498,35.506418480986184,-53.18432480805763,195.57697020127287,-295.64571951484567,158.62635195778168
0.4675,0.303329803121312,-0.6188710115790166,-0.1912495865192214,-0.0242617818493591,-0.0380714403856029,-0.0007302744720578,-0.0082804111022214,0.0140876399731655,0.99807915619894,0.059756774965665,0.0310477073472355,-0.0196065735715108,7.036204927959828,0.0044882754829849,0.0047334046717204,0.5846161507370792,7.330222788814593,-3.4818446213193415,1.0910576008844013,979.5981282938653,980.051833444344,973.4821602112146,985.0806450455219,35.32090636570044,-36.750055702145765,152.79129613402333,-337.95548712660064,158.6241374564858
0.47,0.4233430283384834,-0.6646049842730515,-0.27577912336205,-0.0236799790933132,-0.0394645549744178,-0.0021868447931337,-0.0082402060456052,0.0140628213221969,0.9980785105915002,0.0597789469016528,0.0312462757295182,-0.02003165084995,7.036500267644445,0.0049745783814862,0.0042725922486293,0.5777343613295693,7.330186903335229,-3.481813158973495,1.092503987854126,979.6850716124787,979.9795747138056,973.7476856263696,984.2605875443672,49.979673311941,-40.67863682989806,59.89849222448806,-340.838839107914,158.62224755629555
0.4725,0.4958616269596154,-0.6813957218674008,-0.2493946497381821,-0.0216870777545836,-0.0414053973371057,-0.0040925176024734,-0.0081969984454694,0.014040821076853,0.9980779596807842,0.0597992122822111,0.0313358488721685,-0.0207610527738322,7.037033918620844,0.0054589003757963,0.0038146397506086,0.5708588666164968,7.330151691523955,-3.481781234411789,1.0939354446381688,979.8480266604248,979.8484402601946,973.7816526723369,983.3764508499823,89.34422759593862,-75.9731462246463,-29.72134767928762,-356.6194766697432,158.62031132775888
0.475,0.5032207682019681,-0.6586395543192554,-0.1294783855166652,-0.0187604431157552,-0.0435705727620066,-0.0060006473289145,-0.0081473275746957,0.0140198637785546,0.99807748581455,0.0598187773948168,0.0313786851124813,-0.0218130742787083,7.03779036414873,0.0059463055625588,0.0033562699262337,0.5639860432743083,7.330116463446661,-3.481748207100525,1.0953529562295363,980.1317927504584,979.5997089826824,973.599078887973,982.4774901610184,154.174197825523,-141.76878032094453,-121.5863839836628,-351.2965703527013,158.61833626677776
0.4775,0.4205641281131088,-0.5760944365003934,0.0847237939326257,-0.0157538125535786,-0.0455966582912393,-0.0071676355480811,-0.008091880761188,0.0139994020867412,0.9980771265665156,0.0598370653140075,0.0313760002738973,-0.0231882816723656,7.038760959336919,0.0064368877621607,0.0028954912075992,0.557112006004094,7.330080771793066,-3.481713977530722,1.0967566653081342,980.6188976495523,979.1395963585898,973.1737207524188,981.6199679982188,267.8003657985328,-260.81331063562897,-227.1240002550053,-352.5185325646625,158.61631373078586
0.4799999999999999,0.2380712665808659,-0.4032311950331224,0.4024251335945422,-0.0136186294279526,-0.0476011326369797,-0.007077999472563,-0.0080340173364585,0.0139812064327136,0.9980770358082962,0.0598506400331774,0.0312875888213155,-0.0248532711113316,7.039943613672354,0.0069275043372146,0.0024327464134989,0.5502331244281954,7.330045137517523,-3.481679352515133,1.0981470704998848,981.4707945794513,978.2956424295044,972.4634588866979,980.7148974981952,353.89958219005075,-356.8585928296252,-276.1384390685663,-303.75621400058066,158.61383087687733
0.4824999999999999,0.0520450912261301,-0.2015791589017904,0.6710821865574786,-0.0136551405162973,-0.0489313751218583,-0.0056318869387931,-0.0079761705536285,0.013963593749442,0.9980772920688092,0.0598582413411422,0.0310874855824302,-0.0268183566596519,7.041342828472501,0.0074162011787846,0.0019648476876336,0.5433465653943289,7.330009695397872,-3.481644618560641,1.0995230628650547,982.3883955605025,977.3553033944416,971.793028557076,980.101186928216,397.7074195101974,-412.9481500093103,-261.4308741474813,-215.34516302112917,158.61171459325143
0.4849999999999999,-0.1220854820168505,0.0462897224023886,0.8857961565781327,-0.0150302615133241,-0.049704545277639,-0.0029710085083409,-0.0079197164878055,0.0139439810282233,0.998077813559442,0.0598616384078286,0.0307639958206964,-0.0291017962152269,7.042967872770047,0.0079020035041889,0.0014880455161393,0.5364507513485589,7.329973872086848,-3.4816095554978497,1.1008822984623512,983.459331677002,976.2309016794578,971.1563045159606,979.6381716830895,483.9379790044172,-509.5707365976973,-249.62583263570627,-177.09815169639552,158.6095483505196
0.4874999999999999,-0.280077428563846,0.3688849308823383,1.024196850637588,-0.0170386482624333,-0.049664048816148,0.0011992874126994,-0.0078667184415391,0.0139210614156076,0.9980784515326764,0.0598633355957092,0.0302936695858907,-0.0317012986279893,7.044830652619906,0.008382749073659,0.0010002988267774,0.5295456233841894,7.329937003614451,-3.481573643502604,1.10222268338998,984.8080854555247,974.8074497114532,970.5448993938973,979.2156961697341,485.8752476959121,-507.632940352641,-188.37665045402883,-141.2613310409596,158.60688996827042
0.4899999999999999,-0.3593967969149234,0.6305406408097519,1.012441697614018,-0.0185471671805272,-0.0486264831874956,0.0052327386395211,-0.0078171024810929,0.013895269452503,0.9980791118371652,0.0598648067622277,0.0296809970117836,-0.0345856399348359,7.046943620495678,0.0088580440894919,0.0005018305883874,0.5226325396472843,7.329898560004029,-3.4815364165896505,1.1035435151757416,985.8887079154816,973.6927369776946,970.2144212636906,978.9318650278847,400.86595449452,-397.43901559882,-92.37898204025888,-106.80165737642244,158.60462471649384
0.4924999999999999,-0.388903308102852,0.8464209239633541,0.8590289492334982,-0.0197488627903524,-0.0463745102395943,0.0093924268714403,-0.0077703094137649,0.0138663362531142,0.9980797650401676,0.0598666827496438,0.0289376783013252,-0.0377307150588858,7.049318118565128,0.0093276740436141,-7.656982018183902e-06,0.5157140350105707,7.329858533086966,-3.4814976460186173,1.1048447261455183,986.8124152279971,972.8202546334592,970.083004483696,978.6816878828519,349.731675340058,-295.5156107952004,-20.896305053270208,-102.007650569385,158.6023065955946
0.4949999999999999,-0.3832084259178142,1.0119040441953286,0.537042416035552,-0.0209383447380796,-0.042347291908704,0.0133277443127684,-0.0077253582421665,0.0138352120371936,0.99808043561033,0.0598684781444341,0.0280804242275004,-0.0410928330219971,7.051962306090764,0.0097915296303734,-0.000527080230903,0.5087934771140424,7.329817006549966,-3.481457473147317,1.1061260438152627,987.637366292182,972.2151589237186,970.109939738424,978.4218267750376,246.89432515042404,-133.89849465509076,28.02256442155337,-81.60644299664446,158.59946267367243
0.4974999999999999,-0.3588307149579685,1.0534182716427347,0.1975936842934592,-0.0218176011985157,-0.0383807931387782,0.0148011589313711,-0.0076812223137849,0.0138024406425277,0.9980811904436993,0.0598691099465464,0.0271272688295049,-0.0446320330385478,7.054879911813451,0.0102494589168176,-0.0010557894213681,0.5018746950082031,7.3297742569416995,-3.481416097968672,1.1073870353231543,988.0468868537495,972.1507621601837,970.2231173058038,978.2736556678686,106.2327272305082,68.72381574560217,46.380012130362,-31.847784326191658,158.5970404435014
0.5,-0.3319044419215566,0.9949149775599148,-0.1456006302797721,-0.0225820720278926,-0.0348310844696418,0.0140144586334574,-0.0076363474650325,0.013767072798478,0.9980820577647578,0.0598685478152725,0.0261054754120162,-0.0483269556998551,7.058069313276041,0.0107019517498108,-0.0015946087496256,0.4949615399663099,7.329730562686061,-3.4813736351115088,1.1086280107990192,988.1685299283344,972.5587780024466,970.341839799076,978.2625878534067,8.60516975537838,233.91761233644675,36.63718929833477,28.112902426891768,158.5945637798851
0.5025,-0.3157980609937972,0.8700963848647388,-0.4401926183350184,-0.0231175933208017,-0.0321385625334444,0.0116327222889235,-0.0075910760433221,0.0137328881169863,0.9980830191473437,0.0598661757752124,0.0250119386423235,-0.0520894926321452,7.061522331744904,0.0111474326870805,-0.002139908999579,0.4880575560559706,7.329685969992274,-3.4813300342595825,1.1098510774591543,988.0899127025264,973.320350221866,970.4063032522956,978.4142201800032,-63.6574991180168,371.91996448264,4.225588099825469,106.91705577405618,158.59204218651402
0.505,-0.3260342978606036,0.6971492834221251,-0.6327270040073318,-0.0233316975393644,-0.0305309978175144,0.0082625204483561,-0.0075459213294593,0.0137007784359766,0.9980840295073872,0.0598624522971103,0.0238438425949463,-0.0558704827060086,7.065225010274954,0.0115845965002316,-0.0026911285861658,0.4811656746727614,7.329640350319954,-3.481285383952774,1.1110569633910312,987.8502424327445,974.4183778248598,970.3629677395751,978.797173132277,-119.04508343795887,532.8295725718585,-44.70231920947749,221.56802360443612,158.58946706973651
0.5075,-0.3779093727122665,0.4761118686445748,-0.7269088996761716,-0.0235540274844638,-0.0295804779448369,0.004433372867399,-0.0075016443886152,0.013670091134261,0.998085050212124,0.0598580609502828,0.0225960812345931,-0.0596410674383845,7.069157715075065,0.0120123061113356,-0.003249351301621,0.4742881492897954,7.329593839667952,-3.481239794323337,1.112245850098868,987.4946872853363,975.9844980847251,970.182791656248,979.5220602980253,-126.49893910856906,595.092860045292,-80.75275342559955,302.9045916211996,158.58631642532245
0.51,-0.4523672440095189,0.3053678750107894,-0.703011137592146,-0.0240615417603431,-0.0293373773966325,0.0020232478576838,-0.0074604219845918,0.0136410238309361,0.9980861091560648,0.0598522127670995,0.0212421739142372,-0.0633601707076673,7.073295500110234,0.0124283987867367,-0.0038150863926287,0.4674266242611415,7.329546780193483,-3.481193448207362,1.1134182801590895,987.2177477372016,977.3938421250864,969.9592039724471,980.3116960903831,-94.59188611933969,562.8513311417585,-90.83892491658128,340.18407542437944,158.58364185799655
0.5124999999999998,-0.5477841712829258,0.1669600419273083,-0.6054824519909237,-0.0251177955141475,-0.029388383955359,0.0005592327564171,-0.0074256293656606,0.0136133625611947,0.9980872331877532,0.0598440862778384,0.01973806715747,-0.0669921004425977,7.077609036237577,0.0128300956937262,-0.0043894021862588,0.4605822123200593,7.329499575482439,-3.4811467323552066,1.1145750399133094,987.0217278547399,978.7987547404341,969.7285970316652,981.2229806751473,-61.40688907755697,594.1550918211755,-84.38469858926956,409.8464865613547,158.58091850835197
0.515,-0.6668155741898762,0.0458078991594538,-0.447578477509286,-0.0270007295828787,-0.0295728947254675,-0.0003261571173227,-0.0073972536890863,0.0135843579478222,0.9980884377207312,0.0598340463775209,0.0180885181866928,-0.0705328463057785,7.082065765584385,0.0132183378014958,-0.0049754664775069,0.4537555167014166,7.3294524678385775,-3.4810996490565853,1.1157158896016632,986.9107132918137,980.364617584192,969.5372804795009,982.3609285231897,-19.08791043454128,540.1855846947224,-43.52466454643032,411.63126606572825,158.5775968037677
0.5174999999999998,-0.7553119587489973,-0.0192067495576159,-0.3098353020996391,-0.0289420485301411,-0.0297381232252841,-0.0005677095259955,-0.0073716667925692,0.0135503440075807,0.9980896486326944,0.059824609550717,0.0163489720256374,-0.0739873941853424,7.086630819540068,0.0135976042080876,-0.0055768082138174,0.4469468105259269,7.329405215637933,-3.481052016714248,1.11684039572348,986.9262883025672,981.4996826639075,969.510973708933,983.2811370054756,28.23136602742122,407.29495501766417,27.55438319913989,350.3159035758469,158.5747857837742
0.52,-0.8187310369656104,-0.0536808169860025,-0.1887856354407529,-0.0311486306215527,-0.0298654541575248,-0.0005377189659047,-0.0073442318955026,0.0135080453437753,0.998090800755183,0.059818189838764,0.0145873057835571,-0.0773541983285744,7.091267982349784,0.013973179378406,-0.0061962491079832,0.440156252128813,7.329357634770074,-3.4810038125785048,1.117947885855944,987.0518701219507,982.4010923592804,969.6750523954963,984.112508041069,80.41317980173508,337.70572101873285,120.43616039534288,337.2116630757543,158.57193202364263
0.5224999999999999,-0.8558470150719765,-0.0700379276858838,-0.075957784190558,-0.0340697632136311,-0.0299628528496752,-0.0003826659737046,-0.0073109262934354,0.0134557026398012,0.9980919050576726,0.0598155144778169,0.0128596735136369,-0.08061136464148,7.095940708845595,0.0143495304643443,-0.0068350258702516,0.4333840023316202,7.329309993264019,-3.4809552164037365,1.119037842354852,987.3283542015758,983.1882112690013,970.1131545109098,984.9671953208544,122.61412168772938,241.50155295073975,198.28203038259727,287.59489913918486,158.5684598099103
0.525,-0.8523732185934669,-0.0700415155218238,-0.0111266665750931,-0.0366239508140436,-0.0300046725290139,-0.0002377307479665,-0.0072738022875077,0.0133956041173882,0.9980929814145648,0.0598154594121094,0.0111309700704451,-0.0836860880468124,7.1006129692506,0.0147254998144698,-0.0074909365776247,0.4266304002877152,7.329262968904048,-3.480906254156789,1.1201103577626343,987.6649407303896,983.608600124034,970.6664625474094,985.550482536765,156.90812147977323,126.17126424711375,252.0624272329767,208.2285436648133,158.56552753781804
0.5274999999999999,-0.818937923567655,-0.0627964587548669,0.0265988240180825,-0.0391423095376589,-0.030020084198754,-0.0001232903769721,-0.0072345799743301,0.0133284468678618,0.9980939469406864,0.0598189963007489,0.009371093705732,-0.0865296162698366,7.10525083287903,0.0151003595247667,-0.0081627625277628,0.4198956420918318,7.32921658799048,-3.4808567492313327,1.1211653540368327,988.1128948089747,983.8190675902368,971.3734666470746,986.0083380391785,196.98357916215608,55.538828713088094,299.95012790320715,165.5468750598855,158.5625559233528
0.53,-0.7715098133562424,-0.0529819175986176,0.0465000017560994,-0.0412621692200446,-0.0300246051015656,-4.344142379515895e-05,-0.007190626473942,0.0132547996211949,0.9980947246172456,0.0598275574911395,0.0076110557472413,-0.0890942726195869,7.1098237452409165,0.0154768295711806,-0.0088487352404192,0.4131795861275869,7.3291702116887425,-3.4808061854978045,1.122202864587846,988.6498586262005,983.8862942675996,972.1662131869255,986.3782169120643,233.20081340671075,-2.0227555774454213,327.7566740895506,130.90365434850344,158.55955213935175
0.5324999999999999,-0.7257472582151286,-0.042090365932167,0.0511482926806594,-0.0424116181022003,-0.0300270270483984,-7.10076228683193e-07,-0.0071404584917054,0.0131749777566567,0.9980953261394648,0.0598410236984984,0.0058654243205472,-0.0913410531178068,7.114305523425611,0.0158561552221699,-0.0095469495599023,0.4064818053826043,7.329123307481512,-3.480754073399946,1.1232229582806468,989.2788988760082,983.8089538123496,973.0122500175224,986.6628563109213,289.8379740287507,-64.35337112925475,374.7529065018167,109.14915422990806,158.55650985288864
0.535,-0.6916721411537498,-0.0280071029686187,0.0462024753906158,-0.0430996736943723,-0.0300378754487553,2.076610993280384e-05,-0.0070868044060579,0.0130913398734911,0.9980958544759692,0.0598567961966985,0.0040873213172052,-0.0932106197887961,7.118675301661602,0.0162355532446096,-0.0102537120278737,0.3998016517452915,7.329076438106202,-3.480700396178664,1.1242265624333223,990.099048496344,983.5645274119532,974.0399777194344,986.9239626832141,302.1984462014868,-115.12047396990955,375.38213359550775,83.46879877235544,158.5528143334955
0.5374999999999999,-0.6820812547226489,-0.0142804870638832,0.0372332785748542,-0.0440046081209812,-0.0300578768602039,2.3678251679190708e-05,-0.0070334105089966,0.0130051117713193,0.9980964429543596,0.0598719130606683,0.0022174433659645,-0.094666414525572,7.122918837198389,0.0166111761530785,-0.0109659810014137,0.3931380947944274,7.329029903692941,-3.4806449345045194,1.125214715239354,990.7898911070157,983.2333514425,974.8891606855,987.0802003047827,263.5609684869903,-159.66702276693908,338.3472719875951,50.41405987276444,158.5496964413717
0.54,-0.6781540328931106,0.0037772795256202,0.0262209637633647,-0.0457068683697742,-0.0300892251240345,2.033799970130718e-05,-0.0069832219394655,0.0129153751049062,0.9980971207543476,0.0598857324792067,0.0002119745335907,-0.0957081732448462,7.127029606710129,0.0169796402239352,-0.0116819559004452,0.3864897451211891,7.328982961163207,-3.4805872734958374,1.1261877208248376,991.4168533387792,982.7661922981185,975.7317140793725,987.1760329825778,243.4737686219248,-234.73838900972603,372.67154140338306,29.53306974832228,158.54653657938863
0.5424999999999999,-0.6570569696309244,0.0332066108131454,0.0122227589479585,-0.0480630553550616,-0.0301296518487091,1.6050876946559105e-05,-0.0069368744295455,0.0128200640391355,0.998097783322622,0.0599003788160491,-0.001936020438157,-0.0963571300462108,7.13100975289956,0.0173390613788266,-0.0124002038513751,0.379855012497282,7.328934388337232,-3.4805271467688854,1.1271449796609423,992.0072599501251,982.0596594974513,976.752518392517,987.2278656535245,178.25935660919168,-278.61700477521913,378.3471409443788,10.27022582279641,158.54269232654354
0.545,-0.6122429105071353,0.0655297238041849,0.0001452187515626,-0.0499421920348336,-0.0301477884998573,1.503936958732115e-05,-0.006897080521642,0.012718808750221,0.9980982663837576,0.0599183721630896,-0.0042613682955685,-0.0966197852043239,7.134870481311135,0.017685548992725,-0.0131179056345968,0.3732324912349905,7.328883339971989,-3.480464362615799,1.128085032798391,992.308150121825,981.3731072742424,977.6234497840944,987.2273841116915,71.26268562346917,-286.8548013437246,352.57498520743377,-5.732290901960363,158.53944139706175
0.5474999999999999,-0.5291513512350366,0.1057918554914955,-0.012634163063621,-0.0515930758752408,-0.0301116840085528,1.777237151708247e-05,-0.0068625296350695,0.0126147849550085,0.9980986335665804,0.0599381322445558,-0.0067421107463182,-0.0964565070135925,7.138632958641176,0.0180178323053471,-0.0138296946254213,0.3666208579731758,7.328829836811656,-3.480399097816828,1.12900736784608,992.3635733782426,980.6253854907328,978.515393318554,987.1992041990147,-37.786739405373694,-334.04596004856984,391.11527449417696,-12.005703591648842,158.53613585878048
0.55,-0.3805509462050094,0.1599057964949207,-0.0290786607308291,-0.0531767686568436,-0.029938422305078,2.393767699638764e-05,-0.0068291611423922,0.0125131348476859,0.9980990350886932,0.0599565592815185,-0.0093158284544361,-0.0958046404575378,7.142328635645466,0.0183365681481754,-0.0145291574178082,0.3600187804084652,7.328774305818259,-3.4803318920313537,1.129912641510456,992.1192164247982,979.7028774739997,979.5790261565651,987.1673555937336,-142.58707638985004,-337.73843748081134,379.9209190964572,-4.4457133158402895,158.53209853690828
