t,ang_acc_x,ang_acc_y,ang_acc_z,a_vel_x,a_vel_y,a_vel_z,quat_x,quat_y,quat_z,quat_w,acc_x,acc_y,acc_z,l_vel_x,l_vel_y,l_vel_z,pos_x,pos_y,pos_z,mot_1,mot_2,mot_3,mot_4,dmot_1,dmot_2,dmot_3,dmot_4,vbat
48.3475,0.7471695550263951,1.7138999258637868,-0.3455143319992031,0.0013095211201555,-0.0137930460373642,-0.0111668697521794,0.0015261158665613,0.0018789721422569,0.053581281722251,0.998560456584032,0.0401962825856717,0.025638836115952,9.799557636908778,0.0069124218208067,-0.0077651555100642,0.0022514769568817,7.203395309270663,3.745612130203164,2.061718965401631,1120.792630307467,1127.4910977277218,1136.4205640825824,1120.4166349991256,-59.82031934542315,54.24385508615113,758.1431233597172,-82.99683195346307,151.9025818717639
48.35,0.8435735337098667,1.935763352471172,-0.4962772960207242,0.0037275562069664,-0.0083654409595362,-0.0125157177250238,0.0015432251058261,0.0019189282189582,0.0535432925542772,0.9985623896101292,0.0379159116363011,0.0239083720048789,9.800423456557406,0.0070950197348497,-0.0075758952183361,0.0022285509166604,7.203415469166978,3.745599816167607,2.061723985888486,1120.677759516789,1127.6681748765495,1138.0490257443128,1120.2204766850618,-18.429376402917505,99.05098712197201,510.76220506507593,-66.5798063515618,151.90365145216091
48.3525,0.8799055693438554,2.0252314445644046,-0.6136384517760449,0.0064710279109696,-0.0017659140966091,-0.0149303072182923,0.0015654627472596,0.0019700265178691,0.0534967158272621,0.9985647512034972,0.0354025036292925,0.0220282453917342,9.801258812778476,0.007271370923298,-0.007403846878114,0.0022117125013885,7.203436261822712,3.745589461672141,2.061730032559108,1120.7004834254528,1127.9863526633312,1138.9743751079054,1120.0837359673683,43.60925650028136,181.8156835386596,252.87228418988684,-41.86091095309753,151.9047240982964
48.355,0.8575541941991275,1.9681231856520776,-0.6860311708092846,0.0094080412422583,0.0059786548103121,-0.0180081334616193,0.0015921162155051,0.0020264057518396,0.0534457205291291,0.9985673289968228,0.0327888248262488,0.0200282069499896,9.802049416737834,0.0074417672337307,-0.0072507787808441,0.0022005080699996,7.203457532823338,3.7455796996661848,2.06173652807741,1120.8958057992904,1128.5772532942435,1139.3133871652628,1120.0111721302962,92.66828180411528,254.8400739867308,15.838556108011373,-10.500480172953843,151.90601332294935
48.3575,0.7938986155210487,1.8000084344815404,-0.6821701859074185,0.0111478036827676,0.0114793799677133,-0.0203761562622137,0.001622178946309,0.0020829430467421,0.0533956003303648,0.998569850717598,0.0301920008724905,0.0179366692872057,9.802782158841612,0.0076067310933275,-0.0071175222678188,0.0021945998340122,7.203478704228603,3.74557011188584,2.0617425099802924,1121.1638248344736,1129.2605530332655,1139.0535678884455,1120.0312335665035,114.0501525561504,310.8107302141987,-183.86213606753145,24.2774727316594,151.90708828037597
48.36,0.6964021818816407,1.5486611051061951,-0.6177477699274313,0.012314834219963,0.0155837375351977,-0.0224210070309531,0.0016525977313424,0.0021357699773582,0.0533518346933395,0.9985720359273594,0.0277011198648866,0.0157450314010346,9.80344592606221,0.0077669866427706,-0.0070039616102529,0.002193752645425,7.20349889668366,3.7455598177756992,2.0617474065390624,1121.4660565620707,1130.131306945313,1138.394076484926,1120.1325594939544,120.7157952671715,416.1628195059311,-345.5132504529553,62.33827569264116,151.90816252606325
48.3625,0.5466262478005792,1.2111017935430004,-0.4905137498591972,0.013904751176829,0.0187414779554693,-0.0243174042994244,0.0016816554589898,0.0021818884035828,0.0533169058342386,0.9985737611162396,0.0253876878294736,0.0134717865229113,9.804031471509688,0.0079233561689798,-0.0069090554730587,0.0021977629203989,7.203517851795853,3.745548259785832,2.061751026415599,1121.7674038108098,1131.3413671307962,1137.3260016361799,1120.3429249449669,87.38204689348171,460.3167497659716,-417.5248266160589,91.39654457148809,151.9094492132438
48.365,0.3937627352452329,0.9400463080841228,-0.3628491090609791,0.0154247128641362,0.0201617792985125,-0.0251560189942395,0.0017103136798912,0.0022210841039116,0.0532903977272758,0.9985750470604368,0.023269553018861,0.0111888892893566,9.804531798153906,0.0080765270616618,-0.0068310006345596,0.0022063450081305,7.20353701365771,3.745535277713364,2.0617544833773485,1121.9029667965383,1132.432890694144,1136.3064523518447,1120.589542216812,20.02457751284057,440.6759861012149,-421.9554076515778,114.03275056055828,151.9105182620142
48.3675,0.2126733489088604,0.7120761752179072,-0.2369721433576165,0.0164633569820827,0.0208470738067364,-0.0251580775621215,0.0017378609278448,0.002255702397176,0.0532709226320039,0.9985759636962078,0.0213110461317869,0.0089344830411654,9.80494333310405,0.0082268781214466,-0.0067675109516239,0.0022189708525088,7.203557452675802,3.745520843391113,2.0617583781700115,1121.867526698374,1133.5447470613003,1135.2162245979239,1120.9130886977691,-58.769830203224906,482.57987839613503,-494.4798028973054,163.55466029400122,151.9115824626966
48.37,-0.0290324354112202,0.5004193401734393,-0.1066821378929695,0.0167264935898238,0.0214226468939165,-0.0247772162294163,0.0017629612227415,0.0022870200554293,0.0532558487293402,0.998576651224146,0.0194951939713946,0.0067283360804998,9.805266066853202,0.0083745118353195,-0.0067160636962831,0.0022348270905393,7.203579091306794,3.745505447593432,2.061762505663212,1121.609117645522,1134.845790086126,1133.8340533373569,1121.4073155182823,-128.0857066637763,466.5350986669524,-523.9386436924226,202.43500019886244,151.91285167863583
48.3725,-0.2425279331823659,0.3688877811042973,-0.0189771871962724,0.0162052413584698,0.0220395664928598,-0.0245927100246661,0.0017838986566657,0.0023168680963649,0.0532422515245678,0.998577265129612,0.0177924152845028,0.0045772814277415,9.805503986692711,0.0085193323974147,-0.0066741362970203,0.0022528859269879,7.203601728031107,3.7454896388548407,2.061766801520232,1121.2270981650547,1135.8774225546363,1132.5965313794604,1121.925263698764,-179.47027566281528,397.6740486134965,-520.6349915891866,231.57291325422332,151.91390083449687
48.375,-0.4606801355079218,0.2643778523108279,0.051787517211137,0.0151255205360799,0.0230167995987553,-0.0246317192396149,0.0018018632885674,0.002344644894911,0.0532265864455795,0.9985779945811664,0.0162224675902965,0.0025358620872552,9.80566484526299,0.0086611672707846,-0.0066393291009135,0.0022719211274221,7.203625345517225,3.7454741055570895,2.061771199528752,1120.7117662672088,1136.8341603291915,1131.2308783794133,1122.5651800845524,-219.90946439470451,366.5011884700257,-570.7524892475892,274.3057537198859,151.91493828662843
48.3775,-0.6795750407048265,0.1660175835743288,0.1139752384800535,0.0137123176410528,0.0242485085270966,-0.0246721122089542,0.0018188819389069,0.0023708319648168,0.0532045184896991,0.9985790678548504,0.0147834139157126,0.0006692050266067,9.8057607742477,0.0087998531242025,-0.0066094146558137,0.0022905642352585,7.203650016346344,3.745459296817909,2.0617761418091973,1120.127550843082,1137.7099284969847,1129.742768933225,1123.296792467362,-238.3276549963429,323.0599674442767,-620.7611852588351,306.35185442095246,151.91596354903797
48.38,-0.8976920300295652,0.0625942158297968,0.1701993278739702,0.0123072472923402,0.0253929672029233,-0.0243433615951741,0.0018360326380181,0.0023959033490351,0.0531745473496269,0.9985805639185428,0.013471368152269,-0.000983353730186,9.80580848234292,0.0089353030070839,-0.0065823681762696,0.0023073133220476,7.203675751923155,3.7454454752778825,2.0617819660668504,1119.5201279922264,1138.449460166414,1128.1270724531175,1124.096939356658,-255.6972309599643,279.5965837555675,-723.1534160260646,348.91523003634916,151.91697067669165
48.3825,-1.1516479338303216,-0.0676816668088981,0.2342225641232076,0.0104244733892992,0.0260438783044134,-0.0235054005343853,0.0018528357996319,0.0024175003393111,0.0531402089796385,0.9985823016579944,0.0123351802654161,-0.0024230143951651,9.805829049899987,0.0090676097564837,-0.0065563295056096,0.002320564909534,7.203702353821465,3.7454316458621135,2.061788116062956,1118.8490646882815,1139.1079114157633,1126.127001853093,1125.0413686175448,-223.24149007206256,191.67470722604017,-724.4693477638288,325.0496492863249,151.91815327286676
48.385,-1.3419489747932456,-0.1715151366122003,0.2886922489842356,0.0079030910368789,0.0257850050154288,-0.0227541985703459,0.0018700253837754,0.002434027628309,0.0531040660466693,0.9985841485032592,0.0114081316391889,-0.0036325751596464,9.805847198866664,0.0091972037213358,-0.0065294472522846,0.0023287944800768,7.203729081655817,3.7454170741733512,2.0617943864926107,1118.4039205418671,1139.4078337025433,1124.5047257143017,1125.7221876030883,-137.49918694913745,57.50696076176396,-615.4522277662217,226.43283336476327,151.91911310087343
48.3875,-1.4813721479694668,-0.2539752706304768,0.3520663412263971,0.0041233434392905,0.0247201782496605,-0.0221303381220453,0.0018888638881852,0.0024450567124242,0.0530685005394589,0.9985859777754293,0.0106992393605196,-0.0045888229296744,9.805890721966598,0.0093248562067106,-0.0064999594488341,0.0023305945780966,7.203755443897688,3.745401650023635,2.061800778516052,1118.1615687535357,1139.3954462195722,1123.0497407142602,1126.1735327843692,-39.9646738666229,-81.42006219882587,-580.5321285655041,124.32378070018792,151.92004116642931
48.39,-1.5562134201237,-0.3146526215521924,0.4472207172732822,-0.0012608915102564,0.0230322151101339,-0.0214613194725731,0.0019052893956137,0.0024551954734539,0.0530372577629776,0.9985875870163649,0.0101114053285222,-0.0053723746491578,9.805990347004432,0.0094515627740138,-0.006466375486831,0.0023247042855602,7.203781052988902,3.745385053530089,2.061807539450108,1118.204097172534,1139.0007333915487,1121.6020650714727,1126.3438065065895,82.79740090477645,-203.65664705550776,-474.56167013990546,-4.479242246047288,151.9211123520029
48.3925,-1.5257244519139979,-0.332401300741429,0.5451200123562079,-0.006081453984181,0.0217426040681058,-0.0209172493039766,0.0019147108120335,0.0024679822803431,0.0530127203530891,0.9985888493747715,0.0095657608757204,-0.006078917411162,9.806177917366206,0.0095784621596042,-0.006427568830106,0.0023099979104307,7.203805993447659,3.7453668499558335,2.061815164726247,1118.5755557580592,1138.3771629842956,1120.6769323635629,1126.1511365731387,223.67718365669515,-298.0825667851444,-314.66835581979734,-135.48158510477495,151.92196566939813
48.395,-1.3967034459735888,-0.3254267109919826,0.6570065114660507,-0.0107189818633446,0.0208085756880743,-0.0202038861803471,0.001918783851052,0.0024842988376425,0.0529948511365106,0.99858975954122,0.009039840132055,-0.0066869260485354,9.806484265914449,0.0097066962283368,-0.0063829289144025,0.0022856385169058,7.203831358349396,3.7453477655247815,2.061824469911154,1119.322483090818,1137.5103205576224,1120.028723292373,1125.666398581065,405.0076031278169,-417.61552450685946,-233.22528646278332,-247.4512458206944,151.92277381728204
48.3975,-1.1496313277385535,-0.3063490834487669,0.7870082384032183,-0.0152311480418288,0.0200622195676941,-0.0187928166703055,0.0019205398204867,0.0025055606160269,0.0529826289758794,0.9985903608593808,0.0085003996349271,-0.0071486124463401,9.806938368950734,0.0098372909730461,-0.006332590540177,0.0022512788494189,7.2038574641009205,3.745329195476828,2.061835456448424,1120.6005937736993,1136.2890853617603,1119.5108059312483,1124.9138803440349,511.98449994277513,-462.52364226012327,-156.22330623323816,-271.5373755729357,151.92368677358317
48.4,-0.8958732722328451,-0.2946895005824918,0.867880060986193,-0.0177132723600564,0.0196344110646531,-0.0168844110260161,0.0019211156154808,0.002529834020196,0.0529738728496094,0.9985907704512252,0.0079764418682248,-0.0074568152090312,9.807566045157802,0.0099711897212004,-0.0062774864906796,0.0022071955586059,7.203883654779427,3.7453127059253792,2.0618473434804288,1121.8824055905295,1135.197702346324,1119.2476067612074,1124.3087117032019,521.2681329977902,-434.62448696500866,-78.98327260968979,-198.0797409855664,151.92439714579453
48.4025,-0.6330533699250693,-0.2995612251965239,0.8867574927064131,-0.0189185945818653,0.0192512690865904,-0.0140591297334651,0.0019185278495228,0.0025548818724346,0.0529673093307939,0.9985910647495606,0.0074989625946061,-0.0076649666292782,9.808388415949246,0.0101092342148368,-0.0062192269711908,0.002154539035571,7.203909493855169,3.7452987422350015,2.0618592697835285,1123.2069344386896,1134.115962926934,1119.1158895681997,1123.9234816391065,505.7698191065952,-419.34022946385454,-34.78095405214884,-95.49882337987245,151.92505184316335
48.405,-0.3899052651242932,-0.3233923348407822,0.8328297145377666,-0.0193685058527197,0.0188212525384876,-0.0106698395696523,0.00191039298813,0.0025780985898702,0.0529625528972833,0.9985912758429024,0.0071056550126193,-0.007833142467747,9.809419924942494,0.010252127324852,-0.0061597703942448,0.0020954465729648,7.203934301533257,3.74528717801862,2.061869927834255,1124.4112546860636,1133.1010011990036,1119.0737019909463,1123.8312175863023,419.26050822614275,-377.1459572655905,1.6998438612988138,43.605002401039755,151.92565812648843
48.4075,-0.1930175841608313,-0.3716193294087365,0.6807646763151,-0.0194090895350789,0.0183254307765627,-0.0073501447275755,0.0018940203358727,0.0025980952090021,0.0529600016293448,0.9985913925318836,0.0068106471493422,-0.0080241816171654,9.81066687481517,0.0104003104184787,-0.0061010621817315,0.002033003318959,7.203957972014297,3.7452775700333953,2.06187874961831,1125.3032369798184,1132.2302331406079,1119.124388787506,1124.1415066511115,291.77438509308183,-336.8722353449907,39.79575445498778,216.843083627944,151.9262036455655
48.41,-0.0257097186048335,-0.4533667233758557,0.3994724523645219,-0.0194127379058954,0.0176646435059812,-0.00444692596248,0.0018677402124446,0.0026153351386674,0.0529608261054866,0.9985913555250788,0.0065941739885772,-0.0082769469586952,9.812126141873836,0.0105537865765269,-0.0060447034512072,0.0019710633828121,7.2039807570737855,3.7452694890975926,2.061885411712825,1125.87012661153,1131.4166400222775,1119.2726807632216,1124.9154330044423,117.19456098402048,-253.88569533316257,65.35788840470853,325.5421676846408,151.9267855974778
48.4125,0.0510225592635087,-0.5328289817622119,0.1119877870525147,-0.0193845121856761,0.0168087757933213,-0.0034255709558068,0.0018351773432629,0.0026288842333925,0.052965260621657,0.9985911474042872,0.006471339102143,-0.0085260896591072,9.813783991313972,0.0107119846890291,-0.005991648074926,0.0019139393141902,7.204003678813208,3.7452618728359486,2.061889553873841,1125.8892097847388,1130.9608046639414,1119.45117822953,1125.7692174895355,-77.68325500235521,-132.77509758757583,78.34074548293604,344.91146217146246,151.92720883045556
48.415,0.0585132282034206,-0.6077156888915445,-0.1832478270430552,-0.0190272972096744,0.0153265425026645,-0.003964412556616,0.0017992127003881,0.0026367700593942,0.0529727924122282,0.998590794697165,0.0064795505773322,-0.0087204670440041,9.815616664243354,0.0108736614928217,-0.0059421069844388,0.001866002921308,7.204027691521596,3.745253328384435,2.06189126235849,1125.4817103365183,1130.7527645343405,1119.664384490636,1126.6399903152983,-250.95356493557924,-31.072239243605985,98.13279373629011,342.12677059204685,151.92756733053665
48.4175,-0.0149019076075898,-0.6714083079932848,-0.4920880460858334,-0.018025058739962,0.0129868475117425,-0.0059630713161082,0.0017619931714732,0.0026355799717269,0.0529805281405735,0.9985904554629071,0.0066868670375568,-0.0088239149363945,9.817590836272096,0.0110369540168203,-0.0058955729643357,0.0018313189924389,7.2040537833886695,3.7452432423271897,2.0618907937295834,1124.6344419600603,1130.8054434677233,1119.9418421982116,1127.4798513424967,-344.4530310359425,74.37689164508643,104.4501049166604,250.16437194290964,151.92792284634317
48.42,-0.1394729155910177,-0.6913013165681233,-0.6809229131425432,-0.0170871726304169,0.0109571159961968,-0.0083057079204259,0.0017254741113324,0.0026244282352376,0.0529849039388525,0.9985903174562348,0.0071152185215913,-0.008801266880945,9.819664624272777,0.0111995059134424,-0.0058510631151493,0.0018134095301686,7.204082398324271,3.7452322703371297,2.061888903781032,1123.759445181338,1131.124648992566,1120.1866350152195,1127.8908121750135,-353.6739900449026,193.89948459274265,102.0041906943352,94.00813239753373,151.92815759243845
48.4225,-0.3079579850245611,-0.6703382242774817,-0.7773669176243612,-0.016793412897346,0.0088182489374656,-0.0110242354146987,0.0016922971814824,0.0026044736727342,0.0529837683730612,0.9985904872021578,0.0077508450070819,-0.0086023853696059,9.821789071733743,0.0113587154588266,-0.0058073924212654,0.0018149969890658,7.204113913707412,3.7452208921001726,2.061886311792173,1122.8660720098371,1131.774940890686,1120.4518631516828,1127.949892004484,-369.1017914014922,371.5963816700341,125.63837301529868,-41.857707800796966,151.92833006378635
48.425,-0.5153252919458206,-0.6003867688421393,-0.7820772442857371,-0.0177910780890422,0.0061674289006574,-0.0145540209147446,0.0016626765722658,0.0025796275632212,0.0529781805699301,0.9985908976656604,0.0085268250690497,-0.0082231422379397,9.823910554267911,0.0115120584792137,-0.0057633962464341,0.001837831615957,7.204148637082913,3.7452093443398367,2.0618834619185327,1121.9139362243295,1132.9826309009172,1120.8148268802963,1127.6815236360092,-318.69545877613814,512.2000172007228,145.6236855565913,-130.3482945242892,151.9284677658906
48.4275,-0.6523152062877103,-0.5151928049569054,-0.704748724813898,-0.0197038920381868,0.0044531022405031,-0.0173032754023011,0.0016350583477721,0.0025549735305172,0.0529694458074079,0.9985914686866736,0.0093536458770471,-0.0076943960903284,9.82597306534451,0.0116575271289162,-0.0057179770676033,0.0018825857218476,7.204186256861422,3.7451979774636177,2.061880559128069,1121.2725947159558,1134.335940976691,1121.179981579466,1127.298150531862,-226.81715720543872,593.549428456748,167.99798437111167,-147.2174701537344,151.9285272580104
48.43,-0.7076203947068143,-0.4234568827947188,-0.5733416617572566,-0.0224348874283829,0.0036069774406817,-0.0190335786969674,0.0016095768561069,0.0025327098858892,0.0529577519683047,0.9985921841881096,0.0102011259547772,-0.0070185907562124,9.82792030640632,0.0117940539687369,-0.0056701236643548,0.0019487593863962,7.204225533473551,3.7451871818632094,2.061877908755131,1120.7798504383031,1135.9503780431983,1121.6548168021511,1126.9454362852412,-199.33451439072803,724.384471242313,247.5852391919586,-102.99433669696742,151.92853226123955
48.4325,-0.6450998884144435,-0.3317438251097095,-0.4003488498358297,-0.0258767754252533,0.0032526195833902,-0.0196309620354993,0.0015854360158522,0.0025121995010804,0.052942735954738,0.9985930665758124,0.0110933764957404,-0.0062212577279387,9.82969852103704,0.0119217881733028,-0.0056189365832957,0.0020346557125021,7.204264729451106,3.745176589113712,2.0618762054164046,1120.2759221440017,1137.9578633329045,1122.4179077754263,1126.783178848377,-186.64635097847625,704.45669335218,321.53659544775934,7.9132862619149344,151.92847797410158
48.435,-0.476870237485719,-0.2834367359248923,-0.2745879347595731,-0.028395822038955,0.0029369290736309,-0.0193906465518678,0.001559623311033,0.0024921612577341,0.0529243746751733,0.9985941259363266,0.0120630322535974,-0.0053740935945876,9.831259093857373,0.0120421448945069,-0.0055636321009211,0.0021374881762379,7.204302062697931,3.7451660341944306,2.061875856908184,1119.8466186834105,1139.4726615099607,1123.2624997793907,1126.9850027165508,-189.9751128702428,523.0941633644517,387.9124257541097,160.74788395386415,151.92838400497888
48.4375,-0.1977163839747161,-0.2709421159230425,-0.1904643275598719,-0.030249861244552,0.00233431441848,-0.0189652113855521,0.0015295403952883,0.0024747275259191,0.0529023518671938,0.99859537892668,0.0130728278381109,-0.0045389996729396,9.832560459476626,0.0121576063775625,-0.0055035001132515,0.0022536594217172,7.2043366029294,3.7451553383852265,2.061878046801908,1119.3260465796511,1140.5733341497244,1124.357469904195,1127.5869182681456,-228.80930512058404,344.8520817535108,478.315173055424,298.194349587173,151.92824071545277
48.44,0.1522625676406898,-0.2899154400682742,-0.1449676127386399,-0.0313177139849299,0.0017158861717015,-0.018623527645478,0.0014960276296459,0.0024620842503869,0.0528755186139115,0.9985968799868276,0.0140834643640394,-0.0037119702209764,9.833569422953202,0.0122713483259383,-0.0054378681606278,0.0023789743102317,7.204368049911795,3.745144386766588,2.0618833774693615,1118.7025721578086,1141.1969219187267,1125.6540756446657,1128.4759744644855,-270.62482200912905,123.37678861597904,557.1622887302843,394.9134323140496,151.92805706004023
48.4425,0.5467030771150815,-0.3480790521507511,-0.1380761281248861,-0.0309364266497407,0.0012027437269963,-0.0187033946432121,0.0014617564819534,0.002451698286378,0.0528445594766956,0.998598594268558,0.0151451490971616,-0.0028595569391549,9.834262461410852,0.012386751707377,-0.0053661763230104,0.0025088743433314,7.204397427557145,3.745133137092224,2.06189122196099,1117.972922469605,1141.1902180928043,1127.143281347848,1129.5614854297169,-330.2694730815931,-133.1456909779491,678.4300383252397,467.2686086166661,151.92782488122805
48.445,1.0051689775366008,-0.4617374907501333,-0.155092804099624,-0.0283712316606241,0.0006037294458431,-0.0193431124162965,0.0014298983496583,0.0024418259504342,0.0528117809083184,0.9986003988746336,0.0162877223764791,-0.0019389812762728,9.83462663332738,0.0125069445661557,-0.0052880014070516,0.0026389284638418,7.204425448825504,3.745121555831578,2.0619005068395726,1117.0512247923998,1140.5311934638369,1129.0462258362936,1130.81231750757,-329.95128816908607,-320.6020531571272,698.4159856322989,405.41649843885847,151.92748974469703
48.4475,1.3251827399449492,-0.587007068557927,-0.1758547570500926,-0.0247611413548217,-9.061598721246211e-05,-0.0201368067187507,0.0014026562223472,0.0024313205029323,0.0527789557153083,0.9986021998734682,0.0175228425481474,-0.0009266778737356,9.834659864943452,0.0126344996893203,-0.005203054667094,0.0027650662691555,7.204452463926337,3.745109885617031,2.061910180934271,1116.323166028761,1139.5872078270204,1130.6353612760065,1131.588567921909,-263.0851543642184,-411.4067678896559,613.3959579391603,210.288824742094,151.92716269293297
48.45,1.5314361287015927,-0.7285621309059808,-0.1912253105588059,-0.0201110857587429,-0.0013179721529427,-0.021011867767735,0.0013816457469317,0.0024228879850328,0.0527457116364989,0.9986040083185528,0.0187808013413373,0.0001930986696631,9.83437057689621,0.0127711995902424,-0.0051111772772919,0.0028837763376698,7.204479363038424,3.7450984521950734,2.0619205353234693,1115.735799020578,1138.4741596243875,1132.1132056259908,1131.863761631281,-205.79043155770185,-469.4133931660744,598.5978566220758,-22.65054721059392,151.92678524422533
48.4525,1.6121189395068263,-0.8901650228308164,-0.1981310031228775,-0.013964868744431,-0.0037540568627382,-0.0219409504561093,0.0013661972577519,0.0024210317367717,0.0527120424746689,0.9986058141002672,0.0199502434078315,0.0013930309196664,9.833777006232014,0.0129178883829039,-0.0050124258874939,0.0029920993632268,7.204507086863539,3.7450876144557697,2.06193224649977,1115.294213870972,1137.2401408611888,1133.6283505591184,1131.4753151858563,-107.29269667609267,-397.2731451339744,494.7141737237368,-261.85424571805186,151.92627344549615
48.455,1.532698778481084,-0.9964438591317512,-0.1956896507330016,-0.0089680069397191,-0.0066647068096849,-0.0225105051254418,0.0013552082938349,0.0024265192231498,0.0526784741085912,0.9986075882331164,0.0209898529402636,0.002633834340956,9.83290551845808,0.013074511450223,-0.0049070432572467,0.0030876068948702,7.204536455253482,3.7450780334451776,2.061944987530996,1115.199335537198,1136.4877938987195,1134.5867764946074,1130.554490402692,26.060186075106085,-211.3494080399333,302.60226509270046,-469.10984690324415,151.92579772090187
48.4575,1.3135582978885927,-1.0541344337435967,-0.1898435529339818,-0.0045323969698471,-0.0100949092391507,-0.0228244153370326,0.0013475906105747,0.0024387809039138,0.052644572606311,0.998609355758379,0.0218826290389721,0.0038761268642496,9.831788991677856,0.013240263588903,-0.0047953380118568,0.003168595012238,7.204568054147865,3.745069495939777,2.0619582889912724,1115.4245148013476,1136.1833938209886,1135.1413618845827,1129.1297659513389,175.24398697069176,-16.610877578969536,140.1746578685753,-695.6275713165348,151.92527100196844
48.46,0.9277330499263604,-1.0622546335173062,-0.1843188674528816,-0.0001380464587167,-0.0138141833144523,-0.0229555864380572,0.0013446352528201,0.0024539258084071,0.052610642257148,0.9986111073637932,0.0226784850430311,0.0051251176043796,9.83046457895296,0.0134138358418192,-0.0046776249222638,0.0032341259425328,7.204602117538484,3.7450613072206567,2.061971127789138,1116.075555472052,1136.4047395108244,1135.2876497839507,1127.0763525461075,299.8414011779003,171.3822127832567,-30.538134321596353,-767.3533765791194,151.92458049571314
48.4625,0.5463374489546231,-1.0253836295775063,-0.1815072341177763,0.0024808618705819,-0.0162480112070913,-0.0230871390451477,0.001348239820493,0.0024691933573926,0.0525766350259727,0.998612849506978,0.0234057149138027,0.0064009073301506,9.828972172686944,0.0135936951547498,-0.0045541814379622,0.0032841047250832,7.204638136336765,3.745052933679744,2.061982929055572,1116.9237218072356,1137.040304884904,1134.9886712129749,1125.2929990684468,394.4411271120572,320.6336361729151,-191.45422856999383,-675.078708276824,151.9239570062987
48.465,0.1683589908490021,-0.9561713587022552,-0.1758282356342239,0.0036236960334205,-0.0182319092046778,-0.0235207436899558,0.0013593515799118,0.0024806869097328,0.0525419594742771,0.9986146221588628,0.024114518663755,0.0077060022294802,9.827352651607036,0.0137783628840193,-0.0044253110204655,0.0033190780677808,7.204675246356721,3.745044451226744,2.0619937707557128,1118.0477611076133,1138.00790769169,1134.3303786411,1123.7009590047217,484.18359792083504,412.8615713793513,-303.65917955239564,-570.2298372942817,151.92328469594312
48.4675,-0.1502507438528231,-0.8673791735842556,-0.1621670281427047,0.0032332151130412,-0.0200023782429051,-0.0241511649853018,0.0013779305766417,0.0024823125046841,0.0525070478062565,0.9986164183756324,0.0248984214715034,0.0090237652952792,9.825646061200088,0.013966577115076,-0.0042914797841007,0.0033400406816536,7.204713311764436,3.7450356356439425,2.062003989291638,1119.3446397968412,1139.104612741802,1133.470375315212,1122.441849881974,540.452961464362,431.71186655816354,-364.13793316215936,-396.7038077049408,151.9225729220923
48.47,-0.3300225488083495,-0.7578323153160992,-0.1337830109571153,0.0009128997797096,-0.0216720472482637,-0.0247294418127369,0.0014041372470176,0.0024702298698607,0.0524729112994428,0.9986181949035003,0.0258083785074556,0.0103467494266667,9.82389001192269,0.0141573635746618,-0.0041534043361497,0.0033484367304838,7.204752437196556,3.7450261462557326,2.0620140099286624,1120.7500259149326,1140.1664670244788,1132.509688975291,1121.7174399661988,611.8809618685244,416.3059528357424,-408.7084864813461,-188.92786880964533,151.9218149157952
48.4725,-0.3212340194906062,-0.5997402231861946,-0.080557314546871,-0.0037095983833795,-0.0237335569673641,-0.0251953336272423,0.0014376565187916,0.0024422857518693,0.0524374143889531,0.9986200702108804,0.0268629412819542,0.0116635426263747,9.82211841317471,0.0143501449981074,-0.0040120863961404,0.0033460609967198,7.204792453972669,3.7450165558136823,2.062023370810224,1122.4040446061852,1141.1861425059817,1131.4268328828043,1121.4972105379252,577.8203037702724,309.6376632504651,-362.60169540841713,11.07075140484428,151.9208535375749
48.475,-0.113607682221167,-0.4427376511523928,-0.0211386234111959,-0.0082945896405735,-0.0254250032690054,-0.0255236679233299,0.0014767853316802,0.0024001934945707,0.0524002066420435,0.998622061262746,0.0280053009439935,0.0129428896850895,9.820360671989047,0.01454474370394,-0.0038690641427678,0.0033350412839449,7.204832439010586,3.7450080206691303,2.0620316782990087,1123.6391274337855,1141.714655340732,1130.696680498248,1121.772793723223,443.13484019607415,132.79093061613165,-240.42978797764627,167.21009108315883,151.9200103914296
48.4775,0.2586067771469121,-0.2602249711918788,0.0501176107922182,-0.0115705444524852,-0.0266404216231379,-0.0257993120629711,0.0015197631549289,0.0023469991888984,0.0523632393073838,0.998624061412945,0.0291546205528277,0.0141572104063722,9.81864065882,0.0147413808023533,-0.0037264002243661,0.0033176450096439,7.204870767776044,3.7450017409066825,2.0620383111828455,1124.6197188071635,1141.8500971590615,1130.2246839429172,1122.3332609933402,363.74262976300577,-28.957400826478725,-147.79117827940067,257.0457147247957,151.91912492639136
48.48,0.7672588731775324,-0.0210428133319911,0.1395572970221399,-0.0106114831304718,-0.0270663351217503,-0.0255984723398153,0.0015630902321677,0.0022895455883083,0.0523320811120076,0.9986257660618753,0.0301563981574414,0.015251873601568,9.816976698291304,0.0149404699752572,-0.0035865273746663,0.003296137116096,7.204906141219006,3.7449982672254944,2.062042927341173,1125.4578405826014,1141.5698683365995,1129.9577246068507,1123.0580222968476,256.66303990738527,-167.97682465276512,-58.45470815922192,236.37868883971987,151.91801480955263
48.4825,1.1219246557982503,0.1854301275573225,0.2076235338842584,-0.0051394849614303,-0.0265385099751974,-0.0247786491679587,0.0016055090077626,0.0022338120917689,0.0523075562736558,0.9986271179065642,0.0308772243318127,0.0162189285800201,9.81538058447118,0.0151423526700241,-0.0034516274893348,0.0032724099212127,7.2049395472449485,3.7449971491292446,2.0620469337740066,1125.903034006701,1141.0102130357975,1129.9324104021207,1123.5151544375394,143.97476469966384,-278.81256735720746,11.57464132239654,120.35579307386828,151.9170510061128
48.485,1.284535640401554,0.390666272340904,0.260325326272952,0.0025733281569449,-0.025441246840361,-0.0235684972674976,0.0016460256960175,0.0021842528487656,0.0522860705666437,0.9986282950657448,0.0312161753388201,0.0170569150986311,9.813857973552384,0.0153469130817184,-0.0033232756588042,0.0032477690008553,7.2049726819143665,3.7449979877066166,2.062051626419934,1126.177714406099,1140.1758054998147,1130.0155978134624,1123.6598012622164,108.41812136576574,-416.75577055281383,39.86302732075963,-20.513024604759686,151.91604805257128
48.4875,1.20260763314921,0.6331859144050231,0.306800609629967,0.0109779510941434,-0.0239104293924695,-0.0223023967789493,0.0016833566689492,0.0021436999394832,0.0522643827772559,0.9986294626862672,0.0311073078868045,0.0177584801233729,9.812408782125523,0.0155533304290728,-0.0032022871584028,0.0032229320728682,7.205007047570145,3.745000035281615,2.062058008167183,1126.4451246135304,1138.9264341830324,1130.1317255387248,1123.4125893145156,104.24912881134456,-489.8186552826924,34.54726843540863,-152.06989816394022,151.91480034232052
48.49,0.925227277875118,0.8335578015359287,0.3394739555890866,0.0158869010105529,-0.0225161348508689,-0.0216358323777736,0.0017172584759445,0.0021130009073877,0.052240228753007,0.9986307386759988,0.0305287976374226,0.0183348974727209,9.811027377345114,0.0157600911233529,-0.0030885547920992,0.0031981992773362,7.205043941425349,3.745001764885195,2.062066181274295,1126.698960050156,1137.7267122234,1130.1883341556395,1122.8994517713963,118.70534230549193,-500.6722095862648,9.494230940853862,-242.92680901625585,151.91372451901972
48.4925,0.5096471755488035,1.0315388274523618,0.3776035082448286,0.0179705138623215,-0.0207869359116072,-0.0213282233204123,0.0017464100053055,0.0020932682401593,0.0522134284201845,0.9986321340834068,0.0294573508895394,0.0187756218393927,9.809703552305312,0.0159651721057594,-0.0029811130302549,0.0031737767147223,7.2050838728114845,3.7450018304659833,2.0620758859256,1127.0386513250571,1136.423073135103,1130.179196693429,1122.1979552694352,150.57157564071105,-529.0109315249105,-14.004702517733788,-286.11258403947346,151.91261207943768
48.495,0.0569537977409424,1.2219524269308912,0.425304374580614,0.0178580249659796,-0.0184949584432781,-0.0211102522676164,0.0017672368169662,0.0020833085131806,0.052186317962452,0.9986335371734228,0.0279178052447194,0.0190215879745977,9.808423129733018,0.0161663685568351,-0.0028783887035299,0.0031499461283141,7.205126269120249,3.7449999293859983,2.062086135570345,1127.45181792836,1135.081657565774,1130.118310643051,1121.4688888511982,175.6389935111667,-533.8435144079083,-35.278775247552545,-267.3156000636478,151.91146984069047
48.4975,-0.3500364298057342,1.3899161579695731,0.4809916866572303,0.0156207674145836,-0.0153602186388135,-0.0206740766236529,0.0017777529024429,0.0020805536726614,0.0521630120313974,0.99863474368737,0.0259688562415259,0.0190407581812212,9.80716791950576,0.0163615982774426,-0.0027785091513246,0.0031272681538917,7.205170411856681,3.744995833306288,2.062095607854486,1127.9168462926136,1133.7538555630624,1130.0028028171912,1120.8613772691165,199.24023133366904,-566.416735176714,-63.38440481873784,-208.41906030778628,151.91029230139625
48.5,-0.6964145606641308,1.5452097591117036,0.539076896379071,0.0114905009871248,-0.0107893709413106,-0.0196495880932799,0.0017770660671485,0.0020828864860147,0.0521464020451264,0.9986356096437748,0.0236663057844376,0.0188200881484968,9.805916514478584,0.0165491183291656,-0.0026795968747232,0.0031066284201942,7.205215327870121,3.7449899091670704,2.062103178263211,1128.4480190850275,1132.249573889893,1129.8013886189576,1120.4267935496603,173.71222167168864,-526.4182985407173,-85.24668860007773,-98.89879762117644,151.90883920391852
48.5025,-0.8300390332413085,1.6234832125929408,0.5599279605869893,0.0075713248041181,-0.0067108514162984,-0.018239594625522,0.0017682616610799,0.0020871562325411,0.0521345219305048,0.9986362374164952,0.0210943363334371,0.0184205548907508,9.804644478650717,0.0167276466487043,-0.0025799782674272,0.0030890111509852,7.205260585048016,3.7449836975918624,2.06210849405308,1128.7854074009713,1131.1217640703612,1129.5765693741912,1120.366883281011,92.4768543652117,-412.4518336599685,-101.56470965534288,36.99490197057384,151.9075954311912
48.505,-0.794870298851335,1.6388685797342504,0.5258834677161166,0.0038382191704513,-0.0027085741875277,-0.0161396644802536,0.0017540409542483,0.0020942443061151,0.0521236656731564,0.9986368119370314,0.018261867390237,0.0178966189851248,9.803326163411095,0.0168963113643267,-0.0024785143932742,0.0030753594797808,7.20530552585553,3.744977928886307,2.0621122024873206,1128.9104033568535,1130.1873147215922,1129.2935650706806,1120.6117680595132,-12.779692319320755,-351.03456393012726,-133.3761034712779,159.06188332738614,151.90631813013147
48.5075,-0.5895005141865032,1.577636454314889,0.4008268009319165,0.0002233240719339,0.0019558223457732,-0.0130171796326551,0.0017396721354096,0.0021056228824499,0.0521094867690293,0.9986375465209976,0.0151726648109605,0.0173506349400778,9.801935071849432,0.0170546035009792,-0.0023746584359647,0.0030661987871617,7.205349993656444,3.744973318088253,2.062115501892119,1128.7215089393746,1129.3665912507097,1128.9096888568345,1121.1621926976484,-132.114824464663,-239.7220257690057,-141.71691404812165,223.42675708916744,151.9047472342691
48.51,-0.3276272802858827,1.456117408935598,0.2274921952983939,-0.0017043943545926,0.0058817631646903,-0.0105166326774185,0.0017302898466072,0.0021239311185663,0.0520899072175028,0.9986385347289491,0.0118111675919396,0.016880732211206,9.800445465349085,0.0172022534403766,-0.0022684892630015,0.0030614981509465,7.205394037313395,3.744970032989287,2.0621193385934333,1128.249829234531,1128.9887045927483,1128.5849805004407,1121.728901844958,-250.40549904338985,-76.39708971192434,-121.99148799471128,222.01213578152883,151.90340680989559
48.5125,-0.0430320213747242,1.259337181383142,0.0104235055657282,-0.0016628614139878,0.0098028262917688,-0.0094785825062113,0.0017286728131732,0.0021508500506965,0.0520660019783228,0.998639712225434,0.0081814139571446,0.0165355883944331,9.798833866687204,0.0173391297361273,-0.0021606088130437,0.0030605927465828,7.205437519786251,3.7449681105789376,2.062123990158763,1127.469481444157,1128.9846058021499,1128.2997314168604,1122.2722533765564,-397.3993226884672,92.22932592269729,-108.75209241843442,207.96879353582247,151.90203434705123
48.515,0.238816372125556,0.944145735054788,-0.24227282212109,0.0009208466262533,0.0137084959844823,-0.0107814336170394,0.0017365973256754,0.0021848624763055,0.0520399187214848,0.998640967958134,0.0043514747229072,0.0163392565431415,9.797080017015569,0.0174651528455318,-0.0020518932947727,0.003062203674274,7.20548053725787,3.744967472859541,2.062129466570328,1126.2628326210877,1129.449851222362,1128.0412200383482,1122.7687458126377,-469.6406153437416,248.67023436295193,-79.15614291098714,145.1574501435472,151.90035090775453
48.5175,0.3782068311373791,0.6307150430508968,-0.4042365168944581,0.0039869289552255,0.0157011521947145,-0.0132590621688769,0.0017540854375115,0.0022225855092233,0.0520118042493172,0.9986423031332876,0.0004256947034904,0.0162783077832613,9.795168169160759,0.0175801944692098,-0.0019432159408837,0.0030646036552064,7.205523424223262,3.744968315756125,2.06213566775588,1125.1212783674405,1130.2279569739635,1127.903950702306,1122.9980406272737,-464.16857323582815,382.7487365938711,-42.591897846728926,51.36675255773399,151.89891803575293
48.52,0.3997733433510048,0.2884201861076444,-0.4868554428214651,0.0065219227418468,0.0163557649903792,-0.0158321693339456,0.0017792126384883,0.0022584159086859,0.051979692470412,0.9986438368989202,-0.0034490778062984,0.0162978745318581,9.793088104668493,0.0176840096066411,-0.0018352650658109,0.0030657241548699,7.205566657010519,3.7449705224499703,2.062142554757791,1123.9419897549071,1131.3635949053323,1127.8282605491145,1123.0255795754265,-466.78174266302216,499.61515463803056,-27.5224350330832,-16.474912528738727,151.89745448906837
48.5225,0.3347734048445196,-0.061744788999567,-0.5023665003985123,0.0082044375780259,0.0161489676086743,-0.0179213535379493,0.0018054553186806,0.0022900762531238,0.051943266088322,0.9986456030674606,-0.0071947071829623,0.0162553941242321,9.790836216430845,0.0177761825167078,-0.0017285248867386,0.0030634606583337,7.205610789085448,3.7449733673569265,2.0621501098674173,1122.787369654124,1132.7260327471547,1127.7663385271403,1122.91566606463,-448.8101060707766,577.6706476084452,-34.52691417681719,-63.404150477038826,151.89596585833735
48.525,0.1969322661683817,-0.4088998418620762,-0.4535744509622772,0.0085754774803892,0.0151372153530992,-0.0192645253929166,0.0018277799447173,0.002316133540451,0.051904550760647,0.9986475105245384,-0.0107474466812968,0.0160373141945878,9.788414912591856,0.0178562136752829,-0.0016231641109825,0.0030557053885726,7.205656212554361,3.744976568062488,2.0621581821018258,1121.6979392245555,1134.251948143372,1127.6556259782303,1122.7085588230416,-459.67671469201514,680.5124667527409,-77.31430562758443,-92.39670365309215,151.89444741523167
48.5275,-0.008039322925937,-0.8147324972827005,-0.352016425640322,0.0080991232300501,0.013472271092969,-0.0201324006835942,0.0018425635789323,0.0023368694723797,0.0518690427611578,0.998649282046529,-0.0140755257576563,0.0155584872873135,9.78583276283907,0.0179236471479592,-0.0015190598670086,0.003040471028612,7.205702890208339,3.7449792810433458,2.062166652651948,1120.4889860806627,1136.1285950809204,1127.3797669990024,1122.4536825463642,-422.70951481974606,678.1946648669585,-133.7737323273584,-79.96397946790694,151.89259138692563
48.53,-0.1856087802237661,-1.1410981676632612,-0.254102158411238,0.0075344444019526,0.0116108282040691,-0.0204086460305807,0.0018465121700514,0.00235132961362,0.051839956638257,0.99865075979965,-0.0171240335943624,0.0147382347543825,9.783104690230488,0.0179782563434416,-0.0014156671575962,0.0030158551177703,7.205749921147645,3.744981310555609,2.0621751153369368,1119.5843916504557,1137.6429214677084,1126.9867573165934,1122.3087389257018,-330.9463690673337,580.4342277438813,-192.39582094364087,-31.169555649722646,151.8910167816831
48.5325,-0.3474489302319693,-1.447580759939642,-0.1633119804405272,0.0066983777941857,0.0086607590798862,-0.0204220254474042,0.0018447846932486,0.0023558701280368,0.0518156936853969,0.9986520223332844,-0.0197794736948902,0.0136576963608102,9.780250507208223,0.0180201433571176,-0.0013119998744891,0.002980029054924,7.205796766972062,3.744983400852416,2.0621833519450137,1118.8342542353275,1139.0307662196371,1126.417787894285,1122.2978347681155,-279.58522467301253,569.3253607734093,-278.7881311061421,32.641214504366545,151.8894132871858
48.535,-0.5030685136124523,-1.7773814554742748,-0.076982438503548,0.0050187920241094,0.0039917624369829,-0.0203066886303544,0.0018418260116415,0.0023476210414669,0.0517938234567653,0.9986531921128152,-0.0219471914560909,0.0123843197293355,9.777295801481069,0.018049704270329,-0.0012069253818353,0.0029313465315617,7.205843975767226,3.7449848429371815,2.0621913421990268,1118.18646552709,1140.4895482715767,1125.592816661062,1122.4719449982235,-187.2745597600848,493.1031153031405,-309.8142176296967,92.93271573314787,151.88745531542838
48.5375,-0.589811756467915,-2.008816658817105,-0.0283550207362749,0.0032269062001335,-0.000538029555581,-0.0201812708900394,0.0018406128639166,0.00232547081171,0.0517708046225045,0.9986544494953542,-0.0235723060930931,0.0109586980168017,9.77427125153765,0.018067624356938,-0.0010992642978877,0.0028683642425759,7.205891857457048,3.744985100327848,2.062199328856096,1117.8978814365269,1141.496281796154,1124.8687168061358,1122.7624983467815,-62.86766877202614,352.25518686188684,-273.8078140911728,135.32300727018563,151.8857949325243
48.54,-0.6265496618530217,-2.182009025421875,-0.0039561996698899,0.0012220343778013,-0.0057348165117586,-0.0200790407569681,0.0018412237830775,0.0022929814268537,0.0517466027379858,0.9986557878635912,-0.0246984096168217,0.0093704609025777,9.7712117128748,0.0180749018378122,-0.0009881534990899,0.0027899584902869,7.205940666978054,3.744983680622916,2.062207952025081,1117.87212718323,1142.2508242058848,1124.2237775906071,1123.148560034574,35.56793317105075,270.6517353188681,-239.2238836850224,170.7987509830254,151.88410364794925
48.5425,-0.6176433811759773,-2.3096765035978786,0.0014009152696388,-0.0014558993081974,-0.0126422053106842,-0.0200134132944065,0.0018434604941786,0.0022539404197064,0.0517224341228588,0.9986571350552352,-0.0253792064310928,0.007606029981398,9.768154950178237,0.0180729685798119,-0.0008732194063677,0.0026952388657222,7.2059899054328,3.7449806224317808,2.0622172537828254,1118.0757211023822,1142.8495404727491,1123.67259738771,1123.6164921016973,96.66430749993708,171.5663145943413,-148.87812997932656,155.25895455281227,151.88203668745624
48.545,-0.578712138642155,-2.344029247590291,-0.009769658928482,-0.0035930514347787,-0.0184925575153375,-0.0200191120978633,0.001850694679041,0.0022095862881705,0.0516961409349754,0.9986585914815672,-0.0256218643214797,0.0057219706274018,9.765140059204276,0.0180637801365995,-0.000754675477683,0.0025835737279141,7.206038799359565,3.7449774411646417,2.0622274226108455,1118.35544872073,1143.1086557788567,1123.4793869407104,1123.9248548073383,112.9178166912997,63.49942346902344,-8.557732331163205,89.80506841975495,151.88028150977536
48.5475,-0.5341704759495063,-2.3032433954362728,-0.0316220239138088,-0.0048487064715483,-0.0239510134542602,-0.0200994743154287,0.0018640459613673,0.0021589764782301,0.0516676657062704,0.9986601581861502,-0.025400245065093,0.0037330368138619,9.76220697851971,0.0180497850601585,-0.0006337142613328,0.002454752499599,7.206086153520226,3.744975654917844,2.062237904920515,1118.640310185838,1143.167037590094,1123.6298087260543,1124.0655174437957,102.45907590191779,-1.289180742696112,121.43929326946972,22.498098176254047,151.87849024245946
48.55,-0.509774965642726,-2.2015237340857627,-0.0583667415808699,-0.0050632414125193,-0.0289889431992957,-0.0202476305624007,0.0018818892879627,0.0020998785946012,0.0516377456205579,0.9986618035238825,-0.0246734880332773,0.0016047524197534,9.759395018953718,0.0180337926431791,-0.0005124037894787,0.002309140386511,7.206131541625805,3.7449758323649136,2.0622477625717694,1118.8677441002399,1143.1022098751434,1124.086583407058,1124.0373452982199,70.66187838941937,-49.0375380522186,253.0609604942653,-49.060512133721566,151.8766674045616
48.5525,-0.5312431692245952,-2.024849386268316,-0.0868028423131283,-0.0045892048835735,-0.033754370176952,-0.020471059608853,0.0019011601217981,0.0020331490548508,0.0516098988390053,0.9986633480264252,-0.0234701022985605,-0.0007156012689011,9.756740926632109,0.018018731497766,-0.0003935277015539,0.0021478651754545,7.206175400062069,3.7449779443744986,2.06225672371918,1118.9936195777855,1142.9218498998328,1124.8951135285263,1123.8202148831267,33.209344700602024,-107.64340432898064,420.61935801859414,-124.54379281505184,151.87480486190603
48.555,-0.6103145711214129,-1.7185763976412824,-0.1183612280416715,-0.0043988189481737,-0.0395365647815878,-0.0207752297737301,0.0019189230785665,0.0019616089861869,0.0515857944547205,0.9986647044030882,-0.021864780820506,-0.0032688401505072,9.754277369853021,0.0180074431439446,-0.0002801322527209,0.0019727167459034,7.206218199328478,3.744982112588972,2.0622643639611504,1119.0337908237427,1142.563992853499,1126.189680197149,1123.4146263341452,1.3790451504512242,-163.33191359099885,508.9845487163199,-157.7032402533962,151.87252240424732
48.5575,-0.6981110551585579,-1.37987336981827,-0.1396383055622786,-0.0052751020146864,-0.0443262843222033,-0.021007740452797,0.0019318353000242,0.0018891070062922,0.0515660585833866,0.9986658391630256,-0.0199601287898882,-0.0060948707338814,9.752031871721503,0.0180025238609223,-0.0001752712156699,0.0017860055891778,7.20626030680331,3.7449884412502072,2.062270832484628,1119.0005148035375,1142.105190331877,1127.4400362721092,1123.0316986818596,-19.608645506367765,-231.5401756832396,506.90290205472127,-143.9513542781415,151.87058019929486
48.56,-0.7635558701959723,-0.9604631924725792,-0.1517694140148198,-0.0075139699411181,-0.0486447761660418,-0.0213145543248833,0.0019383807182264,0.0018193466873728,0.0515501261974357,0.9986667778070202,-0.0178608456782533,-0.0091903225734299,9.750025638060695,0.0180062351111639,-8.170629676343804e-05,0.0015903956103379,7.206302400135441,3.7449962577285376,2.062276306595615,1118.9357475962108,1141.4062919750822,1128.724194707424,1122.694869562754,-28.16557055091668,-377.2395548302732,542.0106404537291,-121.01668989064002,151.86859607221547
48.5625,-0.7620564628418737,-0.3982686937267688,-0.1500611297600995,-0.0111770033618791,-0.0521115092920203,-0.0219336416813993,0.0019374831786382,0.0017547162479277,0.05153474650407,0.9986676863113864,-0.0156514401486889,-0.012537097480026,9.748273092290864,0.018020479040568,-1.6265092761679692e-06,0.0013887553958088,7.206344673763336,3.745004585651405,2.0622802593663168,1118.8596869507833,1140.2189925577277,1130.1500894743751,1122.426615232407,-23.465002134547344,-496.7464122581957,489.8043783799856,-69.78185699974327,151.86616706436695
48.565,-0.6666983616036694,0.0741430897547632,-0.1317305697103239,-0.0140758307333088,-0.0526097557934276,-0.0226351273149524,0.0019259587642752,0.0016983565969397,0.051518516308335,0.9986686383118252,-0.0134375100777662,-0.0161505418711251,9.746781648009476,0.0180468067171594,6.33032416013203e-05,0.0011841104367106,7.206386920832102,3.7450129729303248,2.062282427035782,1118.8184225855382,1138.9225599137935,1131.1732165993217,1122.3459602777557,-7.877639805060943,-574.0501920326798,372.76838353835984,-4.552854947312371,151.8641036076808
48.5675,-0.4612398031358993,0.4856007115148137,-0.0961479905903254,-0.0161644455622603,-0.0506596184976266,-0.023251409812616,0.0019020567317385,0.0016503011700125,0.051500954417723,0.9986696630081948,-0.0112657580606863,-0.0200153440930187,9.745551380484953,0.018086431883552,0.0001119996412552,0.0009793191077564,7.206428613276153,3.7450205950448128,2.0622824219602935,1118.820298751758,1137.3487415975628,1132.013931392068,1122.4038509576703,14.812412666825974,-731.6487380241947,339.32611084820485,44.49220732228694,151.86200081776943
48.57,-0.0935164535226897,0.8458080012996513,-0.0411694845383903,-0.0179276708237604,-0.0465174847745301,-0.0234504515795967,0.0018695515526098,0.0016072933141427,0.0514825403963589,0.9986707349727284,-0.009114869484751,-0.0240072534257051,9.744574949225946,0.0181401708643411,0.0001438825662337,0.0007768354347393,7.206470011517507,3.7450267884004487,2.0622807705432185,1118.8924846488724,1135.2643162236707,1132.8698471535636,1122.5684213143672,39.635351747019406,-772.2877587268814,299.0122754980339,62.715815832382496,151.85943400069922
48.5725,0.298560987261122,1.0102865704826056,0.0068809473333337,-0.0188176098763662,-0.0423940257481502,-0.0232218993582243,0.0018365773723483,0.0015631942052696,0.0514625551996312,0.998671887715694,-0.0069031308472577,-0.0279166528433789,9.743838421954099,0.018208347281532,0.0001587674573556,0.0005785206261805,7.206511393248494,3.7450315907204694,2.062278355780794,1119.0184755104929,1133.487302803932,1133.5089927695567,1122.717430036832,62.45504921536382,-690.0358295623045,245.92005678438153,48.19872541108715,151.8572600999802
48.575,0.7457130344878772,1.036252038975468,0.0500403849495547,-0.0186310567218961,-0.0387361109952416,-0.0229376294165683,0.0018117843492236,0.0015152081988148,0.0514393028868559,0.9986731983887074,-0.0046116977253826,-0.0315184494458537,9.743322408878944,0.0182907154585905,0.0001566396146744,0.0003857693513564,7.20655299137629,3.7450359758198495,2.0622758307367657,1119.2047598949491,1131.8141370758572,1134.099447437486,1122.8094149414228,88.82898128745185,-688.3263268156614,239.5087351067698,21.350101839323532,151.85505133093636
48.5775,1.2839625273752833,0.9426832268100808,0.0928625515948608,-0.016372703165889,-0.0355746273605802,-0.0226172867403959,0.0017994497461507,0.0014669837877019,0.0514121596037379,0.99867468490495,-0.0023480405947431,-0.0346655229114165,9.743003450200344,0.0183864386914593,0.0001374408792107,0.0001996369649731,7.206594794873855,3.745040782703641,2.0622732499822853,1119.4626204169303,1130.0456711698519,1134.7065364450912,1122.8241805460286,92.02825738838511,-600.2229345689559,189.9468608049028,-7.418575027356763,151.85236174516925
48.58,1.6771703555845316,0.7967358658985377,0.1208015832390271,-0.0123888281958253,-0.0336981349586955,-0.0222883844710669,0.001801394079698,0.0014212783406724,0.0513818821344782,0.9986763007753487,-0.0001996875476011,-0.037260283857173,9.74285506227525,0.0184941012119855,0.0001010578595419,2.0624457811822192e-05,7.206636962699597,3.745046548834168,2.0622704997104866,1119.6649011818909,1128.813022403015,1135.0491817415095,1122.772322066286,66.20182709158395,-440.73239907115936,80.7997693254079,-25.55329978798511,151.85008858541627
48.5825,1.9451235532604807,0.6231589861738482,0.141810592606164,-0.0062445236860193,-0.0323923061646908,-0.0218679260200267,0.0018167741714904,0.0013797359864884,0.0513530237370003,0.9986778113706396,0.0017713304018368,-0.039260590256748,9.742848801533246,0.0186117276120258,4.7338248569704045e-05,-0.0001512776956221,7.206679825021831,3.7450535615367007,2.062267396928128,1119.7936295523884,1127.8420091744947,1135.1105352917186,1122.6964140470886,29.871147761226165,-345.1372508769563,-35.23903419607466,-27.83002957106359,151.8477830073708
48.585,2.0719404812070934,0.4551510314994793,0.1590314336852753,0.0010119931965219,-0.0316949256000585,-0.0213951364616933,0.0018464366975521,0.0013434268039974,0.0513284825181651,0.9986790659565709,0.003523424369491,-0.0405960691335837,9.742955085953792,0.0187368429636241,-2.3542627601011216e-05,-0.0003165358265704,7.206724150478318,3.745061489344736,2.0622650309186654,1119.814256920697,1127.0873361486297,1134.8729865705293,1122.6331719184307,-28.2819022043698,-249.1362128318534,-172.51403105408144,-16.46529042974768,151.84545085600163
48.5875,2.0156485353042695,0.3206679989787188,0.1756971993166873,0.008235874765432,-0.031714520089329,-0.0209608663977573,0.0018931186088091,0.0013131784655832,0.0513082554637993,0.9986800582152022,0.0050301510153813,-0.041165601106184,9.743144220204016,0.0188666044524413,-0.0001108640869273,-0.0004759506514146,7.206769775826205,3.7450705763164014,2.062264247894479,1119.6522200413667,1126.5963281103368,1134.247965136449,1122.61408759494,-124.44727295981464,-154.58067400478564,-355.70356913804056,7.123102534247658,151.84308685933314
48.59,1.7663700814300711,0.2172425901246564,0.2015744486126969,0.0152633690670423,-0.0322624406252062,-0.0205955462791755,0.0019539831362949,0.0012869988792411,0.0512940168450535,0.9986807072813704,0.006323556348839,-0.0409871239436947,9.743387611155544,0.0189979591790017,-0.0002133435023155,-0.0006305215647382,7.2068157616400415,3.745081296177141,2.062264239524127,1119.1920205558977,1126.3144327786051,1133.094468724838,1122.668787431102,-217.71303491448407,-54.40066978896484,-474.04100104675615,36.04766544261086,151.8402135892073
48.5925,1.454829043862076,0.1791234862610258,0.2320069443487262,0.0192195742967295,-0.0327324941244326,-0.0204049943056618,0.0020274363864141,0.0012596897112335,0.0512847534161178,0.9986810723601744,0.0075086332254844,-0.0400670800286664,9.743658111999142,0.0191277390232569,-0.0003287396759254,-0.0007812618820036,7.206861859655347,3.745093519006911,2.0622637981914784,1118.5636548667935,1126.3243247613918,1131.877760131214,1122.7943259221531,-301.2815096439693,46.117398432848965,-514.6766690951288,68.33341376847632,151.83778964574452
48.595,1.103873292410884,0.1736855724212081,0.2724579749412297,0.0213371879994801,-0.0326187611239793,-0.0202292061272528,0.0021083055368979,0.0012261689675772,0.0512767188421085,0.9986813605594712,0.0086935675108254,-0.0384926644920184,9.743930907578434,0.0192527066957212,-0.0004536009487799,-0.0009289843389263,7.206909760947576,3.7451048364614015,2.06226212769848,1117.6856130076792,1126.5450197707692,1130.5210853793649,1123.010454499944,-432.10875441028014,127.75270424288296,-601.9625544089753,111.04361583705897,151.8353370987149
48.5975,0.7078249776498098,0.1719783070807178,0.3256133129677741,0.0224550997923759,-0.0317515986048178,-0.0198462106299026,0.002189350800628,0.0011835234482383,0.0512690642639271,0.9986816328585758,0.0099506183161353,-0.0364020736456071,9.744184026467005,0.0193696752355665,-0.0005834255452473,-0.0010742856956395,7.206960437673808,3.74511350265236,2.0622590454358574,1116.4031110947412,1126.9630882826063,1128.8679473591676,1123.3495440013387,-492.0696790459471,162.59110820716026,-596.5729271098229,127.53725647346825,151.832364761169
48.6,0.4352970840752353,0.1506678835431264,0.3628680010990234,0.0226725155182298,-0.0307614780236338,-0.0192241967854851,0.0022644447983097,0.001131619678792,0.0512614573153685,0.9986819193930276,0.0113061950554094,-0.0339230484064209,9.744398652534231,0.0194757685444642,-0.0007128161491079,-0.0012176569954761,7.207013599165663,3.745118976215743,2.0622549898070686,1115.225264612448,1127.3579753118056,1127.5382207438142,1123.6481407823117,-467.2510017817488,150.20702918163826,-515.3942574784336,104.39718079292504,151.82986710124166
48.6025,0.2459557072963737,0.0879821898122349,0.3749446710755404,0.0224356487035115,-0.0298078897661784,-0.0181213882495603,0.002330068668552,0.0010741192339433,0.0512499123322538,0.998682428342062,0.0127208946691264,-0.0311431031480071,9.744559398147704,0.0195687291415304,-0.0008357456043742,-0.0013595642340012,7.207068359305091,3.7451212012824153,2.062250034188841,1114.0668560858346,1127.714123428514,1126.2909760717775,1123.8715299053029,-470.8962948753516,137.3239069542003,-532.1474640544699,56.56389314705682,151.82735345271115
48.605,0.11892465030713,-0.0456438698460828,0.3400193635917753,0.0218148079880021,-0.0289415062081752,-0.0161995302555876,0.0023867578735098,0.0010141917790387,0.051228876309058,0.9986834406211712,0.0141723858648519,-0.0280855975039985,9.744654321400521,0.0196471338000726,-0.0009461152960598,-0.0015006950188761,7.207124248492576,3.745120600349008,2.062244842976384,1112.8707831380702,1128.0445948465767,1124.8774834235403,1123.930960248047,-383.5602535729178,105.96042366250038,-508.5217414273429,-29.60546198331335,151.82432639599986
48.6075,0.0857003300479068,-0.20396742243473,0.2617115190644684,0.0211184401764676,-0.0286361842792839,-0.0142994431962342,0.0024352754410371,0.0009533569288227,0.0511963543643346,0.9986850561928584,0.0156720091294423,-0.0247847516656463,9.744675221729068,0.0197105149341403,-0.0010383919737767,-0.0016420220768861,7.207181036765027,3.7451175709348656,2.0622402226014622,1112.149054817969,1128.2439255468269,1123.7483673646395,1123.7235025953862,-212.82582580562377,73.12733517530717,-443.0826015087797,-152.03836508512907,151.82180157518667
48.61,0.0994181443315566,-0.3986111218598693,0.1387481267672328,0.020670409721096,-0.0289278317942008,-0.0128106149156846,0.0024742714380091,0.0008939573001094,0.0511560313759492,0.9986870866072096,0.0172121104560208,-0.0213273251808368,9.744617900569917,0.0197594360339638,-0.001108069793003,-0.0017846281376147,7.207237791372825,3.745112371394948,2.0622365218521623,1111.806654009043,1128.4102315224532,1122.6620704159986,1123.170768422622,-69.02378445148422,71.31170256294344,-422.8642716194937,-285.3466114927319,151.8192830273225
48.6125,0.1205724961499771,-0.6075813616424806,-0.0026000906385762,0.0210794449073491,-0.0297622974050704,-0.0124363014486454,0.0025049065678363,0.0008362415013613,0.0511140797205939,0.9986892119863424,0.0188250992765737,-0.0177632697587289,9.74448157106426,0.0197954819647919,-0.0011518810280253,-0.0019296633377097,7.2072936463331025,3.745105879812944,2.06223343637832,1111.8039358957114,1128.6004840596415,1121.6340460065412,1122.2967695379218,74.16426951759446,95.7319527669789,-383.5411967769999,-427.92448294918296,151.8167760525304
48.615,0.1090272728116077,-0.8088169830431888,-0.1346590866019212,0.0225193067426346,-0.0313810849951048,-0.0135424408053556,0.0025281949717174,0.0007802657092813,0.0510760341420687,0.9986911467542474,0.0205414829307875,-0.0141527654926904,9.744268802932547,0.0198211609703627,-0.0011678857993302,-0.0020781071210313,7.207348154293075,3.745099266487832,2.0622303505116255,1112.1774753566312,1128.8888912862883,1120.7443644321127,1121.0311460078751,227.4872971103628,166.06457454123853,-334.89077268185144,-637.0560670243658,151.81429027776744
48.6175,0.0176809399865995,-1.005302630394066,-0.2502635914065309,0.0243956768156906,-0.0343964498758889,-0.0154875947747569,0.0025456333870185,0.000724737799039,0.0510443804995181,0.9986927621028197,0.0224108691063465,-0.0105520159786056,9.74398499409346,0.0198397167651804,-0.0011554493721565,-0.002230716922637,7.207401076786603,3.7450935959089935,2.0622264708543487,1112.9413723812622,1129.4308069323472,1119.9595921431335,1119.1114892028029,307.7669889846919,238.91933363412645,-221.74113395242355,-754.3434580175251,151.8113406167027
48.62,-0.1339141506771867,-1.1070464243237392,-0.3021225118032106,0.0254810877528744,-0.0377371754927791,-0.0168776188078853,0.0025558334906091,0.0006700802874839,0.0510176422385893,0.9986941383460404,0.0244372531523729,-0.0070725276789152,9.743638345177825,0.0198549160381366,-0.0011151081240902,-0.0023879100738993,7.207452149125484,3.7450891078937754,2.06222144275754,1113.7163103015555,1130.0834879544595,1119.63565876235,1117.2594287177856,307.87544607999445,301.23189896424316,-43.10486557917625,-764.3893321299582,151.80891625733807
48.6225,-0.3550130618512058,-1.1250462728324062,-0.3132567916974124,0.0257563450430428,-0.0413642253245601,-0.0177207856757015,0.0025581186625147,0.0006175746985572,0.0509928683177873,0.998695428740406,0.0265981944357394,-0.0038089482874061,9.743238920354704,0.0198707910081305,-0.0010485086131817,-0.0025498668973735,7.207501890369891,3.745085847953839,2.062216257365732,1114.4807496116628,1130.9369664271692,1119.7440678152375,1115.2895425421511,308.18625706761685,402.3153334862876,157.26547306781617,-853.5516894166934,151.80653349856976
48.625,-0.6684917008472966,-1.0460617481660066,-0.2947597765040764,0.0248851032692673,-0.0452491780663084,-0.0182956841978111,0.0025546203342742,0.0005672112693527,0.0509713587160758,0.9986965629136662,0.0288885822396575,-0.0007978331357599,9.74279764829482,0.019891385976225,-0.0009584482130203,-0.0027166490139016,7.207550350120189,3.7450842908330664,2.0622113075626447,1115.257241586892,1132.0950646218892,1120.4219861276883,1112.991670270706,254.4250215697088,421.62874119519216,337.720142119804,-801.9054767479264,151.8037293679212
48.6275,-0.936811297997852,-0.9048069755917256,-0.2628484146671764,0.0231313375927315,-0.0478078692100398,-0.0187240239471058,0.0025483507823688,0.0005180671541426,0.0509539422301079,0.9986974928391206,0.0313110538549887,0.0019480674168978,9.742325892079476,0.0199205717472251,-0.0008484523523416,-0.0028881411385892,7.207597139708987,3.7450848529054457,2.0622059789503666,1115.7528747195104,1133.0451101331432,1121.4326685258347,1111.2800151584152,172.94381575229883,339.6987388197512,483.6207211632226,-611.6516292280321,151.80144335722218
48.63,-1.1680347724735338,-0.7022628797581771,-0.2215406640163944,0.0204147046454422,-0.0495222454268041,-0.0191834101053033,0.0025398053885306,0.0004655244838252,0.050939854190994,0.9986982591484433,0.0339271495734835,0.0043731892989219,9.741835159631089,0.0199618276395944,-0.0007224453571752,-0.0030641275559747,7.207642890476662,3.745086454197872,2.0621994144128246,1116.121960665654,1133.7935583159888,1122.8400897335057,1109.9334121245643,150.88943718684743,241.8389644002345,683.8088918139105,-481.4987360911156,151.79921539195524
48.6325,-1.351714090196316,-0.4083435628517227,-0.1662521476938217,0.0161032780744557,-0.0507509642719587,-0.0196378083609298,0.0025304192122701,0.0004103418572216,0.0509277814780915,0.9986989247136046,0.0366853082485639,0.0064570637482155,9.741336630211254,0.0200180979594193,-0.0005846033251597,-0.0032439878567297,7.207687764154991,3.745088389458066,2.0621913613807665,1116.5073219054448,1134.254304955145,1124.8517129849063,1108.8725214779583,145.2748654489781,75.19886868042268,764.759077047315,-284.50087851004764,151.7966149935858
48.635,-1.3948351680391202,-0.13207588905528,-0.1177158667174361,0.0117019969491958,-0.0512480265420277,-0.0199083492201051,0.0025250333709156,0.0003560295416393,0.0509144588325575,0.998699641645254,0.0394757450737825,0.0082609716588146,9.740840279879363,0.0200916252633985,-0.0004392195658095,-0.0034269303037322,7.20773196758225,3.745091390120822,2.062182519235431,1116.8483349928983,1134.1695526593903,1126.6638851187388,1108.5109077320153,151.65607034097292,-138.47366378956585,715.658481567059,-32.15223069462983,151.79451336378003
48.6375,-1.3003040519360187,0.1677022546722896,-0.0680444150516945,0.0066328464349882,-0.0513089931646299,-0.0200878548897707,0.0025260272045835,0.0003042705640162,0.0508997763304575,0.9987004085790236,0.0422160746253039,0.00980943277655,9.740355144205928,0.020183792798849,-0.0002907928262319,-0.0036122634002459,7.207776017822854,3.7450957315654656,2.062173861906683,1117.2656022571502,1133.5619366361968,1128.4300053927432,1108.711760324485,182.2021518590168,-319.61994188802254,669.8111090297273,168.1663431062183,151.7924848344972
48.64,-1.0922130501607497,0.4808246594555429,-0.0177695229051538,0.0016919447870288,-0.0509754900145739,-0.0202203874086439,0.0025330664964249,0.0002549049245383,0.0508846104124094,0.9987011820842226,0.0448533044317514,0.0110854905956512,9.739889130461352,0.020295059270899,-0.0001438102855932,-0.0037993727280106,7.207820711141086,3.7451012611764263,2.0621659022665617,1117.759345752194,1132.5714529499496,1130.0129406638891,1109.3517394475468,212.258313198947,-458.2611658484058,558.2250182943501,344.5307140854261,151.79052084978807
48.6425,-0.7773034306421466,0.7985736891173135,0.0328879902999445,-0.0018686615936336,-0.0499742702234488,-0.0203208542391115,0.0025456776629365,0.0002085390653312,0.0508709533429494,0.9987018625185116,0.0473178936395776,0.0120828700455551,9.739448675186756,0.0204249922173785,-2.628183076547289e-06,-0.0039874982351948,7.207866000498527,3.7451087123457905,2.0621579728306423,1118.326893823144,1131.270630806957,1131.2211304842126,1110.4344138949107,255.33804069869473,-588.5562943580852,417.5704050948435,543.4676231783617,151.78863945960688
48.645,-0.3470614480268859,1.1609282774737513,0.0920726758927756,-0.0036601331939551,-0.0476289514174538,-0.0204010498081096,0.0025606893949172,0.0001653238947675,0.0508601907025084,0.9987023870518684,0.0495470884480395,0.0127541377315083,9.739039017054258,0.0205723246154762,0.0001288033557,-0.00417567000603,7.207911533735699,3.7451185213644926,2.062148939921193,1119.036035955688,1129.6286714781577,1132.1007926893644,1112.06907756344,253.10927095357113,-569.7287003833294,219.84772484272648,622.7679471310691,151.78648345738927
48.6475,-0.0073458948013177,1.4227519825565065,0.1361498862826127,-0.0031685135144537,-0.0444806111083319,-0.0203954940094045,0.002579082128034,0.000123490198675,0.0508518808056682,0.9987027747393104,0.0515222458052236,0.0131411470967289,9.738663012938106,0.0207349951082417,0.0002471994588542,-0.0043627919686457,7.207958096406174,3.7451308500282887,2.062138451703534,1119.5924401779123,1128.4219873050388,1132.3203691084268,1113.5482536305676,199.36042199087692,-398.4493416514837,-11.002420222676848,575.6393761639407,151.78477603695683
48.65,0.2452386098322192,1.61150080238732,0.1661027782018027,-0.0013367862481291,-0.0401266625980822,-0.0202167217857681,0.0026017708439296,8.16566320173508e-05,0.0508467165788689,0.9987029873388232,0.0532220709109329,0.0132930992634158,9.738322216132888,0.0209102639918467,0.0003501519425492,-0.0045476501387528,7.208006766437226,3.7451451622909855,2.062126950446163,1120.0328380656415,1127.636424769902,1132.045780588251,1114.9472744442571,148.4318585101996,-208.5941803485936,-205.40215512795336,559.5833208878369,151.78316648769015
48.6525,0.3951632032540519,1.725582177027188,0.1709696520410375,0.0017365919643658,-0.0342435147731061,-0.0196275296508406,0.0026285822786251,4.012975875184133e-05,0.0508420562381962,0.9987031594840732,0.054597568327826,0.0132461982675999,9.738017592033044,0.021094930336125,0.0004365944262846,-0.0047289678492842,7.208057687768291,3.745160835465972,2.0621147631881396,1120.334599470464,1127.3790164032953,1131.2933583327865,1116.3461702350082,62.292670973752095,28.57624916813068,-314.01662116775094,451.36390802126346,151.7813534965825
48.655,0.3773170587808007,1.7180334508769992,0.1376219240735005,0.0046577385544693,-0.0293339238802131,-0.0186816207019783,0.0026572532343745,2.0049932448397264e-06,0.0508345830713727,0.9987034658991965,0.0555513202831764,0.013002653157119,9.73775040414854,0.0212856189265138,0.0005068859647312,-0.0049054206930611,7.20811011324921,3.745176743244728,2.0621018186996354,1120.3443014205104,1127.7793060157428,1130.4756974824115,1117.2040939843644,-51.5187939415696,271.13297310254086,-322.1513290478671,278.75435884095964,151.77994462398763
48.6575,0.2247413404940249,1.6076813587201828,0.0572841267301297,0.007422142381371,-0.0246266666099397,-0.0172463793289614,0.0026834651531387,-3.127930876623336e-05,0.050822247448898,0.9987040229102904,0.0560252184425024,0.012524410445543,9.737522513894094,0.0214789699950819,0.000562772591464,-0.0050758786093673,7.208163962318672,3.745190607713597,2.062087300222041,1120.0770055007563,1128.7346812688068,1129.6826016875486,1117.7399420292115,-175.0695390430806,500.2986282710194,-296.7208735839296,179.19818809523275,151.778644656454
48.66,-0.0559942105290234,1.3771120609241836,-0.0840843522548505,0.0093491375004028,-0.0195177886564617,-0.0156269841588282,0.0027029701021522,-5.9927460221679455e-05,0.0508054366718746,0.9987048233319225,0.0560030166909767,0.0117722897159892,9.737336904271853,0.0216717761433182,0.0006071260647374,-0.0052395406550775,7.208218421107008,3.745201556234724,2.062070213248259,1119.4689537252943,1130.2807991570992,1128.9920931144911,1118.1000849248412,-257.7279855590905,586.5919123895947,-188.25262832232883,105.43784051509708,151.7772132044182
48.6625,-0.3045655996104367,1.1284389261628327,-0.2142391133619013,0.0086229923116225,-0.0162168448803595,-0.0153859797284202,0.0027113798688758,-8.255091078197078e-05,0.050784210333195,0.9987058776025882,0.055447137507978,0.0107037068398197,9.737199057918458,0.021861054021704,0.0006436517832368,-0.0053960357014731,7.208273220027468,3.745208578972072,2.062051126205382,1118.78836557296,1131.6676408307562,1128.7413385459363,1118.2671312317875,-285.8415621962975,516.6290417914903,-30.23091412458619,65.83515003486885,151.77612868183527
48.665,-0.4800221902106957,0.8591917238795123,-0.3108757138115881,0.0051043600143585,-0.0144705926508357,-0.0170287463616601,0.0027083640661258,-9.878374447541292e-05,0.0507561575524846,0.9987073097673907,0.0543534019158268,0.009350836734205,9.73711711036644,0.0220439765920002,0.0006763866977018,-0.0055458104998202,7.2083290731171745,3.745211518813152,2.0620313959404455,1118.0397459143144,1132.8639443660543,1128.8409385438683,1118.4292606750153,-291.86591969645247,408.2776235765053,81.73523614582703,81.26528987764166,151.77515738690045
48.6675,-0.5453948807104065,0.5999874817021165,-0.3466356597602323,0.0003919256788362,-0.0137807703072493,-0.019562114330633,0.0026978701938775,-0.000112730685096,0.0507217129525831,0.998709085504882,0.0528184534944353,0.0078204169097049,9.737102603733748,0.0222178272768919,0.0007088325405873,-0.0056904235429207,7.208386919816816,3.745211157243267,2.062011982638769,1117.3290359744772,1133.7090289486396,1129.1500147266659,1118.673457681176,-254.20091358678928,219.94989019870104,137.18890027291567,130.79581269742124,151.77428001038888
48.67,-0.4635092387521929,0.3731772497817208,-0.2894035946916151,-0.0034143133847591,-0.0135786335335264,-0.0217574949074904,0.0026860235285216,-0.0001265448017619,0.0506827973925728,0.9987110894545724,0.0509119372028425,0.0062595300143527,9.737172463964178,0.0223801541798253,0.0007434563769717,-0.0058322299917328,7.208445569191245,3.7452102083816703,2.061993757593783,1116.7687413463796,1133.9636938170484,1129.5268830452333,1119.0832397385027,-192.7579800978426,-43.78154394188985,123.72158776386068,222.75734630700092,151.77351555448237
48.6725,-0.2345985441817754,0.1451918994739891,-0.1186036592425444,-0.0056667364071394,-0.0135312826825392,-0.0232200485814281,0.002677843725096,-0.0001416669920287,0.0506403144552056,0.9987132618214964,0.048696209023368,0.0047913766857606,9.737350006405517,0.022528858296007,0.0007815134830588,-0.0059742512026768,7.20850455747845,3.7452101620620137,2.0619773277771367,1116.3652460739888,1133.4901212289303,1129.7686226654844,1119.78724441271,-98.25460238825575,-297.98498251260054,13.785169723944133,286.1641628609405,151.77272865494444
48.675,0.010761709606418,-0.0135817477211194,0.0898474530032823,-0.0058350889925324,-0.0135269672489476,-0.023479707179057,0.0026763596542706,-0.0001569641131537,0.0505943911875497,0.9987155883436156,0.0461881781501368,0.0035007597242076,9.737665361258728,0.0226622600444914,0.00082302298115,-0.0061197955605059,7.208563982857334,3.745211496037725,2.0619636770934555,1116.2774683344383,1132.4737689044844,1129.595808893853,1120.514060552808,9.507497986164392,-506.8322711467908,-179.96152998057255,299.9853466889647,151.77218197472754
48.6775,0.2409750238931282,-0.1526952485330276,0.3367795800031161,-0.0043354536988873,-0.013251601438481,-0.0228805189941167,0.0026858736402523,-0.0001716154741795,0.0505453278647355,0.9987180427681964,0.0434174861210882,0.0024956348681429,9.73815432498235,0.0227790920511815,0.0008668363038252,-0.0062721908842198,7.208623837388918,3.745214866977173,2.0619530909981694,1116.4127835639197,1130.9559598731953,1128.8688150155813,1121.2871711461555,87.64984160815187,-729.5885705587168,-458.256501546028,319.7640114520889,151.77174947150763
48.68,0.4303625404187796,-0.3081727490735509,0.6412054480235709,-0.0010205664704347,-0.0130188153344549,-0.0214415406126191,0.0027079203286092,-0.0001878332953231,0.0504964085717765,0.998720454191572,0.0404742936168798,0.0018265528751389,9.738857797338964,0.02287852037142,0.0009107991764817,-0.0064344048638269,7.208684699694887,3.745220381882031,2.0619447082251767,1116.7157175424786,1128.8258260516943,1127.3045263861247,1122.1128806100671,110.20116141538712,-786.7931920624482,-675.2504955512178,263.5935168148551,151.7713642632043
48.6825,0.4874136575638545,-0.4275687263275328,0.8758615029909447,0.0019136909618827,-0.0136322166415671,-0.0196684035269407,0.0027405557058392,-0.00020643469655,0.0504520406687898,0.9987226048354784,0.0374208579865242,0.0014780626432584,9.739820752036705,0.0229602832291841,0.0009521481201609,-0.0066083964532895,7.208745568338048,3.7452288211436633,2.0619368890034315,1116.963789370997,1127.021993912881,1125.4925625378235,1122.6051387302305,67.71582695943097,-676.5417849666569,-791.9823608526754,137.52438823218895,151.7711565111754
48.685,0.4379127950672492,-0.5271386246930764,1.0603254796068295,0.0040061707339476,-0.015203870379184,-0.0171379395042457,0.0027808476437097,-0.000228904380086,0.0504156925612139,0.9987243266324732,0.0343325256869085,0.0014155430740164,9.741089790651456,0.0230247164387299,0.0009879539980956,-0.0067949501952268,7.208805186005619,3.7452403997420016,2.06192803659788,1117.054296677276,1125.4431171268593,1123.3446145818596,1122.8005025512284,-22.996783434630736,-599.9073136576952,-959.7102109192381,11.63201413415812,151.771068946103
48.6875,0.2827881291369309,-0.6145973949166589,1.1905968647566338,0.0053863889405441,-0.0173904321483781,-0.0131233517534808,0.0028283176786072,-0.000254990532795,0.0503861972777719,0.998725678142847,0.0312527012757263,0.001654499000232,9.742710603338404,0.0230727020791968,0.0010156966049127,-0.0069935366313359,7.208863331361431,3.745254640696579,2.06191771043302,1116.8488054538238,1124.0224573445953,1120.6940114832316,1122.6632988009012,-134.53633665061218,-425.7014355959433,-933.732966027477,-103.83622975150853,151.77110653055675
48.69,0.1027082942110248,-0.6602621829834068,1.2051328581264864,0.0056120005017769,-0.0191072665303963,-0.0092242984832447,0.0028806880118223,-0.0002844545480192,0.050363552714772,0.9987266644818524,0.0282219585142419,0.0021749989896512,9.744726065526649,0.0231054819469243,0.001033493748973,-0.0072024840162429,7.208919933428628,3.7452702312909816,2.0619054840609303,1116.3816149940235,1123.3146099488815,1118.6759497517264,1122.2813214024711,-238.86185776606507,-182.12357695760835,-712.094250350446,-185.10250992394128,151.77125968273063
48.6925,-0.0954714178988233,-0.6825757367003212,1.1145594861854824,0.005292168800263,-0.0206560384477526,-0.0054919518417271,0.002936179427942,-0.0003164828933061,0.0503496669644191,0.9987271932942248,0.0252678656900524,0.0029658884584172,9.74717361967068,0.0231244482854156,0.0010403526741151,-0.0074191447605944,7.208975111763757,3.745286161869928,2.0618913112873885,1115.654496164993,1123.1118394598068,1117.1335402314776,1121.737786251281,-315.59535638677744,-5.075953298134795,-505.683966202892,-221.197836909028,151.77154223876224
48.695,-0.286344005695724,-0.6903064149304355,0.9437933995529312,0.0047252707289261,-0.022127498795777,-0.0024210117494617,0.0029935098694047,-0.0003525126480411,0.050343140959574,0.9987273373057584,0.0224587435644618,0.0040208646747505,9.750083002716986,0.0231308738102481,0.0010365688758116,-0.0076402434706852,7.2090297569375235,3.7453019551633298,2.0618751029525586,1114.8036382120888,1123.2892301823908,1116.1475299207107,1121.1753322179256,-340.6659638861953,148.03840342933475,-237.90818327282784,-202.80343921572492,151.77193349171966
48.6975,-0.4447644807160185,-0.684585832535385,0.6964803437344662,0.0038660740092669,-0.0235115352465584,-0.0003469243009775,0.0030521599966387,-0.0003937852204576,0.0503414041124826,0.998727227159744,0.0198558605376463,0.0053443911034315,9.753474482074463,0.0231258083892303,0.0010236478422065,-0.0078619886626384,7.2090853012393294,3.7453167282728574,2.0618571885497827,1113.9511663455635,1123.8520314769528,1115.9439993151143,1120.723769055203,-338.3300171691277,317.31945392332045,93.41674134793487,-149.2108538360899,151.77245645283972
48.7,-0.5676648032954629,-0.6632713835007382,0.3437191633750079,0.0023595970183242,-0.0250690821569585,0.0011055172575088,0.003110187544195,-0.0004403413184671,0.0503423082306193,0.9987269778457504,0.017491342338152,0.0069085743305506,9.757357697301396,0.0231101144176931,0.001004166330475,-0.0080802184052514,7.2091423964635934,3.7453296569915286,2.061837879419341,1113.1119881262423,1124.8758274520083,1116.6146136274504,1120.4292779487448,-256.44792214243876,420.2094254315977,378.8033372220861,-60.75927689541079,151.773235759011
48.7025,-0.5923995301503756,-0.6302325577208303,0.0274903863976957,0.0002872110273906,-0.0265180276853157,0.0015789314595968,0.0031644027572616,-0.0004922943397641,0.0503447220481711,0.9987266576230744,0.0153928083180189,0.0086540146274095,9.761730541275059,0.0230845934408586,0.0009815102738601,-0.0082906187926236,7.209200427849333,3.7453399378302015,2.061817297558812,1112.6689267348506,1125.9530786041119,1117.838016001226,1120.419972670726,-110.44107155522435,461.63208633803293,580.6617319393177,38.69785912764991,151.7740103056756
48.705,-0.5167519600158262,-0.5740156018936466,-0.2832161470740399,-0.0028644723206155,-0.028220418371443,0.0013119313441798,0.0032104570018649,-0.0005477657864546,0.0503498332452301,0.9987262217178144,0.0135430162574095,0.0104925810698556,9.766578623953928,0.0230501729618476,0.0009594618420254,-0.0084887570518458,7.209258831721095,3.745347480689868,2.0617953963902447,1112.5597827684667,1127.1839878836963,1119.5179222871443,1120.6227672443829,32.148144832428365,557.7257747070108,771.5319665690149,118.20660806700609,151.77491199343373
48.7075,-0.3137313440793993,-0.4731368887515544,-0.6159000985998437,-0.0068323313543815,-0.0302578340492627,-7.787928902490898e-05,0.0032478260211118,-0.0006047666718891,0.0503563640275813,0.9987257375399182,0.0119207448353384,0.0124023539720322,9.771874344765822,0.0230079372527773,0.0009419390482068,-0.008670311418987,7.209317145928141,3.7453533793507265,2.0617721606736015,1112.8296674590129,1128.7417074776483,1121.6956758340727,1121.0110057110614,161.53072191255808,570.45339111235,771.7366199100214,147.94093315783064,151.77613639349974
48.71,-0.0829282052409098,-0.3614218376279165,-0.8350743039565237,-0.008816119992277,-0.0317778065640223,-0.0023863598444408,0.0032759253693381,-0.0006620955442174,0.0503628651493559,0.9987252818704832,0.0105145420083684,0.0143509996233889,9.77757782022944,0.0229591259056944,0.0009326214661485,-0.0088312278527824,7.209375235681622,3.745358177707364,2.0617472399218064,1113.3674363780299,1130.0362548392595,1123.3766053866966,1121.3624719101724,269.4170230959748,502.3579801487834,597.2316353692779,123.6634696399266,151.77727115371658
48.7125,0.1422760465499998,-0.2292643327652733,-0.9703470103880398,-0.0077902546770597,-0.032888543233559,-0.0057960366505369,0.0032922796747573,-0.000716974113651,0.0503672239983151,0.998724972382505,0.0092746497099498,0.0162628074008736,9.783638060160488,0.0229051496252641,0.0009347818338381,-0.0089677688913943,7.209433147074376,3.74536188690501,2.0617205862023718,1114.1767525744915,1131.25349737839,1124.6818340109166,1121.6293230592603,400.8640106906792,506.513784603626,468.79733595354656,74.91695179633811,151.7785190617984
48.715,0.3200905017154226,-0.0663146655202535,-1.0275604766364752,-0.0037671429947798,-0.0332948766315177,-0.0100775845401971,0.0032962019889192,-0.0007675339540836,0.0503683355706334,0.998724870203904,0.0081653843999993,0.0180889995593878,9.789993611424887,0.0228475129458012,0.0009509786464169,-0.0090768397808601,7.209490581781994,3.745364953364964,2.0616923606378528,1115.3717564314843,1132.5688237622787,1125.7205920664655,1121.7370566691543,459.1109039550172,455.28264679168734,304.5753734680408,-7.190848036994753,151.78014041275523
48.7175,0.3549642187121195,0.0561615431086082,-0.99871436156298,-9.072414554009005e-05,-0.032801791802549,-0.0129661086201935,0.0032875165490115,-0.0008105152715456,0.0503654437420801,0.9987250184292068,0.0071190559000922,0.0197864228851605,9.796574401890814,0.022787800383506,0.0009829821689512,-0.0091560734745166,7.209546892286925,3.7453680563617966,2.061663214038981,1116.4723070942675,1133.5299106123496,1126.2047108782576,1121.5933688190755,439.6675609612336,358.78865862387903,148.84384185138407,-108.47878592618007,151.7815894252894
48.72,0.2766534539142097,0.1490380977662426,-0.9174142690740984,0.0021888343096422,-0.0319672325971172,-0.0150532685013744,0.0032698789659095,-0.0008439920207975,0.0503566814757417,0.9987255008728207,0.0060927170618263,0.0213814704273464,9.803303049724141,0.0227275103407473,0.0010317432617947,-0.0092041084985894,7.209601673342068,3.7453719630527456,2.061634336588889,1117.5700942362885,1134.3627670553967,1126.4648112757216,1121.194662739524,455.701586950721,341.80720351328796,110.56002172048267,-219.2492442331756,151.78313336544835
48.7225,0.1030945884188598,0.2193352805940558,-0.7935040354893735,0.0030280170341332,-0.0310277105920865,-0.0171121694088501,0.0032477658408391,-0.000871132568114,0.0503442010110053,0.9987261895652872,0.0051400601159827,0.0229094124394719,9.810097460303762,0.0226678356794981,0.0010972835576353,-0.0092207685113944,7.209655566893104,3.745376932834689,2.061606241285467,1118.7508150290223,1135.2389466299169,1126.7575109868603,1120.497122597909,392.3933442026093,301.55597429805346,133.35953276830423,-269.494408478748,151.7850876870053
48.725,-0.0579844380229963,0.2449710806677659,-0.6897357291122899,0.0022418133558654,-0.0304140097017009,-0.0184377590132864,0.0032257173721876,-0.0008978528045295,0.0503268880976167,0.9987271185232212,0.00436483980997,0.0244036596089375,9.816873178730237,0.0226095601880436,0.0011791728100658,-0.0092068654048899,7.209709668959294,3.745382686474105,2.0615791612442247,1119.5320609573023,1135.8705469268875,1127.1316089395636,1119.8471906971295,253.7850989838751,227.74932081554448,196.7404019512712,-239.04875411543716,151.78679472673085
48.7275,-0.181997282645379,0.2413097746088318,-0.6044533777500048,0.0005782123462542,-0.0299678710317789,-0.0193309422466297,0.0032083872647984,-0.0009281734389119,0.050302547895785,0.9987283783087392,0.0038309360348152,0.0259031006504513,9.823545522732676,0.022553126642448,0.001276541431357,-0.0091638485329695,7.209764058905273,3.745388676533663,2.0615533183384893,1120.0197405239408,1136.3776932339936,1127.7412129966156,1119.3018788273328,138.97392813512107,177.19333544710057,285.0746596637142,-175.29797248185005,151.7885754291106
48.73,-0.2484258735906564,0.2166738614949097,-0.5419509986216025,-0.0012147278692499,-0.0296055853651432,-0.0200031516676207,0.0031994049071464,-0.0009627619216045,0.0502688635769407,0.9987300721820778,0.0035333190649094,0.0274328981091769,9.830031777587928,0.0224987206888141,0.0013881014847332,-0.0090935650832479,7.209818588410824,3.74539430058766,2.0615290649525213,1120.2269305979785,1136.7565136041237,1128.5569822378827,1118.9707008347195,14.141204666468225,118.73806152651304,364.6532302888726,-60.38047377147999,151.790411225295
48.7325,-0.2330131331194921,0.1683069066816129,-0.5058112690113579,-0.002940448045425,-0.0292802059706236,-0.0206613276055674,0.0031997736883403,-0.001001958971507,0.0502256997312639,0.9987322026005506,0.0034567434663984,0.028971527742484,9.836253333520007,0.022446275153506,0.0015120382358378,-0.0089981921932311,7.20987304030232,3.7453999139279617,2.061506069635216,1120.0904465472731,1136.9713835416264,1129.564479148061,1118.9999764584754,-129.5228136519468,66.71152956634316,459.60667851487375,100.95587364726356,151.79230616075637
48.735,-0.1274004221432615,0.0817545067379585,-0.4792035733576336,-0.004605785447496,-0.0289145090912646,-0.0217518752384234,0.0032088969934907,-0.0010465578829879,0.0501751900303524,0.9987346628781092,0.0035928060168032,0.0304713500653631,9.84213712824101,0.0223954909287509,0.0016459354694296,-0.008880090471403,7.209927853704147,3.745406406710308,2.0614838878502364,1119.579316529719,1137.0900712519551,1130.8550156304552,1119.4754802029556,-229.7114153165428,37.89780443151238,460.4602794027333,234.6813450890004,151.79463909442444
48.7375,0.0129410990876905,-0.0158634439818703,-0.455045838737046,-0.0052017247949983,-0.0286994629649259,-0.0230573422530508,0.0032238055589421,-0.0010973277822588,0.0501200138975735,0.9987373265887308,0.0039302563955176,0.0318448325402612,9.847617175320611,0.0223459003576067,0.0017868901074977,-0.0087416567386261,7.209983292754942,3.7454147080927194,2.061461845267919,1118.9418894706898,1137.160872563784,1131.866780545076,1120.173383183921,-271.610851200737,51.27328799996681,358.8754282699466,312.62634139236445,151.79662560139363
48.74,0.1718540972131019,-0.14098749391654,-0.4092747789200884,-0.0047773125830048,-0.0286979477051738,-0.0247150378164534,0.003242885696418,-0.0011521394971764,0.0500626020470706,0.998740078901671,0.0044025297436621,0.0330413760438914,9.852634966073614,0.0222970153042942,0.0019316230685875,-0.0085851913256946,7.210038780442509,3.745425229345032,2.0614393315157926,1118.2212622737147,1137.346437691955,1132.6493927718059,1121.0386119099182,-297.3638539802299,139.97653231630463,260.1979879167268,381.3336060892482,151.79864807272668
48.7425,0.3399403174315464,-0.320763193147733,-0.3153645981203073,-0.0034681725521789,-0.0289473594967373,-0.0266614406508401,0.0032639152621534,-0.0012073999853475,0.0500044730229204,0.998742854931398,0.0049142326126047,0.034007672613052,9.857140756210402,0.022248388724537,0.0020767850390234,-0.0084130229029432,7.210093809898053,3.745437854070144,2.06141658389421,1117.45507020079,1137.8607552253648,1133.1677704846584,1122.0800512143655,-235.12927257017304,250.88704477862743,106.35964764595899,359.58258637447005,151.80110733815496
48.745,0.4337308829623435,-0.4899223408542242,-0.2041933658656709,-0.0020133210969619,-0.0294166455308686,-0.0279195941201511,0.0032835629544732,-0.0012606913864591,0.0499466210522192,0.9987456190901476,0.0053929612096676,0.0346752150756181,9.861094370058447,0.0221995939320373,0.0022192220475594,-0.0082277216688244,7.210148237796689,3.7454523725388498,2.0613944266931084,1117.0456159108635,1138.6008729158489,1133.181191010036,1122.8365248417915,-86.4642456951527,358.76670462489363,-83.6175482391836,263.2435762876429,151.80317689883157
48.7475,0.4553459591930889,-0.6660072305716123,-0.0698899591429332,-0.0004024206344667,-0.0303559664722021,-0.0285307959813087,0.003297191583224,-0.0013091473381544,0.0498908203242729,0.9987483019866704,0.0057576067551936,0.0349576225757372,9.864465709958177,0.0221502347634366,0.0023561712889691,-0.0080320569023424,7.210202396801239,3.745468075421563,2.0613738252405738,1117.022748972314,1139.6545887484904,1132.7496827434622,1123.3962690958044,98.29964444543137,508.4272886247695,-276.3723445440759,197.14403357811275,151.8052593740034
48.75,0.381242866698715,-0.8603371641719161,0.0955381243265189,0.0013019485608271,-0.0323383643447495,-0.0283679861295995,0.0033023220704973,-0.0013503993549017,0.0498375179527244,0.9987508927268453,0.0059403026606054,0.0348171898772804,9.867234288155416,0.0220998978133473,0.0024854836631318,-0.0078289722372393,7.210256645233486,3.7454842548952993,2.0613554099513847,1117.53711413309,1141.1430093589704,1131.7993292873168,1123.8222450096812,277.92841808048064,548.4671647217953,-397.14577609993023,121.39907940793036,151.80776402893267
48.7525,0.2306177785614486,-0.9855080570670116,0.2192079317374372,0.0025507496624082,-0.0348680928173842,-0.0275455197392527,0.0032999951953748,-0.0013852600241338,0.0497883924065878,0.9987533024489622,0.0059411429572594,0.0342882203089464,9.869388937175374,0.0220481405304978,0.0026055773315727,-0.0076215170232279,7.210311219848543,3.745500367088329,2.061338977636039,1118.4123910627152,1142.3969245720969,1130.7639538629644,1124.0032644928435,423.0624585445748,453.3296107875185,-426.92917225773266,50.765383391691515,151.80984942086516
48.755,-0.0113181040933312,-1.0470208911547103,0.3117698504581896,0.0037624273550941,-0.0381927864856125,-0.0263000797230259,0.003293215363434,-0.0014145278603572,0.0497436068564287,0.9987555118479252,0.0057633756431579,0.033448311942118,9.87092791704636,0.0219945842396525,0.0027155807685957,-0.0074124664728447,7.21036606494731,3.745516575665535,2.0613240898089127,1119.652426425814,1143.4096574129092,1129.664683426027,1124.0760719266395,530.5479609605313,326.8426352771859,-419.4593861885679,23.909814617115035,151.81192548548276
48.7575,-0.3194685747389457,-1.0440327682725383,0.3728495178682741,0.0048152275023293,-0.0417059504946053,-0.0250068198783026,0.003284220727756,-0.0014392359869222,0.0497036614396665,0.9987574878064573,0.0054158649216431,0.0323630253172062,9.871859070410505,0.0219389816861387,0.0028152538773223,-0.0072041302657589,7.21042081918505,3.74553274966476,2.0613096631111247,1121.0651308675192,1144.0311377484836,1128.6666569320205,1124.1228135659292,568.5867362008763,118.34665906969198,-342.13389873570316,25.285829019617527,151.8139885621997
48.76,-0.6779934910664598,-0.9633436157473436,0.3972406859617921,0.0050641205311329,-0.0446923904842704,-0.0238158559017047,0.0032732651018983,-0.0014607630211215,0.0496682349089064,0.9987592446810678,0.0049139012620265,0.0310604016260056,9.872199510297,0.0218812387895589,0.0029050085242062,-0.0069982769000597,7.210474945377889,3.745548363118108,2.061294860674437,1122.495360106816,1144.001390708257,1127.95401393235,1124.2025010717375,585.7424011538756,-185.49677597524865,-220.2519701784932,52.012882882282376,151.8160299795548
48.7625,-1.1006168374417449,-0.7919085364841891,0.3927499220481183,0.0030173086955382,-0.0471884114573655,-0.0225581711131095,0.0032618137410115,-0.0014847379642556,0.0496382072858858,0.9987607271957706,0.004359587163562,0.0295889858792621,9.871974370447822,0.0218213336118344,0.0029856868733815,-0.0067963987441268,7.210528231466741,3.7455626267269513,2.061278749839948,1123.99384287329,1143.103653868607,1127.5653970811275,1124.3828779803407,485.62966618049063,-467.1011665591207,-59.12841302489755,81.3754941707923,151.81844733605095
48.765,-1.3850956648839905,-0.6019282772361684,0.3698133150492398,-0.0013956313050429,-0.0485338437203168,-0.0217621574607894,0.0032535172507618,-0.0015168008841148,0.0496140773714322,0.9987618909717504,0.003858949374378,0.0280401249025998,9.87121602250852,0.021759273677454,0.0030584502863085,-0.0065997416608428,7.21058083302541,3.745575431108056,2.061260843695711,1124.9235084377196,1141.6658848754603,1127.6583718672255,1124.609378542592,286.6530021061741,-686.4829133273693,112.31052143567676,102.38107817176784,151.8204298300414
48.7675,-1.5350410104456276,-0.3778648685350444,0.3374717144264649,-0.0077992533173266,-0.0495190294153759,-0.0212041775074908,0.0032503268835289,-0.0015583085871185,0.0495913041500039,0.9987629526052062,0.0034329060475894,0.0264745987394117,9.869964226801407,0.0216950174434707,0.0031248172535391,-0.0064093817947053,7.210633271583933,3.745587847253191,2.0612423097972266,1125.4271078838196,1139.6712393019732,1128.126949688305,1124.894783371199,120.70075407721752,-947.157787195208,260.85607524678676,129.84597742399907,151.82237351711365
48.77,-1.5306955297580687,-0.0815634422700279,0.2957899122921553,-0.0152154750586905,-0.050315500426153,-0.0205918360577905,0.0032523818642935,-0.0016098395836929,0.0495654619173294,0.9987641303437194,0.0030870849669201,0.0249165094117652,9.868265575110495,0.0216284000539743,0.0031862712335529,-0.0062266179534384,7.210686059904763,3.745599869178608,2.0612244340733454,1125.527012208106,1136.9300959394818,1128.96265224346,1125.2586084297122,-37.73666211348316,-1014.4854526485954,322.16318639841006,128.44167145047115,151.8246549991668
48.7725,-1.3905321416941863,0.1798468680592947,0.2607896654652856,-0.0198402363042759,-0.0505486515229008,-0.020071017188571,0.0032564589325112,-0.0016683400621333,0.0495361979207362,0.9987654564342892,0.0027546856222589,0.0233253499504468,9.866173182851648,0.0215592193832087,0.0032440042333983,-0.0060529098641442,7.2107392716987695,3.745611650416461,2.0612081847175365,1125.238424573252,1134.5988120387276,1129.7377656202982,1125.5369917284515,-171.95345245338282,-889.8371293859235,293.57402044060433,96.70940468022009,151.82650963541576
48.775,-1.159209680443344,0.4427263038381456,0.2247842673601429,-0.0225701134293939,-0.0501718790733688,-0.0195261043395267,0.0032575446422487,-0.0017302138710396,0.049504796374354,0.998766889889712,0.0023588324104444,0.0216238989732258,9.863745775882094,0.0214872478947881,0.0032989327764756,-0.0058899369436877,7.210792437445908,3.745623766835751,2.0611934200150985,1124.66724494584,1132.4809102925562,1130.4305223456615,1125.742155453113,-287.28297926080666,-839.6267603919366,262.8454934748353,67.15675618116822,151.82831128811011
48.7775,-0.8437473342568146,0.7366973900771746,0.1777151301223383,-0.024270451262516,-0.0487550916883904,-0.0188286760451246,0.0032462231346023,-0.0017906518860535,0.0494754675216738,0.9987682615935995,0.0017971542870571,0.0196476444382892,9.86104738547536,0.0214123058704638,0.0033516448994702,-0.0057393829955581,7.210845514466688,3.7456355828537,2.0611802883147177,1123.8020096769471,1130.4006782367655,1131.051993087673,1125.8727755093576,-325.4634373167091,-669.8633427746001,189.92190891121317,28.86079097141534,151.83040707231171
48.78,-0.5895825542937725,0.942462869338914,0.1338108578884529,-0.0249781612948237,-0.0465816575364262,-0.0182581860931814,0.0032148187602671,-0.001842622485759,0.0494508130286643,0.99876948072905,0.0009276133529416,0.0172669754630828,9.858145315402977,0.0213342586883822,0.0034024922294597,-0.005602768845121,7.210898278094991,3.7456465361360447,2.061168666130599,1123.0399277592555,1129.1315935786815,1131.3801318902183,1125.88645940797,-289.73634281454883,-408.9341531384516,102.3045905431466,-8.514854556741298,151.8320950495506
48.7825,-0.3755130663604718,1.081875809398773,0.0857657226005249,-0.0252835514610644,-0.0433266513697898,-0.0178867854233499,0.0031639664786226,-0.0018827681445265,0.0494322035562325,0.9987704827058144,-0.0003086881601555,0.0145110836097233,9.85510802606551,0.0212529377315692,0.0034514198170931,-0.0054815846233302,7.210950445185798,3.7456572554027976,2.0611580844401423,1122.353327962876,1128.3560074710751,1131.5635160403883,1125.830201236574,-248.05434649752937,-235.63530964440127,62.6874048676334,-26.712074770452972,151.8337186109777
48.785,-0.2061090665818103,1.152997958141494,0.0368277438960298,-0.0251969170668827,-0.0394788455623006,-0.0177641534917912,0.0030992365491423,-0.0019120229730253,0.0494170373433915,0.9987713762960047,-0.0018788201226987,0.011500919021448,9.852004629840675,0.0211680822011528,0.00349805402983,-0.0053771387048913,7.2110022159927745,3.745668856657157,2.0611485769414126,1121.7996560267673,1127.9534170304587,1131.6935689145566,1125.7528990341175,-180.0619171233836,-84.8332399011745,54.596207491585375,-25.501337705359816,151.8352862257034
48.7875,-0.0919760965248304,1.1407842211524468,-0.0094340690051372,-0.0247831616590094,-0.0357989918243939,-0.0177783718708823,0.0030294391346977,-0.0019323318723252,0.0494012415139879,0.998772330630866,-0.003723847368796,0.0084192487583784,9.848903898349674,0.021079361888792,0.0035416640326875,-0.0052902782346144,7.211053664615947,3.745682726912853,2.061140284266969,1121.4530183772583,1127.9318412715693,1131.8364970778464,1125.7026945480472,-106.96557302995367,60.54548704993117,77.62052292848931,-3.4855357881074136,151.83678358006395
48.79,-0.0058521766302734,1.0488665849264287,-0.0577404706027087,-0.0244720634399228,-0.0324018284133411,-0.0179279086206302,0.0029569999301692,-0.0019452800441457,0.0493834760954254,0.998773400765418,-0.0057945816835654,0.0053230133320184,9.845874217968785,0.0209864247551101,0.0035813001657396,-0.0052211107990413,7.211104771870965,3.7456986922300306,2.061132909753362,1121.264828161618,1128.2561444657083,1132.0816715291987,1125.7354713551772,-44.3208856995853,166.23205603596625,102.27527385176695,33.826375733843605,151.83849594299872
48.7925,0.0409229639755551,0.9298216536606828,-0.0895453211967913,-0.0245540862666918,-0.0304639533608927,-0.0182908328396072,0.0028835682131715,-0.0019527754232514,0.0493662812801273,0.9987744532098064,-0.0080324618514946,0.0022533390261047,9.842981068027443,0.0208889003357675,0.0036159826980656,-0.005168964464823,7.211154890228507,3.7457157276841615,2.0611255994982622,1121.2314139487603,1128.7630015517495,1132.3478734471055,1125.8718264267163,-14.310736837653122,242.1408248675232,110.07059924503488,80.0377774601702,151.839850584892
48.795,0.0844426744846821,0.7908858334307236,-0.1115620125293661,-0.0248595267269757,-0.0291436713424501,-0.0187945290152128,0.0028159592365006,-0.0019617415263128,0.0493528667657029,0.9987752974510417,-0.0102717060500675,-0.0006523447165021,9.8402848238081,0.0207862860219543,0.0036450072987515,-0.0051325969092751,7.211204308203592,3.745732641591631,2.061117308562351,1121.1932744774297,1129.4668485900463,1132.632024525424,1126.1356602424783,-52.693188314881525,347.84200510480133,112.40431637821747,142.37960490667535,151.84112849641713
48.7975,0.1530552620304823,0.6171254254191597,-0.1301984074350995,-0.0252721795900537,-0.027813989998308,-0.0193042603885595,0.0027643602099797,-0.0019831812574531,0.0493432579048518,0.9987758845938755,-0.0122597388493256,-0.0031951668676337,9.837839779862426,0.0206778544287217,0.0036682013163721,-0.0051102321426427,7.211253211551878,3.7457488241059456,2.0611068225993057,1120.9679480071864,1130.502211577272,1132.909895028996,1126.5837244512493,-132.6791403281053,407.2215799274281,80.34052472826697,180.38031886508043,151.8425722183082
48.8,0.2309239968878448,0.4690042659948852,-0.1445935062262105,-0.0254349530465532,-0.0266855036139344,-0.0195792639718918,0.0027357878127829,-0.0020257832030067,0.0493346727805049,0.9987763161536805,-0.0137890507775675,-0.0052374566004221,9.83569359788368,0.0205626516615666,0.0036859076967386,-0.0050994912926347,7.211301160291313,3.7457637591639705,2.0610933120151382,1120.5298787757888,1131.5029564896847,1133.0337271490655,1127.037561836804,-236.8918626707152,422.2372652795116,21.164306811795623,190.49629495220216,151.84370029645547
48.8025,0.3283331560817583,0.3141379944660137,-0.1648875927305232,-0.0250275192556421,-0.0255337857723509,-0.0197143283298327,0.0027261837022096,-0.0020893452169285,0.049324809074667,0.9987767123394384,-0.014833707008622,-0.0068515599243091,9.833886827694812,0.0204395070056107,0.0036987837253519,-0.0050974397699268,7.211348640070678,3.745777974621963,2.0610776644049054,1119.783488693832,1132.6133979036706,1133.015716563055,1127.5362059260108,-388.4244211686004,500.4601411408207,-35.15977262667107,225.0555649920216,151.84475090923243
48.805,0.4563994784795789,0.1171646965016889,-0.2012380642652199,-0.0237651588212065,-0.0244682810622074,-0.0198093543846896,0.0027290985687407,-0.0021681388319016,0.0493125466558342,0.9987771535896834,-0.0154748121266232,-0.0081524645166424,9.832451112257283,0.0203069423987013,0.0037075497258255,-0.0051011873188367,7.211397028865794,3.745792202074963,2.0610615797093494,1118.5877566699476,1134.0052571953863,1132.8579282859323,1128.1628396617632,-466.7891612771995,505.82876999016247,-69.5220739252917,235.24088044447825,151.84592338845948
48.8075,0.5631312477096414,-0.0544023142686477,-0.2411413160202406,-0.0223479906470213,-0.0241963051811561,-0.0199342398498108,0.0027401882351184,-0.002254956251134,0.0492982470029877,0.9987776457410168,-0.0158170525176463,-0.0092135279189639,9.831408518701162,0.0201632136172841,0.0037128582950512,-0.0051082977301403,7.211447302265677,3.745805999668297,2.061046301730604,1117.4495428874447,1135.1425417536227,1132.6681061934285,1128.7124103282335,-449.4621708056431,429.06443339421327,-71.9117064225516,228.53201344043683,151.8468284018734
48.81,0.6616668562862715,-0.2268196973026118,-0.2842508968925319,-0.0208150339265959,-0.0247449774171207,-0.0202526449451835,0.0027581189588918,-0.0023465045122691,0.0492814595982225,0.9987782191246773,-0.0158828214660383,-0.0100542417871544,9.830771642789395,0.0200064897748365,0.0037153145033854,-0.005116999901743,7.2114998144985645,3.7458192058331345,2.0610324795654607,1116.3404458159182,1136.1505793623587,1132.4983697538196,1129.305499728966,-411.7102692952009,365.04049631495496,-54.91134805534322,244.3244201874625,151.84766101780195
48.8125,0.749126161929114,-0.3946744253275007,-0.3204469326339442,-0.0191700869456105,-0.0257685238419099,-0.0208449152444745,0.0027842068693921,-0.0024400769389056,0.0492590819380671,0.998779028219867,-0.0156791801023904,-0.0106443118716033,9.830543637599137,0.01983522277931,0.0037154474735875,-0.0051258884677077,7.21155393038217,3.745831949212125,2.061020080849086,1115.3909915409708,1136.9677442351958,1132.393549453152,1129.93403242917,-315.4711411455223,263.24774206351617,-22.184515815044673,252.02268724583703,151.8484356339417
48.815,0.818426739246439,-0.5542795825588495,-0.3334893799284642,-0.0172732024896536,-0.0270313399905133,-0.0218676378088437,0.002819977898958,-0.0025326867560823,0.049226700360441,0.998780294391107,-0.0152185773658646,-0.0109506278638139,9.830718598528478,0.0196485046254785,0.0037135808626637,-0.0051336560010219,7.211608714414178,3.7458451040223553,2.061008615977665,1114.763090110192,1137.466818072675,1132.3874471747445,1130.565613165194,-183.759700944344,132.65649632205657,14.553373939717687,256.66673100604896,151.84914268298044
48.8175,0.8744145961752431,-0.7365115153184225,-0.3048860024138639,-0.0146930629949093,-0.0285994169659123,-0.0235666793325001,0.0028637410102527,-0.0026205479681993,0.0491818400550432,0.99878215552721,-0.0145338826318907,-0.0110037408385295,9.831282091893886,0.0194463431705636,0.0037097295786626,-0.0051388615175782,7.21166348116624,3.7458597437164896,2.0609977493862073,1114.4721930362487,1137.6310267168064,1132.4663163228506,1131.2173660842009,-28.520816350359343,-11.910788114976912,33.39332708167714,199.6711806251257,151.84991584926695
48.82,0.8950194288410409,-0.8799578742358877,-0.2376874741424894,-0.0123763281886169,-0.0300213444750504,-0.0251311595366305,0.002909545482116,-0.0026987347054141,0.0491268982338258,0.9987845237512863,-0.0136878045168154,-0.010917778280401,9.832211489038446,0.0192298280917793,0.0037036394312961,-0.0051397868988609,7.211717465374733,3.74587632977859,2.0609873450418736,1114.62048602844,1137.4072641321,1132.5544138101527,1131.56396906832,128.35195189448163,-150.6810527815566,25.391503601372637,72.34647878901555,151.85049928925716
48.8225,0.8873574602222783,-1.0078316034732189,-0.1307443861076001,-0.0100263559948156,-0.0318433093617228,-0.0262516431421835,0.0029521079251808,-0.0027664229172441,0.0490663099728801,0.9987871987763232,-0.0126672428449992,-0.0107991029875638,9.833475927922013,0.0190010963759099,0.0036951160019843,-0.0051346002817499,7.211770138318148,3.745894591978427,2.060977284704559,1115.1139527957205,1136.8776214528991,1132.5932738408571,1131.5790984781456,270.05644513815065,-274.5794609422733,-9.254375743280248,-89.9536745005202,151.8510215776496
48.825,0.8486503785045177,-1.1256629595492162,0.0207781394063549,-0.0073549944415595,-0.0347980623909757,-0.0265624196982391,0.0029879127584859,-0.0028265515963321,0.0490080674265626,0.998789790549681,-0.0113905371582728,-0.0107243923656169,9.835036558153249,0.0187632904527966,0.0036842398493915,-0.0051212943104532,7.211820560093144,3.7459131678815054,2.060966678511323,1115.9707682541316,1136.034366827388,1132.5081419314365,1131.114200695817,334.09582541022434,-318.04026123347387,-59.89589555607954,-254.05996214813703,151.8515796992242
48.8275,0.7967684440108825,-1.177609793047462,0.1440793496793745,-0.0053860520627674,-0.0379160206058,-0.0259694334104095,0.0030135802017821,-0.0028808189577868,0.048959845215736,0.998791929142633,-0.0098090387459391,-0.0107683655734826,9.83684710237354,0.0185203993627541,0.0036717047015298,-0.0050975115855104,7.2118676893665405,3.745930508549732,2.0609543425976447,1116.7844319227725,1135.2874201467312,1132.2937943630768,1130.3087986674043,318.2976958556704,-277.76302665199887,-115.77603211304977,-395.5725576180117,151.85198894076856
48.83,0.7317603498709391,-1.1642986216642743,0.2401522684705035,-0.0037704576365984,-0.0414981168241559,-0.0248610994320917,0.003025541730702,-0.0029315446161235,0.0489244350227221,0.998793483602236,-0.0078722135395639,-0.0110124315073592,9.838854735410216,0.0182768711699296,0.0036589619174215,-0.0050607925034136,7.211911512329693,3.7459452866445098,2.0609394675442094,1117.5622567334085,1134.6455516941292,1131.9292617708716,1129.136337907729,311.6627919376012,-230.78654512894008,-183.89953489167647,-565.5387507640006,151.8523415802921
48.8325,0.6448481212593868,-1.0650665950428917,0.3069243231161019,-0.0022081076234953,-0.0456566705435755,-0.0233865173429734,0.0030222846889993,-0.002981496141083,0.0488983586740432,0.9987946225245576,-0.0055295930444103,-0.0115003726675032,9.841000878820138,0.0180371791134432,0.0036480080486374,-0.0050089059241709,7.211952745344902,3.745957262403128,2.0609224752691992,1118.3427458824613,1134.1334874210859,1131.374296688618,1127.4811049135828,255.561372764447,-133.4136821745005,-207.8956906596732,-615.0115928525829,151.8527008411036
48.835,0.5657600278388561,-0.9185039571991714,0.3181981130848963,-0.0009821602606804,-0.0484731561095149,-0.0222266534227307,0.0030045695134873,-0.0030330312691261,0.0488782675191309,0.9987955023627058,-0.0027472029852053,-0.0122323003301021,9.843222498963444,0.0178054840064498,0.0036407909305525,-0.0049401667706672,7.211992169982013,3.7459668687299983,2.0609045008095848,1118.8400635972312,1133.9784832832563,1130.889783317573,1126.0612799434643,175.6473896194399,-4.035445406638278,-175.31093754266777,-536.9301182305998,151.8529482096414
48.8375,0.4758927353271669,-0.7225223567502082,0.2869419443374008,0.0003549571013384,-0.0504547432457204,-0.0212441122598076,0.0029734563496875,-0.0030899075695677,0.0488647141797591,0.9987960825162396,0.0005266841743621,-0.0132042787656438,9.845453950106064,0.017585355962715,0.0036387423528105,-0.0048537407082445,7.212030435157962,3.7459746667528577,2.0608858902761167,1119.2209828305577,1134.1133101940527,1130.4977420009054,1124.7964543224323,148.1035118875904,94.54242388305539,-123.81556390008004,-456.8487398912048,151.85314326033244
48.84,0.3732253158966106,-0.5014299652170003,0.2273897293031655,0.0016457725611899,-0.0518110446108124,-0.020492682757997,0.0029321536857452,-0.0031505554682026,0.0488581648351421,0.9987963350571007,0.0042316150088162,-0.0143649574683671,9.847628538491039,0.017379629124166,0.0036426140212104,-0.0047495871335639,7.212067700257384,3.7459816489263216,2.060867049175529,1119.5805811566695,1134.451195402672,1130.270705498072,1123.7770362440071,161.2369392037265,166.67093414608303,-33.27044991509073,-332.5369257840184,151.85329631903815
48.8425,0.2531869748161882,-0.2686318577445575,0.1450860988604806,0.0026752008488425,-0.052453625332626,-0.0200697083897541,0.0028873757011019,-0.003212550000631,0.0488558456663452,0.9987963824268196,0.0082851322202339,-0.0155922741066075,9.849680436514513,0.0171902297394273,0.0036523994767831,-0.0046287207375961,7.212104638093932,3.7459890121418153,2.060849386356381,1120.0271675265767,1134.9466648647835,1130.3313897513299,1123.133769693511,242.0811589171918,226.12759756991736,107.20987594591605,-193.22967430552416,151.8534006001641
48.845,0.0921852054211671,0.0042134857121375,0.0355826805090095,0.0036864830210899,-0.0523986149178346,-0.0199281000842685,0.0028450327481787,-0.0032723522698934,0.0488541821343842,0.9987963930449046,0.012575041928857,-0.0167766728240526,9.851547032658834,0.0170181715695192,0.0036672628935883,-0.0044931206874876,7.212141540043894,3.745997595340288,2.0608341673709853,1120.7909869512544,1135.5818333905206,1130.8067548778013,1122.8108878724806,329.11793166228097,219.0191281022424,242.79636902061924,-53.70977863778516,151.85347196916567
48.8475,-0.0487378201124382,0.2158959603880546,-0.0540844813568457,0.0044219265169582,-0.0518655546109099,-0.0200938191104765,0.0028121969335057,-0.0033287893590063,0.0488485263966799,0.9987965780060852,0.017031266492315,-0.017784791678692,9.853170330806579,0.0168635797499376,0.0036856468462129,-0.0043456401987751,7.212179225180174,3.7460076911892286,2.060822107342004,1121.6727571848887,1136.041760505295,1131.5453715964336,1122.8652208003223,404.7493562024759,149.68288008873589,356.3028324251259,65.99372645274605,151.85348870866136
48.85,-0.1787152467836841,0.4045765895661819,-0.1317034405456092,0.0047094455499067,-0.0510210087711078,-0.0205328324417624,0.0027928066835555,-0.0033827477616492,0.048836687547345,0.9987970309235056,0.0216173450517806,-0.0185428169613342,9.854498602204474,0.0167258867928081,0.0037053854789845,-0.0041895855336563,7.212219147331182,3.746019454475485,2.0608133331299654,1122.814733732268,1136.3302477909647,1132.5882690399278,1123.1408565047443,548.8433618688749,73.48443069615632,503.6228096635601,139.94632624088803,151.8534637336323
48.8525,-0.2882344969410013,0.6005850037160576,-0.2027247544842572,0.0040573310788407,-0.0495853357883056,-0.0213250838322525,0.0027852290430746,-0.0034346698931642,0.0488206317613991,0.9987976587646265,0.0262802335812515,-0.0190817297089729,9.855487561772238,0.0166041847276982,0.00372388545995,-0.0040281844745763,7.212261535210898,3.746033043154227,2.0608071139357222,1124.4169739942308,1136.4091826587755,1134.063485644749,1123.564952431526,607.899830865661,-19.648121862145626,553.0556061315918,148.68762849907068,151.85338862598167
48.855,-0.3119754280525069,0.7363323257083811,-0.2407961835444128,0.0027345935126033,-0.0478899212165189,-0.0221014610755808,0.0027856829097854,-0.0034838895933648,0.0488013081634643,0.9987984283053096,0.0309414649406231,-0.0194694523682239,9.856100652619661,0.0164976095097484,0.0037384999933487,-0.0038642218999051,7.2123055584433855,3.7460486206441854,2.060802240042928,1125.8542328865979,1136.232007181654,1135.3535470705872,1123.8842946472403,568.0585350918868,-121.24038778332014,495.8148550216912,100.3287721476168,151.8532905199919
48.8575,-0.2363161556466406,0.8416923385847541,-0.2579729321589744,0.0006199460470635,-0.0455552835745175,-0.0227531269502061,0.002792654964645,-0.0035293138757255,0.0487792323757633,0.9987993229204029,0.0355158654347727,-0.0197247967251028,9.856308878278083,0.0164057058941685,0.0037467298732112,-0.003699869202312,7.212349277801802,3.7460659760572392,2.060797666997108,1127.2572666696915,1135.8029807198589,1136.5425599198588,1124.0665962922644,574.6539736403289,-243.6981171427703,465.3955526182611,35.59103159253536,151.85315782116817
48.86,-0.0185032310807483,0.9369288423899934,-0.2587442087025166,-0.0021844247051471,-0.0422548150086367,-0.0233188996785801,0.0028035733079973,-0.0035701157350032,0.0487551440526021,0.9988003174452332,0.0399229335990523,-0.0198842569848671,9.856091091741453,0.0163285902596255,0.0037464937391213,-0.0035366155225867,7.212390967109843,3.7460842292430665,2.060792138034208,1128.727502754797,1135.0135165959412,1137.6805248336764,1124.0622498052028,481.430233353448,-331.56830061372006,350.68692454056213,-41.41096190912931,151.85296093350004
48.8625,0.2531077518644299,1.0007642715772602,-0.24527270638056,-0.0035778980075995,-0.039654690547135,-0.0238240777592737,0.0028183212967234,-0.0036034140169792,0.0487280211662003,0.9988014737091176,0.044045350247794,-0.0199315856644748,9.855433696005518,0.0162668396084201,0.0037363883364324,-0.0033753316782195,7.212429815510346,3.746103153852292,2.0607853208297287,1129.66441783646,1134.1451392167894,1138.2959945425623,1123.8595414827187,298.2847935765514,-384.57097297972155,166.12705197449628,-119.08957091512367,151.85276700317618
48.865,0.5689365014256136,1.0687758172730528,-0.2179190168516753,-0.0029120492691138,-0.0376280104723871,-0.0244719271498598,0.0028371360897866,-0.0036294981705655,0.0486974075049511,0.9988028137255094,0.0478308920855302,-0.0198454647783376,9.854330272480103,0.0162211570092667,0.0037157924596365,-0.0032166344193386,7.212465712498513,3.7461222822776254,2.060777690023376,1130.2189267226804,1133.0906617310416,1138.5111600935493,1123.4668019506269,155.91999040244073,-445.23013156103406,20.19624344995481,-182.5382466463748,151.85254366368656
48.8675,0.871335973322973,1.1550113887806375,-0.1794819715678735,-0.0005987814552861,-0.0357197148217473,-0.0250291155038832,0.0028639557662384,-0.003654712101976,0.0486634035479267,0.9988042986536886,0.0513534799050694,-0.0195378747275917,9.852780709847082,0.0161919608082037,0.0036849456453292,-0.0030612207436266,7.2124998001902,3.746140151934211,2.0607697491716475,1130.4440177884717,1131.9189885589863,1138.3969757598122,1122.9468502494876,20.163934720757112,-483.9368908916893,-114.92296983027276,-228.48133413283128,151.85229694767415
48.87,1.0991159695991897,1.2723731561358522,-0.1293919907118485,0.0032830580253999,-0.0335065300721279,-0.0253012592632392,0.0029024936416328,-0.0036816488224728,0.0486260911466416,0.99880590450656,0.0546175621428892,-0.0189235088351408,9.85079234080064,0.016179101538941,0.0036449549971296,-0.002909673018981,7.212533131507827,3.7461564365431848,2.0607613412439414,1130.3197463962842,1130.6709772765819,1137.9365452443976,1122.324395279962,-111.04138746708261,-546.2691398033191,-259.4712522655337,-282.68651069355747,151.85202306104875
48.8725,1.2328598273082496,1.4473253923791245,-0.0577539722815264,0.0091825037348502,-0.0301849899840012,-0.0255889706400002,0.0029492295056645,-0.0037076422672881,0.0485856129705185,0.9988076430265465,0.0575231517283351,-0.0180576889201652,9.848380999478303,0.0161816495247,0.0035976628926855,-0.0027624852806094,7.212566177467383,3.746171387278168,2.0607517985029324,1129.888810851136,1129.1876428599683,1137.099619498484,1121.5334176960191,-183.26349651077476,-526.3710818034964,-332.57155579193073,-286.2243145582727,151.85166404168552
48.875,1.2146596325810284,1.6121022968066911,0.0106964371111722,0.0143271117722802,-0.0268175320818892,-0.0259237177223678,0.0029987601857277,-0.0037277246937054,0.0485440156849328,0.9988094475793932,0.059930758245728,-0.0170351198963435,9.845570487109075,0.0161977813524723,0.003545351362706,-0.0026203847811981,7.212599804350529,3.746185106590608,2.060741391637895,1129.4034289137312,1128.0391218675668,1136.2736874654395,1120.893273707172,-196.3855957260388,-426.293772547366,-330.7523823047911,-239.2428632720469,151.85134014755337
48.8775,1.0822279692901704,1.7793468702124606,0.0849095683662897,0.0183087339886397,-0.0229460633989261,-0.026000048408297,0.0030478794843968,-0.0037390103932638,0.0485037386710224,0.9988112193338388,0.0617528545340284,-0.0159146895994704,9.842391857735457,0.0162247470346591,0.0034905854828841,-0.0024847041173528,7.212634746884016,3.746197914532386,2.060730734045502,1128.9068828725067,1127.0561739972331,1135.4458575869614,1120.33720337966,-200.91144641759183,-383.0425222292293,-341.0795039300484,-211.689221541138,151.85099108221726
48.88,0.8510037761801947,1.9582638063944044,0.1720520272334404,0.0208008673564304,-0.0177393541983532,-0.0254239942433189,0.0030966318365039,-0.0037400350328129,0.0484685724966815,0.9988127792014886,0.0629430104357812,-0.01469878505949,9.838883425872922,0.0162590081117728,0.0034360222123331,-0.0023575000122629,7.212671939117438,3.746210205187344,2.0607209337455528,1128.3988716816427,1126.1239092564197,1134.5682899457884,1119.8348275994658,-162.9829752502322,-296.84766001399385,-293.5397512830922,-148.9192588990738,151.85054338378785
48.8825,0.648680581724621,2.0691261114853665,0.2367156787011142,0.0212915242672226,-0.0127818934873581,-0.0245240439098098,0.0031468152056281,-0.0037327652065793,0.0484401300870559,0.9988140350551192,0.0635345238262059,-0.0133647415691059,9.835090613837922,0.0162964630313191,0.0033844167105437,-0.0022416044352262,7.212712098821395,3.7462221134758926,2.060713180306087,1128.091967996255,1125.5719356971626,1133.9781588305452,1119.5926070851642,-94.85084654651912,-174.61894921509577,-207.96283164809932,-55.87772017589111,151.85014630930033
48.885,0.4835225634965767,2.1168386352425688,0.2905212168331653,0.0211835626528838,-0.0072553603756651,-0.0235989837663,0.0031991603445926,-0.0037156584271304,0.0484187340129599,0.9988149739182232,0.0635016795348499,-0.0119135077199303,9.831066827552217,0.0163328546201079,0.0033385149570278,-0.0021402061516096,7.212754517445338,3.746233499590808,2.0607083745464903,1127.9246174489103,1125.2508145103448,1133.5284757875488,1119.5554389985866,-43.929785074647306,-94.07362074843792,-180.76952361725333,26.489477298932886,151.84972414790832
48.8875,0.3541109550007597,2.081292429564732,0.3469046516103881,0.0210346064025901,-0.0005316832777177,-0.0226351681494002,0.003255363609473,-0.003686798061866,0.0484035104274894,0.9988156393497076,0.062823236924363,-0.0103321098232846,9.826872270004914,0.0163641201795898,0.0033009524398458,-0.0020566364698885,7.212798146742679,3.7462441325544127,2.060706915619164,1127.8723190708815,1125.1015675934202,1133.0743112124585,1119.7250544716587,0.0984889406935913,-22.18401420485636,-170.23177231813338,86.81906021370303,151.8491880728608
48.89,0.3044711988830458,1.9677589953207557,0.3926099595277696,0.021086910031325,0.0049339748363796,-0.0219377525913097,0.0033130522444949,-0.0036475209900599,0.0483907431587533,0.9988162133311436,0.0615481437652043,-0.0086948947233085,9.822573083529786,0.016386616096098,0.0032742161711525,-0.0019940144851303,7.212842121727953,3.7462532189065207,2.0607082534033463,1127.925109893614,1125.1398944393206,1132.6773169259577,1119.9895342996551,30.953978254666207,40.54071126210196,-187.58119752104685,110.5193158064235,151.84871626301336
48.8925,0.3008828217699424,1.7694483663596063,0.442421492233066,0.0214049009071662,0.010095892712352,-0.0213027794988752,0.003368098693193,-0.0036005964761544,0.0483764875253463,0.9988168906888648,0.0597609651026304,-0.0071150441115031,9.818239946032355,0.0163972532379552,0.0032603742731814,-0.001954773121035,7.212886424529159,3.746260563570491,2.060711853376557,1128.0270889621547,1125.3042711497303,1132.136405224854,1120.2776510506903,40.3611339529355,93.34979893119225,-298.2936476258894,105.379722579383,151.84821783545755
48.895,0.3211350043036409,1.4503425202328892,0.507487100523094,0.022006914894662,0.0152650807070901,-0.0205375185301998,0.0034167763841013,-0.0035500916321534,0.0483585359829407,0.998817776674018,0.0575799436607203,-0.0057005550376652,9.813946083169345,0.0163935462685947,0.0032607659227412,-0.001940304537983,7.212931296421002,3.74626624545826,2.060716729568811,1128.1269155633788,1125.6066434339768,1131.1858486878275,1120.5164329125523,19.81992012910164,124.80881398362708,-413.329738613827,54.43234863598207,151.84758885642225
48.8975,0.3331175508155967,1.1374944395143867,0.5604417983722295,0.0226381631489327,0.0183043309939175,-0.0197315559204638,0.0034586699577003,-0.0035022045875159,0.0483357262012493,0.9988189071914392,0.0551743292026923,-0.0044960749685588,9.809764781043102,0.0163736469563399,0.0032757615495898,-0.0019507611258931,7.21297680028233,3.7462709146542648,2.0607211410949446,1128.1261885628005,1125.9283152196488,1130.069756531784,1120.5498127938706,-31.363730014010216,142.51732889996904,-521.187047358918,-28.09303179190292,151.84703944796033
48.9,0.3067105628719751,0.8037405651908265,0.5973414123982728,0.0236191177149071,0.0200842735745949,-0.0184795540090273,0.0034926332195205,-0.0034630290708384,0.0483083396304589,0.9988202514874986,0.0527148204085491,-0.0035580571680669,9.805767980240045,0.0163364236377097,0.0033045608038578,-0.0019848965563253,7.213022742402061,3.746275471266894,2.060723453196984,1127.970096913309,1126.319230078476,1128.5799134510353,1120.3759677535932,-93.94773920980438,170.00069449355067,-654.2065944749829,-98.80423525391454,151.84646501036795
