t,ang_acc_x,ang_acc_y,ang_acc_z,a_vel_x,a_vel_y,a_vel_z,quat_x,quat_y,quat_z,quat_w,acc_x,acc_y,acc_z,l_vel_x,l_vel_y,l_vel_z,pos_x,pos_y,pos_z,mot_1,mot_2,mot_3,mot_4,dmot_1,dmot_2,dmot_3,dmot_4,vbat
15.5175,0.834180432416788,-0.2034577815200822,1.002538015090872,-0.0139678613962151,-0.03230784442136,-0.0045428429833453,-0.0043663213924544,0.0002703560181023,0.0298082235967441,0.9995457100658268,0.0174829321064856,-0.0110531865652762,9.839511355709213,0.0132214926823962,0.0355624285960823,-0.0004852976512543,10.989465783276463,0.0228786677696785,2.1125723710937123,1111.1234888932636,1108.2848411198363,1126.1444895352124,1100.8793115974547,491.38805460907633,-61.94093434265919,-0.0268603951553867,-292.55009029140086,160.92444267018985
15.52,1.071390302538115,0.0048770623016396,0.8450409861217018,-0.0138993938582501,-0.0323378538131051,-0.0019121984311397,-0.0043718122035427,0.0002004110477684,0.0297946501125097,0.99954608819765,0.0213024747227364,-0.0073703083253432,9.845419260242307,0.0132613148833217,0.0358239881607791,-0.0004751263347411,10.989492971800532,0.0229723507438231,2.1125629407303994,1112.2881020353534,1108.42793967526,1125.9349631381149,1100.2263636345497,465.7878268184231,147.19346384133559,-166.9401222710997,-258.0157211121383,160.92417378540765
15.5225,1.3743399279514077,0.2408944717932128,0.5811311973896629,-0.0129629962152028,-0.0311512516062147,-3.510683490389583e-06,-0.0043833258168792,0.0001212513358708,0.029778569459082,0.999546515423704,0.0253275756199168,-0.0036409166611714,9.851545063352692,0.013308563034371,0.0360976920155799,-0.0004366848226134,10.989521201376483,0.0230670568178349,2.112550711897085,1113.452428027356,1109.020808439043,1125.3097889238568,1099.5892329918938,390.358924576988,243.3443773412893,-269.2659925530768,-222.2201238558335,160.923823416923
15.525,1.596915675710144,0.4149745030855599,0.3260488817143989,-0.0103811611374536,-0.0295212954638865,0.0007082211004005,-0.0044001345643149,4.304709411238981e-05,0.0297655737595621,0.9995468300825764,0.029338166366979,9.728588694384031e-05,9.857804052806815,0.0133637770093156,0.0363847543291166,-0.0003653292052683,10.989549845316173,0.0231615686410823,2.1125377333248405,1114.2398966582386,1109.6446615619664,1124.5886331753493,1099.1152630152703,293.6187430573357,233.61264541417867,-303.5178843040434,-195.75684380460444,160.9235087478635
15.5275,1.7090922753299524,0.565634680794023,0.0624844396583476,-0.0050226175334062,-0.0279000008757229,0.0007239105033189,-0.0044138696256264,-2.4329234574038007e-05,0.0297569804794082,0.999547027583145,0.0331230687037891,0.0039526705040641,9.86410352555157,0.0134272893267501,0.0366868792084158,-0.0002586006546157,10.989578057945636,0.0232552518543988,2.1125263240710455,1114.9205217426424,1110.188871666114,1123.7921995023369,1098.6104487728708,271.70478024768573,188.53312596285613,-316.1242365828418,-217.3773866813577,160.92317128921482
15.53,1.6715611388862939,0.7053815240584523,-0.1923715044573369,0.0020084916725018,-0.0265334928115969,0.0002675762131666,-0.0044229248171179,-8.066184897246178e-05,0.0297501206473689,0.99954718924423,0.0366563600545153,0.007891227286531,9.870346206129181,0.0134992049053193,0.0370060881652502,-0.0001153858787254,10.98960601738728,0.0233476404512403,2.1125171790175274,1115.5984205594773,1110.587327191781,1123.0080119924348,1098.0283760818631,288.3196985144881,128.31322781860575,-301.8614224840786,-255.51171526722652,160.9228157407122
15.5325,1.4159679469393671,0.8445735324326011,-0.4234268743874559,0.0088182501396781,-0.0252067316296707,-0.000710264824271,-0.0044290318987024,-0.0001311450672899,0.0297405460262481,0.9995474370667116,0.0400167238818533,0.0118071274685327,9.876433163417772,0.0135794903613299,0.0373443941773566,6.415628037415705e-05,10.989634020830044,0.0234397001745269,2.1125091785725663,1116.3621202352151,1110.830437805207,1122.2828923899162,1097.3328901965347,366.7022213660677,100.21897401881861,-306.07244552963215,-324.6083551314505,160.92243964740535
15.535,0.8685660440360811,1.0202266990836555,-0.6612199089441633,0.0147080916912262,-0.0232049913278707,-0.00244288658817,-0.0044337581684237,-0.0001777751015023,0.029728074013051,0.999547770925742,0.0432213007599087,0.0155975906331122,9.882267173693414,0.0136683756993551,0.0377033980464568,0.0002787404186057,10.989661908261303,0.0235322788953585,2.1125015591483107,1117.4319316663073,1111.088422061875,1121.4776497647867,1096.4053343062064,415.01603476989726,118.59578736678117,-292.6302350229562,-341.684774144346,160.9219665957354
15.5375,0.2572034837775789,1.172947455058823,-0.8203258419611977,0.0172779962902564,-0.0210719155259789,-0.0042234582477092,-0.0044377546381316,-0.0002204861446736,0.0297159261829476,0.9995480974801476,0.0462488193645827,0.019178538273027,9.887755828689027,0.013766248512978,0.0380841755047431,0.0005259375259086,10.989688954109992,0.0236251077318712,2.112494637882589,1118.437200409064,1111.423416742041,1120.8197412148015,1095.6244663258133,411.5599179893063,189.86783433230573,-276.6134956250448,-291.5133911313204,160.921556006674
15.54,-0.4338227625000642,1.3227821749858053,-0.9328776626054022,0.017164926138193,-0.0183801043304156,-0.0059738008952099,-0.004437338717186,-0.0002531328968263,0.0297076884453609,0.9995483318405824,0.0489619997083333,0.0225565252542986,9.892814408061664,0.0138733178990747,0.0384872682868948,0.0008020505701518,10.989715104338355,0.0237175246625234,2.1124906785374753,1119.489731256254,1112.0377612335367,1120.0945822866615,1094.9477673505496,449.828242672286,350.4084009034066,-356.2649736829269,-249.07792586178144,160.92113080656628
15.5425,-1.2471427912740864,1.4803038509404252,-1.0035669031436298,0.0135651300267735,-0.01438261591917,-0.0080894742607218,-0.0044379776436525,-0.0002745643739888,0.0297041418166655,0.9995484287309389,0.0513182824437244,0.0255579215451299,9.897369466311197,0.0139892195380846,0.0389125961738705,0.0011030712100199,10.989741295125128,0.0238090660602634,2.1124902242529124,1120.686341622426,1113.1754587465582,1119.0384163463868,1094.379076696504,409.5325241474616,477.64086380480376,-431.79184166996896,-157.7152363325099,160.92060674564203
15.545,-1.8387691458802944,1.577031591698405,-0.9945125276721644,0.0074810499087545,-0.0105148673790865,-0.0104779216695031,-0.0044484958800638,-0.0002907061621261,0.0296995737723857,0.9995485171318248,0.0534143148562946,0.0279444873189562,9.901360161436637,0.0141126277033361,0.0393593194146484,0.0014245460681437,10.989768106695536,0.023901025139642,2.1124915843461487,1121.537393876991,1114.4259655525602,1117.935623078312,1094.1591911688872,292.89710218408766,537.6974964727266,-495.87279212961647,-36.84241502768933,160.92016076848617
15.5475,-2.283182117627117,1.6207978837064223,-0.8930546647467413,-0.0007440580141766,-0.0063444169437227,-0.0136359736806148,-0.0044697195506857,-0.0003038445050332,0.0296897084221104,0.9995487194293428,0.0552828981765004,0.0296460818118221,9.904739091385341,0.0142418454964626,0.0398254674861501,0.0017612337016133,10.989795839625076,0.0239951221370338,2.1124940776413674,1122.1508271333466,1115.8639462289223,1116.5590523857384,1094.1948646213657,203.99318919518456,633.5935796771,-665.0003381115637,57.27868840239367,160.91970778493413
15.55,-2.639345463002712,1.5984874933147637,-0.6486791789697112,-0.0104380587023894,-0.0010903272280626,-0.0173709729373306,-0.0044986111994249,-0.0003143056093992,0.0296744307196554,0.9995490550510892,0.0569247493255614,0.03067995703,9.907473698208106,0.014375104384704,0.0403078815256637,0.0021074924015607,10.989824654035909,0.0240924383951471,2.1124976502283928,1122.557359822967,1117.5939334509462,1114.6106213877536,1094.4455846108992,92.06147965880531,602.336730899862,-750.8510046093437,108.88101448215257,160.91915900899994
15.5525,-2.8218088438244417,1.5138953737130736,-0.3465166190733771,-0.017248469922714,0.003275551974315,-0.0198164556878356,-0.0045255096766132,-0.000319544641235,0.029655619682548,0.9995495113561396,0.0582917768487982,0.0312081196016075,9.909546434853235,0.0145105208197126,0.0408025118317159,0.0024571279647402,10.989854363511602,0.0241936533737326,2.112503375385021,1122.6111345316403,1118.8756298834207,1112.8047973626924,1094.7392696937764,-34.18413289605949,446.28461059100806,-734.1753015039199,115.93555514421072,160.91869940883998
15.555,-2.9461364677412725,1.3663360146596215,0.0328027577857537,-0.022708877668669,0.0073044477590594,-0.0211823677888941,-0.0045505984933111,-0.0003238283111823,0.0296329018506703,0.9995500904657996,0.059468162779013,0.0312073594936654,9.910956222997667,0.0146459346967965,0.0413048013479308,0.0028046036138225,10.989885583584456,0.0242979479968282,2.1125114760739945,1122.3864391584868,1119.8253565039008,1110.939744880235,1095.02526238662,-129.54674876303008,309.04437028611653,-731.3497019628578,103.79325189463285,160.91823978407467
15.5575,-3.061881447318395,1.1785726944491355,0.4431550874057694,-0.0275296580385733,0.0108637746055953,-0.0214186279275064,-0.0045770033455424,-0.0003306781773825,0.0296072225559401,0.9995507445206134,0.0605253286645782,0.0306110488254283,9.911717463350307,0.0147793499943736,0.0418099088770468,0.0031449082107752,10.989918740747468,0.0244044693655304,2.112521790396217,1121.963400787825,1120.4208517348516,1109.1480488528775,1095.2582359532496,-204.97295140582065,148.05011409941886,-668.581455286526,76.1738255439349,160.91778182875348
15.56,-3.1870113116561374,0.9651859912454174,0.8376951561977366,-0.032797725631783,0.0134417098141395,-0.019898037777113,-0.0046041117008343,-0.0003374654042953,0.0295809277405754,0.9995514038387368,0.0614181761501928,0.0294452699800971,9.91185833443884,0.0149091401833441,0.0423129482205704,0.0034733750752341,10.989953562287532,0.0245129225429345,2.1125344475142778,1121.3615744014576,1120.565607074398,1107.5968376038015,1095.40613151434,-287.01259611440287,-28.70024292397491,-594.3240280774535,48.20940891632794,160.9173278544687
15.5625,-3.3297020854322774,0.7137428810659227,1.2173936549734024,-0.0409427831240346,0.0151748311989049,-0.0157153204056891,-0.0046340743359795,-0.0003415983801888,0.0295533773271802,0.9995520765228946,0.0621020375604821,0.0276969023113187,9.911419382741203,0.0150339366473778,0.0428092020634755,0.0037862875367928,10.989989355225783,0.0246233807162973,2.112549120101409,1120.5283378072536,1120.277350520232,1106.1764287124909,1095.4992829978312,-309.49287889649685,-164.18933319872477,-432.4827312813292,27.744558892078263,160.91679013538317
15.565,-3.40680661850452,0.5293662148288574,1.4075456548831429,-0.0493663744394865,0.0158775091564192,-0.0107338470021839,-0.0046685784867835,-0.0003395827661718,0.029524946793212,0.9995527461285508,0.0625159737427954,0.0253772809928401,9.910450904029162,0.0151531218829104,0.0432941295717533,0.0040808453091832,10.990025392244902,0.0247363877326536,2.112565466469332,1119.8141100069752,1119.7446604084043,1105.4344239473955,1095.5448543088003,-274.6539546277316,-246.0934852742027,-200.60439304840247,26.1913193514788,160.9163496302522
15.5675,-3.3934230562407928,0.3851456063422316,1.433437922947649,-0.0588102010027657,0.0163424269832691,-0.0054590297128153,-0.0047135951772386,-0.0003315611160909,0.0294982413201013,0.9995533115063234,0.0626691774336694,0.02242442088018,9.909010546281852,0.015267040679852,0.0437634400431706,0.0043556121366481,10.99006084772302,0.0248518633072596,2.1125821599987886,1119.1550680341147,1119.0468830938607,1105.1734067472487,1095.6302395945886,-266.6693625448753,-314.55242035126133,-13.11150564001559,66.68885187504068,160.91591898159973
15.57,-3.2364439190562604,0.2601390313692675,1.275297116853909,-0.0702807220300194,0.0168976031524063,0.000120514537489,-0.0047728549490681,-0.0003149076912299,0.0294786540294149,0.9995536013014766,0.0625169374859488,0.0188345738857743,9.907160281696797,0.015376955625529,0.0442133133232621,0.0046101677413676,10.990094387556544,0.0249693107968178,2.1125982373268126,1118.4807631942508,1118.171898306648,1105.3688664191955,1095.8782985681755,-227.99250546636344,-311.09297645036173,143.63544403025244,127.93550155991214,160.91541579347583
15.5725,-2.9827574829880708,0.1908752126937884,1.009227798921492,-0.0791319751389776,0.0173840392924301,0.003848052349406,-0.0048394429047781,-0.0002836745944868,0.0294681671704869,0.9995535894911192,0.0619523213276369,0.0148277495592792,9.904962777682208,0.0154842761930494,0.0446408510708029,0.0048442556210984,10.99012529910605,0.0250884988113112,2.112614036985065,1118.0151055067831,1117.4914182116092,1105.8915839673998,1096.269917102388,-178.42927181633908,-255.4792488535041,266.4431636679221,204.09857581495532,160.91500933568173
15.575,-2.620627234101072,0.1487993852412565,0.6512355074098679,-0.0864123025499957,0.0177519543276066,0.0063076765682098,-0.004913520231711,-0.0002397096985676,0.0294659320961757,0.9995532938096616,0.0610155246726115,0.0104878602536337,9.902479928044384,0.0155903461846206,0.0450440326766107,0.0050588888364948,10.990154990892249,0.0252084798973134,2.1126298789331814,1117.5886168351688,1116.8945020623803,1106.7010822375353,1096.8987914472505,-206.96736812980313,-254.40722851977287,404.345100475603,332.7553160384403,160.9146179993793
15.5775,-2.104317606159556,0.1183701086789882,0.1857379780957214,-0.093001924208104,0.0181119605118768,0.0071320611265903,-0.004999938344031,-0.0001934746827597,0.0294668642227077,0.9995528289864102,0.0599106794437935,0.0058072391373368,9.899769899613073,0.0156960277113552,0.0454218208815579,0.0052560074111932,10.990185027525513,0.0253293603770192,2.112644652015091,1116.980268666134,1116.21938206901,1107.913309469778,1097.9336936825805,-265.0103114603171,-259.96105869631435,474.5798029645392,421.78775339452136,160.91416784109353
15.58,-1.6411594059688044,0.1011328389385392,-0.1794370379498521,-0.0968220680497845,0.0185388556718988,0.0060282704853486,-0.0051015414066236,-0.0001506058092489,0.0294683442044866,0.9995522485408092,0.0587448478276703,0.0008237218282159,9.896885658518448,0.015802059924562,0.0457740116462122,0.0054380885448347,10.99021569604998,0.0254510997298885,2.1126581153168895,1116.2635652778677,1115.5946967688988,1109.0739812523575,1099.0077302142226,-357.52909846208075,-292.54255445258786,487.1065985702049,462.8517840797952,160.91381029039505
15.5825,-1.1786911931411908,0.0833189614245881,-0.4705489051454104,-0.0992268121305484,0.0190523084754022,0.0039497831612904,-0.0052241612397858,-0.0001162109566772,0.0294689753389129,0.999551559222888,0.0576099265871374,-0.004483333686641,9.89387332677522,0.0159090126478869,0.0461012018835361,0.0056082309655437,10.990247164076916,0.0255734865388005,2.1126696311235733,1115.192623173824,1114.7566692967475,1110.3488424626287,1100.247952602979,-497.1779183070926,-390.9175158878341,522.9081689891337,510.8231431541864,160.9134726141778
15.585,-0.73293585543335,0.0611333721396691,-0.6775902253318355,-0.1007436833329185,0.0194794254437485,0.0016093377693896,-0.0053694462197798,-9.315147101500928e-05,0.0294668737140711,0.9995508087389732,0.0565527244377879,-0.01005270800347,9.890770484597905,0.0160171868238593,0.0464048964430766,0.0057692224632098,10.990279436493664,0.025696463869922,2.1126789920160345,1113.7776756863318,1113.6401091894595,1111.6885220973036,1101.561845929994,-641.0664279090178,-525.925126575257,539.9886742656302,521.3473782731493,160.91315276271925
15.5875,-0.3139519701891146,0.0330922631687731,-0.7729447726782366,-0.1015351035934855,0.0197074930120354,-0.0008422272184604,-0.0055323526037228,-7.817504050260446e-05,0.0294640024971161,0.9995499703374208,0.0555010973384279,-0.0156926274605478,9.887605842874548,0.0161270553915406,0.0466873676306984,0.0059230480325575,10.990312240112177,0.0258196341082829,2.112687386618624,1111.9872910342783,1112.1270436638708,1113.0487858339573,1102.8546894943452,-837.2593442701901,-746.2963390699889,579.3403054186244,531.2101589349969,160.91285633970185
15.59,0.1605869108792479,-0.0046285918872305,-0.761046742584031,-0.1019404038625951,0.019712452949018,-0.0038691512989668,-0.0057038596772605,-6.482181492075465e-05,0.0294658343647356,0.9995489402724588,0.054320215010964,-0.021138641768253,9.88439909871698,0.0162393221066116,0.0469515705534402,0.0060707737419614,10.990344803769748,0.0259424554832771,2.112696434449629,1109.5913789649817,1109.9086274941103,1114.585223624396,1104.2178967246684,-877.6448741558389,-849.8027194140867,524.2976906256989,447.0917103087896,160.91253063253313
15.5925,0.5361798525704949,-0.0368608596381219,-0.6575735241653521,-0.1016854422340083,0.0195006642602132,-0.0063159044997163,-0.0058670046413998,-4.549189044045473e-05,0.0294754498285979,0.9995477270659476,0.0528553850207569,-0.0259781181109638,9.88116078257098,0.0163543693550591,0.0472012644593206,0.0062120390499024,10.990376538446757,0.0260647059525497,2.112708272328536,1107.5990666634984,1107.8780300667995,1115.670274287086,1105.0901480458895,-739.6380534333939,-790.2635401039006,364.5464027792853,279.63445803193457,160.91228663770607
15.595,0.8896591383729465,-0.0685018616793506,-0.4825725587184414,-0.1003833879925104,0.0191164364948938,-0.0081134473787623,-0.0060166670430201,-2.175120630252701e-05,0.0294915180914019,0.9995463959165062,0.0511245603086908,-0.0300487117353075,9.877892322452556,0.0164720641841017,0.047440666145504,0.0063468269120332,10.990408099041144,0.0261859839707311,2.1127230827689574,1105.893188697814,1105.95730979359,1116.4079556382928,1105.6160690148283,-627.6286449612483,-736.5375436394615,218.2723139002044,154.06602978394739,160.91207436630248
15.5975,1.276333768343386,-0.1085887778677996,-0.2318186309260357,-0.0975167111758717,0.0186071387371163,-0.0090368254345199,-0.0061588204344532,8.736967315642137e-07,0.0295076862699599,0.9995450927846604,0.0492164934821574,-0.0334214423656641,9.87458627991805,0.0165915299730665,0.0476742506624986,0.006475924038227,10.990440666938063,0.0263062145212855,2.112739379492216,1104.4609234386928,1104.1953423486032,1116.7616358565867,1105.860478194809,-395.81240153523737,-499.5335828187392,32.40245841325949,39.61423788442395,160.91186054418733
15.6,1.5540976988154025,-0.149140686704201,-0.0218776658157549,-0.0941481120830462,0.0183305980923888,-0.0088035205526366,-0.0062957917927597,2.245134867267649e-05,0.0295197790727916,0.9995439234653192,0.047112402675623,-0.0361053535106787,9.871227028123828,0.0167117195985078,0.0479064494350935,0.006600089720513,10.990474414287522,0.0264257828832315,2.11275606873156,1103.9141266901383,1103.4596418794968,1116.569967930359,1105.8141402042504,-74.29129280843628,-97.431314792296,-173.46113539412744,-43.72502275972919,160.91171983115672
15.6025,1.7684178353498787,-0.2051587261022386,0.1553969562973196,-0.0900932555669749,0.0182234440362761,-0.0074875868176155,-0.0064274719673019,4.413899057929488e-05,0.0295271781784779,0.99954290839928,0.0447751912127374,-0.0380745644004358,9.86779101476226,0.0168316998584542,0.0481413589486053,0.0067201430226751,10.990508878308669,0.0265451066706598,2.112772576472771,1104.0894669746503,1103.7081857746416,1115.894330179616,1105.6418530810104,229.7822467737756,346.13798812582945,-388.36500772852855,-71.95900320215299,160.91162245816764
15.605,1.9331110350714755,-0.2960036673794426,0.3092896222605666,-0.0845729846115152,0.0179679725540573,-0.0053102583098014,-0.0065477304626677,6.962676748171033e-05,0.0295303171384783,0.9995420741048732,0.0421234305483673,-0.0391964918090214,9.86424752850706,0.0169504895572626,0.0483827016674065,0.0068366524041759,10.990543783081579,0.0266645471374528,2.1127899487716855,1105.0630379240074,1105.1903318201264,1114.628142891716,1105.4543451882396,460.5689111096133,716.1146622081166,-517.9511886181565,-47.190890138618045,160.91156164065484
15.6075,1.980923169167724,-0.3906994861738219,0.390044036573236,-0.0794486032786714,0.0175435443284836,-0.0037084101466682,-0.0066581531215053,9.579548914707152e-05,0.0295288007535681,0.9995414196196406,0.0392080249795375,-0.0395077383758719,9.8605589814346,0.017067044261413,0.0486335881050823,0.006950993951549,10.990579223184112,0.0267840916886554,2.1128078007556166,1106.392311530198,1107.2887590856815,1113.304574236526,1105.405898630317,602.1527792671318,957.4020101857379,-555.3778035699038,11.050956608276556,160.91156261031173
15.61,1.9264066685562624,-0.497910471285079,0.4403429792257878,-0.0742589511903234,0.0168381826606237,-0.0027564607843181,-0.0067623400958375,0.0001198398614842,0.0295241106851376,0.9995408777741668,0.0360759143716152,-0.0390967786423936,9.85668245563956,0.0171804637092851,0.0488964207275532,0.0070650438401869,10.990614953329592,0.026904602715123,2.1128238714627794,1108.0738018203435,1109.9773418710558,1111.851253873866,1105.5095999712807,775.5406317919702,1223.698371579703,-637.4740984673648,68.00347048296163,160.91162388125156
15.6125,1.7419900022183643,-0.6249043215273274,0.4949607805622677,-0.0684661455856476,0.0153274492403617,-0.0022277364624967,-0.0068564248504067,0.00014107819994,0.0295171341732511,0.9995404482177436,0.0327401881750927,-0.0379149694966024,9.85257111847497,0.017289753657483,0.0491731118308079,0.0071801542121629,10.990650827054347,0.027027437622323,2.1128373945061845,1110.2700146891586,1113.4072509435807,1110.1172037441886,1105.745915982732,804.6937893745744,1218.4304168041913,-616.4862073507128,82.61219802540661,160.91177585521064
15.615,1.4953828158921991,-0.7144848420511892,0.5520904411694552,-0.0641247708307514,0.013457466167141,-0.001908610828073,-0.006940173268257,0.0001584752138619,0.029507174569331,0.9995401546073244,0.0292228133906276,-0.0359957702533301,9.84817580151044,0.0173937635898251,0.0494651100610414,0.0072978270431994,10.990687009895364,0.0271526813552058,2.1128490508573083,1112.0972707672156,1116.0694939550756,1108.7688228371132,1105.922660961408,701.3428007329852,949.0325785006077,-507.69434445702336,31.308161793282892,160.9119748912815
15.6175,1.1671528009031826,-0.7711322843213728,0.62732611614141,-0.0603809982913068,0.0114059115600281,-0.0013380737541252,-0.0070165368914897,0.0001726339919793,0.0294950866328346,0.9995399562558503,0.0255165424408439,-0.0334437741138829,9.843447148888552,0.0174914798677717,0.0497735384929232,0.0074193781394079,10.990723326851487,0.0272801489770099,2.1128594279742527,1113.7767286928229,1118.152413836083,1107.578732021904,1105.9024567916983,631.7293413827805,698.7953625577846,-447.92428277071207,-65.06000647813272,160.91225820311763
15.62,0.788762960576681,-0.7919547746878303,0.7109804131821088,-0.057222470329142,0.0094788974262729,-0.0004775327477332,-0.007092478518024,0.0001832998186853,0.0294849597800519,0.999539692419384,0.0216342865911862,-0.0304511872781788,9.838337951111866,0.0175822457228352,0.0500993524070597,0.0075456606403038,10.9907598161168,0.0274088759091706,2.112868637062065,1115.25591747413,1119.563470767865,1106.529201423259,1105.5973609290172,530.590626951024,383.8641484222844,-388.1809837860904,-206.97270937954676,160.91261879261583
15.6225,0.3815359211498211,-0.7619664156671897,0.784879465743543,-0.0552096908201555,0.0072724352170744,0.0009049342877306,-0.0071717910614914,0.0001947869384653,0.0294842739261075,0.999539124500542,0.0175070252979138,-0.0271520923100952,9.832805787255964,0.017665706820007,0.0504435809844879,0.0076762880489132,10.990795732243859,0.0275379622003894,2.1128770288247387,1116.4296818275784,1120.0717345781948,1105.6378271029732,1104.8675932448007,433.2281693989396,26.93019440808338,-357.17173449991435,-415.3244389632536,160.91308195578313
15.625,-0.0859072516693339,-0.6618453283870759,0.8260116748348137,-0.0549916867741215,0.0041973981968548,0.0034347221691983,-0.0072474556058501,0.0002136709219651,0.0294978377770874,0.9995381615115064,0.0130331339173837,-0.0234724340723815,9.826815107973632,0.0177411742630973,0.0508076755242561,0.0078085922574966,10.990830545869851,0.0276671086191643,2.1128863364193355,1117.4220583211243,1119.6981217399054,1104.74334275076,1103.5207387342011,286.0413806155634,-269.6857008420093,-294.8830408509043,-551.580374605756,160.91376778100275
15.6275,-0.4144958828295548,-0.5297162492314874,0.792583675251807,-0.0568934910677501,0.0018425004858925,0.0063355514907444,-0.0073199329898423,0.0002372317833649,0.0295259904864411,0.9995367869915638,0.008294539824666,-0.0194953916015198,9.82034009522716,0.0178074523903388,0.0511932057511195,0.0079390686758371,10.99086478579452,0.0277955919577013,2.11289761363184,1117.859888730656,1118.7233060739848,1104.163411898719,1102.1096913717724,84.77294155667134,-472.4589302392076,-184.81264889002728,-583.8638662004538,160.91445494867278
15.63,-0.640819902682264,-0.3676342719317721,0.6650296818495821,-0.0602461713401754,0.0002198546141316,0.0096849860266318,-0.0073932023113263,0.0002566527256526,0.0295626633578212,0.9995351491545682,0.0034951100756102,-0.0153802657709943,9.813367428591377,0.0178624499841306,0.0516018086859318,0.0080632425797437,10.990899863494313,0.0279236530961506,2.112910717138265,1117.8459230289077,1117.335827088709,1103.8192795063098,1100.6014194031986,-118.14963864715509,-633.901585765344,-73.8649524497644,-630.7078086368998,160.91526950671664
15.6325,-0.7844985500151757,-0.1779530469848869,0.4025991276076142,-0.0642110500212469,-0.0006005979396546,0.0130133719893546,-0.0074644525084195,0.0002654862799743,0.0295987840991439,0.9995335354595282,-0.0011995870120461,-0.0111540800405974,9.805897819220522,0.0179033925130001,0.0520350071837739,0.0081751306991059,10.99093735783022,0.0280515722021847,2.1129272041847145,1117.26914053742,1115.5537981451575,1103.79408713647,1098.9561523285875,-304.8783755011452,-625.920555116806,73.03647372151862,-539.0460869151119,160.9164010801446
15.635,-0.8162247383400997,-0.05696741700076,0.1142602303616779,-0.0664868825617447,-0.0002008174585966,0.0144258316528998,-0.0075307429462881,0.0002589313980794,0.0296261888779659,0.9995322106445887,-0.0056515700453048,-0.0068414743924891,9.797947375536063,0.0179274409118443,0.0524937478669709,0.0082682691362364,10.990977848078549,0.0281800681746277,2.112947815639377,1116.3215311514023,1114.2062243131256,1104.1844618749171,1097.9061889686236,-466.07994108405353,-472.5648043323588,255.32345098905,-324.98561581527986,160.9174763309878
15.6375,-0.7949539933646483,-0.0083779295553837,-0.2019519672009289,-0.0673113316824077,0.0011593832383664,0.0142380190840762,-0.007592633925209,0.0002384875938701,0.0296441051242303,0.999531193712883,-0.0098426754738839,-0.0025311857659819,9.789548184277729,0.0179326726166583,0.0529779473033449,0.0083367716017068,10.991020143475023,0.0283101720882956,2.1129719714733484,1114.9387408319994,1113.1909741234956,1105.0707043914156,1097.3312242495108,-682.9643953372239,-356.7012645387319,502.06722101439817,-139.48479728344503,160.91869213313157
15.64,-0.7448277361105942,-0.0507342966588915,-0.5546900772870639,-0.0674405373816663,0.003095700065477,0.0123183184593372,-0.0076571666280345,0.0002072094610706,0.0296549795736735,0.999530362814952,-0.0137844912453224,0.0015651129043796,9.780748500978055,0.0179180881600703,0.0534865413498189,0.0083760518717913,10.991063031111988,0.0284422525433518,2.1129981255928727,1112.9067091747156,1112.4227179904317,1106.6947979799895,1097.2087649822063,-779.3620837449184,-216.78647695725647,672.3046103179942,32.340329867799554,160.92031565887032
15.6425,-0.6892033746707673,-0.1605016219684004,-0.7886379790806322,-0.0680445544091698,0.0041856127891784,0.0095381629948515,-0.007730898442337,0.0001730338160014,0.0296639628955047,0.9995295205358942,-0.0175802110312654,0.0052531761270032,9.771611261122718,0.0178837173372133,0.0540176769314808,0.0083826069103445,10.99110484978904,0.0285760881657338,2.113024807721351,1111.0419304132756,1112.1070417387095,1108.4322274430049,1097.4929258988495,-741.109964939653,-86.35020568510198,739.9262485971683,156.74381682450465,160.92180605721416
15.645,-0.6032631367843942,-0.3113596239833347,-0.9312421446055018,-0.0702625937647679,0.0039129078361568,0.0061506434582538,-0.0078075987774048,0.0001455711211636,0.0296737646024232,0.9995286325747412,-0.021356839619286,0.0085958165873281,9.762211368489806,0.0178301130805501,0.0545692040337542,0.0083527496375514,10.991143862984115,0.0287125166296102,2.113050988798429,1109.201159350018,1111.9909669620063,1110.3944292229748,1097.9924840663286,-699.7537340987761,-37.51716668074874,789.1826843236817,203.84996163540103,160.92343789618835
15.6475,-0.4762674945352191,-0.4583395564486966,-0.9921135184012996,-0.073403990428765,0.0024867462428509,0.002902321039874,-0.007885869858875,0.0001248167244252,0.0296829531372018,0.9995277489969376,-0.0250569910079881,0.0115627256523216,9.75263591682241,0.0177580809120439,0.0551385939376606,0.00828413629392,10.991180022379824,0.0288519768018028,2.113075005194903,1107.5431617427812,1111.9194559053055,1112.378140864624,1098.5121757070267,-581.4704936583894,-42.46747118467529,756.6282603136369,180.16021235668543,160.92518478908124
15.65,-0.2991809707081082,-0.5563955393916211,-0.96428771212536,-0.0760089189215446,0.0001737968114953,0.0001581241759942,-0.0079675234987445,0.0001044962504596,0.0296851119626697,0.999527045132396,-0.0285056372622286,0.0140653495577332,9.74298202101371,0.0176681564004946,0.0557232279381891,0.0081755455217886,10.991214956579556,0.0289941592530628,2.1130965024963344,1106.2938068817257,1111.7786296060829,1114.1775705245436,1098.8932851281122,-415.8784629426382,-96.39254674859427,699.8710511071778,110.06328093619602,160.92706610380367
15.6525,-0.0621846816915367,-0.5769795645013411,-0.8536443143285644,-0.0769738179275157,-0.0031186332457549,-0.0025484516370746,-0.0080459971183586,8.065816287076878e-05,0.0296741155431741,0.999526754035301,-0.0315710753896434,0.0161886238171256,9.733352604333811,0.0175608046723632,0.0563206286405793,0.0080255837276812,10.991251098457974,0.0291382610825638,2.1131178608023755,1105.4637694280684,1111.437493171563,1115.877496120159,1099.0624921117076,-175.41844608014785,-155.54697662875992,518.9457894465802,9.777096567539338,160.929471444954
15.655,0.1169046679972534,-0.5010663294270044,-0.7189118478136068,-0.0760556375633198,-0.0059141521025464,-0.0043236344935977,-0.0081164650412121,5.1050428685866415e-05,0.0296475626525537,0.9995269872931783,-0.0341585430023408,0.0179941060347669,9.723854786821235,0.0174368695103597,0.0569282971288486,0.0078336464445384,10.991289920533974,0.0292836578202846,2.113140886334917,1105.4167146513248,1111.0008947229387,1116.7722994717767,1098.94217061095,117.64437503291425,-196.22128143788927,230.81715915692288,-92.00017486762971,160.93159196739222
15.6575,0.2349006564728352,-0.3380626189349325,-0.5656215635660936,-0.0741879899657585,-0.0080236435796717,-0.0055135749403463,-0.0081786453775203,1.919826970846464e-05,0.0296130041179807,0.9995275217607325,-0.0362900160180896,0.0194689441549211,9.714597206193277,0.0172985636039399,0.0575434662887576,0.0076005321350474,10.991329885508433,0.0294302038772424,2.113165593804676,1106.051991303233,1110.4563867643733,1117.031581915944,1098.6024912373696,414.47762151514394,-244.20948911197536,-32.44499669249953,-176.46667113334715,160.9338227649076
15.66,0.2811852748153207,-0.0802742351346893,-0.3851243790353586,-0.0718400014549665,-0.009176959311368,-0.0063656300332964,-0.0082424542547894,-1.2487971945410774e-05,0.0295789232849864,0.9995280239224912,-0.0379765393422798,0.0204120972337052,9.705688699646242,0.0171489061173584,0.0581632850580425,0.0073292061013479,10.991369576912096,0.0295774133528224,2.113189973660497,1107.4891027589,1109.7798472773793,1116.6100744883145,1098.0598372552831,606.3834149531273,-236.77535992192293,-260.80434751180024,-202.9401745203308,160.93661312092146
15.6625,0.2417193590031009,0.1473221608876614,-0.2504325321465174,-0.0702402975370444,-0.0089456852645715,-0.0066990487345005,-0.0083156431490577,-3.900631204161836e-05,0.0295538487196174,0.9995281795288518,-0.0392842166385553,0.0206767473337903,9.697234010235107,0.0169917064756874,0.0587849537168529,0.0070236829841833,10.99140712845022,0.0297251533103645,2.113211659978844,1109.083908377998,1109.272509964764,1115.7275601783851,1097.587790364768,667.1383617967289,-177.43516516349655,-428.08656729923894,-175.12783258905063,160.93902122173856
15.665,0.14208993928689,0.3395338567103549,-0.1400436870473368,-0.0692738012148647,-0.0073612342224533,-0.0065186111334678,-0.0083943577537637,-5.570130585139972e-05,0.0295418296658225,0.9995278984501464,-0.04027376947524,0.0203504007466706,9.689330549379278,0.0168309560326355,0.0594058790407046,0.0066876891626568,10.991441415177512,0.0298737971821756,2.1132305291521836,1110.8247945678843,1108.8926714515617,1114.469641651818,1097.184198092338,732.6210629771358,-128.56595939977333,-586.5659473073257,-149.34617685350926,160.94150031389208
15.6675,-0.0072713779767569,0.4851472183091193,-0.0336475781011674,-0.0690831956130738,-0.0046559581527414,-0.0061972433536898,-0.0084789293482199,-6.53823882644534e-05,0.0295410040477334,0.9995272295201524,-0.0408727712541334,0.0194434527426072,9.682069139145154,0.0166703684657284,0.060023385729884,0.0063260047123951,10.991471867979968,0.030023994401095,2.113245782755436,1112.7470136928844,1108.6296801677647,1112.794730441848,1096.8410594805005,633.1812962450281,-61.656333033546154,-602.1500343509449,-98.58203576711416,160.944539598323
15.67,-0.1239973422482955,0.5192853689839623,0.0426293115109008,-0.0698739267161747,-0.0025066026961132,-0.0064238266460011,-0.0085731393414969,-7.646325249250611e-05,0.0295447924222853,0.9995263330482758,-0.0409113938348618,0.0179041344598631,9.675532315920707,0.0165129809723138,0.0606346934378902,0.0059440860657043,10.99149886652586,0.0301772561383912,2.113256022086009,1113.9907010491088,1108.584389786394,1111.4588914800638,1096.6912879135025,384.9916909957608,16.266298567186098,-485.2145192936556,-32.30861628289353,160.947112959974
15.6725,-0.1993727548272745,0.4619468194051425,0.1191842948229865,-0.0713885986601731,-0.0008934410087807,-0.0071655353802568,-0.0086749659647085,-9.37909124568659e-05,0.0295482407758176,0.9995253721811522,-0.0402924073445834,0.01580246460636,9.669791314859497,0.0163613306652293,0.0612369850920931,0.0055467116114405,10.991523766762183,0.0303346109329592,2.113261604830997,1114.6719721478635,1108.711011660601,1110.3686578453794,1096.679516399086,164.45979062661692,72.76560415069753,-381.1526851902586,15.030218260378584,160.94971281717284
15.675,-0.226325445699619,0.3371126898317663,0.1989333797219677,-0.0730510002039644,0.0002331210785839,-0.0077148624884655,-0.0087799936657457,-0.0001163399191745,0.0295511318331726,0.9995243929586948,-0.0390357545478381,0.0132643829407322,9.66490584743755,0.0162175124399011,0.0618275867267971,0.0051378731062976,10.99154787682746,0.0304960497571203,2.1132638820032126,1114.813000002242,1108.9482178071476,1109.5531280541122,1096.7664390048044,-74.84877882440412,105.21231885420367,-260.1725882722412,52.92720282092121,160.95232283163844
15.6775,-0.1948419485504854,0.1455814551775073,0.2724068822995007,-0.0741761041291137,0.0008418568684093,-0.0071295356561824,-0.0088785063576231,-0.0001386715413237,0.0295554764525923,0.999523419732773,-0.0372482299026731,0.0105251687943452,9.66092409668126,0.0160827958717527,0.0624044769536095,0.004719927885993,10.991572117074476,0.030661001018298,2.113265743799541,1114.2977282537415,1109.2370732548718,1109.0677949040185,1096.9441524131903,-363.299183071676,107.2688126539774,-153.82579790028436,90.53476605096856,160.95493065698952
15.68,-0.1059319777992758,-0.1406757958978198,0.3325194384242565,-0.0742304464317118,0.0010313817278198,-0.0052533910404281,-0.0089705174177499,-0.0001577332380936,0.0295632003582848,0.9995223907421568,-0.035000404003738,0.0076332375958937,9.657885345994153,0.0159574567791058,0.0629665547815743,0.0042951726057777,10.991598237847263,0.0308274622941314,2.1132692029882927,1112.996504086884,1109.484561870417,1108.7839990646107,1097.2191128350591,-572.9613649315993,47.0601503359757,-71.585552616523,104.45261699472398,160.9580386688974
15.6825,-0.0031768384806342,-0.4098699120602735,0.350186804946869,-0.0735458837866623,0.0006903630044405,-0.0035239335666323,-0.0090583581895142,-0.0001708674542848,0.0295757326816807,0.9995212410541996,-0.0323602591760967,0.0045927987983325,9.65581924303358,0.0158409391299868,0.0635138888182146,0.0038652551479479,10.991627459727768,0.0309934844111973,2.11327535063405,1111.432921429083,1109.4723740065515,1108.7098671409356,1097.4664154981642,-699.9145896375737,-79.65267380217148,-14.223795776340516,96.08666291413418,160.9605970463871
15.685,0.1225241078778056,-0.6878928221912772,0.3382070491793281,-0.0727968298958602,-0.0003547345158051,-0.0022924623836206,-0.0091406032132725,-0.0001748539694392,0.0295923265161492,0.9995200052180444,-0.0294081230740289,0.0014797081794797,9.654745439155706,0.0157320452671838,0.0640476761805314,0.0034309137098506,10.99165927688072,0.0311584111613397,2.1132842643584673,1109.4969311386956,1109.0862985014064,1108.7128800857292,1097.69954614963,-906.1232885624106,-276.95700257178083,7.621665503576574,96.23943634689662,160.96310670289347
15.6875,0.3068952935913163,-0.9992059913961469,0.3080575196174327,-0.0721248273782413,-0.0027298672527962,-0.00156856856103,-0.0092196503796019,-0.0001717125968464,0.0296091110499129,0.9995187752947854,-0.0261290062344549,-0.0017098754503939,9.654674822697775,0.0156292911445387,0.0645698706710625,0.0029933463369343,10.991693006289724,0.0313224204411117,2.1132944629437835,1106.902304986272,1108.087588993693,1108.7479754684537,1097.9476126798986,-970.7928988149091,-456.77546773995334,16.658687471775597,87.41712188941085,160.96604520473275
15.69,0.4982376809696016,-1.2140420945936892,0.2849828183552829,-0.0716586116383122,-0.0057996671185271,-0.0014597885370643,-0.0092989424764445,-0.0001672946975237,0.029620746677419,0.9995176792271264,-0.022437816003821,-0.0050062068192701,9.655608789048067,0.0155314529136868,0.065082795382301,0.0025543605309438,10.991727184993607,0.0314869210778083,2.1133031205836725,1104.642966644622,1106.802421162707,1108.796173523088,1098.1366317590769,-888.5755116642915,-590.69709828227,26.164587753869917,76.91855175947856,160.96842204913816
15.6925,0.736948119268352,-1.3551504508123404,0.275667935468802,-0.0708876440022242,-0.0098224946930726,-0.0014841872023316,-0.0093805765855466,-0.0001680010400331,0.0296240897203151,0.9995167955785988,-0.0182406797310977,-0.0084187142063281,9.657538355953935,0.0154382353402094,0.0655888048610542,0.0021163041785648,10.991760912983109,0.0316528666174312,2.1133084582856285,1102.4594274279495,1105.1341035022813,1108.878798407223,1098.332205438696,-896.8288812744012,-779.801163846665,47.7469249550193,91.55386492955971,160.9707125713886
15.695,1.0753654744408003,-1.4220420206219624,0.2803853625461468,-0.0690944437895779,-0.0148534539176747,-0.0011974806735854,-0.0094643589209056,-0.0001776741237899,0.0296188066344373,0.99951614261212,-0.0134947820729739,-0.0119166440392368,9.660443495296082,0.0153504140101908,0.0660902053069705,0.0016818445608669,10.991793638365364,0.0318204716738356,2.113310006813625,1100.1588222382493,1102.9034153434732,1109.0349081478632,1098.5944010837247,-756.0161130796727,-813.784325876557,66.94083518274478,98.59638065174435,160.97334965657086
15.6975,1.389053884516076,-1.3926285741231377,0.2897504521490292,-0.0667863301223336,-0.0186415437532088,-0.0006602044284013,-0.0095456362694626,-0.0001910361515712,0.0296085158527846,0.9995156581230612,-0.0083343566686096,-0.0153836735491228,9.66429250898915,0.0152699389552945,0.0665892578270574,0.0012535070060259,10.991824268493492,0.0319892770315566,2.113309505658391,1098.679346862552,1101.0651818728993,1109.2135025831367,1098.8251873419547,-466.8850719529653,-675.2382941645319,78.50266201393107,84.71055527983066,160.9754468965746
15.7,1.7115044801251644,-1.285916176721819,0.2907867557992442,-0.0633786710110315,-0.0219124141472061,0.0001179127975304,-0.0096263503588371,-0.0002064281701551,0.0295968113382071,0.9995152153147466,-0.0028328319425429,-0.0188388338508755,9.66904308957563,0.0151992716852361,0.0670883000187824,0.0008345401866473,10.991852443123996,0.0321582413324359,2.1133077848840407,1097.824396878484,1099.52722387265,1109.4274214579327,1099.017953860124,-223.41369104179796,-526.2689568953278,86.66756400128644,59.351154209425474,160.9774325887222
15.7025,2.0173351984642056,-1.1268299852230135,0.2739407796327753,-0.0589427704562802,-0.0248545484204978,0.001098967172049,-0.0097076726093445,-0.0002219645699433,0.0295877444369313,0.9995146837995594,0.0029267152661398,-0.022291635880532,9.674641324969027,0.0151411444331578,0.0675896929125601,0.0004279574076191,10.991879084044449,0.0323263500434344,2.1133056534075942,1097.562278407343,1098.4338370884223,1109.6468404031432,1099.1219431130019,39.31390743783468,-295.06847098924896,80.07456912361478,6.314978632236836,160.9793212211646
15.705,2.271967454618664,-0.9198118627366576,0.2253056966918255,-0.0537215673709706,-0.0273485032429659,0.0023100430065668,-0.009782399740361,-0.0002348617880835,0.0295831743966668,0.999514077195567,0.0088419732609681,-0.0255936253807951,9.681021328677664,0.0150979290716614,0.0680956780804582,3.555220145520582e-05,10.99190486995903,0.0324933252721055,2.1133042005293543,1098.0209664156732,1098.051881517704,1109.8277943035507,1099.0495287532851,348.4727526026984,16.271261139175802,55.62743758711092,-85.48049844113731,160.98108796737668
15.7075,2.4794210323355848,-0.6367570966784993,0.1264397386098073,-0.0466549470616878,-0.0296608529517854,0.0038182887044296,-0.0098476084532234,-0.00024825602981,0.0295819237355942,0.9995134561562232,0.0149158980975102,-0.028685416208097,9.688105726908269,0.0150713293548657,0.0686080583786073,-0.0003404039756256,10.991930868244703,0.0326595956126706,2.113303440666012,1099.304642170356,1098.515193394118,1109.9249775910787,1098.6945406207963,565.4657313654777,316.11512787425966,3.925927334011544,-178.56968187563263,160.98306110476346
15.71,2.5440472726362895,-0.388113830444916,0.0178184121892101,-0.0399102926972422,-0.0310500710591077,0.0046993130905632,-0.0099041727371011,-0.0002667452662947,0.0295815840712566,0.9995128843749036,0.0211716110986349,-0.0315833158833994,9.695805306550625,0.0150625690568188,0.069127837399484,-0.000696852332877,10.991958107863306,0.0328263061337711,2.1133026471914254,1100.848295072501,1099.6324571570756,1109.847423940221,1098.1566803439068,673.1020319911152,564.8192369590587,-75.35884987258855,-261.7200116781123,160.98457859119495
15.7125,2.4727329275180714,-0.1470460425477113,-0.096363112391083,-0.0329861033215424,-0.0316979908468034,0.0045248222484364,-0.0099534052339856,-0.0002924912560002,0.0295808053208635,0.9995123952222912,0.027579722944449,-0.0343104667981657,9.704019146192945,0.0150728277419468,0.0696549311793243,-0.0010301037670619,10.991986968057324,0.0329940559179705,2.113301383395127,1102.6701523303122,1101.3392895789138,1109.5481833417157,1097.3859405624055,811.3826753460465,824.4802510597132,-189.76140471876667,-377.68289726294154,160.98595939004238
15.715,2.2204621135349503,0.1076305902642203,-0.2082087532517066,-0.0252168204590481,-0.0312557790446954,0.0033095854101166,-0.0099971991264746,-0.0003217234613001,0.0295815969908157,0.9995119201453276,0.03399120403728,-0.0368960174622301,9.712635472601534,0.0151037964771902,0.0701879973565019,-0.0013356320202557,10.99201613728582,0.0331637037679851,2.113298279206617,1104.9052084492305,1103.754858412373,1108.8986169166271,1096.2682658575925,790.0144103477163,894.1916558889227,-286.58967548731266,-424.3235343049282,160.98745253609272
15.7175,1.8769525290971447,0.274899999935011,-0.2625174518285854,-0.0194556425133702,-0.0302138627786355,0.0020693533831552,-0.0100303108843818,-0.0003461903768398,0.0295876396450954,0.9995114069781272,0.0401698764091428,-0.0392244398914732,9.721532839185338,0.015157606965293,0.0707244831557497,-0.0016092422002462,10.992044424448922,0.0333360415370737,2.1132934183693974,1106.6202243820514,1105.8102478583592,1108.115234964279,1095.2643228908803,619.0579314184048,772.0355448873917,-357.3334767101538,-391.5849933518827,160.98855615357112
15.72,1.4159102971524635,0.3848140928612656,-0.2662820742236476,-0.0146831383997484,-0.0288972946449885,0.0010160528939509,-0.01005763923479,-0.0003668519279156,0.0295987155271258,0.999510806581679,0.0460483194466026,-0.0413771915836739,9.730581029053598,0.0152359600872764,0.0712609984245111,-0.001845143948114,10.992071108021408,0.0335116887153267,2.113284974480772,1108.0004981063228,1107.6150361368109,1107.1119495330763,1094.3103408908328,503.6603013293281,686.4967911078112,-475.93859795024775,-380.96366864973186,160.98950886310388
15.7225,0.769061717596198,0.4496951286428456,-0.2121431562831698,-0.0105714978135893,-0.027180575503039,0.0001000369058415,-0.0100853279377855,-0.0003896988888224,0.0296115482475589,0.9995101469948566,0.0516539887341217,-0.0434569271735115,9.739642789112002,0.0153400427529019,0.071793561817096,-0.0020374078458,10.992095550950443,0.033691740436272,2.113270492570756,1109.1385258886976,1109.2427318138975,1105.735541974528,1093.3595045476322,323.48193848217375,488.3309089534185,-515.2720021093617,-302.0733304965834,160.9904721220326
15.725,0.1948716670123716,0.4540122824944343,-0.1221997669479991,-0.0090943585427101,-0.0258159779686595,-0.0003906290298185,-0.0101126503996682,-0.0004156499757911,0.0296241770910324,0.999509488440097,0.0569200582559007,-0.0454235846183186,9.748577446683738,0.0154709049265804,0.072317856071339,-0.0021815024790248,10.992117429833792,0.0338770974157538,2.1132497752801838,1109.6179077987335,1110.0566906815775,1104.53558952253,1092.79997423835,99.11193393280243,209.84768186145988,-464.382595346133,-168.03043270571936,160.9911213381772
15.7275,-0.3558675488211835,0.419851275196709,0.0073127061770317,-0.0101300569194173,-0.0247036368295919,-0.0006433917868849,-0.0101414028405891,-0.0004434986603415,0.0296342966483863,0.9995088798765122,0.0617387522246526,-0.0472789582240755,9.757244560114488,0.015628866112279,0.0728298782706218,-0.0022738448194552,10.99213747614432,0.0340672000993243,2.1132243341025942,1109.6340855583617,1110.2919702232048,1103.413628997797,1092.5193523841035,-57.54148668292156,6.053562730993653,-415.68809944699615,-67.32063625835364,160.99160851758623
15.73,-0.8449355950782443,0.3659626178196291,0.1632277795928851,-0.0130971554800499,-0.0238284806171514,-0.0007005727632083,-0.0101727728689306,-0.0004757267578354,0.0296374203070989,0.999508443936528,0.0660784717767524,-0.0490099741024634,9.765507620106707,0.0158128829418209,0.0733265824037632,-0.0023131552310108,10.99215698504051,0.0342612164139,2.1131963781832988,1109.330200365319,1110.0869584952325,1102.4571490252947,1092.4633710570583,-173.8972934314352,-171.80317225705727,-322.7258840262681,24.22311632527025,160.99196058652123
15.7325,-1.2264386527113087,0.3030035232493873,0.3404545426232911,-0.0173427283427348,-0.0232326799216002,-0.0004490855151094,-0.0102087604048556,-0.0005170581339999,0.0296319307305,0.9995082129051036,0.0699585068155643,-0.0506177705312503,9.773238771550227,0.016021096162385,0.0738062121736841,-0.0023007220656828,10.992177482469875,0.0344575962654095,2.1131681769693063,1108.7645990912047,1109.4329543619199,1101.799999577666,1092.6404679657298,-269.7235671769282,-365.67767847576494,-203.78972751483613,118.15056469170456,160.99215040034866
15.735,-1.5494140246064187,0.2331519512849894,0.5581669093304519,-0.0225336218471068,-0.0228740780937731,0.0004025316264362,-0.0102493476284512,-0.0005651450232966,0.0296219132868626,0.999508073690307,0.0732717955703093,-0.052059618829522,9.780324851314683,0.0162512993397303,0.0742684748685246,-0.002240760423567,10.99219896464382,0.0346546915939158,2.1131415145963226,1107.981582529434,1108.2585701028531,1101.4382003877204,1093.0541238805167,-274.4523513782977,-474.2109080810847,-56.93097305055764,174.35402404318668,160.99219345366535
15.7375,-1.7176879704604204,0.1876837992600411,0.7243905751288052,-0.0264483388404341,-0.0227677083005208,0.0017503828794593,-0.0102848845206254,-0.0006129429267742,0.0296120968171712,0.9995079884482772,0.0758368562569,-0.0531029918524517,9.786672093994403,0.016500254838946,0.0747147078396406,-0.0021415042187013,10.992221368542364,0.0348509926967158,2.1131194153034487,1107.3923373343127,1107.061899821514,1101.5153447124133,1093.512238085946,-192.2683074018024,-496.7802370863944,108.83201418030131,194.54187437362867,160.9920789141256
15.74,-1.803443811452816,0.1587895173168277,0.8473610782368088,-0.0298847039730692,-0.0226361944560603,0.003915977912956,-0.0103153300049431,-0.0006586090115695,0.0296043920366006,0.9995078971926792,0.0775818484364339,-0.0537092763257473,9.792208456443374,0.0167631942059064,0.0751478822121314,-0.0020121565014886,10.992246295381943,0.0350449948279119,2.113103590837746,1107.0202409924252,1105.7746689174219,1101.9823604586215,1094.026833252385,-93.83164429488765,-555.9099060614896,290.72803045352305,227.64699398367136,160.9918141415361
15.7425,-1.8287838221253696,0.1401354289446408,0.9143705987331128,-0.0337227726506256,-0.0221636318218174,0.0073142802064867,-0.0103442033543769,-0.0007030526990758,0.0295986170141066,0.9995077652211428,0.0785024881229356,-0.0539166211797238,9.79688683027184,0.0170340964448049,0.0755721241829027,-0.0018629490581143,10.99227442632418,0.0352367612920672,2.1130932432901774,1106.9231791128386,1104.2823502912072,1102.9689848646804,1094.650473055864,23.110178932389346,-517.1984043630902,427.01897564227386,223.58642249747527,160.99133164401377
15.745,-1.7846210676809915,0.1340367404694134,0.8878401952850865,-0.0371730460070908,-0.0215873666642085,0.0103721512503372,-0.0103688792094998,-0.0007430494404416,0.0295946080925374,0.9995076223869144,0.0785345976879901,-0.0536478873478639,9.80068794985314,0.0173063358369816,0.0759920677560077,-0.0017055755693545,10.99230549869302,0.0354270064805318,2.113088128908271,1107.1357918870872,1103.188676895606,1104.1174553368335,1095.1447653648725,129.81783233106188,-385.40960725266245,515.4048024769612,189.65271290923505,160.9907996966984
15.7475,-1.6549564616894368,0.1355695980695069,0.7712732279354123,-0.0412609835273251,-0.0210895598465455,0.0131533116551913,-0.0103884578564256,-0.0007810789628882,0.0295896707607739,0.9995075522727936,0.0777424072173388,-0.052871200144725,9.803619244469965,0.0175725944569575,0.0764124840928146,-0.0015515130788389,10.992339783659215,0.0356163044395768,2.113088280725258,1107.572268274494,1102.3553022549436,1105.5460088770656,1095.5987366204104,208.8983082750889,-292.4537468397048,669.629993456098,194.0272849792495,160.9901420948722
15.75,-1.3707988135324074,0.1481462762035845,0.5399339744819642,-0.0466590854120199,-0.020732278194356,0.0156066641517375,-0.0104027188940838,-0.00082281351964,0.0295801631570194,0.999507660201538,0.07627027008187,-0.0515789225265035,9.805714220067811,0.0178254828384518,0.076837826475518,-0.001411365643544,10.992377390456896,0.0358057459903859,2.113092909748901,1108.1802834284624,1101.7264081614076,1107.4656053041133,1096.1149017897685,206.39509458455464,-168.1941803742,712.9572151512148,191.1899441004533,160.98921833584288
15.7525,-1.0112402736164268,0.16996650964732,0.2891158338470967,-0.0512636551227606,-0.0206204070566284,0.0167745504800841,-0.0104169382805525,-0.0008719558744565,0.0295659240549588,0.9995078948489272,0.0742386241068107,-0.0498797967522239,9.80703083947962,0.018058638061413,0.0772718143817417,-0.0012932866402583,10.992417694668866,0.035996436278728,2.1130999013098535,1108.6042437474166,1101.5143313530727,1109.1107949528212,1096.5546863409124,117.75331903416352,-30.68097789000124,630.9561997799315,188.20429690596723,160.98834410668556
15.755,-0.5273732395787873,0.2038803598307403,0.0048261429053757,-0.0554029976611832,-0.0205806136302734,0.0172298929501522,-0.0104349672283259,-0.0009263107519683,0.0295510266208168,0.9995081001572313,0.0716695307154384,-0.0478606189206401,9.807648701799764,0.0182672295555177,0.0777172691627598,-0.0012034349709108,10.992459799141596,0.0361888737832241,2.113107683093129,1108.769050023633,1101.5730032719575,1110.6203863030134,1097.0559232742985,3.686074366123072,55.78853729597578,553.7204654342576,217.29966473673144,160.9873707650773
15.7575,0.0322415327629883,0.2439763465123899,-0.2854545070053357,-0.0582536214395725,-0.0204460168086404,0.0171239415615757,-0.0104534791268879,-0.000978505704182,0.0295394939129948,0.9995081970283404,0.0685011717175141,-0.0454724137865422,9.80766442181732,0.0184475696799066,0.0781762796382779,-0.001146660635652,10.99250293733923,0.0363831639690183,2.113116469576101,1108.6226741192472,1101.7932740395527,1111.8793972799929,1097.6411846645963,-143.20341825185216,113.68972397024196,417.37891637566577,257.45783521543336,160.9863221801248
15.76,0.6161976685534705,0.2808826123824557,-0.5542388324037963,-0.0580947032625311,-0.0199413884312301,0.0161238509301878,-0.0104750675970183,-0.0010270676968259,0.0295322468567877,0.9995081284237338,0.0647941720376455,-0.0427923036529266,9.80718497837309,0.0185967593672742,0.0786504365695857,-0.0011247051486911,10.992546843111816,0.0365790692667072,2.113124785270285,1108.0530329323742,1102.1414518918089,1112.7072808848911,1098.3432124503754,-339.26253073577,174.84797891899683,249.77030192386067,331.70513396079787,160.9851912868176
15.7625,1.2328820549330435,0.3031413352841343,-0.8129822842856659,-0.0534161855095871,-0.0185805665588472,0.0135405532777268,-0.0105037770323455,-0.0010737095127502,0.0295284715984501,0.9995078723391878,0.0606781578636036,-0.0399333591588851,9.806322967792875,0.0187129933827895,0.0791408547149764,-0.0011368085715707,10.992590945585848,0.0367765118670879,2.1131308956892823,1106.926361465568,1102.6675139341476,1113.1282487896124,1099.2997103344003,-464.05477292980333,212.42033820937056,63.982689576131634,362.0309077578784,160.9837499688612
15.765,1.602095669762584,0.2921492406096247,-0.9504673659043154,-0.0465931926174922,-0.0169177703553652,0.0103835505446105,-0.0105396491346477,-0.0011167079152001,0.029527928997653,0.9995074367000316,0.0562222721230509,-0.0369328657432615,9.805192065902919,0.0187959619301301,0.0796481403889502,-0.0011805648883,10.992633848104916,0.0369756123206765,2.1131341037600513,1105.7327590677248,1103.2035535828559,1113.027194332772,1100.153366989165,-486.1227372451652,241.06734920160557,-111.91121248305032,341.9057974773976,160.98248653180676
15.7675,1.7753217256830751,0.2487167344211193,-0.990269628696472,-0.039395025052705,-0.0154823643001614,0.0069035092530373,-0.0105853417694187,-0.0011566646848758,0.0295299297151371,0.9995068152557022,0.0515407916644852,-0.0338840953619328,9.803901437751533,0.0188465545628608,0.0801725194848754,-0.0012514393964676,10.992674591572191,0.037176431129995,2.1131333946864475,1104.4957477793428,1103.8728506801556,1112.5686927271972,1101.0092393217872,-490.08376417696786,331.3161887380579,-246.3617237116104,364.5081317254424,160.98116723502875
15.77,1.7725056592567925,0.1751048982455286,-0.9290962773407776,-0.0326248283456595,-0.0148174436631549,0.0031630764192337,-0.0106416973161697,-0.0011979053954767,0.0295311207064888,0.9995060980322796,0.0468194180410046,-0.0308489392343404,9.802551355112916,0.0188662379599348,0.0807140023628956,-0.0013440251463281,10.992713772589212,0.0373791518351115,2.1131283722991614,1103.2823402468405,1104.8601345265458,1111.7953857142143,1101.975907647792,-353.67987427411134,392.5318205944519,-291.0502012692632,335.81748372911744,160.97952878621214
15.7725,1.6378497114306183,0.1133297147051089,-0.8040809201212203,-0.0288385069017479,-0.0149230791782781,0.0007586682952371,-0.0107050438855588,-0.0012402202008207,0.0295320059790762,0.9995053152389884,0.0421535835421146,-0.0277996303702085,9.801230218757874,0.0188578556755389,0.0812722271790062,-0.001452806086448,10.992751711484704,0.037583621735892,2.113119939161124,1102.727348407972,1105.835509783128,1111.1134417208507,1102.688326740433,-86.62748780337562,415.361015285706,-249.06026571557703,254.59564747821443,160.97812344996547
15.775,1.426239089549962,0.0683878208517883,-0.6316038957730707,-0.0264390719876312,-0.0152357325558734,-0.0008445631257037,-0.0107729712789041,-0.0012769636842498,0.0295379609906812,0.9995043471535924,0.0375058936455505,-0.0247297156171582,9.800011853210883,0.0188256062742538,0.0818465181105217,-0.0015717064173205,10.99278798542028,0.0377890658282639,2.113109348708464,1102.8492028078235,1106.9369396029747,1110.550084385636,1103.2488858851832,226.27231705514487,500.9282233565132,-195.39164718198003,196.05926322141647,160.97668315307587
15.7775,1.1373181880026175,0.0438200528882516,-0.4062213154583152,-0.0242926464376295,-0.0154342779504252,-0.001927965796635,-0.0108358715925675,-0.0013018296341901,0.0295520869967499,0.9995032150324672,0.0328401889660147,-0.0214908957310318,9.79895285077571,0.0187736455066965,0.0824361467218075,-0.0016960791312912,10.992822361526324,0.0379951769362284,2.1130986726095977,1103.8587099932474,1108.3401508999102,1110.1364834849408,1103.66862305654,502.12792336211686,516.9247936637577,-100.86976231762732,99.52319283859913,160.9749209689115
15.78,0.8890317275987512,0.0492768772481432,-0.2266150591065061,-0.0227857463039084,-0.0153385478895242,-0.0021320088565765,-0.0108924933067776,-0.0013180076341226,0.0295718335274104,0.9995020013486042,0.028289392672744,-0.0181023579111007,9.798091951276,0.0187052257652227,0.0830404409269827,-0.0018205802922831,10.992855567508224,0.0382018102422473,2.113088354172562,1105.3598424246345,1109.5215635712939,1110.045735574048,1103.7465018493763,699.3186411613622,459.79036444589013,9.402269384962333,-37.15546254879302,160.97342846194
15.7825,0.6400985828469131,0.0808963482449329,-0.0760019686621971,-0.021547913397277,-0.0150172542577765,-0.0017831197404483,-0.0109472751434965,-0.0013334197974621,0.0295894818555281,0.9995008733053654,0.0240625458953361,-0.0146953521454671,9.797450784891105,0.0186225627641797,0.0836586533636295,-0.0019393774223039,10.992888825043424,0.0384099064242139,2.113076903533768,1107.3553031990548,1110.63910272214,1110.1834948318658,1103.482845743796,930.70199828226,457.0710093732032,88.66309532128925,-199.04203474042652,160.97191525177243
15.785,0.3330062580275366,0.1497901212792743,0.0607603702590852,-0.0203255124775571,-0.0145351593130379,-0.0011808490327204,-0.0109993781495624,-0.0013500418600636,0.0296003249459694,0.9994999748781332,0.0202434947871252,-0.0112918918568861,9.797034631480258,0.0185281776397664,0.0842895540013593,-0.0020476559253548,10.992922301165684,0.0386207333531187,2.1130631343567274,1110.0133524160449,1111.8069186181594,1110.4890510506543,1102.7512916756743,972.4441633925496,385.9737091202391,111.934585782114,-330.9418452665999,160.97007955535062
15.7875,0.059579384095349,0.2356882257944998,0.1389113938126627,-0.0195644898251984,-0.0142523861076028,-0.0007240530174001,-0.0110459571698206,-0.0013669800330012,0.029603900179093,0.9994993540683696,0.0168496077094263,-0.0078701611650445,9.796833708866476,0.0184251688504809,0.0849314841372642,-0.0021413950127784,10.992955857093403,0.0388350277138298,2.113046693565209,1112.2175240160163,1112.5689712677408,1110.7431677607763,1101.8281365174632,833.5354512853944,251.55220141592207,76.4115459528392,-414.97236995549304,160.9685359052082
15.79,-0.2435380620236912,0.3542042761681465,0.1870051529260741,-0.0191885652875303,-0.0139823990586937,-0.0003854246514347,-0.0110811491877273,-0.0013802461459555,0.0296037576535195,0.999498976409779,0.0138282640801619,-0.0043443062955785,9.7968251286008,0.0183172739334323,0.0855825968499252,-0.002217863046052,10.992988339509719,0.0390531686035553,2.113028118989147,1114.1810296724725,1113.0646796252393,1110.8711087804184,1100.6764298258963,721.8763134231502,154.38398169219315,18.97955363315008,-477.5939903426824,160.96698065714804
15.7925,-0.5746034155722444,0.4984836662423929,0.2167351111002421,-0.0192573615957575,-0.0133598637292025,-0.0001195507791342,-0.011111217066784,-0.0013893474130453,0.0296034266872525,0.999498664698413,0.0111765921089736,-0.0008649438218431,9.796976671009554,0.0182081597435227,0.0862413859790628,-0.0022735270320073,10.993019584144731,0.0392738472322248,2.113008207255216,1115.8269055831329,1113.340891176202,1110.838065528942,1099.4401665657495,565.9355254376567,67.10943381628084,-53.384562907705615,-487.11299636561904,160.96541768444092
15.795,-0.9320580827641956,0.6661816412519475,0.2301867103057895,-0.0201470479948184,-0.0123204851154181,0.0001377371664258,-0.0111435356883303,-0.0013935013934464,0.0296065933977709,0.9994982270513176,0.008874616353717,0.0023983938625025,9.79724947202116,0.0181013731664337,0.0869068715921412,-0.0023060023767242,10.993049449725328,0.0394956548547464,2.112987656931947,1117.0107072996602,1113.4002267943204,1110.60418596588,1098.2408648440687,405.29041313528097,-2.683807906259552,-136.69280488150116,-488.36062198740007,160.9638474232856
15.7975,-1.36442856089502,0.8773869380027454,0.2301471193924206,-0.0227351535752262,-0.0108720326440863,0.0005543025861664,-0.0111762584031936,-0.0013897709279225,0.0296145656290733,0.9994976460924078,0.0068550502682997,0.0054602028847012,9.797600409732441,0.017999761846283,0.0875786940175364,-0.0023159215944598,10.993077806055688,0.0397179706711935,2.1129678531435694,1117.8533576488096,1113.3274721366706,1110.1546015045344,1096.998363455812,211.9180616280697,-31.68366550075421,-177.0537870636595,-408.4701279239469,160.96195697447695
15.8,-1.6971363536992188,1.0421262617253209,0.2151155362228383,-0.0264070977036582,-0.0090292598777944,0.0010577372541026,-0.0112079229109202,-0.0013812051317884,0.0296246931047304,0.9994970100935724,0.005157949265707,0.008325568395058,9.797986167164296,0.017904964837217,0.0882571109183265,-0.0023055082356997,10.993105279155296,0.0399406720225561,2.112949867407601,1118.0702976078007,1113.2418084668168,1109.7189170305617,1096.1985142044489,-8.39559000655921,-17.33067246787304,-166.56246288574624,-266.7342653726413,160.96037792868037
15.8025,-1.9606268044755448,1.1630278139940349,0.1807312840368298,-0.0316067517806739,-0.0058473035332287,0.0017282933419551,-0.0112388818610622,-0.0013748973287722,0.0296326599394001,0.9994964338307027,0.003894065695715,0.0109628686309213,9.79836662492418,0.0178176726848337,0.088942751160826,-0.0022780669764083,10.99313223160051,0.0401646041807771,2.1129333689930325,1117.8113796987768,1113.2408187743313,1109.3217891901058,1095.6646921289491,-205.7516320010518,38.23281271753182,-147.45740419223898,-184.24313300755807,160.95879652514935
15.805,-2.1590308691557887,1.2215832981708985,0.1144860080483773,-0.0391464170585714,-0.0009652132143427,0.0025486555605804,-0.0112700368896293,-0.0013751075745267,0.029636163243431,0.9994959737472012,0.0031137689438931,0.0133324109842447,9.798707437115661,0.0177382582081113,0.0896363463359487,-0.0022377519203855,10.993159268268712,0.0403904289551689,2.1129177925741844,1117.0415394477957,1113.4329725304044,1108.9816300096006,1095.2772985394113,-336.04054978240333,108.42636883260762,-93.99110911061491,-115.02773882332824,160.95689747458138
15.8075,-2.213944092777164,1.1845395794344629,0.0402952354400072,-0.0458456485915727,0.0032567197768296,0.0030287131573056,-0.0113002662220027,-0.0013799377044803,0.0296365029560162,0.9994956131955696,0.002745724537489,0.0154387595240294,9.798981808697912,0.01766711710421,0.0903386248592326,-0.0021897380768832,10.993187088252183,0.0406180849662712,2.112903708734492,1116.1311769498643,1113.7829506184944,1108.8518336445527,1095.0895534348324,-383.9534188719281,173.16965490242205,-15.754770780265329,-66.9136910334496,160.9553145754379
15.81,-2.163380088697628,1.063469780424574,-0.0462112874060044,-0.0518000101144719,0.0068217345847257,0.0032514421293335,-0.0113258549863763,-0.0013821785110704,0.0296373042794131,0.9994953002447852,0.0026151147044329,0.0173415023749566,9.79917184547317,0.0176045573498843,0.0910503493481486,-0.0021401500264659,10.993215487408294,0.0408466630117719,2.112893544155192,1115.1217723534355,1114.2988208049167,1108.9028561556993,1094.942730084244,-422.1079592127738,241.94636945171888,65.36043065494987,-71.64833032231006,160.9537319961188
15.8125,-2.014532228982464,0.850327326580996,-0.1501849637369604,-0.057458636746285,0.0096622874556552,0.0030584520540433,-0.0113532245192054,-0.0013814386743213,0.0296402752345462,0.9994949092180828,0.002673917593862,0.0188990264445063,9.79927093331616,0.0175501084111322,0.091772438590204,-0.0020936830474795,10.993244922592805,0.0410751072453388,2.1128878040012022,1114.020637153801,1114.9926824657528,1109.1786357978272,1094.7313117832207,-356.72486748387934,243.6959991884608,136.43086347977243,-87.73681243448588,160.9518337748233
15.815,-1.8447702695914547,0.6442635319615234,-0.2244520683932737,-0.0612707574740394,0.0111196539322745,0.0021953368826053,-0.0113872227007043,-0.0013801187149639,0.0296442071606492,0.9994944144344772,0.0029297755114755,0.020000826986311,9.799282230830743,0.0175025046725522,0.0925057169272356,-0.00205498838724,10.99327544685002,0.0413031368382357,2.1128857247146398,1113.3381480160167,1115.5173008008587,1109.585010473098,1094.5040460220716,-201.58896611902975,173.1616214447697,197.86151920817792,-97.62008271885244,160.9502528294125
15.8175,-1.6514058260135567,0.4397402067102467,-0.2738154033770349,-0.064621825974452,0.0120817249600681,0.0007834913568089,-0.0114270592400703,-0.001373465719867,0.029648374425764,0.9994938483581562,0.0032557795247501,0.0206539046502221,9.799216941862253,0.0174605301301468,0.0932504471429816,-0.0020285592821278,10.993306303024532,0.0415312924607526,2.1128862583082846,1113.0126923232056,1115.8584905729767,1110.1679433938684,1094.2432113696264,-66.49780424662693,94.93125749430301,260.74150413601745,-101.75925205902104,160.9486728171248
15.82,-1.4462298512825142,0.2556293006621078,-0.3010134582430888,-0.0677663153300041,0.0124456209811444,-0.0005443896369164,-0.0114721247321974,-0.0013589436397464,0.0296520035488827,0.99949324192861,0.0035712969418125,0.0208643631648398,9.799093383607167,0.0174229890019542,0.0940060694143598,-0.0020174870278745,10.99333696658762,0.0417605357642377,2.112887653646457,1113.0056589947835,1115.9919570883303,1110.8887179937783,1093.9952497617764,61.66951050587476,4.428268597440336,317.14768954149747,-82.13321366189845,160.94709341496724
15.8225,-1.2258329543572943,0.1130780908474817,-0.3104574299119604,-0.0707447474562949,0.0120983885947159,-0.0013654158667124,-0.0115202294979989,-0.0013387099021092,0.029651170485848,0.9994927333847048,0.0038910170907874,0.020671538104488,9.7989345003516,0.0173881449716518,0.0947711182540566,-0.002023608372949,10.9933672959533,0.0419928334053544,2.112888045866416,1113.321039875735,1115.880631915964,1111.7536818415756,1093.8325453013172,176.124347202194,-86.88711412686193,402.4026508635696,-31.250686008656547,160.94551436437544
15.825,-0.9357454806784672,-0.0005635423719217,-0.3193186421200069,-0.0742223690761126,0.0113911282962303,-0.001825035410009,-0.0115707772300892,-0.0013146033014384,0.0296441059864206,0.9994923825096776,0.004227181636939,0.0200900193491932,9.79876556784853,0.0173547415434842,0.0955430826235477,-0.0020467674003238,10.993397183701639,0.0422296140798704,2.1128857437256,1113.8862807307946,1115.557521517696,1112.9007312480965,1093.8389963317331,200.03477207802973,-129.56333651952963,425.4777684362824,51.13652348381148,160.9436191293932
15.8275,-0.6677841824127105,-0.0510353814526014,-0.3358730383342543,-0.0769909853699483,0.0111323097637713,-0.001860400776751,-0.0116227484170981,-0.0012855714957689,0.0296328342767877,0.9994921470077108,0.0045411481155496,0.0191516190281504,9.798611227826672,0.0173223330771171,0.0963186086730805,-0.0020853654545491,10.99342636722776,0.042470569845,2.1128808387993634,1114.3212137361254,1115.232815233366,1113.8810706837571,1094.0882279187363,116.22754365300844,-118.31654045879613,377.63704750394265,165.95470603927998,160.94203852903595
15.83,-0.37640769174045,-0.0676421037060132,-0.3660191894269062,-0.0791474997636364,0.0112435447886902,-0.0018244942836387,-0.0116678828925612,-0.0012506585640355,0.0296201046158688,0.9994920432494552,0.004804789173049,0.0180377017001615,9.798492195746588,0.0172906602642434,0.0970939409748361,-0.0021381177462005,10.993454899859845,0.0427151863623202,2.1128753885068217,1114.4674184490596,1114.965938815402,1114.7889164856158,1094.6687698619291,-51.90842423763693,-87.7409211289152,360.1474448501711,343.24254588652826,160.9404549604197
15.8325,-0.0226829857788847,-0.0619665258186855,-0.4056569270569626,-0.0804133973365367,0.0110117048407511,-0.0023129753206129,-0.0117068951909363,-0.0012158604821778,0.0296061259154212,0.9994920453379484,0.0051240576551466,0.0167576844536719,9.7984251297937,0.0172589334507592,0.0978654174920199,-0.0022013248226068,10.993483597224428,0.0429626779145312,2.1128696790487766,1114.0616716149373,1114.7941106277217,1115.6818079080078,1095.8044406481683,-266.06750034243686,-35.12843950151724,281.0024305700169,490.3317281848701,160.9385485455603
15.835,0.2479486405459666,-0.0442147388607624,-0.4228671245205578,-0.0800443443127783,0.0102540697147328,-0.0034544567513893,-0.01174608148142,-0.0011883281138949,0.0295872424747832,0.9994921752658048,0.0056266986460561,0.0152186583502153,9.798420376929936,0.0172255883947674,0.0986297187320225,-0.0022693826782398,10.993512553765056,0.043212972575383,2.112861867838504,1113.1370809473472,1114.7902966178945,1116.193928638466,1097.120428502854,-489.6429415348992,21.789370197390102,145.31579215042714,592.5610161295918,160.936952296575
15.8375,0.4569204308358458,-0.0282445804276624,-0.3984217808545361,-0.0781203367756849,0.0095849781847691,-0.0053851093926677,-0.0117886135823683,-0.0011716675577515,0.0295623315857984,0.9994924212565433,0.0063770734222116,0.013398165623924,9.79847980253862,0.0171896166378397,0.0993837684725203,-0.0023365127265893,10.993541732946516,0.0434664745656092,2.1128508116880926,1111.6134569072624,1114.9030574787087,1116.40838686876,1098.7672457288168,-773.1836678502251,59.800986863831966,20.04231041305901,773.3072513009747,160.93534468328545
15.84,0.6066717891856669,-0.0412131629565763,-0.3033902474539567,-0.0742713070895866,0.0098777860711362,-0.0080313117228962,-0.0118408564068391,-0.0011699599197508,0.0295325181706679,0.9994926678855356,0.0074505532680988,0.0112170085838403,9.798597196973773,0.0171505820193295,0.1001249536970803,-0.0023960003960554,10.993571234873844,0.0437232333937806,2.112835225926844,1109.2711626080968,1115.0893015522136,1116.2941401905312,1100.9869647593582,-902.1376323274536,58.637395334417235,-101.5572605279272,824.902456653361,160.93339762692
15.8425,0.6466564936841933,-0.1024844264325796,-0.1730016536812155,-0.070815182542071,0.0110131046819356,-0.0096112275737604,-0.0119063389788343,-0.0011795608938177,0.0295007195212426,0.9994927900599084,0.0087755282056916,0.0086606314233196,9.798758018374045,0.0171086831029839,0.1008513225818907,-0.0024417240562406,10.9936007077186,0.0439830823754899,2.1128142881174887,1107.1027687456244,1115.1962444553808,1115.9006005661204,1102.8917580120844,-853.9540542710739,7.111966149067282,-208.8387590422045,731.0177713497745,160.93175619314735
15.845,0.6303611714109353,-0.2307871147226955,-0.0134458410489599,-0.0687946671647529,0.0123561148923608,-0.0097517263693162,-0.0119855955650219,-0.0011926001866151,0.0294705528549865,0.9994926855713384,0.0102008390409531,0.0057784312877201,9.79894081713187,0.0170645816928062,0.1015618274851097,-0.0024690117171892,10.99362986905782,0.0442448813896,2.1127892846110976,1105.0013923367408,1115.124861382959,1115.24994639532,1104.6420536161077,-788.5377030660242,-76.22444516738749,-290.30676540024933,642.6994324707636,160.9300900634247
15.8475,0.6075066950133231,-0.4069210042757576,0.1458415114648977,-0.0682230362106158,0.0130129440152347,-0.0089718962384515,-0.0120783545801448,-0.001201030400462,0.0294480461523597,0.9994921937182998,0.0115735008218781,0.0026366484417441,9.799119582099856,0.017019736877766,0.1022563896285697,-0.0024750011198828,10.993658404288912,0.044507157268059,2.112761910497735,1103.160080230295,1114.815122229544,1114.4490667391194,1106.1052551744376,-636.624013888367,-195.59234934972008,-338.5718644506815,485.5756646184147,160.92839981531648
15.85,0.6223008753679573,-0.6079210907201636,0.2802748181308883,-0.068390242334098,0.0119892154195353,-0.007909857375122,-0.0121771079614048,-0.0011963939213835,0.0294359253723283,0.9994913377296178,0.0127351052459679,-0.0005575079939331,9.79926578038224,0.0169751973108992,0.1029359949317208,-0.0024604263759589,10.9936864513099,0.0447690311296533,2.1127349681446765,1101.8182722672996,1114.1468996362105,1113.5570870730671,1107.0699319391993,-448.31895960421474,-378.5764388527104,-391.2165523094998,288.3337615061923,160.9266767047618
15.8525,0.716645968175309,-0.82155394050628,0.3926830058812825,-0.0683579155588871,0.0087246036752376,-0.0065131520560981,-0.0122775584194978,-0.001179366857119,0.0294335041591857,0.9994901912019638,0.0137019787394482,-0.0036678138280793,9.799352062411135,0.0169314220059844,0.1036025131521232,-0.0024278859086373,10.993714204726986,0.0450300951565916,2.112710971825989,1100.9184854322737,1112.92224003528,1112.4929839775716,1107.5469239819688,-207.63673426914855,-506.111222357652,-375.830364272438,61.463004944234335,160.92456695334027
15.855,0.8608697226576323,-0.9413224367192308,0.4370642755622097,-0.0679191103510043,0.0050317290685998,-0.0049301561649376,-0.0123751854442224,-0.0011618926675171,0.02943645164078,0.999488922311546,0.0147082401617048,-0.006564574888084,9.799354472224067,0.0168881456522447,0.1042583584660038,-0.0023823511764389,10.993741906646097,0.0452916183441766,2.112690793187144,1100.7800885959537,1111.6163435244218,1111.6779352517046,1107.3772469639205,61.1406320919408,-549.2163703108146,-300.1555949778919,-170.06228237199792,160.92277149507325
15.8575,1.0504573117040894,-0.980632423684157,0.4279113067319563,-0.0667058176239411,0.0013638875107922,-0.0031715919017425,-0.0124665862098946,-0.0011520151735277,0.0294431051325642,0.9994876146749504,0.0159092885324383,-0.0091434758792508,9.799254891806452,0.0168457852507392,0.1049059947568808,-0.0023299687383035,10.993769643427404,0.0455545146231762,2.1126747375082897,1101.2241885927333,1110.1761581837263,1110.9922060026825,1106.6966125701088,304.7674586965492,-614.5134910116161,-265.1951306960695,-386.80384687193833,160.92093526770896
15.86,1.277772963905007,-0.9428140484413,0.3661080709442778,-0.0637475683567019,-0.0023912179144487,-0.0014945619169967,-0.0125476670026173,-0.0011517386980541,0.0294554449192221,0.9994862631402348,0.0173405845192014,-0.0112900259916927,9.799042583423503,0.016805690281571,0.1055477575366825,-0.0022777829922948,10.993796617493771,0.0458192418135581,2.1126623914361824,1102.3039258894366,1108.5437760693633,1110.351959598224,1105.4432277295605,462.7724483866773,-545.8448390217255,-203.15912771544853,-506.1761608381521,160.91868326939576
15.8625,1.418901792073162,-0.8618008795023732,0.2884879721281679,-0.0599033476680446,-0.0046740326743018,-0.0006409259562018,-0.0126094213238871,-0.0011535437387288,0.029473222153604,0.9994849942967176,0.018849549655488,-0.0127956363326767,9.798714878020704,0.0167689132315658,0.1061859997368751,-0.0022339208551741,10.9938228068281,0.0460854360355479,2.1126556246630392,1103.538050834667,1107.4469339886175,1109.976410364105,1104.1657317659178,528.9137315358546,-350.46213758244147,-120.25927285469724,-528.4954061692275,160.91676578582656
15.865,1.455471515875587,-0.7626044233638282,0.2072998783549209,-0.0548936696685142,-0.0057969577613445,-0.0003470004929901,-0.0126549338649797,-0.0011527063089266,0.029493502103811,0.999483853234553,0.0203266488623353,-0.0136983036912934,9.798277904615768,0.0167359487560551,0.1068231663285086,-0.0022035973763401,10.993849136910525,0.0463524692119594,2.1126539206256734,1104.9484945471152,1106.7914653814514,1109.7506632339507,1102.8007506987149,617.7522625052326,-169.52969796515123,-73.29184917609022,-590.4486079846985,160.91480624182907
15.8675,1.3387379052320487,-0.6538345555366682,0.1306438775222918,-0.0486398028343196,-0.0065064134844363,-0.000506080683053,-0.0126907637913878,-0.0011494840842473,0.0295112029852306,0.999482900966,0.021753164719396,-0.0141152183826056,9.797744871487252,0.016706794433049,0.1074616592712242,-0.0021901949289094,10.993875723480318,0.0466209628659063,2.1126543386890737,1106.6268121471924,1106.599285498792,1109.6099511182247,1101.2134887259947,582.5017106385529,24.80187822379388,-39.03746971117769,-557.7057601508424,160.91240749307866
15.87,1.1028744632567349,-0.5810897098405402,0.0964439770136691,-0.0443184236967561,-0.0073329134722436,-0.0009204166184619,-0.012719553007758,-0.0011453338279075,0.0295213148352036,0.9994822474318314,0.0231320095644146,-0.0140957428151703,9.797133949393526,0.0166814796721191,0.1081036601479283,-0.0021962036467349,10.993902000569243,0.0468915559571867,2.1126549212036836,1107.8610031003086,1106.9154747725704,1109.5554758853948,1100.0122218979602,432.0098185165768,206.5605392197672,-20.918603438482393,-445.4666529378059,160.91037074371005
15.8725,0.744618500421866,-0.52332227504097,0.0975678911733658,-0.0415824576797262,-0.0086008734639789,-0.0013840734682657,-0.0127466504606672,-0.0011450840060576,0.0295192858856335,0.9994819533610808,0.0245266932459248,-0.0137521974524008,9.796466276904205,0.0166601671301493,0.1087511623112023,-0.0022216540560099,10.993928511848647,0.0471642029223438,2.112654316607083,1108.7868612397758,1107.632088194891,1109.5053581010322,1098.9861554613055,309.87485602915314,333.57327784908466,-27.298141802935763,-380.07632304237006,160.90829748207588
15.875,0.3135829810146681,-0.4704944251748748,0.122714472396472,-0.040076666239022,-0.0100154739731051,-0.0016218379448643,-0.0127758614786326,-0.0011501406541496,0.0295055838039293,0.9994819570815812,0.0259324738759316,-0.0131723354920187,9.795763325648467,0.0166442318861388,0.1094058605060566,-0.0022649013956242,10.993955487295903,0.0474386163063815,2.1126519930255654,1109.410377380454,1108.5833411618155,1109.41898517638,1098.1118402827487,180.9105089541295,412.48858839834634,-49.567553612415246,-315.1070568117747,160.90619655941467
15.8775,-0.1646485650852987,-0.4159352619224073,0.1615507238993787,-0.0399501967445968,-0.0115599532529984,-0.001341692349762,-0.0128097953445632,-0.0011531778038051,0.0294867163582239,0.9994820441042344,0.0271731755051262,-0.0124226027673257,9.795044570922057,0.0166366150686833,0.1100691647276813,-0.0023226220747836,10.993981653830716,0.0477146532381623,2.112646886450608,1109.6914137845463,1109.6945311368822,1109.2575203329702,1097.4106201772468,66.14501277707734,496.6623018711422,-91.93393389658397,-269.1390595512109,160.90406617079276
15.88,-0.7393980215588037,-0.3459317233991056,0.1993924260947245,-0.0416378074079768,-0.0133039597764284,-0.0005159921062128,-0.0128503960137981,-0.0011451343639079,0.0294706930855548,0.9994819678736888,0.0280374511217264,-0.0115618210541668,9.79432502966654,0.016640782438101,0.1107423682757829,-0.0023902116494315,10.994005469058276,0.0479912784895399,2.1126387114973406,1109.7411024443395,1111.0666526711716,1108.9593155068972,1096.7661449849925,-7.68010082715471,491.2760767702508,-127.00070655148753,-200.11032609978935,160.90148159627034
15.8825,-1.18232240834851,-0.2894198699483311,0.2070639958905038,-0.0446727977375128,-0.014221881943368,0.0004824490896794,-0.0128913492544062,-0.0011212382740072,0.0294617417707329,0.9994816919377386,0.0284006287659713,-0.010494970847225,9.7936126870171,0.0166592830604435,0.1114267189535803,-0.0024640387604887,10.994026320078664,0.0482677724104714,2.112628859172599,1109.6530132804105,1112.1509115207339,1108.6225168002127,1096.4100685467479,-35.828486325415575,403.6593515768239,-152.1971055565548,-97.94122452414867,160.89930938215764
15.885,-1.5534342622903292,-0.247430676680159,0.1767626464785047,-0.048884911913672,-0.014425687779676,0.0017553602869807,-0.0129333185548501,-0.001085931429686,0.0294600664370343,0.9994811963694596,0.0283136250784157,-0.0092732931501508,9.792907980340878,0.0166932449189682,0.1121233183286053,-0.0025385368732915,10.994044614769727,0.0485442002307237,2.112617269082102,1109.5619600127125,1113.084949429055,1108.1983299791143,1096.2764388623718,-17.700657859583732,360.21170472403173,-205.3482932916856,-2.304811665544188,160.89712463941743
15.8875,-1.893510056799352,-0.2256399287798683,0.0953837901302802,-0.0541603596738434,-0.0143291131269072,0.0034527973033571,-0.0129842445187656,-0.0010528998778715,0.0294588356886813,0.99948056018105,0.0280039894608332,-0.0080988725487224,9.792203545714722,0.0167412486236826,0.1128330051765716,-0.0026063592686731,10.99406193196464,0.0488218897969329,2.112602445976595,1109.5645099911123,1113.9519700443543,1107.595775333754,1096.39854448842,28.70313723773967,266.48317010167756,-234.5198913212332,89.29466346165523,160.89449577854296
15.89,-2.08123704331682,-0.2324240954813608,0.0026771365062577,-0.0585601019137879,-0.0142225463698221,0.004690461378005,-0.0130484809591797,-0.0010342413968876,0.0294521316546012,0.999479884987068,0.0276744442068656,-0.0071046897267099,9.79148454751526,0.016800894248321,0.1135558993514576,-0.0026608822933928,10.99408007291822,0.0491024302041456,2.1125836986689914,1109.7054756989012,1114.417365279564,1107.025730522508,1096.72291217968,86.9836293431663,125.06929316498587,-237.02653224918487,164.0622372428296,160.8923037553961
15.8925,-2.159848296961476,-0.2556644286303408,-0.0825387222105262,-0.0637419653506294,-0.0143386585360004,0.0049483059013059,-0.0131341265809332,-0.0010391048486828,0.0294373101097272,0.9994791339737014,0.0274747645786994,-0.0064962777609594,9.790730672224296,0.0168693474770392,0.1142914081096973,-0.0026950329203606,10.994100265836027,0.04938653331474,2.1125596641808198,1109.9994281378283,1114.5773165101791,1106.4106426725084,1097.218855674634,158.559853471738,-3.2263238654201865,-270.1727652971923,236.64767889049637,160.890115112314
15.895,-2.1148476975618102,-0.2800082917817554,-0.1224333735923002,-0.0710466624824905,-0.0152140616207794,0.0032751105090502,-0.0132414512576251,-0.0010722101199126,0.0294152347627954,0.9994782769262948,0.0274814501992753,-0.0063232217870418,9.78991764281256,0.0169436405721948,0.1150383524891526,-0.002704556233823,10.99412296098058,0.0496740406074353,2.112531050913983,1110.4982749662595,1114.4012336602368,1105.6748666960225,1097.9061505741324,200.33750529393325,-121.74700794587721,-257.74028879441687,251.14589801451697,160.88749710080816
15.8975,-1.9593419531780445,-0.2782682644626475,-0.0700823280491967,-0.0773931822823234,-0.0164381150908114,0.0007653010152625,-0.0133652854537782,-0.0011268965118147,0.029391123018258,0.9994772398097714,0.0275622004835137,-0.0065210694497666,9.789020633815587,0.01702128873226,0.1157951821532164,-0.0026880199019476,10.994147151808887,0.0499645241517252,2.1124998654618987,1111.001115664298,1113.9685814704496,1105.121941228536,1098.4745851647067,210.7322757308464,-217.7826599173955,-190.60702032322047,210.7101865787752,160.88532495994414
15.9,-1.699472146594266,-0.2363814523918798,0.0826767411902567,-0.0829105061335227,-0.0176087261859405,-0.0011844757916764,-0.0134994431312821,-0.0011936510332559,0.0293707656558267,0.999475955821728,0.027540217407722,-0.0070020191174812,9.78801789253123,0.0170996675269234,0.1165603285899183,-0.0026465551798769,10.99417213451967,0.0502573077707465,2.112468547187897,1111.551936344914,1113.3123203606497,1104.7218315944062,1098.9597015070265,222.3025756871253,-282.3067125867617,-119.3602277967112,172.71663268205683,160.88316498413943
15.9025,-1.3833240876605235,-0.1552257464227669,0.3006613434237361,-0.0870236271230687,-0.0185175405452775,-0.0019268944421718,-0.0136309135296885,-0.0012619587289457,0.02935735654918,0.9994745297821042,0.0272333642262649,-0.0075417330188274,9.786894102954955,0.0171754350530306,0.1173323965798437,-0.0025854548429056,10.994198066722047,0.0505516064616388,2.1124407945057344,1112.1126285427335,1112.557047907516,1104.5251400895527,1099.338168328117,218.9696565414237,-302.40722407743124,-12.428250093987902,121.81532860275098,160.88101620075113
15.905,-1.0476432882210904,-0.0270362178705955,0.5516932392416418,-0.0892215180582095,-0.0191417700516237,-0.0011438345470679,-0.0137556433563269,-0.0013316809225099,0.0293488213133781,0.999473086817748,0.0266669242231684,-0.0080943294633157,9.785644731855951,0.0172439281776241,0.1181103456481637,-0.0025105310081851,10.994225556546779,0.0508472548050615,2.1124184920449216,1112.6467846276214,1111.8002842402623,1104.6596903439363,1099.5687781500403,216.55060277099687,-307.4595825471507,150.34903421294453,67.77307977071209,160.87888160632147
15.9075,-0.6806654140138422,0.1725209062717301,0.8196089540779389,-0.0900689998383311,-0.019583879859674,0.0013402803894089,-0.0138775526987187,-0.001410094257004,0.0293384472720876,0.99947177160528,0.0260159706920808,-0.0087711767701742,9.784279169447474,0.0172994769785756,0.1188933851911718,-0.002427577041077,10.994254702885664,0.0511455672336588,2.1123999116471754,1113.1953815565887,1111.01974999478,1105.2768852606175,1099.6770337269706,174.89724737441816,-252.34299438325723,303.9098297297792,15.051824359128016,160.87633718837236
15.91,-0.4331328127235834,0.3638720783950888,0.9641046154362852,-0.0899139099969942,-0.0193544775909903,0.0045784381267976,-0.0139981531500552,-0.0014969814144253,0.0293222193076975,0.9994706950381947,0.0253212639442695,-0.0096292318271326,9.782822824770799,0.0173374769960754,0.1196806450629387,-0.0023437190476203,10.994285521757265,0.0514471106127308,2.112384529265464,1113.521270864493,1110.5385692683462,1106.1792394925849,1099.644037271836,90.42255877468033,-149.06232122119272,430.31284612506545,-31.927502779632945,160.8742319112794
15.9125,-0.2560594922832594,0.5579813828828049,0.9791839577103396,-0.0896458785141023,-0.0181377182655487,0.0087068962032653,-0.0141184211594946,-0.001587280394099,0.0293000810970695,0.9994698697815236,0.0245391560348534,-0.0107092065146684,9.781318389079116,0.0173549448356594,0.1204712445064467,-0.0022665036523318,10.994317545302678,0.0517516131542213,2.1123721206362385,1113.647494350462,1110.2744383886743,1107.4284494912424,1099.5173962130723,-0.0944564031669722,-60.60109135586534,600.7579995199164,-67.10564215799283,160.872143776436
15.915,-0.1096145902473466,0.7643057074306185,0.8232806343968448,-0.0896588378307258,-0.0155348668163481,0.0136382147487775,-0.0142367826772708,-0.0016716966877186,0.0292753537974276,0.9994692481024748,0.0235528016858109,-0.0119965203656805,9.779825762409551,0.0173506222066643,0.1212644416844118,-0.0022039190070635,10.994349736772422,0.0520588368244749,2.1123636578283436,1113.5207985824775,1110.2355638115669,1109.1830294901847,1099.308509061046,-94.22054237196225,35.86627435551585,656.7977929692344,-77.46789764790874,160.8696602339048
15.9175,-0.0210415996593526,0.8972149011495448,0.55694309234946,-0.0898887281339997,-0.0126801124736882,0.0167712965150717,-0.014358692622739,-0.0017454150027281,0.0292525701862487,0.999468630791552,0.0223341316607421,-0.0136136282414141,9.778421254657022,0.0173245348370077,0.1220598637505019,-0.0021617828145762,10.994381427315629,0.0523680272472834,2.1123584771309343,1113.176391638602,1110.453769760452,1110.712438456089,1099.130056724833,-183.38845137867804,143.35008798796602,588.1150105223047,-59.7170833646606,160.8676113291134
15.92,0.0612760323900384,0.9818425276449536,0.1875454626161083,-0.0902186067554766,-0.0098885009888198,0.0182949740080893,-0.0144861483532584,-0.0018035943776174,0.0292375872548957,0.999467815454474,0.0208593917466796,-0.0156123653678615,9.777194781835005,0.0172780605709399,0.122857490141015,-0.0021456232473777,10.99441168240554,0.0526783731877515,2.1123550133686466,1112.6038563255843,1110.9523142515063,1112.1236045427959,1099.0099236442227,-297.0413794872447,283.12245859515434,557.5735824545555,-19.59140298358455,160.8655870853689
15.9225,0.1809912054815376,1.0333476808648752,-0.3079448065583332,-0.0905967948225277,-0.0072663342191757,0.0181666855554249,-0.0146100671423802,-0.0018421546670899,0.0292326638400062,0.999466834326248,0.0191246817137121,-0.017825410623252,9.77624619056668,0.0172125923007637,0.1236577289203728,-0.0021622174963282,10.994440158751743,0.0529894465874285,2.1123531801428386,1111.6911847411657,1111.869382053428,1113.5003063683623,1099.0320997099147,-366.9583861197561,380.68513424335333,437.7638161832463,54.16319196178,160.8631908590905
15.925,0.3117481312309927,1.040886546356828,-0.7106804175343121,-0.0907732300552502,-0.0053197880794571,0.016570119357111,-0.0147240415960907,-0.0018654186753786,0.0292364826500702,0.9994657339050328,0.0172849612397552,-0.0201394473174784,9.775681765805459,0.0171292651989755,0.1244613165244861,-0.0022161567908699,10.994467693701134,0.0533005903301815,2.1123530372288335,1110.7690643949852,1112.8557399227236,1114.3124236237124,1099.2807396040316,-395.8970254019156,418.39035885599645,256.75704325086025,170.8531240422302,160.86122495743135
15.9275,0.4795073419339364,1.012892586990216,-1.0423807409039267,-0.0905833913664496,-0.0029654357797155,0.0136159122359783,-0.0148282295954582,-0.0018825634962681,0.0292450723297986,0.9994644867501444,0.0155804643825248,-0.0225687317821232,9.77560962614765,0.0170290197848995,0.1252690562838816,-0.0023084827803363,10.994495133458617,0.0536121248846218,2.1123529971683515,1109.7116996141565,1113.9613338477075,1114.7840915846164,1099.886365330126,-484.0551452429335,475.14752367228897,152.0449711250269,370.55174629766134,160.8592953613467
15.93,0.7132351332561236,0.9331930529297214,-1.3015772307091955,-0.0895709270388135,6.293070929217642e-05,0.008655526490225,-0.0149208862453444,-0.0018974180394423,0.0292581034880212,0.9994629417426392,0.0141421922549107,-0.0250829958696687,9.776134121371353,0.0169141797438474,0.1260812973482731,-0.0024383662795769,10.994522077635503,0.053924698921889,2.112350435821809,1108.348788668771,1115.2314775410844,1115.0726484793374,1101.1334983355196,-499.67317903020927,423.8723707845812,85.96142314566825,549.1532255829549,160.85702591483604
15.9325,0.918015438380222,0.8254154889593533,-1.3756519309521031,-0.0878843474839019,0.0024006393404078,0.0039030281709118,-0.0149984428538266,-0.0019091287062582,0.0292774383531592,0.9994609599593938,0.0130025250017277,-0.0276084219880779,9.777350287479411,0.0167880907812735,0.1268977810319223,-0.0026032528645273,10.994547936716712,0.0542381323263151,2.1123446486879804,1107.213333719005,1116.0806957016307,1115.2138987003448,1102.6321314580412,-426.8088875362324,261.18037083716,70.82638075338566,681.2039047923762,160.85517551784176
15.935,1.1062705380970947,0.6748609694619049,-1.295310795487818,-0.0851856257774746,0.0045442549547702,-0.0006937477088937,-0.0150595287982221,-0.0019133495183216,0.029300736075744,0.9994588011135672,0.0121124848956974,-0.030105932381657,9.779338568399346,0.0166534335846735,0.1277177224890853,-0.0027981992277352,10.994572385631113,0.0545530222614639,2.112338027034842,1106.2147442310895,1116.5373793952704,1115.4267803831044,1104.539517859482,-352.94757721915374,100.079885727493,120.39787736660068,802.9069925772324,160.8533696949773
15.9375,1.2605681404490319,0.4925672212236238,-1.100264742140782,-0.0813894363204305,0.0066732761723679,-0.0048291741387597,-0.0151121927361236,-0.0019102697643446,0.0293238873529255,0.9994566426617538,0.0114940614011199,-0.0327160494437978,9.782159880652868,0.0165126311512118,0.1285396634441632,-0.0030144289372945,10.99459580018845,0.0548697245361492,2.1123309634519565,1105.4485958329096,1116.581095130268,1115.8158880871777,1106.6466664209263,-224.42982242487153,-87.27654420528695,217.6461436877595,838.102664199126,160.85160199702617
15.94,1.3593061229521415,0.2848618605727359,-0.803203918898829,-0.0764032572158952,0.0084731370888011,-0.0079349412640558,-0.0151663079862142,-0.0019043098757482,0.0293415492751449,0.9994546050225724,0.0112380205878967,-0.0356095063372194,9.785850991032314,0.016367848720749,0.1293613759988367,-0.0032412705760141,10.99461860580704,0.0551889275335947,2.1123220637200038,1105.0925951189652,1116.1009966742442,1116.5150111015428,1108.7300311804768,-40.44719626021383,-317.5530664893317,389.1254537398101,832.3766362159465,160.84988108636247
15.9425,1.423305054822204,0.0385590969518095,-0.3953879335047961,-0.070707953147014,0.0091842958901961,-0.0094853632836804,-0.0152256885425275,-0.0018976311562841,0.0293507236384758,0.9994527881517657,0.0113822591023044,-0.0388285691551529,9.790420951221165,0.0162219072632632,0.1301797372215541,-0.0034681421334246,10.994640453824,0.0555121490221738,2.112309609402552,1105.2463598516083,1114.9933297978212,1117.761515355877,1110.808549602007,156.39523655251935,-470.5898646408688,519.8106625468523,641.2028085116979,160.84787039174037
15.945,1.4616699986328132,-0.1328671489791686,-0.0663394179561744,-0.0678074698650074,0.0081530878753927,-0.0086710510799877,-0.0152933234862047,-0.0018922805146878,0.0293510095752306,0.9994511941626132,0.0119507128972852,-0.0423901993360604,9.795848804435563,0.0160783086472442,0.1309909636397104,-0.0036835931452438,10.994661032785812,0.05584050601313,2.112292182770037,1105.874571301728,1113.7480473510395,1119.1140644142777,1111.9360452230355,343.1956166267583,-524.4919817029902,585.4145745752958,290.6246742268318,160.8462398921369
15.9475,1.5285957863504576,-0.2377818679127781,0.2006052980987686,-0.0664244690770743,0.0061673197355326,-0.0065221199062191,-0.0153668109543994,-0.001886883767155,0.0293449801294571,0.9994498000150588,0.0128915879565567,-0.0461947365824423,9.802082481434029,0.0159413217540971,0.1317909620335381,-0.0038769634249709,10.994680524559472,0.0561737066626736,2.1122701656998646,1106.962337934742,1112.3708698893067,1120.688588228753,1112.2616729731408,554.3736988328008,-581.8457632356512,704.3346692234345,-38.27267959649673,160.8446556899952
15.95,1.6649057187975584,-0.2759863947031395,0.4252732411062024,-0.0642158289433075,0.0040785252985582,-0.0038634615969704,-0.0154468934839808,-0.0018807442278212,0.0293368184834902,0.999448470319818,0.0141528558482302,-0.0501959695968398,9.80903903711684,0.0158155237965292,0.132575899020575,-0.0040368691293431,10.994698652147672,0.0565104369177376,2.1122438002893418,1108.6464397958923,1110.8388185348608,1122.6357377603952,1111.7446818250532,651.7907044755593,-503.7209545327309,688.0279495863595,-309.78828395672895,160.84280780502496
15.9525,1.813007188280909,-0.2453801150658375,0.539339689022235,-0.0611423449851709,0.003132755406174,-0.0021463106470439,-0.0155326991202207,-0.0018710852070442,0.0293329738177814,0.9994470239934712,0.0156321658370019,-0.0543075127364962,9.816606307310707,0.0157059034793796,0.1333425085559481,-0.0041529822589006,10.994714870630355,0.0568495801427171,2.1122133418473807,1110.2212914571203,1109.8522651166427,1124.1287279766852,1110.712731553357,630.3923249789367,-301.4853142892352,527.5636576912033,-478.42682550408847,160.841312127469
15.955,1.957483204864928,-0.1745436590870483,0.6022416398113596,-0.056326582487976,0.0030902802432918,-0.0010723310606869,-0.0156177655839209,-0.0018560169345387,0.0293363104173149,0.9994454644104024,0.0172370774152297,-0.0583280308660224,9.824646102496471,0.0156160886938448,0.1340884495758723,-0.0042177438792782,10.994729029851072,0.0571909783991052,2.1121796267856974,1111.7984014207866,1109.3313919634147,1125.2735560488509,1109.3525476975333,660.1204233219909,-109.52822263523008,384.4577489318309,-597.7627087372009,160.83986251061938
15.9575,2.073319237550933,-0.0701161096965279,0.6502283093082258,-0.0486415774053171,0.0036114525132277,-0.0002834414292607,-0.0157015812404194,-0.001839976000929,0.0293450140066207,0.9994438261442264,0.0189871111925395,-0.0621727767725343,9.832998118763394,0.0155477307233388,0.1348125448859975,-0.0042239120118607,10.994741891650271,0.0575341770084743,2.112142956894246,1113.5218935737296,1109.3046240034666,1126.051016721344,1107.7239180096715,585.6682104895748,78.54459419185012,170.8766335939987,-547.724906923855,160.8381767117398
15.96,2.09665690975847,0.0217644252522042,0.6823331625285792,-0.0416936558762448,0.0039832947594243,0.0002572735923496,-0.0157865125788277,-0.0018298106012292,0.0293551424186147,0.9994421592350186,0.0209420344398323,-0.0658135919774617,9.841485229595255,0.0155010128622511,0.1355147334333184,-0.0041657127970943,10.994754407225116,0.0578791930880392,2.112103087049825,1114.7267424732347,1109.7241149343743,1126.127939216821,1106.6139231629136,421.5049762876584,226.7793183893091,-85.97580695148756,-353.6451162832138,160.8368172331435
15.9625,2.044076170267065,0.1151758945393411,0.708274341235577,-0.0354365730080212,0.0041532171859511,0.0010784334911867,-0.0158733481798367,-0.0018252695391709,0.0293683873612601,0.9994403884930247,0.0230218153151537,-0.069188373456882,9.849920121777716,0.0154767825146606,0.1361958073898269,-0.0040402721432403,10.994766946126814,0.0582255009598388,2.112061460912641,1115.6294184551682,1110.4385205954131,1125.6211376865865,1105.9556924282551,307.94371013036414,304.06953688740623,-284.7624941711841,-177.94514896758204,160.8355057668228
15.965,1.9498180112051344,0.2103427705044819,0.7185864234924134,-0.0302871629146894,0.0043006559342064,0.0024050719510116,-0.0159596721970633,-0.001823068268324,0.0293895951007914,0.9994384066605176,0.0250887967253254,-0.0721738568462082,9.858112284495158,0.015475853842187,0.136857450607816,-0.0038485285727058,10.994779553174059,0.0585719900788824,2.1120204072981967,1116.2664610238864,1111.2444626188108,1124.7041267459651,1105.7241974180758,192.50107331574043,312.58277495139396,-437.0509308865393,-0.9415430460192856,160.834235010975
15.9675,1.8439459422570836,0.3065827993190884,0.6882346076046783,-0.0264960135263884,0.0045893596596279,0.0045279656224335,-0.0160335531531008,-0.0018178723862141,0.0294193814605112,0.999436383658312,0.0269710840336668,-0.0744638662975087,9.865875556765074,0.0154970020637675,0.1375022787878627,-0.0035971077485711,10.994792911257592,0.0589178702525401,2.1119837639048535,1116.591923821747,1112.0014344701704,1123.4358830321535,1105.950984713025,77.23811923736932,297.25314431570854,-597.8867738466736,165.6338142012569,160.8330146736929
15.97,1.748664697327499,0.416245107976127,0.5784405436245216,-0.0230400052306469,0.0051910763407153,0.0078194480326379,-0.0160909689390538,-0.0018082702362256,0.0294549493264723,0.9994344573162784,0.0285728467151415,-0.0759182624581171,9.873033656824134,0.0155371744366221,0.1381336787317066,-0.0032933840063607,10.994807572884715,0.0592635855311854,2.1119524617560828,1116.6526516200731,1112.7307283403895,1121.7146928767315,1106.5523664890823,-26.7796726881496,232.8815769284128,-636.7158387034026,234.2558811567881,160.8316105877948
15.9725,1.7138789045146572,0.4927515936916107,0.4183709552032748,-0.0205973181202549,0.0058909708169198,0.0106391556065698,-0.016134244335707,-0.001795463170679,0.0294913938059282,0.9994327267495956,0.0298520770201132,-0.0765339599655366,9.879426254712866,0.0155920037285816,0.1387554336084987,-0.0029452273786769,10.994823979930414,0.0596108783987183,2.1119254645866095,1116.4580254583063,1113.1658423548124,1120.252303838637,1107.1222641188087,-120.09471366425375,145.28491245903913,-565.3510398181185,190.12306973390116,160.8304924949551
15.975,1.7212822694731489,0.535790209013319,0.2019829414024642,-0.0178698934145334,0.0071775669443822,0.0125579421425251,-0.0161657990856263,-0.0017841542772405,0.0295233761495176,0.9994313023583096,0.0308440600292571,-0.0763240193969696,9.884914594168569,0.0156564863661418,0.1393714533546904,-0.0025621106518817,10.994842179669472,0.0599608125571911,2.1119022302455983,1116.0521780517522,1113.4571529026848,1118.8879376776415,1107.5029818377516,-214.74040050367248,113.13876488600776,-559.0365919514205,73.38855471965634,160.82943067881544
15.9775,1.7423483761899594,0.5246086889552675,-0.0763049475041708,-0.013371221389536,0.0094699908064965,0.0127877529223099,-0.0161860913188022,-0.0017743831899695,0.0295497046533221,0.9994302165124868,0.0315037386043985,-0.0752736404386197,9.889386247759704,0.0157266138116825,0.1399856381870085,-0.002154979554617,10.994861581998435,0.0603132589698738,2.1118830401154725,1115.3843234557878,1113.7315361792423,1117.4571208788796,1107.489206892407,-264.2904478555052,103.82943594566508,-482.98146138474016,-106.43740247895192,160.82822461708952
15.98,1.7311508372970559,0.4502200791304053,-0.281153738045704,-0.0084209483818738,0.0116843763619395,0.0111612941946945,-0.0161924502522401,-0.0017582366416168,0.0295748252172663,0.9994293984398832,0.0316424159805951,-0.0733160592815895,9.89275832917302,0.0158000578068797,0.1406019253480777,-0.00173601605071,10.994881900946451,0.0606670445591305,2.1118694091053727,1114.7307258124745,1113.9763000824132,1116.4730303707174,1106.9707948253567,-268.43215635932097,119.02757220161767,-346.9828775423374,-319.2638276666183,160.82727880229575
15.9825,1.6473936062207533,0.3072104799749249,-0.4171256689558763,-0.003038441426891,0.0137044968273756,0.0084275358527611,-0.01618714770339,-0.0017357632276302,0.0295996099507121,0.9994287886021104,0.0312358709946376,-0.0705018340658596,9.894977760412605,0.0158736354699834,0.1412246286373602,-0.0013161311138197,10.994903595875021,0.0610208909214619,2.111861481403811,1114.0421626739915,1114.3266740402505,1115.7222064911682,1105.8928877540743,-296.6197726768305,195.70057376505824,-275.7016075888283,-585.5517849689471,160.82639771451164
15.985,1.4362165435039356,0.0777715501187116,-0.485844186458218,0.0029252265982822,0.0152690441145683,0.0052660986943998,-0.0161752196498939,-0.0017140501175531,0.0296184520622543,0.9994284602651452,0.0304068891632949,-0.0669554199053919,9.896021782499394,0.0159426639461975,0.141858354335005,-0.0009048631014863,10.994926525761967,0.0613751152634905,2.111857008306172,1113.24762694909,1114.9548029512387,1115.094522332773,1104.0430359005115,-275.64827001811193,274.91806484631775,-184.9527542700964,-743.6697795175606,160.82541930717736
15.9875,1.1670516470037182,-0.1320452027935145,-0.4777335100319364,0.0070389649099248,0.0153222055051859,0.0034591954039809,-0.0161535094290839,-0.0016953544638354,0.0296280526057284,0.9994285579834484,0.0291988660445462,-0.0626512983336763,9.895898120968958,0.0160036776248553,0.1425074777920231,-0.0005126925163441,10.994949919151704,0.0617305856544518,2.111854522800051,1112.6639213239007,1115.7012643644823,1114.7974427198176,1102.174538856486,-203.88374036164768,352.94123192409387,-74.30839473433137,-771.6046727708715,160.82467253743573
15.99,0.8189058471830523,-0.3182203646101847,-0.4360342104142683,0.009872178496473,0.0138554171460633,0.0027270071725036,-0.0161186606980851,-0.0016765819486299,0.0296300285781184,0.9994290961743973,0.027561034366745,-0.0575710843388025,9.89464224529376,0.0160552823593936,0.143175942878083,-0.0001484961074327,10.994972807758156,0.0620873222311955,2.1118536385596864,1112.228208247282,1116.7195091108588,1114.7229803591015,1100.185012536658,-139.48507325624675,453.6143465046273,2.605594963234189,-780.202715139531,160.82399951487955
15.9925,0.4281334120845106,-0.4570935390667427,-0.3947192749330248,0.0114864599154166,0.0114501633474959,0.0026678024776963,-0.0160662173162175,-0.001649838231223,0.0296280469998837,0.9994300541623864,0.0253587019064648,-0.0516848600428229,9.892314162544167,0.0160973233601908,0.1438672698055133,0.0001803416294626,10.994994187009208,0.0624452169241658,2.1118551185979144,1111.9664959576196,1117.9693360970048,1114.8104706946335,1098.273525280789,-52.84830329768821,548.3585076969628,64.92112274817268,-706.5426156418913,160.8233888616584
15.995,0.0180637585392909,-0.5234536967758477,-0.3783531442193228,0.0118055889862439,0.008931625947163,0.0028392025241389,-0.0160039252223598,-0.001616467934127,0.0296228563579718,0.9994312794841896,0.0226410917980172,-0.0452208629810023,9.888993940588984,0.0161292541583774,0.1445846293793993,0.0004716131415623,10.99501404657902,0.0628038586679835,2.1118581283454665,1111.9639667307936,1119.461301649344,1115.0475859728424,1096.652299458448,63.54811740369685,689.2425125684726,124.57161315117318,-608.5997398434714,160.82285402398816
15.9975,-0.456172547670931,-0.5265653365247214,-0.3992094563512853,0.0108165591381071,0.0069572134986955,0.0026344905936176,-0.0159436144688082,-0.0015828310598198,0.0296133605738529,0.9994326011045432,0.019561908618803,-0.0385002516687783,9.88477866568934,0.016150241371156,0.1453306664084353,0.0007262536315581,10.995032906361555,0.0631631069473759,2.1118612243955215,1112.284236544638,1121.415548659848,1115.4333287603897,1095.2305265815712,167.37546010098103,718.3214619631664,148.19012252454047,-418.7703724874533,160.8222995572235
16.0,-0.8105179614736099,-0.4827331939164618,-0.4459089718935937,0.0087695172218256,0.0062457050708252,0.0020103743311095,-0.015890150281884,-0.0015525036844499,0.029598660634986,0.999433958076204,0.0162314260412928,-0.0317117442331832,9.879778632704657,0.0161595758234403,0.1461072951472169,0.0009453235951381,10.99505122155294,0.063523546630621,2.1118628746825006,1112.8008440312983,1123.0529089591591,1115.7885365854647,1094.558447596011,246.2158782690564,621.8200898776041,139.42015243026256,-158.28831438759403,160.8219092707122
16.0025,-1.0988098583832715,-0.4104041511288992,-0.5083513295341558,0.0055985510284293,0.0057514843179137,0.0010681185034534,-0.0158522390250718,-0.0015311015128426,0.0295779278801016,0.9994352247984988,0.0128048150996304,-0.0251255442339346,9.874113044139328,0.0161564969316586,0.1469155728759466,0.0011328129252298,10.995069280978814,0.0638858247360361,2.111860715334358,1113.5153159359836,1124.5246491092364,1116.1304295225411,1094.4390850096331,340.1928056321362,573.8051568046335,138.25193498535577,66.02019196681289,160.8215913410273
16.005,-1.355980895130919,-0.3026129436510472,-0.5782949960542692,0.0014707923666759,0.0047009404821,-0.0004069053479189,-0.015834937340668,-0.0015221084006323,0.0295520787572081,0.9994362886194978,0.0094041602584893,-0.0189401930234625,9.867906249107335,0.0161406361815388,0.14775560952694,0.00129306612128,10.99508737701924,0.0642504162131596,2.111853611897173,1114.5018080594587,1125.9219347431815,1116.4797962603916,1094.888548555845,366.70450268296025,434.7586141864168,110.49450626876401,249.99416004116452,160.8212899154184
16.0075,-1.4968035710985923,-0.2002469666485862,-0.6136257059304756,-0.001894571060164,0.0035502271331859,-0.0020129800198689,-0.0158379414311397,-0.001522149583504,0.0295257020695548,0.9994370256224964,0.0060266835775265,-0.0132435248349847,9.861284101277754,0.0161125995132704,0.1486265456142144,0.0014296418278826,10.9951052138643,0.06461774931591,2.111842020158672,1115.348838449398,1126.698442180168,1116.6829020538848,1095.6890558098387,321.84948591327054,225.8520661181801,51.167676018868605,386.1343508456528,160.8211026297369
16.01,-1.5659666906888712,-0.0954464227843286,-0.6038073646381961,-0.0055217240408963,0.0026788641143863,-0.004066991322859,-0.0158569668719123,-0.0015256398899005,0.0295039781564925,0.999437363415674,0.0026344283777135,-0.0080403426673441,9.85437105037626,0.0160730622195124,0.1495267412824961,0.0015448169071376,10.99512230743364,0.0649877555415876,2.111827380371999,1116.1110554890258,1127.0511950737732,1116.735634640486,1096.8192203100743,286.83005105577894,68.63340988649271,-27.334667720930135,542.0622347990217,160.82097882955404
16.0125,-1.5711045083856898,0.0098045388249002,-0.5235430207759288,-0.0104171834876369,0.0024197370149705,-0.0067604649739847,-0.0158785944820775,-0.001525205967697,0.0294883165586943,0.9994374853108666,-0.0008365877873677,-0.0031492215952541,9.847287684195452,0.0160214244426874,0.1504540336493407,0.0016373888011656,10.995139131311456,0.0653602742067194,2.1118126274221503,1116.7829887046767,1127.0416092296005,1116.5462287152802,1098.3993669838333,184.60654513714,-61.81298463881242,-120.71250970245856,592.6134001764054,160.82090131934604
16.015,-1.5162667635059124,0.0588411505690506,-0.3982647345086547,-0.0146349809871414,0.0028974764190953,-0.0086417504412736,-0.0158963309131936,-0.001519339964047,0.0294771663781647,0.9994375417179008,-0.0043356612911273,0.0014785096553861,9.840150645735584,0.0159559989324818,0.1514057255773678,0.0017070108215091,10.995156658784609,0.0657352489279276,2.1117995445798177,1117.0340882147111,1126.7421301505792,1116.132072091974,1099.7822873109556,15.930407195620354,-164.7973157369118,-221.45407454443145,539.2947531545329,160.82089486189537
16.0175,-1.4141081170196044,0.0443323535985559,-0.2246498559598501,-0.018396464603489,0.0038333033383891,-0.0095596290520307,-0.0159100371483044,-0.0015137971893588,0.0294654782646879,0.9994376739549524,-0.0076712831791681,0.0057715108834577,9.833072395570248,0.0158739020567522,0.1523786277870671,0.0017541148180414,10.995175715576329,0.0661135391336262,2.11178827919624,1116.8626407406548,1126.2176226509155,1115.4389583425575,1101.0958407496073,-145.8241245917469,-239.98506570374275,-316.50651089768803,495.04313465996194,160.82094822077588
16.02,-1.2883872757783095,-0.033138907002444,-0.0264750835257357,-0.021390294595188,0.0049229458935119,-0.0097583865204235,-0.0159203135068184,-0.0015112068767947,0.0294503454823325,0.9994379563353558,-0.0107113714610508,0.0096570873627387,9.826160130943357,0.0157729774151924,0.1533689549585945,0.0017787247972782,10.995196512548675,0.066495514061726,2.1117792221353944,1116.3049675917528,1125.5422048220607,1114.5495395374855,1102.257502984255,-311.2205876038552,-304.47274195723054,-383.19072134607615,407.9568909443781,160.8210513556128
16.0225,-1.153322491121198,-0.1847305503087889,0.181868381851043,-0.0234391243828422,0.0059460683107975,-0.0095159343112751,-0.0159268570245592,-0.0015094082036322,0.029434132407042,0.9994383321339422,-0.0134147232849562,0.0130959558739005,9.81951484903773,0.0156530751279602,0.1543723636959776,0.0017802980963699,10.995218011348127,0.0668810548369927,2.111772254781262,1115.3065378026358,1124.6952589411296,1113.5230047358275,1103.1356252043288,-517.7114567011934,-415.40613564301646,-447.22471269805993,300.14428732821733,160.8212154072366
16.025,-0.9937244744444657,-0.4269367738698084,0.4200142669718546,-0.0254032956709611,0.0062253634203373,-0.0088836065005784,-0.0159258897308465,-0.0015012409240112,0.0294224276059396,0.9994387094212778,-0.0158356788598095,0.0161335288223257,9.813230182604952,0.0155157046781087,0.1553841823959927,0.0017572630758321,10.99523849080552,0.0672699627963041,2.1117680679235793,1113.7164103082473,1123.465174143846,1112.313415973996,1103.7582244208959,-622.7538443983451,-490.4417928498854,-411.2740028136067,146.81774539151968,160.8214846734914
16.0275,-0.8599853310738192,-0.6446555107912816,0.5902062151813077,-0.0271981734912782,0.0049596388059349,-0.00777623201037,-0.0159226939997228,-0.0014889087892627,0.0294165326453879,0.999438957401176,-0.0178545978479402,0.0186453898936656,9.807393650563059,0.0153617695937703,0.1563997445821355,0.0017109944517702,10.995257763742629,0.0676620127471905,2.1117660658056674,1112.1927685806447,1122.2430499768807,1111.4666347217599,1103.8697139312862,-617.6084328194089,-532.5981074219729,-276.5063241726188,-43.20151374902316,160.8217712002671
16.03,-0.710766160678093,-0.8300453336187226,0.7068705218547535,-0.0292831941421068,0.0021467441820949,-0.0057536384849229,-0.0159241339841014,-0.0014808336555751,0.0294138058519044,0.9994390270868532,-0.019237737144391,0.0204859352146017,9.802084930369912,0.0151915666678494,0.1574145199270236,0.0016440124778848,10.995276235560487,0.0680576948764865,2.1117647683314886,1110.6283681441487,1120.8021836067348,1110.930884353132,1103.5422168521507,-665.1239049467181,-681.1541984611258,-145.57017171912943,-237.81436264375955,160.8221243840347
16.0325,-0.4944667323626817,-0.969598650608738,0.7610505777909506,-0.031385396061115,-0.0021169835367079,-0.0026727701544252,-0.0159322805203099,-0.001483905505206,0.0294121488431619,0.9994389336071205,-0.0197857869982079,0.021617354486016,9.79737339138242,0.0150061157009689,0.1584241371601451,0.0015584039602202,10.995294393851411,0.0684575810326555,2.1117634433661814,1108.8671490559116,1118.8372789845755,1110.7387838631644,1102.6806421180677,-610.0436359229966,-750.3263952366196,4.299792516031576,-380.18567584257033,160.8226276511677
16.035,-0.2728655159267643,-1.0006764476277403,0.726154385165576,-0.0325610104711762,-0.0057607565940737,-9.491747425544487e-06,-0.015950801005364,-0.0015058616926833,0.029405926169619,0.9994387713344692,-0.0192946530207316,0.0219814002155275,9.793317559168305,0.0148058777189056,0.1594246990285054,0.001457869698445,10.995312834175055,0.0688618864485984,2.1117606823664574,1107.5781499645343,1117.0505516305525,1110.9523833157123,1101.641288472938,-468.66117648172474,-725.082990432331,145.27955521550055,-456.16608792146815,160.82311490204353
16.0375,-0.0007170104555037,-0.946611291338623,0.6121690171263858,-0.033575700155699,-0.0087697597631186,0.0024903918195543,-0.0159808506968602,-0.0015467768178127,0.0293919203394526,0.9994386164877924,-0.0177188889786637,0.0215836454675391,9.789962805980103,0.0145927444202693,0.1604128824955358,0.0013465171644057,10.995331155599148,0.069270359727818,2.1117551007929216,1106.523843173502,1115.2118640324122,1111.4651816392422,1100.3998116784592,-407.6213331800674,-786.9732093231252,256.5183820641833,-553.64760053155,160.823674466322
16.04,0.3826867272085819,-0.8079443791009239,0.4075569657559042,-0.0348584527999134,-0.0113169198824978,0.0050041402525569,-0.0160203542458122,-0.0015994482770396,0.0293730700179356,0.9994384279053208,-0.015163593076343,0.0205055229564369,9.787340385693604,0.014371381220919,0.1613861109117455,0.0012283135364423,10.995347959122714,0.0696821851457991,2.1117460896626588,1105.5400432986344,1113.1156855839376,1112.2349752260327,1098.8730504702808,-315.29071701149314,-721.5970531506243,273.7916039253013,-537.410813536478,160.82443158929405
16.0425,0.7325747787188259,-0.6538060022880611,0.2103132490653196,-0.0355255974114549,-0.0127688397786707,0.0061919269311008,-0.0160665354214539,-0.0016555521336053,0.0293554428834775,0.9994380878680248,-0.0117683084626973,0.0188486492277312,9.785467747478291,0.014148272136158,0.1623428571182384,0.0011073422726163,10.995361827177648,0.0700961885966815,2.111733812804872,1104.9473895884448,1111.6038787666598,1112.8341396588685,1097.712757610777,-191.7713612253848,-522.87058001703,190.92014084425736,-415.71445511491777,160.8251352998377
16.045,1.064849820972634,-0.4843866931632866,0.0314940311634365,-0.0343285803756978,-0.0138488057126987,0.0056146903667946,-0.0161082760856513,-0.0017059926213555,0.0293422124476719,0.999437697635618,-0.0076998649996397,0.0168812897417058,9.784347758234045,0.0139295562889101,0.1632829167256016,0.0009848661099581,10.995372768506378,0.0705113893055423,2.111720166151792,1104.5811864925067,1110.5013326838512,1113.1895759302547,1096.794478194705,-109.50644817019015,-353.6435985505044,78.3131442672285,-318.6305169072236,160.82591612093103
16.0475,1.3266634826323516,-0.3172035068586497,-0.0992940179024016,-0.0307514245909532,-0.0147314885274172,0.0036361327171383,-0.0161403822017568,-0.0017482903809185,0.029333844317974,0.999437332558078,-0.0030169503941101,0.0147528303842498,9.783971174945993,0.013720712732987,0.1642072921104731,0.0008635237948577,10.995381426577598,0.0709268093150571,2.1117060012835447,1104.399857347594,1109.8356607739076,1113.2257053802043,1096.1196050262415,-27.83985603078335,-148.42416722802452,-76.6911288979525,-212.31251542107788,160.8267620487891
16.05,1.4344197524750015,-0.1680558712039164,-0.1532799781157503,-0.0250967403606554,-0.0153425149488463,0.0013197046808144,-0.0161663163203845,-0.0017855691915235,0.029327787120372,0.9994370086566072,0.0023079950682819,0.012439096868462,9.784317318848153,0.0135261249613955,0.165117982755124,0.0007482038269295,10.995388720426662,0.071342453943661,2.1116906514008127,1104.441987212353,1109.7592118477112,1112.806120285765,1095.7329156176,70.51440913361178,101.5586456069676,-285.1763086821298,-112.91258786303521,160.8276880806575
16.0525,1.3285608870985837,-0.0294392165112072,-0.1430476311878879,-0.0177211002250458,-0.0153744273422149,-0.0002029739228675,-0.0161892152906341,-0.0018191189517928,0.0293250453712754,0.999436650831284,0.0082515254343534,0.009921007291747,9.785353692945279,0.0133510427036586,0.1660175350925678,0.0006431712531986,10.995394580803216,0.0717585679150699,2.1116736359009645,1104.7524293932622,1110.3434540019427,1111.7998238367932,1095.555042086926,156.58945891753703,313.91763428479743,-432.4467001398667,-25.78930136424391,160.82889433133863
16.055,1.0389439933625513,0.039305904866954,-0.1024376081977026,-0.012190184621386,-0.0148340861328289,-2.3353052243397496e-05,-0.0162107853991697,-0.0018464103404506,0.0293303654535416,0.9994361052164872,0.0147016847153572,0.0072058787553153,9.787037296084977,0.0132015242770012,0.1669087594184835,0.0005515666565514,10.99539831787798,0.0721748962739719,2.111655478511159,1105.2249345069404,1111.3288000191349,1110.643886785066,1095.6039691107787,229.69801612284775,470.1385617377608,-488.2896872751251,51.84251931283265,160.82998072079616
16.0575,0.5795921766342368,0.0500253827046696,-0.0682666569864981,-0.0085629556780212,-0.0139130951744934,0.0012379007181011,-0.0162209699825043,-0.0018629049251839,0.029343219856663,0.9994355552702224,0.0214966228565427,0.0045276489746209,9.789315416656738,0.0130812350686959,0.1677947021239291,0.0004717570418903,10.995400748101751,0.0725916692205033,2.111638647141536,1105.9009194738762,1112.694146810631,1109.358375400418,1095.81425468349,332.29155152637094,645.9811224421549,-540.4447885406792,120.77220373783022,160.83115405523833
16.06,-0.0762614634291534,-0.0011178420331948,-0.0605461686557653,-0.0075431647987725,-0.012824703038302,0.0027297451748885,-0.0162205013779511,-0.0018706427104568,0.0293594127966515,0.9994350978009776,0.0285819897551828,0.0019008987298686,9.792129334607177,0.0129917448544817,0.1686782905586599,0.0004047744040657,10.995403516980915,0.0730088177102723,2.1116239310553824,1106.886392264572,1114.5587056313448,1107.9416628423633,1096.207830129468,374.11760663461047,685.9294697577297,-462.0097972539052,160.7648544747782,160.8326660460365
16.0625,-0.6294235523994169,-0.0832146074532997,-0.0805657269051564,-0.0096431172386564,-0.0124487135482751,0.0031977292083646,-0.0162147154458396,-0.0018735457503446,0.029373722128998,0.999434785381657,0.0359257121156777,-0.000754977344816,9.795414874631465,0.0129333822587835,0.1695619921352914,0.0003526490340399,10.995407469017028,0.0734268300308835,2.1116103684519016,1107.771507507049,1116.123794159419,1107.0483264141487,1096.618078955864,340.94793734094145,584.511630969447,-269.1914600549795,172.13952496749985,160.83401546441192
16.065,-1.102722214423312,-0.1788968164003728,-0.1094621494595805,-0.0139985211921574,-0.0129609359677328,0.0027279223861305,-0.0162070831411649,-0.0018726261782029,0.0293819490468587,0.9994346799557632,0.0434308569596677,-0.0034856171020097,9.799103399762076,0.0129060798207597,0.1704475184029147,0.0003165774946444,10.995412285180633,0.0738465887119736,2.11159712351764,1108.5911319512777,1117.4812637861935,1106.5957055420877,1097.068527754306,315.02924004391286,502.486715416544,-90.22543804710016,197.117251150342,160.83546126798157
16.0675,-1.5151256841603649,-0.2748373004824092,-0.1285486651352153,-0.0201346570033658,-0.0142480462950511,0.0017269318142291,-0.0162080513051951,-0.0018716163181918,0.0293819402147231,0.9994346673304408,0.0510433703377796,-0.0064771137836223,9.803123535898429,0.0129098983662887,0.1713356382360133,0.0003000003652436,10.995417861369,0.0742683156973199,2.1115840934976275,1109.346653707268,1118.6362277365013,1106.5971992239135,1097.6036652116154,224.2342581751464,318.18528844862124,79.56461448094834,187.71431117815249,160.8373118512248
16.07,-1.712666570714511,-0.3188824808017,-0.11810450100477,-0.0251420743179274,-0.0156430201814276,0.0008931393490104,-0.0162272523905027,-0.001874665854493,0.0293752742171454,0.9994345396668558,0.0587144307629629,-0.0099011217938693,9.807401593479298,0.0129457827669984,0.1722260722558407,0.000306073028952,10.995423577751128,0.0746927526173828,2.1115704133568447,1109.7123032421532,1119.0721902284365,1106.9935286144923,1098.0070993101965,89.17777826709411,48.80473045602461,212.33285213686992,142.56711528129907,160.83895307322356
