t,ang_acc_x,ang_acc_y,ang_acc_z,a_vel_x,a_vel_y,a_vel_z,quat_x,quat_y,quat_z,quat_w,acc_x,acc_y,acc_z,l_vel_x,l_vel_y,l_vel_z,pos_x,pos_y,pos_z,mot_1,mot_2,mot_3,mot_4,dmot_1,dmot_2,dmot_3,dmot_4,vbat
42.7975,-1.518671333146359,-0.7938437330355427,0.5632006989064818,0.0104961899809861,0.0054201769570299,-0.0126369344676829,0.0070524551076281,0.0054296009121115,0.0587057845852111,0.9982355945997328,-0.0478733135596379,-0.0122368271046678,9.884540894618382,0.0199138354708472,0.0418244842545875,-0.0002466167876109,-1.063002776326043,1.9739367250994733,2.045004287698183,1141.373632955038,1132.7602578327271,1140.9176934205739,1137.3579671338455,-46.6867051996121,-770.6029168542195,555.1145581534345,161.7445510268308,151.6454917207221
42.8,-1.1538883820718262,-0.7183298356115922,0.58597154079134,0.0050345131842545,0.0022181197909071,-0.0111717750945058,0.0070710759802692,0.0054541234562063,0.0587099776008046,0.9982350809582458,-0.0498678208756722,-0.0139275907076959,9.886504479310439,0.0200471261679277,0.0417186382431311,7.695903513039394e-06,-1.0629653637983063,1.974042698006644,2.0450068678460185,1141.1133594723262,1130.9881594467854,1142.382057928728,1137.6274879527834,-185.5796977529241,-668.8149144265697,635.5864463314833,72.01403286522644,151.64513898376003
42.8025,-0.5702614875780196,-0.5527160610060032,0.5826548926610852,-0.0012902903690827,-0.0016873570913178,-0.0106576978120232,0.0070925780284779,0.0054774276681702,0.0587088370638473,0.9982348651534368,-0.051429187085285,-0.0153660918196734,9.887886285237682,0.0201775768337264,0.041615466646269,0.0002631922316006,-1.0629275880912152,1.9741483464706775,2.0450106596558992,1140.445734466273,1129.4161832605928,1144.095625652233,1137.7180372981716,-296.391649587755,-463.36888499355456,583.961374561417,7.179100319314946,151.6446522183495
42.805,0.0023622747672121,-0.3726516583611232,0.5649655436568435,-0.0045979568378872,-0.0039900803599176,-0.0104757729958867,0.0071180455664472,0.0054988505337965,0.0587029107630544,0.9982349114644044,-0.0525446434100032,-0.0165495200587765,9.888671865862273,0.0203072234796708,0.0415166533447752,0.0005167614153918,-1.0628896334327105,1.9742543545911757,2.0450151268711885,1139.6314012243888,1128.6713150218195,1145.3018648015325,1137.66338345438,-358.4958595072371,-166.99095796581514,395.3554889018918,-35.33855021517896,151.6441941050277
42.8075,0.5743802603530626,-0.1975143532315695,0.5262720098715713,-0.0035465107169109,-0.0040523706546061,-0.0093879613453487,0.0071475783755115,0.0055184590124151,0.0586940181692813,0.9982351128501123,-0.0532236431463901,-0.0175005008706619,9.888855839710876,0.0204381332641587,0.0414233210944116,0.0007657759550675,-1.0628514136615572,1.9743608783675215,2.0450195786365337,1138.6532551687385,1128.5812284707645,1146.0724030967403,1137.541344547096,-397.1910740576519,72.9017864895095,215.81679989037963,-52.524533665855834,151.64368226172627
42.81,1.0623489680775728,-0.0676548157187995,0.4565850174857921,0.0012207338485518,-0.0023470523490348,-0.0074337878484879,0.0071786425975011,0.005536609509867,0.0586838965706033,0.9982353841971094,-0.053490848758297,-0.0182987290961967,9.888441546875955,0.0205722839530335,0.0413361749969283,0.001008174837007,-1.0628127424559808,1.9744679817362945,2.0450241113145173,1137.6454458540995,1129.0358239542675,1146.3809488009847,1137.4007607860503,-384.2164486931632,299.56248746023584,9.854049849531709,-55.13671068890197,151.6431265868121
42.8125,1.3715773186572393,-0.0225816817909655,0.3371895547495818,0.0079301758368798,-0.0001819112133038,-0.005308943136534,0.0072070282320713,0.005551197912252,0.0586716341286544,0.9982358209963306,-0.0533304349061222,-0.0190636552224213,9.887440124910933,0.0207113677387194,0.041255713731252,0.0012422018817001,-1.062773942613382,1.9745753483855553,2.0450293061143827,1136.7321729252717,1130.0790409080664,1146.1216733459883,1137.2656609936514,-355.5537013394365,559.079356748097,-216.68616559656283,-53.80865893007814,151.6425191458527
42.815,1.5018164459717973,-0.0633874181957722,0.1400845821946236,0.015297568958032,0.001173956900119,-0.0037106282725848,0.0072297112287728,0.005561968567532,0.0586553496706915,0.998236556844837,-0.0527670364287451,-0.0198914493792737,9.885868501816049,0.0208569151510364,0.0411822558372324,0.0014662832190898,-1.0627353811857023,1.974682324585382,2.045035415438919,1135.867677347404,1131.8312207380054,1145.297517973003,1137.1317174914004,-272.3265760702787,688.1049467304938,-348.94341355753,-41.811190146223886,151.6417320516167
42.8175,1.4298531377290131,-0.1499032225931076,-0.0527770164377023,0.0200403281114166,0.0011689431065023,-0.0035021394262127,0.0072472150370421,0.0055673341258652,0.0586330550933517,0.998237713522584,-0.0517993817700458,-0.0208105194605996,9.883748024257011,0.0210103136135122,0.0411159368959669,0.0016787437417772,-1.0626971339807711,1.9747884418354769,2.0450429011257807,1135.3705400449196,1133.5195656417206,1144.3769562781995,1137.05660504292,-161.17243374165747,669.8163848583802,-362.16351134821366,-19.45615722646749,151.64102909475093
42.82,1.2272355795352687,-0.2472660816737944,-0.2489834542764479,0.0232701893307875,0.0001854064249948,-0.0043235374571821,0.0072631971610579,0.0055646577227474,0.0586047212044743,0.9982392805952076,-0.0504053267537465,-0.0217879072137877,9.881103426026877,0.0211728719071105,0.0410565761091423,0.0018779425771522,-1.0626591031465695,1.9748936760504625,2.045051773566864,1135.0618151786953,1135.180302662299,1143.486700416261,1137.034436705268,-117.61923417363288,664.814313163074,-330.4780700007818,3.490613754096094,151.6402792460675
42.8225,0.9126684636683656,-0.3288766958200364,-0.4613514431624015,0.0256943836417291,-0.0020149918348679,-0.0058059849367768,0.0072800818910161,0.0055532854429237,0.0585731818026129,0.9982410771834582,-0.0486057461516372,-0.0228105255892704,9.877962497156728,0.0213457584058524,0.0410035317871812,0.0020628759803178,-1.0626213662169444,1.9749981441478244,2.0450614472514723,1134.782443874052,1136.8436372075328,1142.7245659281973,1137.0740581116906,-109.17343329164268,522.0487364086297,-205.9458250298432,22.212667359224277,151.6393276765149
42.825,0.645795066760745,-0.3443007958880235,-0.6052979842038034,0.0265646873380883,-0.004414950280129,-0.0071379066987817,0.0072990077106669,0.0055331144609169,0.0585429406420916,0.9982428304148244,-0.0464353881707482,-0.0238863514267335,9.874355140314952,0.0215297901603268,0.0409556501353704,0.0022332110666648,-1.062583385542314,1.9751021436125509,2.04507107198252,1134.5159480122368,1137.7905463443435,1142.4569712911111,1137.1455000420642,-134.20005633358824,270.17824839531204,-30.430305590410065,26.33884985610637,151.63849320599294
42.8275,0.4261209960934213,-0.3004669193696123,-0.7025353604946344,0.0264736456631774,-0.0066313582976237,-0.0089680296511509,0.0073193590239535,0.0055059248186686,0.0585154700393021,0.9982444471503966,-0.0439689509483639,-0.0250504800530503,9.870312454106847,0.021724964243115,0.040911390313321,0.0023893639643321,-1.0625445045265989,1.9752059752334692,2.0450803183232686,1134.1114435923837,1138.1945284495102,1142.5724144002452,1137.2057523609712,-217.19904292973953,63.94050684913412,109.15961219694432,6.362354230219681,151.63761706954065
42.83,0.2525521892333069,-0.205872630116819,-0.7545691395211221,0.0259423237236348,-0.0081435396679975,-0.0117863175663207,0.0073417616733477,0.0054740278263185,0.0584910006126788,0.9982458950032452,-0.0412897306657282,-0.0263064363766816,9.865865427981172,0.0219306218351614,0.0408687248189832,0.0025321127429139,-1.062504350404228,1.9753102033539796,2.045089263299759,1133.429952797589,1138.110248878589,1143.0027693520956,1137.1773118132153,-274.3591856255495,-99.20233905922414,171.81175426867716,-40.412392632222016,151.63651842580745
42.8325,0.1906541326881451,-0.1262301978010671,-0.7424337487493265,0.0256238380478152,-0.008156177240945,-0.0141660407481844,0.0073687565332408,0.005440259519257,0.0584704734022611,0.9982470824209616,-0.0384876425186824,-0.0276120681685219,9.861044331026072,0.0221457005274967,0.0408250843335883,0.0026624303744419,-1.0624625592775243,1.9754157844742353,2.0450975567513368,1132.7396476642552,1137.6985167542139,1143.431473171589,1137.00369039781,-278.7069872922923,-192.18942107353715,142.43521944856172,-111.96679265902912,151.6355636512616
42.835,0.20648478041207,-0.0885208333524531,-0.6807713116984048,0.0258236097931357,-0.007066833225792,-0.0161151448911729,0.0074017457925063,0.005408250368954,0.0584522192808739,0.99824807427787,-0.0356675378314619,-0.0289385109944712,9.855879193172775,0.0223686128585819,0.0407776132554306,0.0027816165978553,-1.062419312437874,1.975522970319642,2.045104894456535,1132.036417861127,1137.1493017732207,1143.7149454493388,1136.6174778499199,-261.9505511503684,-209.63812800292513,63.12556745834911,-192.30792702050377,151.6345677680256
42.8375,0.2733125067884652,-0.1074420078555839,-0.5895668438653191,0.0264363198357307,-0.0056268942879301,-0.0177180344795118,0.0074419911886116,0.005380843091234,0.0584350801594059,0.9982489110604228,-0.0329161528803296,-0.030252169139832,9.850399777905542,0.0225976888070455,0.0407232400189254,0.0028909784313558,-1.0623746919964407,1.9756315778790896,2.045111046680799,1131.4298949085044,1136.6503261142,1143.7471010088805,1136.0421507627084,-196.3513508474894,-157.096125697955,-64.67461287180743,-269.9098032444437,151.63353708460633
42.84,0.3836837320044685,-0.1985140409741852,-0.4792344964293316,0.0273149411939245,-0.004723562461195,-0.0188834562200065,0.0074916169984787,0.0053592983670688,0.0584194019844643,0.9982495476822608,-0.030285083063508,-0.0314960804949401,9.844635808537104,0.0228314261777756,0.0406588544382128,0.0029915012414701,-1.062328739472384,1.9757413576596683,2.0451160066372585,1131.0546611068887,1136.3638211447303,1143.3915723849796,1135.2679288336967,-93.92305569476518,-57.34531260892958,-245.83030211043635,-368.95990599136206,151.63246306594863
42.8425,0.5448334584088435,-0.3680754031531076,-0.345548432500157,0.0284771086959826,-0.0048449373044258,-0.0197427189554098,0.0075543184000747,0.0053453197379445,0.0584076667436896,0.9982498003849176,-0.0278298344593221,-0.0325743199992095,9.83861747258306,0.0230686780120166,0.040581476756358,0.0030836423388637,-1.0622813254968544,1.9758521590822928,2.0451196887547,1130.9602796300303,1136.3635995511554,1142.5179494983277,1134.1973512327506,27.52292641473789,55.99122590688784,-379.24608022260986,-398.7416051907064,151.63112187241595
42.845,0.6870022060591116,-0.5298464694723481,-0.2456645053270167,0.0295909644143102,-0.006055637923344,-0.0200937567569964,0.0076354002865576,0.0053415064973278,0.0584020181720614,0.9982494890391638,-0.0256190345235092,-0.0333515743201006,9.832376395852803,0.0233085993962571,0.0404885456058706,0.0031671122438957,-1.0622321100333123,1.9759644425057457,2.0451219679666846,1131.1922757389625,1136.6437772742647,1141.4953419838682,1133.2742208077452,151.32707445428866,152.88129755455338,-437.0538659479773,-354.2916522867478,151.62995900717712
42.8475,0.8143645288298565,-0.6741896880899604,-0.1674545889419024,0.0311301454474448,-0.0084329957096514,-0.0202127262648734,0.0077403509151781,0.0053497828518289,0.0584008092018789,0.9982486566602676,-0.0237057407086981,-0.0336840122938069,9.825947080830703,0.023550556809015,0.040378269737158,0.0032406928268009,-1.062181422251966,1.9760784432033824,2.045123592934876,1131.7169150023024,1137.1280060389283,1140.3326801685866,1132.425892971316,285.3178524898699,226.20356501154012,-495.70884138022046,-335.4265928232156,151.6287479960402
42.85,0.9173284848315466,-0.7939056492288434,-0.1022787013604527,0.0338402893961172,-0.0119019473501927,-0.0202494666409546,0.0078687585957231,0.0053674923978514,0.0583966520418486,0.9982477490062573,-0.0220583959953595,-0.0335444006395462,9.819369283716137,0.0237941623597679,0.0402499208094718,0.0033024067639009,-1.0621308221782808,1.9761929307941444,2.0451266408558935,1132.6188650014124,1137.774795099323,1139.0167977769659,1131.5970878436283,364.79556962364296,219.3266906456477,-434.90174326487687,-263.0146432988231,151.62723860780002
42.8525,0.937148073537917,-0.8394026590938846,-0.0699421412151621,0.036934303123162,-0.014518998734646,-0.0202869245628718,0.0080161490110695,0.0053915686589132,0.0583835949300046,0.9982471627598266,-0.0206408035683347,-0.0329833631564619,9.812688493377145,0.0240398481626164,0.0401036930415605,0.0033495710983528,-1.062081768280235,1.9763064466115587,2.0451326778954444,1133.540892850419,1138.2246394921558,1138.1581714522642,1131.110819754823,389.27745968028927,129.17529898479856,-262.8341144160478,-149.97391254352408,151.6259342029688
42.855,0.8683353828821904,-0.8322816745241473,-0.0543535332929325,0.040545559299552,-0.0165731132485767,-0.0204110908951547,0.0081772947249997,0.0054188884054991,0.0583600556048791,0.998247048309418,-0.0194155210034836,-0.0320661384074852,9.805955950403343,0.0242888862071077,0.0399406094383001,0.0033788292901077,-1.0620347045003615,1.9764179658183276,2.045142248298476,1134.565252299815,1138.420671594247,1137.7026272048847,1130.8472182809103,454.67404135651515,0.9434799025252408,-92.13646874918429,-72.6817437910623,151.62458244756016
42.8575,0.684599043577445,-0.7749824139160296,-0.0460283189271634,0.0445186838606464,-0.0185834223195355,-0.0207003073230244,0.0083435446118086,0.0054463523118998,0.0583287821207803,0.9982473333044056,-0.0183486597079221,-0.0309265881355669,9.799229472111032,0.0245430023626684,0.0397623720471804,0.0033868356714451,-1.0619889229870623,1.9765269681723168,2.0451552653476903,1135.8142630572027,1138.2293568916684,1137.697489108518,1130.7474110358676,445.051609344041,-149.55061712994353,82.37460483995379,-10.131761760440105,151.6229076802854
42.86,0.4685979842497426,-0.6941293835975721,-0.0419413020390946,0.0468932104466821,-0.0199507931915718,-0.0210373987394267,0.0085015406284124,0.0054698729602022,0.0582918133750076,0.9982480344247828,-0.0173916168370266,-0.0297943859403612,9.792573459878367,0.0248035942096592,0.0395713525418911,0.0033708165106155,-1.0619435107999224,1.9766329836043772,2.0451709770532367,1136.7905103465332,1137.6729185085983,1138.1145002290843,1130.796559472108,356.45662614047023,-300.46560371263786,228.45504160088376,36.512091051763,151.62147028884203
42.8625,0.2330706150710757,-0.5824584014511333,-0.0369063935996146,0.0478310020969135,-0.0211688536732428,-0.0213560658880722,0.0086391204426111,0.0054863273018201,0.0582501645953785,0.998249213940162,-0.0165120970113909,-0.0288784780109882,9.786056749218703,0.0250714172007698,0.039370331701949,0.0033286167728897,-1.0618974972152313,1.9767362875482088,2.0451875859900417,1137.596546187906,1136.7270288731045,1138.839764316523,1130.9299714911265,279.51925866472516,-430.49861737109296,312.3571711459811,62.826202886267005,151.6199927405428
42.865,0.0230369414266043,-0.4434414510168793,-0.0310586633416727,0.0475307459926942,-0.0224060684394604,-0.0214842944623201,0.0087556044677476,0.0054943664380042,0.0582034649035688,0.9982509055102404,-0.0156975166779551,-0.028166388139705,9.779748864969648,0.0253464191031757,0.039162249286393,0.0032581903757851,-1.061850181271533,1.9768379586715847,2.04520408716418,1138.1881066398576,1135.5204254217415,1139.676286084815,1131.1106904865396,171.66263257706456,-524.6311677477703,322.5583115704672,83.81236059497843,151.6184844639558
42.8675,-0.1097093067415175,-0.2671016627780725,-0.0261874957257762,0.0459723460425533,-0.0236951367640975,-0.0213077416197228,0.0088599405760506,0.0054912251147889,0.0581514882263796,0.9982530583622506,-0.0148939939653416,-0.0274656461033855,9.773718429836016,0.0256278755550078,0.038949850155332,0.0031577381713836,-1.0618012806200847,1.9769390253702348,2.045220790893127,1138.4548593507905,1134.103873034368,1140.452555874374,1131.3490332941008,36.95649657355439,-645.1028911375444,281.7574686382902,123.457238293598,151.6169421920224
42.87,-0.1407061422616475,-0.0117058113171793,-0.0217480492776794,0.0433656131151477,-0.0249566816520215,-0.0210422695251592,0.0089645067841139,0.0054788427199305,0.0580977822163805,0.9982553461441724,-0.0141320001727048,-0.0265189840292064,9.76803227215805,0.0259147035983633,0.0387353347825305,0.003026571044362,-1.0617510108541808,1.977040289102486,2.045238204512196,1138.3728891227252,1132.2949109660567,1141.0850734280052,1131.727976678007,-88.66353106668622,-665.6388755503264,157.52871252426428,158.9952566219477,151.61505601388524
42.8725,-0.0544001063582839,0.2298111634314918,-0.0157472276247606,0.0413514430713365,-0.0252749070384042,-0.0209755502879096,0.0090731309393894,0.0054600391354962,0.0580476227644351,0.9982574128684288,-0.0134645312820224,-0.0252421805128659,9.762755707112232,0.026205424866291,0.0385203896776714,0.0028660012171575,-1.0616993090637228,1.977141601620948,2.0452554786212813,1138.0115416954568,1130.7756786566147,1141.2401994369957,1132.1440095772111,-179.8195743790519,-596.0648757828174,-27.836103434569253,189.60060033745623,151.61345739627566
42.875,0.1243055192943011,0.4812122842846751,5.695397882122567e-05,0.0404344012264572,-0.0244977168642108,-0.0211630434040465,0.0091791111430202,0.00543710094576,0.0580045314921853,0.9982590992747876,-0.0129412824842755,-0.0237631077359892,9.757950673412743,0.0264980141080729,0.0383064223594462,0.0026794873887086,-1.0616460071432676,1.9772420562666655,2.0452713923131975,1137.4737912508294,1129.314586587141,1140.9458929108323,1132.6759796796948,-235.89090863145967,-615.0203461989031,-224.41162055044916,255.87783478927656,151.6118341543826
42.8775,0.3887905690971102,0.7644606978270094,0.0383122012418437,0.0412662157402437,-0.0225443523067425,-0.0216149105447688,0.0092765589991814,0.0054144819156667,0.0579711655932372,0.9982602782055054,-0.012648030795404,-0.0221969565326596,9.753671074182769,0.0267900819917437,0.0380945885145106,0.0024717872732301,-1.0615909844828775,1.9773416132094344,2.0452845884588875,1136.8320871523003,1127.7005769256227,1140.1181413342445,1133.4233987511564,-205.93486846499596,-556.4306770006506,-362.4617034655749,281.48136393883004,151.6098614194474
42.88,0.6030534934391831,0.9636834500156533,0.0879188420445083,0.0434148927378174,-0.0202890967755121,-0.0219961594694214,0.0093632679099008,0.0053954097337085,0.0579499785958885,0.998260809453874,-0.0126372422527489,-0.0205938805601034,9.749960233805586,0.0270790871244728,0.037885701405912,0.0022483311740252,-1.0615339349498019,1.9774408459949964,2.045294075377498,1136.444116908504,1126.5324332021366,1139.1335843935035,1134.0833864993897,-103.73427437611248,-414.54223232550873,-421.0365811018738,249.51509089383728,151.60819936362455
42.8825,0.7630586975788373,1.1021858775357551,0.1499936959991044,0.0461913794867983,-0.0173811637054557,-0.0220564637867097,0.0094417833750601,0.005383089479489,0.0579412893944761,0.998260634638938,-0.0129508001456041,-0.0189161482150911,9.746849226636451,0.0273623544228661,0.0376802927981268,0.002014795000533,-1.0614748141172423,1.9775404962487737,2.0452995690938263,1136.3134157804195,1125.6278657639944,1138.012958428734,1134.670974205626,1.2916413756113723,-322.2476921707969,-481.8874429611532,207.21227441595803,151.60652155319139
42.885,0.8590202794897976,1.179062058267868,0.2229357004033343,0.0495839323018182,-0.0131113611612797,-0.021452346824014,0.0095190984092341,0.005380430268385,0.0579454677197156,0.9982596543741176,-0.0136156433748931,-0.0170441407618923,9.7443561208058,0.027637454990909,0.0374785330198787,0.0017766180446193,-1.061413413330996,1.9776416122120857,2.045300961205812,1136.450575115382,1124.921194741284,1136.7241471787,1135.1194478714683,83.18390654954163,-191.921645823315,-435.1654099995405,96.02270699010295,151.60449344142228
42.8875,0.848756047158783,1.1635872869497654,0.2687322490559888,0.0523669582662356,-0.0091886280953805,-0.0203360016965456,0.0096024621322193,0.0053892788362724,0.0579623913655663,0.9982578032549208,-0.0146346315782437,-0.0148581446594421,9.742486821260782,0.0279024095338895,0.037280409373909,0.0015387692902011,-1.0613499861494204,1.977744593078466,2.045299265087092,1136.7293353131677,1124.6682575348773,1135.8371313787352,1135.1510877405767,116.85766276812888,-37.265316950405605,-290.0798093175461,-80.26108122758602,151.60279356995386
42.89,0.7462433692620182,1.0757704780769404,0.2876617970636011,0.0550730631829707,-0.0056288444539561,-0.0188405778740235,0.0096927026056324,0.0054082939287839,0.0579871058091197,0.9982553742743822,-0.0159542741621371,-0.0123695528173057,9.741237258289155,0.0281556117483894,0.0370862175136473,0.001305697587024,-1.0612853998998064,1.9778483984152533,2.0452962028335255,1137.0348634292227,1124.734868156532,1135.2737481321115,1134.7181424653304,106.709980853481,67.86010130987766,-160.00864873918545,-254.55290736222608,151.60108650809048
42.8925,0.5779619111043113,0.948397649486189,0.284193139766552,0.0574789024996887,-0.0028671042410386,-0.0172825962194254,0.009782013809694,0.0054332085339033,0.0580106621846422,0.9982529871826133,-0.0174738553591267,-0.0097631716042408,9.74059521516946,0.0283960528086859,0.0368967584842528,0.0010812387022185,-1.061220356899344,1.9779511692770313,2.0452928726341355,1137.2628852174344,1125.0075580414264,1135.03708813504,1133.8783232037667,60.09328751389712,138.7784516878782,-13.46591682235378,-421.21637860460675,151.59937567730944
42.895,0.3554138342830403,0.8072121420759428,0.2664270592145915,0.058938284440477,-0.0011988134155368,-0.016095046948392,0.0098669561837128,0.0054609846819234,0.0580257239985008,0.9982511177239354,-0.0191127993750131,-0.007139869402637,9.740538655698634,0.0286237634322125,0.0367131072352124,0.000867774757589,-1.0611553772604916,1.9780520137318205,2.0452902107929387,1137.3353298667923,1125.4287604149715,1135.2064185479996,1132.6120605723063,0.0813802051652184,192.4855181314267,155.28368985966395,-617.278227092859,151.59766294302415
42.8975,0.0687474353756469,0.6638328671039205,0.2581240677726481,0.0593672715142722,-0.0001790200800092,-0.0157829465563839,0.0099497407456682,0.0054914675861859,0.058031579175018,0.9982497839759696,-0.0208424554028372,-0.0044898094333075,9.741036924291425,0.0288401007072191,0.036536178427683,0.0006663494759171,-1.0610903889903218,1.9781514779465967,2.0452883579084062,1137.2632921184604,1125.969985632084,1135.8135065843387,1130.791932068301,-36.867728757339925,187.50511238944227,270.3341453800661,-677.4709360309566,151.59560886649868
42.9,-0.1535872823703239,0.5874920313591799,0.2847988795412924,0.0585540519408107,0.0001985479322551,-0.0163019022350608,0.0100330065147608,0.005523840487489,0.0580277135745486,0.9982489940621014,-0.0226246526897237,-0.001796775884458,9.742053736887764,0.0290471543638344,0.0363669019440247,0.0004770771410512,-1.0610259442049863,1.9782499991968057,2.04528755614841,1137.150991223006,1126.366285976918,1136.5580892748987,1129.2247058921544,-28.426980377602387,133.9156794267862,317.6657640534097,-583.5634301807856,151.59390062509704
42.9025,-0.3270371628123818,0.5645629846457237,0.3606885065937487,0.0565925438654487,0.0005359083696815,-0.0167262995847454,0.0101183283993771,0.0055576222169884,0.0580147582252501,0.9982486989636228,-0.0244337162643149,0.00093453109579,9.743549203001583,0.0292476557656509,0.0362060593206884,0.000299532683692,-1.0609625261216291,1.9783477675843968,2.045287777234257,1137.1211572165723,1126.6395640292183,1137.4018354046063,1127.8741149173957,34.88352775105375,87.64038128306375,360.841813088834,-486.6914487647375,151.59219897893652
42.905,-0.4640952269027278,0.5862419769537152,0.5007026368742536,0.0539169804211374,0.0013821180865532,-0.0163969876776417,0.0101979194006165,0.0055921317463777,0.057994936072564,0.9982488493114812,-0.0262560039198687,0.003517182269659,9.745483633990249,0.0294447919037704,0.0360541982796768,0.0001335752779379,-1.0609001388472443,1.9784443775397416,2.0452886478654166,1137.3254088617612,1126.8044878833336,1138.3622983403438,1126.7912486483297,125.85653035964773,38.858815385255056,325.41091747418744,-277.07896032991545,151.59016809862737
42.9075,-0.5270893238552701,0.6242809449477462,0.6387283543210244,0.0520241598755053,0.0027399007957365,-0.0152722229214948,0.0102650644834883,0.0056255392430919,0.0579703872443158,0.9982493976660483,-0.028059915594089,0.0057848754714879,9.747815991669665,0.0296418358886962,0.0359116653440914,-2.130279229406508e-05,-1.0608388406260385,1.9785392638342811,2.0452901353724915,1137.75043986837,1126.8338581061444,1139.028889991976,1126.4887201157471,219.1049832117885,5.827160618716082,228.80255455354137,18.802811466311525,151.58848749604604
42.91,-0.5631636641249477,0.6519565024005473,0.767681893388846,0.0506841349458141,0.004923018599901,-0.0135568220449687,0.0103181618061348,0.0056582864960903,0.0579435638861414,0.998250216146604,-0.0298575763183616,0.0076754109046624,9.750503454683853,0.0298419078339907,0.0357784430054543,-0.0001659254657467,-1.0607784973178929,1.9786325717299944,2.04529173319706,1138.420933777821,1126.8336236864272,1139.506311113112,1126.8852627056613,328.56725037151153,19.52341420855102,170.00152071228,325.02987949161906,151.58682221484952
42.9125,-0.6137165753070314,0.6434227250859325,0.8735195512620785,0.0495851156687696,0.008173298698175,-0.0112580376708425,0.0103599524362223,0.005689847840189,0.0579152359153693,0.9982512379206188,-0.0316421191273356,0.009213361968036,9.75350217950503,0.0300475767400639,0.0356540972057335,-0.0003014295461955,-1.0607187056398515,1.9787251570121365,2.045293245950445,1139.3932761202284,1126.9314751771872,1139.8788975955379,1128.1138695132063,360.1999070277636,70.68986322908194,113.90793075098728,551.705887286518,151.58484520741234
42.915,-0.686749211015817,0.5927306566943423,0.8926521658974234,0.0489220955026344,0.010720956160507,-0.0089087884537831,0.0103933893744478,0.0057182638784512,0.0578846376898984,0.9982524937962152,-0.0333821045411843,0.010430249883799,9.756768798564325,0.0302606524904425,0.0355376652935696,-0.0004289082512545,-1.0606594380257863,1.9788176301953968,2.0452951372703727,1140.221933312958,1127.1870730025723,1140.0758507668663,1129.6437921420911,304.65259369137004,153.2340727916233,72.63508283127443,676.390414248562,151.5832181536117
42.9175,-0.809993809784109,0.5050863210761961,0.8079462622898252,0.0483407396882865,0.0124485512673623,-0.0058583119202679,0.0104244393958252,0.0057439724884199,0.0578533474479966,0.9982538350943028,-0.0350911503049844,0.011424212603105,9.760259529648687,0.0304822853582255,0.0354274128349949,-0.0005493202296201,-1.0606007371441892,1.9789105813481025,2.0452976639216542,1140.916539088686,1127.6976455411457,1140.2420730096944,1131.4958215844508,235.83732314602213,250.14122515741224,73.81700633883018,760.8347623006212,151.58161557635378
42.92,-0.9755944817207266,0.4027912299721526,0.6204900014953262,0.0475652395631176,0.0134407531107246,-0.0022606077000694,0.0104592871734865,0.0057661186129466,0.0578247496496335,0.9982550101927312,-0.0367575481027285,0.0123023918180218,9.76393099576192,0.0307127632273505,0.0353209448102832,-0.0006633638289315,-1.0605422228399113,1.9790044825338409,2.0453009608190214,1141.4011199286888,1128.43777912836,1140.444935798561,1133.4479659535964,126.86405049478422,346.49561629211934,99.05773128521021,767.6350775977131,151.58003576673687
42.9225,-1.173961796930425,0.3045628694363482,0.3110333691100641,0.0459316828371186,0.0133846037921802,0.0012279394047099,0.0104942612048303,0.005784516430212,0.0577990856095839,0.9982560406389048,-0.0383925170681346,0.0129877001918759,9.767742896421186,0.0309510329503486,0.0352156801974679,-0.0007704839336686,-1.0604830867254924,1.9790990699229565,2.0453045418149984,1141.5508593411591,1129.4301236226047,1140.73736166612,1135.333996972436,-21.62654722982355,477.8668565844611,149.45665711012765,777.0572674213897,151.5784864611325
42.925,-1.4046637575185108,0.2087539408698111,-0.1569845378518928,0.0424431777227952,0.0124440484754365,0.0031628028092466,0.0105303122157772,0.005799065674142,0.0577771673802179,0.9982568657930522,-0.0400004272762462,0.0135003389245866,9.771653421555804,0.0311949429056929,0.0351087679279106,-0.0008698648635735,-1.060421745591257,1.9791945146290524,2.045307593040389,1141.2929871925396,1130.8271134112836,1141.192219084112,1137.333252290705,-168.13875397856958,527.7527417219545,175.83937028466707,672.2872150498205,151.5766665845407
42.9275,-1.5500220152893507,0.143768079381497,-0.5683047380517348,0.0383376459812227,0.0117899748310296,0.0019148746512069,0.010571877078538,0.0058094097118785,0.0577612359399548,0.9982573077558476,-0.0415718447577138,0.0139353688685839,9.775619291568216,0.0314414521102016,0.0349971764455769,-0.0009603483529826,-1.0603566755902403,1.9792915469910248,2.0453089214079454,1140.710165571266,1132.0688873312158,1141.6165585175438,1138.6954330476867,-304.74068957737904,486.0695502126292,162.61198689941247,474.4293161555328,151.57518576565923
42.93,-1.6018338134627315,0.06920238039618,-0.9228708751821264,0.0334457407960813,0.0121163245578822,-0.0016647493717595,0.0106179228665092,0.0058160811947134,0.057750008621712,0.9982574451461144,-0.0431153670493215,0.0142892064604458,9.779598226899612,0.0316866459857419,0.0348782006590393,-0.0010398442499728,-1.060288058929626,1.9793901893333552,2.045307945907264,1139.769283744654,1133.2574611623445,1142.0052790186082,1139.7053988714808,-485.2689015346052,480.331457047196,140.98729151154748,365.498085959794,151.5737457184103
42.9325,-1.5220524145596732,-0.0706665053011701,-1.2141193797958652,0.027150038293575,0.0135321137656114,-0.0070660512019188,0.0106664667921905,0.0058207932606917,0.0577434217210451,0.998257291502618,-0.0446572337575698,0.0145469828396448,9.783547672999497,0.0319265479358464,0.0347493710574527,-0.0011059084987944,-1.0602162307265734,1.9794901812497256,2.045304319703696,1138.2838210635953,1134.4705446164496,1142.321494975101,1140.522923477484,-590.5025160640597,391.820115654427,77.07018343190306,238.41267907579632,151.5720691715986
42.935,-1.3311331830631667,-0.2490272819511455,-1.3208738704523229,0.0219024936570018,0.0147958638459302,-0.011717840067289,0.0107171858161412,0.0058266612900093,0.0577428987461127,0.9982567500365344,-0.0462427315236467,0.0147326885923025,9.787424388770237,0.0321575968268412,0.0346086346394232,-0.0011562713668406,-1.0601414100939743,1.97959154689093,2.045297585854056,1136.8167711643323,1135.2165617406176,1142.390629935768,1140.8974622668604,-609.5382114107971,232.42576149365888,-22.555485206328115,89.75416772168457,151.57071824812746
42.9375,-1.0315152390825904,-0.4916168297993319,-1.2876273512350291,0.0174267111361639,0.0152546113409125,-0.015852573380662,0.0107677438909512,0.0058334886714681,0.0577457190393797,0.9982560054096292,-0.0478492897081803,0.0148310469960357,9.79118659226123,0.0323766527866147,0.0344549111681778,-0.0011892706704179,-1.060064675399308,1.9796932496248796,2.045288245094451,1135.2361300065395,1135.6326734239185,1142.2087175490692,1140.9716943160927,-681.4561435623832,109.89498502886808,-137.2845424415457,-35.725991272589205,151.56941928859504
42.94,-0.6066353935562466,-0.8258120278870685,-1.11512127554755,0.0144831806713916,0.0142339802703157,-0.0197644349743471,0.010813221378023,0.0058402496535017,0.0577462161535288,0.9982554466708544,-0.0494365033059621,0.0147774023913678,9.794795044177187,0.0325813803460216,0.034288142837403,-0.0012040661348361,-1.059987495030818,1.9797937341038343,2.04527803696838,1133.4094904465235,1135.7660366657615,1141.7042072235608,1140.7188323104976,-624.7607059573044,0.641619894713257,-223.45913989249703,-149.02189329760967,151.56792540403904
42.9425,-0.2574592731809106,-1.1028141468171433,-0.8919203213721923,0.0145273234863981,0.0117200741598769,-0.022193960931901,0.0108523400325364,0.0058457933768457,0.0577386210391581,0.998255430464118,-0.050954007221929,0.0145783989001521,9.798212367375807,0.0327705422169009,0.0341090607603552,-0.0012012837329149,-1.0599111293052275,1.9798920946387113,2.045268987067556,1132.1123264767516,1135.635881523392,1141.091421849606,1140.2265848496043,-436.78654382820633,-77.86297599287192,-266.2604860195645,-252.55692740020817,151.56673810606296
42.945,0.0210885292968277,-1.329838304431333,-0.6263416488995796,0.0162167428512665,0.0077123236058007,-0.0238881157304854,0.0108890468360771,0.0058498766822349,0.0577238283520278,0.998255864100588,-0.0523609781096745,0.0143423686350403,9.801403791895247,0.0329443445686204,0.0339185634480424,-0.001183027712051,-1.0598357149181588,1.9799886660910528,2.0452622700181036,1131.225557727381,1135.3767217857967,1140.3729047934623,1139.456047673496,-271.81524502554726,-110.67230139293376,-314.50815343684053,-398.69466174031794,151.56561456207191
42.9475,0.2294597796505074,-1.502277896170042,-0.3041749487527227,0.0185950336423554,0.0021497131794137,-0.0249253708358249,0.0109280668716751,0.0058506089697362,0.0577042093759579,0.9982565717919332,-0.0535833971730843,0.0141882991161016,9.804339870920106,0.0331038389699717,0.0337178674895632,-0.0011524576528477,-1.0597612236249991,1.9800841823772233,2.045258712390212,1130.753250251625,1135.082520016428,1139.5188810824231,1138.2331115409045,-73.89104630033982,-81.97931474906353,-294.37601810981,-494.94757656181855,151.564343805148
42.95,0.291198765951828,-1.5482498397829492,-0.063656066702124,0.0201182849001607,-0.0026458286524377,-0.0247974241180733,0.0109725695802932,0.005847249436516,0.057682489631303,0.9982573675454552,-0.0545732457878323,0.0142019945750033,9.80699788370394,0.033250612576291,0.0335084739744219,-0.0011130434912042,-1.0596871762217464,1.9801793938625676,2.0452581539009955,1130.8561024958794,1134.9668252120512,1138.9010247029123,1136.9813097906856,125.81690829027067,1.9025836138998145,-214.18572656814789,-544.9032807824037,151.5633515937745
42.9525,0.2498656241295147,-1.4958307745280104,0.1180452387284269,0.02086736800058,-0.0073450918211293,-0.0238876549839308,0.0110174781828185,0.0058405870025408,0.05766018941655,0.998258211996224,-0.0553252674451687,0.0143042993919893,9.80936434856484,0.0333865019740476,0.0332922721363703,-0.0010676299532899,-1.0596128756394472,1.980274025182664,2.0452594246085853,1131.3823347930768,1135.0920329344974,1138.447952449582,1135.508595136991,256.60659435034773,98.53720236292112,-151.39783276517974,-620.889425457627,151.56243056425143
42.955,0.1396487073278774,-1.3781915087083048,0.2373958270566184,0.0211110694152625,-0.0115728265929779,-0.0226884886179422,0.011060135303631,0.0058307696374357,0.0576382987123964,0.9982590730111958,-0.0558237283673958,0.0144564796432117,9.811432191276959,0.0335135545612925,0.0330714704901622,-0.001018981539135,-1.0595377092350675,1.9803674528404505,2.0452615847748055,1132.13913546763,1135.4595112238655,1138.144035539087,1133.8768626634003,324.4309109179244,205.05449696732708,-91.00497811614224,-681.6775333233786,151.56156945908023
42.9575,-0.0345767639760994,-1.2155885598645226,0.277210920649244,0.0209276044402206,-0.014597712812054,-0.0214544004396789,0.0110996717353935,0.0058198020050837,0.0576179158434687,0.9982598832046023,-0.056093177218078,0.014650136964078,9.81320055118061,0.033634082178326,0.0328485010058936,-0.0009693782307104,-1.059461532271636,1.9804594160260247,2.0452635159746335,1133.0044893476672,1136.1173054193343,1137.9929275590011,1132.1002074703724,366.17670507293406,343.45164465222007,-44.950842038474285,-798.9737499155585,151.56078107393785
42.96,-0.2985465577457249,-1.018007340590978,0.2406949330289627,0.0202888987769189,-0.0167952862137047,-0.0202123952297688,0.0111331939806738,0.0058074217893625,0.0575988601419549,0.9982606860924288,-0.0561229918621556,0.0148276544602726,9.814675798268956,0.0337506217390965,0.032625993224882,-0.0009205698719602,-1.0593847442637123,1.980549867355461,2.0452645098531455,1133.9700189929956,1137.1767694471275,1137.9192813288948,1129.8819939138205,320.86238318676885,417.430814626748,-21.408226805416607,-813.7327776105974,151.5599188845584
42.9625,-0.5535615385589022,-0.8811648390428669,0.1526801078035234,0.0193664686681151,-0.0179696548977811,-0.019453217751728,0.01115742147684,0.0057913812281848,0.0575778841296384,0.9982617184499648,-0.0558717673027207,0.0149147442323581,9.81587031597875,0.0338658616661336,0.0324067315238806,-0.0008739656135511,-1.059308274007672,1.980638286712488,2.045264937331224,1134.6088012635996,1138.2044594924664,1137.885886424974,1128.0315435823231,208.29256984450953,419.4492404463418,-21.760113350490208,-721.6984404225914,151.55926957580647
42.965,-0.8329842874179743,-0.7925431008746988,0.0255904398831643,0.0179528469279785,-0.0191536021927499,-0.0190293464738851,0.0111711451171991,0.0057718233043568,0.0575527279389076,0.9982631235135686,-0.055350259427242,0.0148739374505604,9.81680051835482,0.0339828567913471,0.0321931884926549,-0.000830636816719,-1.059232898998833,1.980724633207252,2.045265161468919,1135.0114818422187,1139.2740156493603,1137.8104807621423,1126.2735017117056,123.31221436818907,457.6260439245676,-54.51682916938747,-726.4878881976906,151.5586905590208
42.9675,-1.179249770324558,-0.7445975659918103,-0.1429047730734143,0.0156900025905239,-0.0210370071947975,-0.019045839917544,0.0111729105083147,0.0057474630631656,0.0575233446074802,0.9982649283381588,-0.0545489649357192,0.0146556429926482,9.817486904348877,0.0341049181330882,0.0319872339802012,-0.0007914756944664,-1.0591588497203135,1.980809343046036,2.045265163315133,1135.2253623354409,1140.4925897120904,1137.613302279127,1124.3991041413328,43.421685769902446,422.7696920250062,-93.2990744059619,-627.0053584111585,151.5580744020478
42.97,-1.4589617987598364,-0.7479058123617811,-0.272941966927656,0.013235475726001,-0.0229526325416637,-0.0196994267273538,0.011160341111708,0.0057176268212817,0.0574886390231281,0.9982672270193284,-0.0534785879289015,0.0141883835101186,9.81795305427288,0.0342351402741551,0.0317901797978059,-0.0007570716915719,-1.05908653034984,1.9808926955678188,2.0452652204870247,1135.228590271068,1141.3878641094834,1137.3439853901127,1123.1384749196527,-14.775061964057103,321.1323744236046,-126.06804070381176,-416.6629197459912,151.5576240427802
42.9725,-1.6984810916193056,-0.7888230999882936,-0.3644571888703777,0.0095137003702723,-0.0247442311812619,-0.0211983130674767,0.0111373025684519,0.0056824187730428,0.0574487505019417,0.9982699678549168,-0.0521640891975945,0.0135206626524161,9.818222422581615,0.0343762429772014,0.0316024924345503,-0.0007282059984778,-1.0590158078630862,1.9809756038090447,2.045265318552133,1135.1514870256203,1142.0982515842093,1136.9829620756077,1122.3157895426018,-24.78910081139116,259.577360262987,-166.92435933246642,-237.22662020287916,151.5572356478646
42.975,-1.896190990430556,-0.8738741067554878,-0.407147340052637,0.0033214908850479,-0.0265614203482158,-0.0235128169214392,0.0111103611295234,0.0056387571339654,0.0574044629523032,0.9982730513769132,-0.050569707950176,0.0127484958756814,9.818318677687497,0.0345302177009673,0.0314238125337652,-0.0007058715317637,-1.058945888387013,1.9810589887472485,2.045265561376042,1135.1046447670108,1142.685750910799,1136.50936359345,1121.9523418186377,7.955635320293328,165.58955021052097,-165.61000157863927,-18.626174370427748,151.55683632896515
42.9775,-1.9603819061662824,-0.9656983691803068,-0.3825076460635397,-0.002602739349559,-0.0281405620369424,-0.0252903884953334,0.0110860562713563,0.0055833096933667,0.0573568231184138,0.9982763657801484,-0.0486580138023238,0.0119666763970532,9.818265231739224,0.0346980715918506,0.031253080534121,-0.0006908968835397,-1.0588758716381896,1.981143441165876,2.045266240951976,1135.191265202222,1142.9261993352611,1136.1549120677153,1122.2226586707495,72.67020642503587,39.14787396795689,-111.69125523641667,230.62446691880749,151.55655509059443
42.98,-1.907959377234832,-1.0596801241809608,-0.3055820751564231,-0.0084760402479396,-0.0302420196431725,-0.0264179035120868,0.0110682151090912,0.0055175676686675,0.0573089168169477,0.9982796823225374,-0.0464904921343721,0.0112230700767144,9.818084674533184,0.0348798368464464,0.0310886067630408,-0.0006834015225485,-1.058804943550668,1.9812290912465251,2.0452674096873182,1135.4679957991364,1142.881490280639,1135.9509073172678,1123.1054641532323,142.09492076690373,-68.1819425112841,-39.420652314336465,449.50333864539704,151.55632179963712
42.9825,-1.7659293186975187,-1.1349267603689643,-0.200441440515553,-0.0137641714636981,-0.0329494715016894,-0.0268847597051471,0.0110523232171378,0.0054428672232899,0.0572627730056741,0.9982829223319856,-0.0441346658963758,0.0104039174491267,9.817799859194585,0.0350743983626035,0.0309285125195759,-0.0006827013926715,-1.0587323448525803,1.9813154559408352,2.04526865617755,1135.9017398060569,1142.5852896227043,1135.9578088061435,1124.470175363978,200.4005403502564,-180.92022312187592,72.11983972513019,644.5395502802462,151.55612366379663
42.985,-1.5405730264026969,-1.1612687045218844,-0.080834396163239,-0.0177744022398254,-0.0364826205015935,-0.0267982442173956,0.0110357361346509,0.0053586046849681,0.0572192153449898,0.9982860666656632,-0.0416158911790222,0.0094330152088556,9.817430096530083,0.0352796290240615,0.0307709050502855,-0.0006880662251891,-1.0586575580196076,1.981401955164708,2.045270257994563,1136.4699985008867,1141.9768891650303,1136.3115065158931,1126.3281619046306,257.9839991248308,-338.244199065193,251.1377861201333,893.7465299749849,151.5559620424255
42.9875,-1.2141587784445864,-1.112006223909989,0.0599621409980256,-0.0210592646597414,-0.0412888983849749,-0.0265687495563246,0.0110168757561216,0.0052680045615215,0.0571800758627498,0.9982890071980935,-0.0390297600361471,0.0082630705345529,9.816990291654498,0.0354927546535709,0.0306138272086038,-0.000698235130255,-1.058580363956298,1.9814882933492108,2.045272340441905,1137.1916598016817,1140.8940686273777,1137.2134977367448,1128.938908013855,252.73158546647923,-450.47038419351935,411.5548926326196,984.2356838681064,151.5558031192281
42.99,-0.9215997517243378,-1.000538459715273,0.1652218393682859,-0.0228285365597648,-0.0449996436823263,-0.0262859216851458,0.0109948902873263,0.0051749525183414,0.0571491880886726,0.9982915112966266,-0.0364792833576721,0.0068658787919903,9.816490684303844,0.0357106819287466,0.0304552144168422,-0.0007115387852788,-1.05850066907202,1.9815746809108292,2.0452743082469795,1137.7336564282195,1139.7245372440616,1138.3692809790573,1131.2493403239737,186.29407837346324,-510.587718221505,532.7848959773589,902.6433163198842,151.55569513210895
42.9925,-0.6273675613549113,-0.8330853448190185,0.2483364101725506,-0.0241341607759164,-0.0476806415648251,-0.0256185948034622,0.0109695468470396,0.0050827617142758,0.0571282587288302,0.998293466290624,-0.0340505364449449,0.0052293307291974,9.815936544160673,0.0359300353401888,0.030293203169331,-0.0007259538529404,-1.0584186543039402,1.981661246504114,2.04527542832084,1138.123130193548,1138.3411300362725,1139.8774222166292,1133.4521245954504,123.83755549278598,-636.0681400459599,711.5552738630063,887.5761554755513,151.5556074940024
42.995,-0.2813824964080187,-0.6049605068346317,0.3134576143986864,-0.025459650728866,-0.0496129670745158,-0.0244420883959805,0.0109420135245805,0.0049953495474673,0.0571184856215125,0.9982947712441445,-0.0318346334126848,0.0033740536307713,9.815327760784175,0.0361475497854386,0.030126053094059,-0.0007391436937275,-1.05833428664406,1.9817481367719416,2.0452747291181814,1138.3528442056831,1136.5441965438347,1141.927057348369,1135.6872211013474,41.872061930077,-663.0427776443657,759.0575939202818,717.7997673398261,151.5555208075812
42.9975,-0.0021733962195109,-0.4224442341852621,0.3356523910992275,-0.0261540410067238,-0.0503490468915205,-0.0233903322449061,0.0109138905412776,0.0049126739521005,0.0571204938029728,0.9982953737325005,-0.0298397499844899,0.0013291772737986,9.814659473476066,0.036360350503503,0.0299522088041895,-0.000748910314842,-1.0582474118740215,1.9818355419766704,2.045271477521335,1138.3324905031986,1135.0259161480487,1143.6727101862325,1137.0411234321512,-49.04167860511044,-590.5394630575919,664.8545106178753,414.5241865126689,151.5554608078734
43.0,0.2607926743225588,-0.2786501857656294,0.3256538263645556,-0.026007427897501,-0.0504912504404537,-0.0223310768171798,0.0108864090589159,0.0048357058893298,0.0571319669541887,0.9982953892652218,-0.0280904361299539,-0.0008779226769017,9.81392262034459,0.0365661097037071,0.0297705575856546,-0.0007531316224336,-1.058158623270025,1.9819233196471016,2.0452656344876825,1138.1076358126575,1133.5914992285452,1145.25132990146,1137.7598420339118,-136.25499372654872,-593.8018648168907,614.3461391211207,175.6338361453578,151.55541035932865
43.0025,0.5443555764552842,-0.1742130980348762,0.2834845710572173,-0.0247655197912538,-0.0503001034715095,-0.0211990908480514,0.0108648447980782,0.0047668765940487,0.0571509701908333,0.998294861031684,-0.0266323458637384,-0.0031353027266482,9.813103673634345,0.0367635120542555,0.0295802730571469,-0.0007503853131625,-1.0580684630604296,1.9820116520565427,2.0452577615038696,1137.6512155345663,1132.0569068239672,1146.744440881835,1137.9192926128771,-187.65113475014408,-525.04757144075,460.44901857211784,-34.14305646177199,151.5553579752661
43.005,0.7434846949395365,-0.1514149775755509,0.2317608172048381,-0.0229191283497625,-0.0500257955546864,-0.0205154189205519,0.0108539889950243,0.0047076455419686,0.0571753559766479,0.9982938559623028,-0.0254910300964595,-0.0053384827357844,9.812187214624164,0.0369523963481119,0.0293809717041767,-0.0007401695339289,-1.0579778943961529,1.982100366491504,2.045249064288821,1137.1693801389063,1130.96626137134,1147.553574994322,1137.5891267516029,-197.80771190393236,-397.2073005480311,227.79921735470623,-182.20086632554512,151.5553194284469
43.0075,0.8948366617594651,-0.1929516390208702,0.1753191233128814,-0.0204622700967575,-0.0498135658052308,-0.0201263588369515,0.0108557385207363,0.0046560683052329,0.0571999789702448,0.998292661218938,-0.0246284984875903,-0.0074408028327873,9.811157993583905,0.0371336466415139,0.0291730336404787,-0.0007231368628027,-1.057888458982495,1.982188291893928,2.0452415339191417,1136.6621769750463,1130.070870321226,1147.8834369686094,1137.0082882812492,-194.52088626512207,-329.54716223396605,64.65467399308605,-234.24357387083023,151.55528444432923
43.01,1.004687431515481,-0.2780684777079397,0.1242338533548768,-0.0177651954564974,-0.0497822986275367,-0.0199384923603483,0.0108694997637379,0.0046089913626741,0.0572180703900237,0.9982916893420548,-0.0239869337058437,-0.0094437149986785,9.810002165728042,0.0373091416690947,0.0289575437949156,-0.0007009468680779,-1.0578014325984195,1.9822741277376543,2.045236769598489,1136.1967757075815,1129.3185255601716,1147.876848364287,1136.4179088822495,-162.9528545282104,-271.7182792690866,-50.80464251525102,-194.46048637709336,151.55525126512245
43.0125,1.0691514512149327,-0.3948500500356071,0.088816121037667,-0.0150572360557561,-0.0501445661923926,-0.0199216709510115,0.0108872596341453,0.0045639039806973,0.0572236337993646,0.9982913820688524,-0.0235313351147743,-0.0114918864135783,9.808709826831384,0.0374815393367575,0.0287360203951027,-0.0006755611007591,-1.0577172518557902,1.9823570185716712,2.0452346392483807,1135.8474127024049,1128.71227892488,1147.629413756033,1136.0359858493632,-114.70095907292078,-237.35899536788247,-109.57649550381424,-80.66915751115141,151.55521904738268
43.015,1.1062802093102566,-0.5348883669492533,0.0722793560421564,-0.0119602227331458,-0.0512802065082803,-0.0200128055340427,0.0109031456120151,0.0045180868285443,0.0572157559824809,0.9982918656698476,-0.0232224596784196,-0.013687461763524,9.807273665147484,0.0376540249278046,0.0285098346402428,-0.0006495183654442,-1.0576353830703407,1.9824371977440745,2.045234167399247,1135.6232709122166,1128.1317305833315,1147.3289658867675,1136.0145630946938,-44.35076484591659,-189.16614519206556,-73.39641878445345,74.22064572253859,151.55518015160018
43.0175,1.1140904344326499,-0.6204414904021682,0.0823828435389397,-0.0096213305215616,-0.0529586049785165,-0.0201255525926082,0.010912196185401,0.0044690276860559,0.0571936219692393,0.998293250392068,-0.023026514613538,-0.016113388225615,9.805690095802792,0.0378295096433538,0.0282802956238585,-0.0006255055595546,-1.0575553540941782,1.9825148508604644,2.0452350199922584,1135.6256588781755,1127.7664481989204,1147.262431662111,1136.4070890779756,42.16352899081929,-119.8464621948302,37.26216897751241,226.08225055384796,151.55514672208955
43.02,1.1075384177328071,-0.6379539068304539,0.1152945548958355,-0.0075720236973419,-0.0553967717104759,-0.0202084299125846,0.0109170210266577,0.0044152325461767,0.0571571172137947,0.998295518798992,-0.0229229652909439,-0.0187019981911032,9.803958119390511,0.0380102351761023,0.0280483273879049,-0.0006064610153179,-1.0574760767484335,1.9825908367486984,2.045237019878205,1135.8340885571708,1127.532498272357,1147.5152767316551,1137.1449743474636,134.52292241752215,-68.37006827605505,179.42151454180845,355.3380747893699,151.55511144929787
43.0225,1.0847095921232839,-0.5520752523551637,0.1723742573521249,-0.0050910249761765,-0.0586832806508105,-0.0201743649358617,0.0109223523306434,0.0043561891713705,0.0571072173437287,0.9982985651347406,-0.0229089091666838,-0.0213414922305224,9.802080862029818,0.0381974960446574,0.0278142538832145,-0.0005950444912244,-1.0573961786456179,1.9826664434726755,2.0452398319066813,1136.2982734902635,1127.42459785754,1148.1595392348206,1138.183779451923,196.85920594142485,-7.369208893858167,266.3046017480304,359.4834587981127,151.55506630628193
43.025,1.0463093862827344,-0.3866387704230865,0.2237414243075332,-0.00271909444579,-0.0610026827043088,-0.0199407098336672,0.0109312903125195,0.0042926030937892,0.0570447360972839,0.9983023067170986,-0.023006561148811,-0.0239486215859099,9.800066240349114,0.0383914564988327,0.0275778367152715,-0.000593240041796,-1.0573152899827167,1.982742454730674,2.045243531482988,1136.818384586877,1127.495652227888,1148.8467997403943,1138.9423916414523,218.8181705439792,64.22778169259243,258.71999992591964,227.7090587561105,151.555025901907
43.0275,0.9735034358158152,-0.1389456141925182,0.2615883124988085,-3.608805782795064e-05,-0.0624965640978926,-0.0193621249533405,0.010946548692217,0.0042274575346455,0.0569743283997044,0.9983064347389308,-0.0232810006117754,-0.026442869507956,9.797926114651869,0.0385913989650395,0.0273380332672365,-0.0006022180485958,-1.057233639515538,1.98281890934954,2.045247873851049,1137.392364342984,1127.7457367660031,1149.4531392344509,1139.3223247457045,239.40517047932676,149.93959423487982,192.93212234301012,38.077750775236,151.55498193592643
43.03,0.8309991715788952,0.2140033678264983,0.2687299391818278,0.003410978992142,-0.0631877752020938,-0.0181393492083288,0.0109636471543568,0.0041616161464494,0.0569018787729137,0.9983106565648802,-0.0237602221507895,-0.0288838490243603,9.795677108756074,0.0387956357469352,0.0270933316461437,-0.0006221603292205,-1.0571507433116647,1.9828955997657287,2.045251709445508,1138.0154104392743,1128.2453501990628,1149.8114603521099,1139.1327803953288,196.80737914327148,212.14689945501243,40.513676465016495,-187.63198939276447,151.55492399677058
43.0325,0.6620986113812555,0.5148329379889937,0.2289135573559989,0.00633159100424,-0.062307652289838,-0.0166711692757528,0.0109782808870376,0.0040934558418409,0.0568329475373886,0.9983147078205707,-0.0244183297004532,-0.0313269418943997,9.793338082427088,0.0390015211012876,0.0268419819994866,-0.000652734166551,-1.0570656581749107,1.982972248649855,2.045254091563004,1138.3764012386991,1128.8064712632772,1149.6557076167755,1138.3841647987415,88.81599839692174,246.50863589455304,-171.1305063692214,-410.7999595506216,151.55487043086163
43.035,0.4515046930528331,0.7702039016200894,0.1355568830422245,0.0087625420446631,-0.0597025728558053,-0.0149805811848164,0.0109889925597633,0.0040248171263391,0.0567732002118896,0.9983182734630548,-0.0252878327389408,-0.033764268035008,9.790928710791048,0.0392056722108849,0.0265820411561471,-0.0006929395496746,-1.0569775260584393,1.983048578632794,2.0452545184446342,1138.4594904312592,1129.4778933785362,1148.955807820263,1137.0787805975747,-24.03332214542977,280.00242685615603,-364.16173019524206,-590.7508010410472,151.55481000103742
43.0375,0.228151685720605,0.9548733937417576,0.0063480301050697,0.010138383518825,-0.0561987039788277,-0.0136906514540467,0.0109984228625334,0.0039558959420265,0.056725034488765,0.998321187663404,-0.0263575912916943,-0.0361058795312486,9.788468710356897,0.039404101370359,0.0263116630097398,-0.0007417911416592,-1.0568862031616864,1.9831250385850343,2.0452533768441774,1138.256234627972,1130.2064833975587,1147.8348989657986,1135.4304107935347,-151.57373415745639,297.33301944329224,-523.5624863000553,-700.7003522347084,151.55474268251632
43.04,0.0279561174472008,1.0331837860208124,-0.1382484417557051,0.0094680049030462,-0.0525162551069207,-0.0139498742904589,0.0110107156806578,0.0038867689355644,0.0566878383912923,0.9983234422581942,-0.0276052950719557,-0.0382292832051572,9.78597792643688,0.0395926226818338,0.0260291283646151,-0.0007982869155861,-1.0567923421714038,1.983202022013224,2.0452515870790986,1137.7016217604723,1130.9645584757511,1146.3379953887654,1133.5752788364043,-309.2945177628517,330.87710394885454,-693.1557427718509,-805.6744303803923,151.55466541902283
43.0425,-0.1415824696662602,1.0036814909583378,-0.2852826428631027,0.0068957182988211,-0.0484571163726974,-0.0161803862252256,0.0110325486123181,0.0038197903765241,0.0566626031490139,0.9983249018048692,-0.029043559179776,-0.0399576422758234,9.783475795038653,0.0397674626642201,0.025732588536367,-0.0008614241968582,-1.0566966856701843,1.9832800745594152,2.0452497096294846,1136.709762039157,1131.8608689173038,1144.3691202519376,1131.4020386416307,-396.3650260066306,319.1879118585534,-705.9030984694372,-750.4318316372771,151.5545588524424
43.045,-0.2129474862747292,0.891524433610089,-0.3637790970669501,0.0049611246521329,-0.0455293164830479,-0.0184881219113025,0.0110703364146267,0.0037547461637856,0.0566504266722029,0.998325434904568,-0.0306292021745162,-0.0411207542856378,9.780981884088344,0.0399254570849055,0.0254203808575027,-0.0009304564864805,-1.0565993824616569,1.9833597981517512,2.0452476902419408,1135.7197966304384,1132.5604980350447,1142.8084798964164,1129.823119678216,-398.2134028704406,260.1046047953879,-557.7353610814114,-554.0807775048544,151.55445676064085
43.0475,-0.2283976454765643,0.7198864644677953,-0.3947550278349236,0.0040223730297191,-0.0433809560846107,-0.0199741332909873,0.011120408654086,0.0036907096081258,0.0566487747443087,0.9983252248202186,-0.0323116756677319,-0.0417459693702871,9.778517741089965,0.0400640895725286,0.0250916389637929,-0.0010042382493948,-1.0565006966192114,1.9834407837738943,2.0452446227612304,1134.7186950248067,1133.1613919412796,1141.580443446533,1128.6316347541087,-406.6149216355564,227.9331218821624,-424.0541052384392,-426.8561945818964,151.55433920531672
43.05,-0.2218718264728639,0.4908766745830603,-0.3969630729118152,0.0036540628203322,-0.041982061131468,-0.0207612001916884,0.0111780949476105,0.0036256009827336,0.0566539262354727,0.9983245387976926,-0.0340162005213271,-0.0418828788002821,9.776105336300928,0.0401818252069167,0.0247463880788499,-0.0010818574566409,-1.056400574706811,1.9835222223923856,2.045239988432036,1133.6867220222596,1133.7001636444563,1140.6882093702231,1127.6888387053054,-327.8698550035784,155.8403327929339,-220.69877438518765,-275.3542119009536,151.55417908367156
43.0525,-0.225875929468296,0.3138071350069412,-0.386201344485417,0.0041668483323118,-0.0417998483223507,-0.0209856372503897,0.0112375543500559,0.0035590575787177,0.0566616479496674,0.9983236822985284,-0.0357020524302825,-0.0416053478858392,9.773767398818068,0.0402783300848986,0.0243857194014463,-0.0011625719540466,-1.0562994742771412,1.9836030845185968,2.0452342003279047,1133.079345749788,1133.9405936052447,1140.4769495746064,1127.2548636946035,-172.9117555296151,38.775486537214206,11.983245081284604,-125.4160564433054,151.55402942691958
43.055,-0.2651067133206425,0.181226986106963,-0.3735495969326478,0.0052038831183211,-0.0424850292715295,-0.0211901206807357,0.0112926983181474,0.0034932223354083,0.0566662074569658,0.9983230413225764,-0.0373789920555238,-0.0409945454070411,9.771527657853612,0.0403545519181836,0.0240119670789131,-0.0012459697412149,-1.0561988269994795,1.9836824000814015,2.0452279993165257,1132.8221632446123,1133.8940410771422,1140.7481255956295,1127.0617584230895,-26.439585853746795,-101.00581089241221,188.5592975752284,-58.748996210177886,151.55386313643066
43.0575,-0.3541884257351141,0.0870868830192028,-0.3543320517021367,0.00622354379957,-0.0430989462778663,-0.0217401530922598,0.0113380621101623,0.0034288119610398,0.0566612783646618,0.9983230355925992,-0.0390316209636338,-0.0401282436102958,9.769411290466449,0.0404127342890909,0.0236285982932249,-0.0013324035680417,-1.0561001814650413,1.9837591088159687,2.04522245172706,1132.9471478205191,1133.435564550783,1141.4197460624819,1126.9611187135529,112.20996594673748,-241.61010904519037,264.6247293212137,-28.970412505926745,151.55364536979573
43.06,-0.4416611899303893,0.0579598394244542,-0.3257482072256502,0.0060204744793662,-0.0427207241115317,-0.0225497178506897,0.0113715772285418,0.0033652841037202,0.0566435478108441,0.9983238803495896,-0.0406214873627511,-0.0390283215871334,9.767444769183983,0.0404563370857155,0.0232397579566784,-0.0014230632094489,-1.056004413075604,1.983832479951856,2.045218289252733,1133.3832130743463,1132.6859905319156,1142.0712492422363,1126.9169063605596,226.324737483467,-376.30391162887304,234.58964512066635,-13.162269176057267,151.5534499676645
43.0625,-0.4974265837852736,0.0690519460506494,-0.2696514369476356,0.004342029358985,-0.0419407228242604,-0.023607545863851,0.0113943422946828,0.0033013269335281,0.0566137819913474,0.9983255244853078,-0.0420982403643531,-0.0376660252708543,9.765656034968638,0.0404896426105236,0.0228499217605822,-0.0015197280999592,-1.0559112495375085,1.9839023023558464,2.0452156215041923,1134.0787715079373,1131.5540449926375,1142.5926942880856,1126.8953073676723,303.5847692264302,-509.3860438006772,160.92105809326395,1.2295881128932065,151.55324220723503
43.065,-0.4908503243694206,0.1102529596381019,-0.1818126769162765,0.0019481419966007,-0.041654001388933,-0.02463286567257,0.0114048618849749,0.0032370726837485,0.0565718304495047,0.9983279931937272,-0.0434497457455329,-0.0360726377057575,9.764075374780065,0.0405170271092129,0.0224639951988625,-0.0016240384396031,-1.0558205382014456,1.9839682391627356,2.0452149484867688,1134.901136920477,1130.1390603129144,1142.8758545327019,1126.9230543011242,336.190866412663,-616.9229120882874,37.50667575498383,37.1020628977741,151.55302615599308
43.0675,-0.3786847570152189,0.1889252414049337,-0.0511117285523693,-0.0007002243824333,-0.0420560255489266,-0.0254102137694988,0.0114054207721279,0.0031738491092554,0.0565198380790021,0.9983311346688842,-0.0446903488173346,-0.0342157989093212,9.762733705173837,0.0405426359552926,0.0220866651640893,-0.0017375127509932,-1.0557317965445314,1.9840305280510648,2.0452163116415343,1135.7597258400015,1128.4694304321947,1142.7802276668608,1127.0808176821615,358.2068247979337,-760.5234476730604,-135.0792368792318,118.41725285283555,151.5528025715167
43.07,-0.1108892445884188,0.3205418931642343,0.1515784809057299,-0.0036376822692663,-0.0425715421546965,-0.0258335866701023,0.0113997701984628,0.0031112176779719,0.0564630062019767,0.9983346125361467,-0.0458051728853746,-0.032047641186265,9.761662372030754,0.0405699917207789,0.0217219663153131,-0.0018613041365564,-1.055643793941289,1.9840898697822664,2.0452190431701,1136.6921710444676,1126.336443074547,1142.2004583483051,1127.5151405653887,308.96695730299047,-773.9805123186434,-281.58443764385225,209.1838597987673,151.5525285113414
43.0725,0.2070039739487285,0.4442386167912624,0.3491393047571672,-0.0054007287120834,-0.0424798501471587,-0.0255638701668295,0.0113877157078344,0.0030482450588029,0.0564048915625045,0.9983382300753254,-0.0467797616215896,-0.0296080543957659,9.760893149094473,0.0406015073390971,0.0213733572712857,-0.0019955405123665,-1.0555558498827815,1.9841469997163048,2.0452220875056564,1137.304560626515,1124.599527870605,1141.3723054786428,1128.1267369811544,197.4643417969118,-648.8316771061226,-381.02309100680554,297.30545700247853,151.5522972884032
43.075,0.57316873780113,0.546976135454938,0.5586448757828667,-0.0054706887382123,-0.0411082424291596,-0.0245281365528279,0.011370611895656,0.0029849310554007,0.0563488837370054,0.9983417808754528,-0.0476204971280999,-0.0269147474930483,9.760455808994925,0.0406384315818545,0.0210433406225332,-0.0021393075322313,-1.0554674973047036,1.9842030241638808,2.0452237239814726,1137.6794927534527,1123.092284689015,1140.2953428932703,1129.0016678504019,104.75119073520644,-570.6825579988425,-497.65233022951185,433.4111170124344,151.55206522826802
43.0775,0.9805180096566845,0.598545132899686,0.7992814397972798,-0.0025970151679858,-0.03798070211193,-0.0227052948949,0.0113509327425296,0.0029215229096307,0.0562997027602655,0.998344971044972,-0.0483401215360145,-0.0239707758162931,9.76037693962141,0.0406809011605581,0.0207332218663397,-0.0022907097696592,-1.0553778500127888,1.984259290782896,2.045222464860684,1137.8283165801913,1121.7461150806091,1138.884043827494,1130.2937925662177,7.840997626551909,-394.5141419963825,-511.74986401321047,498.6290384850223,151.55178794971272
43.08,1.2258086277516993,0.5571292044845411,0.9717298419903628,0.0019473328304163,-0.0349534950335492,-0.020849853704817,0.0113312942760601,0.0028573564909241,0.0562604649677032,0.9983475988948808,-0.0489345974977372,-0.0207830545887389,9.760679032787031,0.0407279281814935,0.0204433840842778,-0.0024471827539778,-1.0552861503197544,1.9843164525048167,2.045217649875144,1137.7186977415854,1121.1197139790347,1137.7365935732066,1131.4948130428247,-79.99572763028937,-133.59192367863656,-426.01759085615447,485.1640062458292,151.5515592672608
43.0825,1.3138367981549854,0.4228934351873116,1.0894636150051575,0.0075301916876865,-0.0325428248871752,-0.018491425942651,0.0113149466616307,0.0027955132555406,0.0562331481637738,0.9983495080454728,-0.049471911547648,-0.0173457597223519,9.76137908967911,0.0407776959084714,0.0201734055981893,-0.0026055724218459,-1.055191796914266,1.9843747106233065,2.045209378058008,1137.4283379420397,1121.0781554622158,1136.753955873212,1132.719612597448,-147.71564323092835,114.23347472949511,-371.0512003799898,522.8066695295237,151.55133449331743
43.085,1.2155975914965595,0.1787247055214925,1.1343252345706392,0.0139276257173964,-0.0309152364844796,-0.0147758599388108,0.0113071859134605,0.0027375321892628,0.0562175269278642,0.9983506467796924,-0.0499863378224951,-0.0136167845473744,9.7624879324582,0.0408278592539454,0.0199223427611678,-0.0027630779158251,-1.0550944518869927,1.9844340674988243,2.0451989963855923,1136.9801195254304,1121.6908813526827,1135.8813375713055,1134.1088463904737,-163.3671188552065,320.02950315852104,-258.30133044597306,484.43156909337125,151.5510707443648
43.0875,0.981677717206016,-0.0631217985098208,1.069373571563559,0.0181507479554417,-0.0307239840877135,-0.010924084263185,0.0113104609041166,0.0026845030461166,0.0562091872784913,0.9983512328154928,-0.050504444022467,-0.0096102587518714,9.764010927294205,0.0408758933714544,0.0196891327823194,-0.0029173000460904,-1.0549951395128578,1.9844940088204983,2.0451885116399118,1136.6115023477644,1122.6783029780067,1135.4624492209834,1135.1417704429127,-128.03629060770433,463.69292885673457,-97.93530544656723,379.4338034279795,151.550857041024
43.09,0.6433270223648277,-0.3026950540173405,0.8856867464915977,0.0204870603422233,-0.0317195836289304,-0.0069052444708642,0.0113270672286966,0.0026360142411858,0.0562032162061079,0.9983515187871912,-0.051021200987066,-0.0053436877630374,9.765947358800284,0.040919596708302,0.0194724606395498,-0.003066555303726,-1.0548952518738834,1.9845541653191947,2.0451796450399566,1136.3399380723915,1124.0093459969676,1135.3916610440726,1136.0060154076143,-84.13130432927817,561.9043586435818,29.29534644148,316.34878347615273,151.550651161793
43.0925,0.2715782355085304,-0.5117481651315859,0.6120440623621693,0.0209747659814076,-0.0335897359737543,-0.0035809549389698,0.0113576882768172,0.002589439982942,0.0561962334300865,0.9983516945960972,-0.0514875068256159,-0.0008659405295167,9.768290957603682,0.0409573549845308,0.0192707454336092,-0.003209719107061,-1.054795318224565,1.984614790910476,2.0451724145246457,1136.1908458261175,1125.4878247712263,1135.6089259531907,1136.7235143602943,-30.4870517414024,594.5016475027792,151.95604555078896,254.99415658587623,151.55045304604272
43.095,-0.0779042696662035,-0.6604731333015088,0.264237586997631,0.0195812693096825,-0.0361540132955487,-0.0017443592352887,0.0113965204406946,0.0025427664594936,0.0561870350137413,0.9983518971232732,-0.0518707473201364,0.0036516616872482,9.771031290622512,0.0409882303903498,0.0190822659215777,-0.0033455238414057,-1.0546954681624108,1.9846759294866927,2.0451656719459,1136.1875028136847,1126.9818542344788,1136.151441271826,1137.2809861905428,16.69204942976704,627.0745504530144,302.5670067781264,217.3357044161346,151.55026601865762
43.0975,-0.413762276406281,-0.7591855224395637,-0.1728663597646229,0.0170515189332595,-0.0391456473854329,-0.0015408776103268,0.0114383876681144,0.0024937150438825,0.0561756524199744,0.9983521874947268,-0.0521302677382133,0.0080537110280851,9.774152274776803,0.0410119136210998,0.018905346239694,-0.0034727344702357,-1.0545955472903157,1.9847373993339128,2.045158608892093,1136.2743060732666,1128.6231975234928,1137.1217609870823,1137.8101928823755,27.896643826474527,559.5750480723702,395.5251025497796,178.86181020767197,151.55005687063618
43.1,-0.6037534627440636,-0.7813642600489281,-0.4992033066400947,0.0150056444919443,-0.0411529161299816,-0.003023725867943,0.0114784233986092,0.0024422367033057,0.0561621882095029,0.9983526145782567,-0.052266985531791,0.012197632789667,9.777632273573337,0.0410286881984439,0.0187385892440398,-0.0035898643953983,-1.0544956899147366,1.9847989209855803,2.0451506781988686,1136.326986032817,1129.779729474842,1138.1290667845756,1138.1752952415816,-6.020521729175035,407.0672870803328,420.5002039415108,139.52256439469195,151.5498972866678
43.1025,-0.6961498565064563,-0.7568726292751446,-0.7270109080100966,0.0129503818363282,-0.0429370686371929,-0.0059693006766886,0.0115112834568443,0.0023892987788436,0.0561463602122445,0.9983532525296598,-0.0523012377647263,0.0159372027168286,9.781444657874168,0.0410393914053589,0.0185810138246526,-0.003695278924256,-1.0543965950517136,1.9848601162672896,2.045141472793995,1136.2442034646208,1130.6585339588928,1139.224262006788,1138.5078057043484,-82.24359862247523,317.10043323143657,465.8675740875769,146.3852080199264,151.54975551571323
43.105,-0.7036609117266909,-0.693224111728196,-0.8408016801186255,0.0100992778562394,-0.0451223287060928,-0.0104712282940555,0.0115329868929132,0.0023343975775397,0.0561273702980477,0.9983541929755276,-0.0522227365845292,0.0191558883970479,9.785557741864361,0.041045313161833,0.0184320893847776,-0.0037875852609466,-1.0542988333300478,1.984920055408256,2.0451311341830904,1135.9157680397043,1131.365231641,1140.4584046550149,1138.9072212816816,-155.96138577435548,200.69116306620992,409.6758899387801,147.66273795991486,151.54960904254008
43.1075,-0.6390630420892902,-0.6262843713284061,-0.7926532281801167,0.0077559185678072,-0.0468702118942138,-0.0142852580998214,0.0115415466497754,0.0022759720754632,0.0561033569720086,0.9983555669184978,-0.0519983539971849,0.021779775977253,9.78993486603436,0.0410480023586341,0.0182917231498436,-0.0038657639528824,-1.054202678205268,1.984978120083396,2.045119803143137,1135.4643965357486,1131.6619897742244,1141.2726414564827,1139.2461193941483,-199.00650759745892,59.571417262722726,249.00427498100635,130.04435927485247,151.54950864587855
43.11,-0.5309286742932844,-0.5644890396679741,-0.6151991748474654,0.0062148242276868,-0.0481832600159655,-0.017233959096263,0.0115365258880856,0.0022108545040772,0.0560747901065057,0.9983573599997936,-0.0515617008668987,0.0237686384859726,9.794534952754793,0.0410491412308367,0.018159831992789,-0.0039293172232583,-1.0541078900487884,1.9850344359854508,2.0451075577048115,1134.920735501718,1131.6630887273132,1141.7034260299188,1139.5574430780553,-227.48077037192343,-64.59736397056409,77.63806425005562,112.77870835668779,151.54943245901524
43.1125,-0.3947079954742267,-0.519540602699036,-0.3077782163632575,0.0053869417914911,-0.0492023911003189,-0.0192332857302412,0.011519058121579,0.0021373138356771,0.0560415280080541,0.99835957086337,-0.0508728007246889,0.0251199446647885,9.799312706717469,0.041050200348191,0.018036384257662,-0.0039781317131772,-1.05401428668355,1.9850886510428325,2.045095387477154,1134.3269926838884,1131.3390029543712,1141.6608317777332,1139.810012935932,-183.54527839641992,-168.57742270145098,-110.4106407403723,56.536900094232074,151.54937022072917
43.115,-0.3059085730650309,-0.5196199565813587,-0.0258371045384772,0.005218361347676,-0.0497541285454646,-0.0195352123015128,0.0114967227358049,0.0020555880654605,0.0560039536275489,0.998362089126869,-0.0499228989840412,0.0259654252505981,9.804217474015747,0.0410522556630827,0.0179210398633359,-0.0040126554699309,-1.053921268456066,1.9851408817823208,2.04508422246999,1134.0030091097356,1130.8202016138057,1141.1513728262166,1139.8401275785263,-73.8629023399643,-247.8006291682485,-282.8416502822009,-41.20484776566737,151.5493430204656
43.1175,-0.2695186148753424,-0.5650284722474538,0.2163246926371539,0.0051593774229116,-0.0503136871990436,-0.0184641116786502,0.0114785716697974,0.0019657029007374,0.0559638257433693,0.9983647114483516,-0.0486968395396913,0.0264721380791585,9.809195460476223,0.0410558374308361,0.0178128802512759,-0.0040337550084062,-1.0538281397444993,1.9851916741016775,2.0450752066203766,1133.9576781721887,1130.0999998085313,1140.2466235263237,1139.603988697104,32.18127533512614,-305.97976957820356,-399.2683350509189,-144.07483976219197,151.54934120333607
43.12,-0.2884475842507753,-0.6439794839820544,0.3812510962641508,0.005137349122765,-0.0511444876142151,-0.0163569526272786,0.0114708915152465,0.0018679006004648,0.0559223346623887,0.9983672990526258,-0.0471858783258956,0.0267605102201221,9.814191491970009,0.0410607905348255,0.0177104048558942,-0.0040422537697062,-1.053734752869328,1.9852417835903,2.045068953102702,1134.163915486411,1129.290302765916,1139.1550311509639,1139.1197533797163,133.5040007935958,-317.63091947943514,-438.4096087854717,-249.51578123328517,151.54935980304035
43.1225,-0.3787761827655187,-0.7485085213503159,0.4165777200872964,0.0052333637840215,-0.0525776794360975,-0.0133331127950426,0.0114766232225607,0.0017642529658257,0.0558811211630194,0.9983697224801384,-0.0454194560141154,0.0268952112182517,9.819149401543859,0.0410663263485539,0.0176113444772791,-0.0040384140084259,-1.0536408341386712,1.9852921469612548,2.045064682894701,1134.6251981761573,1128.5118452111333,1138.0545754823952,1138.3564097909368,235.78454578325125,-293.37347515318925,-431.22320853700097,-382.4498651765997,151.54940168988847
43.125,-0.560656728997799,-0.8767871419877159,0.2966724452369731,0.0050171727451169,-0.0551375041942294,-0.0095628061211144,0.0114910369207179,0.0016563381360392,0.0558439129830864,0.9983718217089362,-0.0434240070719397,0.0267980853904009,9.824013820088847,0.041071123992987,0.0175125720235185,-0.0040216116380056,-1.0535458108419036,1.9853436620671956,2.045060609742458,1135.342838215328,1127.8234353901491,1136.9989151082775,1137.2075040538323,267.4097535315172,-183.745501747793,-311.0046844257895,-441.202792084997,151.5494765073454
43.1275,-0.7540447671905985,-0.9663599852083796,0.0829070908438618,0.0041230892070043,-0.0577691200198494,-0.00725024708059,0.0115100773959429,0.001545871662328,0.0558140543156743,0.9983734511368128,-0.0412263655015853,0.0264124460885268,9.828727611861456,0.0410733819536814,0.0174103720559301,-0.0039904676538089,-1.0534492493251035,1.9853970729235084,2.0450553240543714,1135.9622469438136,1127.5931177023951,1136.4995520602677,1136.1503958305138,228.39974627024412,-1.6235002294243592,-98.85947040642749,-420.50163978257245,151.54955729083193
43.13,-0.9545982543294386,-1.0199074291733523,-0.18937538923948,0.0021523815964902,-0.0604830129156076,-0.0069521325830005,0.0115300573896068,0.0014371611429665,0.0557961884859012,0.9983743850824492,-0.0389024179004305,0.0256997292469096,9.833232170212952,0.0410711215194646,0.0173005517300608,-0.0039427194147876,-1.0533507681582603,1.985452818653804,2.0450478726706174,1136.4848369466797,1127.8153178890022,1136.5046177562451,1135.1049958549183,193.6051909350145,198.24554588875665,121.43390715949108,-437.9903018466426,151.54965458063916
43.1325,-1.1540172702109583,-1.0299276382210643,-0.4910509523565392,-0.0016279226254065,-0.0638859286111077,-0.0094119914995753,0.011549692692416,0.0013326687117911,0.0557950861611115,0.998374366802738,-0.0364885617747938,0.0246740953277519,9.837467633833448,0.0410624109927089,0.0171788446120611,-0.0038759295716032,-1.053250029661286,1.9855110383490848,2.0450378067768207,1136.9302728984892,1128.5843454318394,1137.1067215960654,1133.9604443212795,135.11165647645169,344.40478009896134,308.75759735546006,-396.55035242398895,151.54978710805193
43.135,-1.2536140334682877,-0.989026699887097,-0.6595650729444252,-0.0057746468744316,-0.0666764676460799,-0.0133394123248887,0.0115673093455575,0.0012339763841357,0.0558108164491579,0.9983734094227577,-0.0340051279781338,0.0233476844655378,9.841374704477012,0.0410455627285409,0.0170416931394353,-0.0037876938069636,-1.0531473835033092,1.9855712570494128,2.0450251574504152,1137.1603952290611,1129.5373417894955,1138.0484057430212,1133.1222440928002,79.16026914008894,405.5415263621143,444.8828370190311,-317.8273750175515,151.54990811966377
43.1375,-1.2618530703848418,-0.8985590163112849,-0.7000624535260986,-0.0103468791032858,-0.0689955429984067,-0.0175980135236194,0.0115817056570937,0.0011428420381301,0.0558414861435611,0.998371632118978,-0.0314771899619343,0.0217474041555002,9.844895736875952,0.0410195943227413,0.0168863627959029,-0.003676027275793,-1.0530431559522284,1.9856332874475913,2.045009764668951,1137.3260742441898,1130.612053063651,1139.3311357811615,1132.3713074461907,88.96478204837872,450.76958470931135,614.5045544382849,-327.4162152813604,151.55003683012535
43.14,-1.1702619636601779,-0.7391444017177318,-0.6063033990146103,-0.0151184072647411,-0.0711341732803858,-0.0211527276350406,0.0115923852258467,0.0010589143738667,0.0558829105495691,0.9983692777071522,-0.02889095125897,0.0199152632008412,9.847976611401899,0.0409845110405569,0.0167112733454065,-0.0035400147958693,-1.0529379289046377,1.9856965435358032,2.044991864127691,1137.6052191393035,1131.7911897130432,1141.1209285152142,1131.4851630163923,140.18163421978005,385.9492998796994,681.565358606014,-333.74887480689154,151.55019613200545
43.1425,-1.030944450438781,-0.567868098903138,-0.4417819293563073,-0.0178729299341937,-0.0724151069363712,-0.0224286118266098,0.011596557311163,0.0009795042711189,0.0559253871595654,0.9983669264227892,-0.0261944172774086,0.0178470907705651,9.850569843433165,0.0409414247818164,0.0165165288587114,-0.0033801627597818,-1.0528332193738499,1.985759350062105,2.044972667587729,1138.026982415288,1132.5417995630476,1142.7389625741887,1130.702563072158,230.2731116085583,235.74210135563357,662.0001062821553,-325.36592981229387,151.5503298018982
43.145,-0.861737828804532,-0.3573322017857084,-0.2375383319469794,-0.0193161476268736,-0.0732292275982281,-0.0224778636356533,0.0115926445938838,0.0009032982726105,0.0559594101951819,0.9983651331571416,-0.0233676659291716,0.0155634944517121,9.852635743516432,0.0408928229423714,0.0163035245248102,-0.0031985661615439,-1.0527306281156652,1.9858200596680615,2.044953972291346,1138.7565846973469,1132.969900219822,1144.4309290466267,1129.8583333673303,348.7336341966091,117.22375261168423,684.9969338277922,-339.68548071180425,151.5504605003239
43.1475,-0.6906414873409044,-0.1110666794080386,-0.0336110200786659,-0.0201006643647074,-0.0738793208777037,-0.0220124188596987,0.0115790743654151,0.0008331020258896,0.0559788680418025,0.9983642584449932,-0.0204793997192491,0.0130869862410839,9.85414522093412,0.0408424808467176,0.0160745982817228,-0.0029987550366709,-1.0526315386847103,1.9858774118985651,2.0449377312018644,1139.770650586272,1133.1279183261065,1146.1639472433294,1129.004135668598,464.8504112889576,6.082793391357048,698.3165322082625,-323.4297241255476,151.5505856545048
43.15,-0.5309342317490433,0.1835365931341399,0.1413942070925279,-0.0208115078386917,-0.0745090144461216,-0.02126490919294,0.0115587106332528,0.0007713663517653,0.0559844870620152,0.9983642266592244,-0.017594887431458,0.0105222390596292,9.85508080565723,0.0407950885867455,0.015832453352321,-0.0027860546311615,-1.0525360695923545,1.9859312239173188,2.0449249382629104,1141.0808367537895,1133.0003141867787,1147.9225117076649,1128.241184746704,615.2370511104472,-107.07441047701629,766.7182318783204,-283.2487903464341,151.55070021561227
43.1525,-0.3528667239853738,0.5910481467009032,0.2946836177848658,-0.0219740232183361,-0.0748716397197107,-0.020178217899096,0.0115368556937275,0.0007169629323272,0.055976676101338,0.998364955945154,-0.014715713352439,0.0080115627710256,9.855439016531895,0.0407554308284192,0.0155804049731346,-0.0025673883027849,-1.0524435425364047,1.9859815043377476,2.0449164455250406,1142.8468358418259,1132.5925462737212,1149.9975384027227,1127.5878917168652,651.0067204722725,-179.87549286549327,738.6086708387069,-176.54124629107235,151.55082016316203
43.155,-0.2104610839960233,0.9604156198227952,0.3650603426976868,-0.02298628453501,-0.0741272760691134,-0.0190796915509842,0.0115213828462607,0.000665667113241,0.0559544955430664,0.9983664142169064,-0.0117889577506953,0.0057368716883311,9.855231243357457,0.0407278264735035,0.0153220971242364,-0.0023507049109252,-1.0523530428389427,1.986028871389466,2.0449131500416278,1144.3358703561523,1132.1009367224508,1151.6155550618603,1127.358478515248,563.7361904303032,-214.41726063113893,597.9312933070995,-13.570159192216641,151.5509014963577
43.1575,-0.0699639704489166,1.3235310960345996,0.3696402749627712,-0.0235617031596077,-0.0714711125865784,-0.0177107966670093,0.0115170478858183,0.0006116506449837,0.0559190459066009,0.9983684903831692,-0.0087418224242794,0.0038086073766998,9.854485429562601,0.0407158289698374,0.0150609283691057,-0.0021439956650788,-1.052263370050457,1.9860742966442275,2.0449151654751656,1145.6655167939748,1131.5204599705664,1152.9871948692555,1127.520040920904,511.2569946457938,-262.7324442248684,513.3955594836254,161.0711247696685,151.55095850690023
43.16,0.0954062055746322,1.6969145055637829,0.3004035488763081,-0.0235262303326345,-0.066208941547393,-0.0158411849063505,0.0115184323220515,0.0005498725344107,0.0558710118587974,0.9983712076156034,-0.0055352447784826,0.0021293663136839,9.853247151836948,0.0407219047151174,0.0148000379035371,-0.0019541589532586,-1.0521736294891963,1.9861180624978616,2.0449212569291895,1146.8921553293828,1130.7872745013256,1154.1825328592795,1128.1638341390967,365.91914234326777,-267.4078218876726,341.3686617676449,300.7928573853231,151.55099275799543
43.1625,0.2280182541246595,1.9207035042658864,0.1900927291450927,-0.023117540380834,-0.0607606968854823,-0.0144291863605872,0.0115210202889394,0.0004811154340435,0.0558126031326259,0.9983744889395226,-0.0022487924957357,0.0006177564709487,9.851574856081402,0.0407474024170027,0.0145419303495118,-0.0017863703101162,-1.0520834664022922,1.9861605796557713,2.0449291869561255,1147.495112505692,1130.1834208611272,1154.6940381780948,1129.0240052078316,135.40693280909673,-232.0408704317124,84.3516704317011,388.7555655796757,151.55098825871394
43.165,0.3526001414990379,2.027865854053584,0.0495966216049044,-0.0224346684828421,-0.0550655752013786,-0.0139222286334857,0.0115215513285323,0.0004074012646251,0.0557486646616489,0.998378096017124,0.0010122028757074,-0.0007890780933456,9.849537446995363,0.0407925611568737,0.014288270469378,-0.0016440676132854,-1.0519924453606893,1.9862023752623417,2.0449373884401414,1147.5691899934277,1129.6270701491683,1154.6042912114378,1130.1076119669935,-95.832024120633,-222.42013778334228,-190.54181941418648,493.86734546585296,151.55094390026267
43.1675,0.489917238434284,2.0139681951287915,-0.1149029861928281,-0.0211697891771489,-0.0482729994508858,-0.0147568741048323,0.0115185909856525,0.0003291249674143,0.0556831799659434,0.9983818203419232,0.0041758066578585,-0.0021262747201348,9.847211156462665,0.0408564721581903,0.0140401087195546,-0.0015290770497235,-1.0518999764186805,1.9862439012914812,2.044945055408992,1147.0159523850887,1129.07132017221,1153.7413290810234,1131.493341935162,-299.8797379694509,-174.04691425781684,-441.5197951173028,495.8631220185189,151.55083868991835
43.17,0.5922987860438015,1.8906530905901553,-0.2229504004857004,-0.0198434149527487,-0.0428210507606189,-0.0162129306967231,0.0115125814600043,0.0002479839799791,0.0556205673432654,0.9983854091410594,0.0071482635392156,-0.0033958704788086,9.844676392224784,0.0409372798828097,0.0137977792646993,-0.001441439341288,-1.051805668761932,1.986285444302116,2.0449514237991138,1146.0697913035797,1128.7568355778787,1152.39669223585,1132.5869275770874,-447.8224305522852,-79.81920389363933,-650.2646087091764,397.1737414703941,151.5507042123122
43.1725,0.6807081911378785,1.673070962639596,-0.2844853250462313,-0.018455699407076,-0.0380137122980059,-0.0176796598603555,0.0115040699557052,0.0001654691850524,0.0555653445523624,0.9983886052318072,0.0098438583087,-0.004601966521323,9.842014908678719,0.0410323892000323,0.0135609765161339,-0.0013796539851024,-1.0517095377322003,1.9863272337823856,2.0449559883434474,1144.7768402323293,1128.6722241527423,1150.4900060374805,1133.4792106425123,-539.134951825278,13.582028889270404,-826.7924560884101,309.4505943843396,151.55051805600172
43.175,0.7559857908324169,1.4021321628854515,-0.3073453316572687,-0.0170420941781208,-0.0341044559632276,-0.0188524691267282,0.0114940517072976,8.358731601687314e-05,0.0555197691027187,0.998391274173766,0.0121728646479602,-0.0057416887014615,9.839306618569637,0.0411386496117597,0.0133290251774738,-0.0013409046459492,-1.0516120500573782,1.9863693146917811,2.0449585422392222,1143.374116544452,1128.8247457223251,1148.262729955406,1134.13418054901,-538.9252401610037,121.15807426642444,-912.7102258605523,199.10039161753772,151.55028752127416
43.1775,0.810385274308483,1.1026867869166703,-0.2934410714151096,-0.0152826695379746,-0.0315268839534824,-0.019595501669539,0.0114856286284359,6.389895889946339e-06,0.0554857151943368,0.9983932793040124,0.0140149370495114,-0.0067697176417893,9.836626483469487,0.0412526259107807,0.0131008275068359,-0.0013213053850606,-1.0515134779006403,1.986412084539314,2.04495876500362,1142.0822140315229,1129.2780145240747,1145.9264549081754,1134.4747126006005,-488.5150105533634,257.2221088933086,-964.3242798323756,85.6349155170716,151.5500025890347
43.18,0.8413006944153983,0.7542460275802931,-0.2511911666490715,-0.0126075107222683,-0.029751083575547,-0.0200745053243167,0.0114832754667524,-6.23488893151979e-05,0.0554662053811615,0.9983944030464766,0.0152651433331545,-0.007614221738538,9.834042338681218,0.0413707983821151,0.0128748801450919,-0.0013164175083376,-1.05141372525684,1.9864559743306376,2.0449563717288646,1140.9315414916873,1130.1108562667905,1143.4411085562483,1134.5623551265949,-330.73541321971857,333.6066723046621,-792.8410363517677,-5.663301723785174,151.54959786552436
43.1825,0.8320352053106381,0.4971292469167196,-0.2054048940193608,-0.010115509892128,-0.029030185259673,-0.0202387733139681,0.0114872206392877,-0.0001207591709763,0.0554594005913653,0.9983947443400624,0.0158602900620754,-0.0082876449065702,9.83161455847448,0.0414895508922749,0.0126499760015254,-0.0013216087739932,-1.0513130425874089,1.9865004491214575,2.044951655868765,1140.4285369654256,1130.9460478855965,1141.96224972642,1134.4463960919816,-100.77148402737593,330.257942929042,-408.54417155598657,-61.58649478089988,151.5492092016875
43.185,0.7852061571821746,0.2905478694118738,-0.1559892913338663,-0.0075227633124637,-0.0287031558330867,-0.0202858225687876,0.0114990982373054,-0.0001689262490491,0.0554634490969257,0.9983943866794528,0.0157865672341079,-0.0087752436530161,9.829393471440167,0.0416054347446878,0.0124249755217474,-0.0013326124820046,-1.0512111287200687,1.9865451579803215,2.0449452446572884,1140.42768407155,1131.7621459814363,1141.3983876984676,1134.2544226526902,94.7148493115462,314.08292859079967,-10.456245117569887,-77.71564672989942,151.54876933346168
43.1875,0.6963918708597633,0.1051897421952131,-0.0929085299437807,-0.0048396908866482,-0.0284614699890277,-0.0203167526455744,0.0115194647283313,-0.0002071929746827,0.0554777455742313,0.9983933569090028,0.0150434867772937,-0.0090815745503164,9.82741969535799,0.0417153368193902,0.0121988424230321,-0.0013456275892086,-1.051107810298423,1.9865900599708552,2.044937667086289,1140.9021112119835,1132.5164625285513,1141.9099685008323,1134.0578178583319,225.38623473108177,215.41666202262184,368.46648777051854,-56.96284796845881,151.54818583447883
43.19,0.6111370159460463,-4.953829118848248e-05,-0.0328721248710583,-0.0032799008148965,-0.0283101737725627,-0.0203691826831756,0.0115441742100253,-0.0002377524282551,0.0554993283354314,0.9983918658245924,0.0136707238903929,-0.0093028198522566,9.825725128695279,0.0418165360177642,0.0119710482815076,-0.0013575728058459,-1.0510037540661608,1.9866348003648056,2.0449296769375422,1141.5546152452043,1132.8392292915487,1143.2407201373185,1133.969608412848,275.8641461331943,51.34689863645792,660.0267837848867,-20.548671053064428,151.54765633701504
43.1925,0.5371143212666709,-0.0595772768983445,0.0432294930949869,-0.0022431705941059,-0.0283208545104522,-0.0204634049086487,0.0115690068723093,-0.0002632170827953,0.0555251024081786,0.9983901332253392,0.0117245476032241,-0.0095343517018993,9.824332442522275,0.0419068766912546,0.011741441282809,-0.0013662275230397,-1.050899491144047,1.9866788511051947,2.0449219431339847,1142.2814319426504,1132.7731970217335,1145.2101024197584,1133.9550745030665,296.7553690987489,-114.17272746519828,912.8838557841267,-1.8333864381010867,151.54708631166608
43.195,0.4844499448995928,-0.0834891096523506,0.1626739433265142,-0.0013499836625759,-0.0286976272218466,-0.0205766964003406,0.0115906097346991,-0.000285032101398,0.0555516808779292,0.9983883866201924,0.0092469575328108,-0.0098505253427238,9.823255851645875,0.0419847984514776,0.0115102697270451,-0.0013701401971671,-1.050795440296918,1.9867217608846128,2.044914827947244,1143.038392090699,1132.2683656542224,1147.8051394162414,1133.9604414806577,237.50212484641224,-239.22555121925072,911.4560418751912,-4.777516707740485,151.54636128073082
43.1975,0.4821414722082071,-0.0681282181390587,0.2894724919435885,-0.0008567675466455,-0.0291713404720236,-0.0205830956932756,0.0116060517949664,-0.0003045842929238,0.0555747135543503,0.9983869035037712,0.0062861119419388,-0.010314620916265,9.822502255420359,0.0420492686155812,0.0112781862337697,-0.0013686391261556,-1.0506920784650473,1.9867630272369432,2.0449084405916693,1143.4689425668814,1131.5770692656383,1149.7673826291302,1133.9311869195278,118.57930484300896,-301.0479981156374,661.7705200674916,-25.730196031723175,151.5457277180559
43.2,0.5272598842118058,-0.0247940500402914,0.4418910699890121,-0.0004478480837691,-0.0295443294437263,-0.0203182882453522,0.0116134825992831,-0.0003238864534781,0.0555895390718648,0.9983859666044996,0.0029096496719023,-0.0109667120557846,9.822072183934456,0.042099672557302,0.0110460710443743,-0.0013617939984715,-1.0505898520434502,1.986802055066376,2.044903169298778,1143.6312886149144,1130.7631256636435,1151.1139920165804,1133.8317905004988,20.1754787977176,-317.94773741837264,394.560565719783,-50.09597329000992,151.54507001953
43.2025,0.6059341742905929,0.0318585945724028,0.6064297267541496,0.0001138844372734,-0.0297083899234742,-0.0196400661080221,0.01161721304386,-0.0003452109896508,0.0555931223380872,0.9983856956875888,-0.0007976844753257,-0.0117235769540132,9.821959626277472,0.0421356697932605,0.0108146681533707,-0.0013503647269296,-1.0504882995260507,1.9868389850051529,2.0448991717877614,1143.56981996087,1129.9873305785459,1151.74018545773,1133.6807070530776,-71.06640795725167,-268.77957742046306,57.238615530747886,-64.83082631636064,151.54439751829258
43.205,0.7062637434130083,0.0894368278472568,0.7657455740903085,0.0011802439664477,-0.029529376734295,-0.0182053821739117,0.0116242021238242,-0.0003698498352465,0.0555868262255752,0.9983859343624703,-0.004762848665066,-0.0124460275033736,9.8221539444712,0.0421570751112646,0.0105841499656893,-0.0013354056990975,-1.0503864910186025,1.9868745887050787,2.0448963832503697,1143.2759565751285,1129.4192277765424,1151.400185094234,1133.5076363689175,-166.06158782024667,-171.1015003787486,-355.38089093829524,-68.8689445936791,151.5437140192652
43.2075,0.8153935243783286,0.1390436496570026,0.9183061200394904,0.0034129349032354,-0.0288567063856752,-0.0153688967068747,0.0116382350596844,-0.0003990856505093,0.0555710642801852,0.9983866166408328,-0.0089125762673731,-0.0130536216144791,9.822642021543887,0.0421636540421254,0.0103544227605658,-0.0013180001026015,-1.0502844755788816,1.986909486775472,2.044895110212228,1142.7395120217684,1129.1318230766517,1149.9632810030375,1133.336362330109,-210.77664833154037,-30.073344921022983,-658.0857790972731,-51.44792028429134,151.54289020067569
43.21,0.8672513142664449,0.1513663939063301,0.9904477244352508,0.0061790049834177,-0.0279326018831812,-0.0121341929900217,0.0116600157105591,-0.0004326614722609,0.0555468614869537,0.9983876794093612,-0.0132037877309353,-0.0135208641003529,9.823408675177156,0.042155152022982,0.0101249262157575,-0.0012989295107368,-1.0501827234831795,1.9869440510369,2.044895363248453,1142.2220733334702,1129.2688610519372,1148.109756198746,1133.2503967674959,-198.79052094852227,126.16062323866223,-807.0088474792163,-25.84018630671002,151.54220696431992
43.2125,0.8500003449905498,0.1255989742102855,0.9893216575280354,0.0095694208539072,-0.0268070692111315,-0.0086240377373571,0.0116830833000678,-0.0004719295390585,0.0555177051658536,0.9983890038161916,-0.0175667060419367,-0.013960419632744,9.824437808688623,0.0421313031632986,0.0098944928399692,-0.0012786212950388,-1.0500815345020045,1.98697832411648,2.0448964800109715,1141.7455594170267,1129.7626261928444,1145.9282367656451,1133.2071613985756,-174.73589236910968,271.8359118975486,-941.8290646163498,-25.4706560128722,151.54153402506645
43.215,0.7384716608160224,0.0558336789137701,0.9065350827786534,0.0133981737554036,-0.025758517808602,-0.0051117133016604,0.0117011135445261,-0.0005179821941026,0.0554865189327626,0.9983905008535348,-0.0219340263986056,-0.014477652236991,9.825710621739743,0.0420917097948239,0.009661630599807,-0.0012570179491713,-1.0499808334383347,1.987012084697081,2.0448977420132555,1141.3483938716242,1130.6280406114256,1143.4006108756619,1133.1230434874315,-102.84742558550728,334.69124756694487,-846.8996044042102,-52.06681629972146,151.54074561596167
43.2175,0.580371510786612,-0.0206518604611861,0.7846909061058323,0.0157380148934119,-0.0256129880305062,-0.0029604935320053,0.0117114290305977,-0.0005653174742268,0.0554576874930954,0.9983919588445794,-0.0263617849515261,-0.0150947968359728,9.827204469678238,0.0420358233226589,0.0094243897205766,-0.0012330627620967,-1.049880421307767,1.9870454634496024,2.0448983793090876,1141.231322289099,1131.43608243068,1141.693738743622,1132.946827317077,3.3737704936842174,306.1213373638167,-539.3545054089731,-107.2695566701052,151.54010928702445
43.22,0.3841566466200742,-0.0932162910862766,0.6322984570332897,0.0167654785531459,-0.0263072150620343,-0.0014427513263144,0.011717647392828,-0.0006104601078235,0.0554351570063811,0.9983931156209774,-0.030857859883295,-0.0157085741448854,9.82889205107716,0.0419628418910337,0.0091805533656367,-0.0012055138401968,-1.049779597260434,1.987079342343372,2.0448979580977453,1141.3652627240926,1132.1586472982433,1140.7038383486195,1132.5866957040814,107.0368595492162,262.7100590213579,-232.92379603978492,-203.23238994704812,151.53949947703347
43.2225,0.1455526388725139,-0.1539016660781022,0.4419697761414899,0.0166259126593572,-0.0275088378296366,-0.0002982782500598,0.0117248894575923,-0.0006518914153,0.0554195163417793,0.9983938790508402,-0.0353891349528074,-0.0161847586606748,9.8307425638068,0.0418716941949968,0.0089279996205535,-0.0011729484556264,-1.0496780150180465,1.9871141734166016,2.044896665096524,1141.7665065868453,1132.7496327257875,1140.5291197634226,1131.9306653673411,169.73641662612363,151.57757836879205,105.32455038586772,-266.77674514585294,151.53880346285072
43.225,-0.0320981536146448,-0.175377069103491,0.2940369152901481,0.0158532722410379,-0.0283881312599428,0.0001841827145343,0.0117394707896953,-0.0006883041929721,0.0554104847703024,0.9983941930773108,-0.0399166963391075,-0.0163631482839535,9.832721760738904,0.0417612154083509,0.0086646823464517,-0.001133759999999,-1.0495757358330566,1.9871501849170967,2.044894866217249,1142.2139448072237,1132.9165351900876,1141.230461100549,1131.2528119783515,175.29646879477266,-12.932537450536012,425.7268712982984,-271.41774595972623,151.5382564657164
43.2275,-0.1733726459627087,-0.1681866529314999,0.1711145633685206,0.0152367633503277,-0.0289394894710077,0.0003433004943814,0.0117681184529482,-0.000721230342127,0.055408767661339,0.99839393882527,-0.0443459023431545,-0.0160768935548216,9.83479242661078,0.0416303386287292,0.0083887279232569,-0.0010864787294582,-1.049472678765267,1.9871879425209316,2.04489261915039,1142.6429889308183,1132.6849700385349,1142.657754119912,1130.5735766375435,155.78337080675044,-192.84567997214393,727.7938892112529,-257.8943887159812,151.5377469798455
43.23,-0.2975035955015091,-0.1348411104216437,0.0603613405577092,0.0148063240021445,-0.0292758274469346,0.0003326221052194,0.0118082662555454,-0.0007524015945987,0.0554151970641961,0.9983930960462898,-0.0485898205664125,-0.0153418497288462,9.836916970578168,0.0414782661125857,0.0080988406311466,-0.0010294550849035,-1.04936898055518,1.98722713786431,2.044889511010714,1142.9928616612578,1131.9523067902264,1144.8694305466072,1129.963340034771,87.68212890827331,-333.6875905633063,831.7265189045721,-160.72517436410598,151.5371819776013
43.2325,-0.3615355690670348,-0.0929795878765791,-0.000205254854364,0.0142243307681595,-0.0294398807496021,0.0002447450128686,0.0118562466232096,-0.0007825892453116,0.0554310225119915,0.9983916363771556,-0.0525843522612733,-0.014196395183875,9.839055957993965,0.0413046652124728,0.0077945843679356,-0.0009610912148703,-1.0492642396516778,1.9872671581601304,2.0448850169684287,1143.08139957536,1131.0165320857175,1146.8163867144372,1129.7699507657228,-10.051277198463186,-419.25300637705664,725.5263077256817,11.006738907973164,151.5367514992594
43.235,-0.3792340254390605,-0.0425758832696637,-0.0301833376160576,0.0131342513567355,-0.0296111689064132,0.0001370866255955,0.0119084861776781,-0.0008101679790087,0.0554570571836843,0.9983895579088312,-0.0563166151467971,-0.0126785448046936,9.841168502712856,0.041109868329554,0.0074767147490943,-0.0008799520488342,-1.0491582660958083,1.987307155009476,2.044879141224836,1142.9426052752656,1129.856041758343,1148.4970620852323,1130.0183737293107,-87.319682671069,-479.6386739064293,583.0268209264177,176.5447787387081,151.53636436380523
43.2375,-0.3541439528772918,0.0110987993262086,-0.038025456920272,0.0115841331100444,-0.0297312499294694,3.430444568540648e-05,0.0119611072827634,-0.00083516376031,0.05548831819021,0.9983871835393912,-0.059747489262641,-0.0108409139931282,9.843213696004387,0.0408950232676775,0.0071477592908778,-0.000785321999154,-1.049051893685813,1.987345556266968,2.0448728783521033,1142.6448011620043,1128.618338716184,1149.7315208190707,1130.6526746594168,-143.65303698688803,-484.82810561324845,356.5461103855791,334.19266540500934,151.53601382316535
43.24,-0.2787342038408345,0.0634804138308098,-0.0237070053905383,0.0099357917386286,-0.029703690090428,-5.381407629376428e-05,0.0120097924789471,-0.0008590938197913,0.0555172979808139,0.9983849819386772,-0.0628164176622036,-0.0087550640476069,9.84515189196371,0.0406623239230913,0.006811706627038,-0.0006773377043541,-1.0489466705481476,1.9873805593038067,2.044867515141548,1142.2243400903308,1127.4319012302756,1150.279792637161,1131.6893370563366,-192.78004708466395,-474.0388998905237,80.78970432600798,515.881207871067,151.5357076760892
43.2425,-0.1471742305793876,0.1167124946215759,0.0129710060555677,0.0087054163508346,-0.0294351910053212,-0.0001359801132007,0.0120502801083486,-0.0008820785197058,0.0555392265303832,0.9983832700871752,-0.0654989549765046,-0.0064997257004457,9.846945598382213,0.0404150660253882,0.0064733261462701,-0.0005567504480144,-1.0488442030256195,1.9874110495016304,2.044863937790278,1141.680900926582,1126.2481442167336,1150.1354693407004,1133.2320806987696,-192.26183640070508,-370.893518909971,-166.66058868392307,585.6941599331419,151.5353912983605
43.245,-0.025623432301554,0.1466977086526917,0.0548779021726976,0.0083829905996826,-0.0290059413520715,-0.0001736568038833,0.0120823325675983,-0.0009053845100624,0.0555536891038793,0.998382071802284,-0.0677534545325344,-0.0040864104328379,9.848559897887768,0.0401573952029776,0.0061376172532692,-0.0004250419042816,-1.0487446758419998,1.987437479034236,2.0448614110644496,1141.263030908328,1125.5774336357274,1149.4464896937423,1134.6178078559997,-148.33428361732018,-181.3970711119491,-357.55987303486916,542.867599059077,151.53516945786683
43.2475,0.0766294308938848,0.1552300304259234,0.1013435997011767,0.0086357786093574,-0.0284249370995218,-0.000148979566898,0.0121055297163861,-0.0009316552934926,0.0555591768457237,0.9983814730678328,-0.0695218992281448,-0.0015435335120013,9.849964647556574,0.0398938354914793,0.0058098021908999,-0.0002841897456211,-1.0486479693215467,1.9874604450171365,2.0448595668867204,1140.9392295084947,1125.3411588611734,1148.3476699755252,1135.9464186940663,-114.02074115597848,10.203842419327213,-536.6998629271149,545.7940290556899,151.53498993728243
43.25,0.1411229290655571,0.1366517974310172,0.1510778008510728,0.0096313784305654,-0.0276346942617501,1.5153305787072655e-05,0.0121208736957878,-0.0009618538289664,0.0555559656269752,0.9983814453602524,-0.0707883735439718,0.0011188813239222,9.851134641514445,0.0396289191489742,0.0054946977432967,-0.0001363383075002,-1.048553924940088,1.9874804770765429,2.0448584321851784,1140.692927202548,1125.628452847824,1146.7629903791053,1137.3467780012795,-66.14333281937992,200.78169232638243,-601.4304659885069,470.7401078274604,151.5348223915621
43.2525,0.1253333543401911,0.0978935712564353,0.1769209186186343,0.0110152825729107,-0.026906497475911,0.0003238545581213,0.0121290480578658,-0.0009947559620424,0.055546798210551,0.9983818283173213,-0.0715905393963659,0.0038763132509631,9.852050675395922,0.0393668145248306,0.0051963498520711,1.6343230009522268e-05,-1.0484618237730692,1.9874981377932397,2.044858367268306,1140.6085128443983,1126.3450673228044,1145.3405176455851,1138.3001192332017,-13.230397178033453,371.6227853973496,-569.6312781424054,331.5941270154449,151.53472213540314
43.255,0.0257239174225758,0.0420806874051914,0.1718979211776388,0.0122728328752142,-0.0263336995384851,0.0008783546375848,0.0121325291614,-0.0010308442826649,0.0555328321198043,0.9983825266242295,-0.0719400122298436,0.0067277575297504,9.852699873673604,0.0391109863095709,0.0049181078173078,0.0001714147361581,-1.0483707923576349,1.9875138987017713,2.0448597742848476,1140.6267752166575,1127.4865667748115,1143.9148339883918,1139.0047486363576,20.92007695567939,564.7738622285327,-609.6779542003396,251.33394823343096,151.53466237789303
43.2575,-0.1819151075458082,-0.0275346985218195,0.1138292930780015,0.0127499028158047,-0.0263384543831739,0.0018416050991446,0.012134830634509,-0.0010705389220936,0.0555152196106434,0.998383433578354,-0.0718566676128727,0.0096847443097342,9.853075878982095,0.0388640503806486,0.0046623209091463,0.0003264594263168,-1.0482799681778003,1.9875286056212875,2.0448622995442034,1140.7131132291768,1129.1689366339483,1142.292127874582,1139.5567889743695,31.817275879786223,633.2695941506092,-566.8973923218954,154.0693060034792,151.53463741828205
43.26,-0.4104851428737211,-0.072572073576342,0.0142770095930352,0.0123013816738626,-0.026991003282328,0.0027937748851297,0.0121372468256758,-0.0011153375823442,0.0554952746566772,0.9983844600817838,-0.0713481751341644,0.0127081600938809,9.85317986703328,0.0386277498804954,0.0044302248515997,0.0004791749270294,-1.048188718072222,1.9875432200140168,2.044865391324084,1140.7858615960563,1130.652914745562,1141.0803470267847,1139.7750951663743,15.239822367940569,565.8286395586235,-436.9558256490146,38.419825986400966,151.53465575530615
43.2625,-0.6688681393555773,-0.0907463078537604,-0.1373276969105523,0.0111665877348446,-0.0279242774922658,0.0035415859778753,0.0121377370268161,-0.0011648039399963,0.0554729254520916,0.9983856370245996,-0.0704687973008044,0.0156917400438019,9.853020317596291,0.0384030304449185,0.0042220670383672,0.0006276853299236,-1.048097125977577,1.9875581171860488,2.0448688205660686,1140.7893123410165,1131.998079831743,1140.107348746336,1139.7488881043016,-20.072284606420645,487.8513934606194,-333.3676360719096,-49.07849744065278,151.5347152022295
43.265,-0.9286258414650392,-0.084447085749407,-0.320828591205147,0.0094129999944251,-0.0287412657373489,0.0036570189249084,0.012134979983477,-0.0012159462560232,0.0554480156548257,0.998386993657953,-0.0693252534864417,0.0185451873023255,9.852611319861667,0.0381901925448916,0.00403710142639,0.000770540819373,-1.0480053814281345,1.9875737355737972,2.044872257410677,1140.6855001730244,1133.0921717128663,1139.4135088464243,1139.529702679171,-76.4060234508419,360.6353027232768,-189.53467735676847,-128.11543334194369,151.53480930429
43.2675,-1.1597728429613314,-0.0560567053450986,-0.5175765579976453,0.0066199751806752,-0.029186100752592,0.0028230403523794,0.0121309320363395,-0.0012675129973186,0.0554216001383664,0.9983884486984462,-0.0679874262329301,0.0212424376170981,9.851971581801815,0.0379890427787258,0.0038736474139966,0.000906330877412,-1.047913492773327,1.9875904281098729,2.044875732202936,1140.4072822237626,1133.8012563453578,1139.1596753595527,1139.1083109375925,-167.58602191921975,227.1465452800132,12.17973105403248,-216.00497914771813,151.53494596188534
43.27,-1.3671421785646605,-0.0142050625519316,-0.7289860742840637,0.0020070768444448,-0.0291916953806894,0.0010157264624816,0.0121247923818868,-0.0013169133783367,0.0553939764143727,0.9983899975822624,-0.0665539040045924,0.0237083038379861,9.85112509188246,0.037798989202776,0.0037294344130652,0.001033953543118,-1.0478219870735213,1.9876076762791348,2.044880215990784,1139.8475700634278,1134.2279044392667,1139.4744075016947,1138.4496777834315,-240.4133516850059,103.87191527037572,226.28256883169587,-248.77152400305027,151.5351597167401
43.2725,-1.46257219166542,0.0128048396441761,-0.8541579065331985,-0.0022253968998461,-0.028782911807583,-0.0011088288358384,0.0121160952189803,-0.0013618437587843,0.055367079537842,0.9983915408095808,-0.0651147486894562,0.0258799057000193,9.850099428099838,0.0376191349837915,0.0036016076350086,0.0011524799268904,-1.0477309734998337,1.987625094248976,2.044885824689308,1139.205215465337,1134.32061592171,1140.291088203712,1137.8644533175764,-283.744275865123,12.13808419789724,435.3054471527551,-215.54417169606089,151.53537926554392
43.275,-1.4691419957913832,0.0187283441635989,-0.8924085477786177,-0.0059861046282889,-0.0280920477243192,-0.0039509653959269,0.0121054874169246,-0.0014040845202746,0.0553430599629231,0.998392947776455,-0.0636745903619821,0.0277193800335551,9.848924818256922,0.0374483027216119,0.0034869673480589,0.001260957036094,-1.0476401406974751,1.9876427784657775,2.044891968315196,1138.4288486841035,1134.2885948602564,1141.6509347374565,1137.3719569249524,-355.1526612870023,-11.641931996558425,695.1838299499823,-167.62478929231813,151.53564117830248
43.2775,-1.3760748250243344,-0.0023066859853983,-0.8091697673665466,-0.0098176806201283,-0.0273194971804643,-0.0080633748791496,0.0120927611025341,-0.0014472647846886,0.0553209311665833,0.9983942696223488,-0.062197852650452,0.0291786015770276,9.847633353893086,0.0372850317347162,0.0033823167116249,0.0013586769778963,-1.0475497167245496,1.9876607943285247,2.0448984506182954,1137.429452158901,1134.2624062617272,1143.7670073534637,1137.0263293711143,-363.1998744920981,7.472242907711731,825.1371220460313,-73.06273023687837,151.5360030040034
43.28,-1.2159309328733727,-0.0370383557209338,-0.6262957622124644,-0.0127754460220633,-0.0271025852448836,-0.0115153445176261,0.0120781254771219,-0.0014935640569132,0.0553007718554092,0.9983954961369872,-0.0606708558126848,0.0302293554049232,9.846257054877876,0.0371276223674382,0.0032842475191289,0.0014454435752368,-1.0474597450441556,1.987679055663332,2.044905297066692,1136.612849311642,1134.3259560747947,1145.7766203476888,1137.0066432737678,-306.05258341316227,49.712579914512126,812.924928707719,50.63323255894887,151.53634260344987
43.2825,-0.9687224409404328,-0.0748042059511521,-0.3443547807742293,-0.0157963469394796,-0.0274991698906483,-0.0138087873983642,0.012063646737199,-0.0015435784203234,0.0552832763832563,0.9983965632079612,-0.0591021138283904,0.0308923532861963,9.844826227360493,0.0369741406205842,0.003189275370181,0.0015215788051111,-1.047369813612122,1.9876976891984297,2.044912287949864,1135.8991892418367,1134.5109691612995,1147.8316319969983,1137.279495533909,-272.1148415562283,104.74129506318702,868.5965892024445,176.67615293116853,151.53671933584658
43.285,-0.5729304356364725,-0.1064479043697567,0.0568723003940972,-0.0191800061051957,-0.0283412127189886,-0.014370225901023,0.0120521652283405,-0.0015973235884967,0.0552675240018177,0.9983974875956604,-0.0575035007835715,0.0312148063271061,9.84336883318267,0.0368224366685831,0.0030940935507646,0.0015878607613024,-1.0472797907899611,1.9877165973089208,2.0449193941753983,1135.2522751038603,1134.8496625501111,1150.1196032937032,1137.890024038424,-191.55690787564916,135.08159509694815,779.9223766774605,257.3828396473848,151.53721088313176
43.2875,-0.1714004225014284,-0.1141441023414581,0.3971101288177593,-0.021582376247726,-0.0290381038423196,-0.0130765611231698,0.0120436489216542,-0.0016529748002987,0.0552545178692844,0.9983982162529424,-0.055918424045299,0.0312003948222614,9.841910625758384,0.0366702311201213,0.0029953844992108,0.001645647995862,-1.047189307803845,1.9877356329325504,2.044926751067177,1134.941404702458,1135.1863771367844,1151.7312438803879,1138.5664097321467,-69.3711517139667,134.2176638482981,554.556134989984,286.8928179104722,151.53765066530636
43.29,0.2712381239741805,-0.1015106339063697,0.6936901982255774,-0.0229419294131152,-0.0295563240317869,-0.0107591971583745,0.012037538047073,-0.0017108836651503,0.055246530917226,0.9983986284320816,-0.0543404886625673,0.0308504323340052,9.840473926763687,0.0365152324422221,0.0028899421430616,0.0016965561678907,-1.0470979787590888,1.9877550918079248,2.0449341072435048,1134.9054193452907,1135.520750869352,1152.8923839686506,1139.3244881279752,31.33054593889244,126.02275661122722,373.74355820001233,302.6751135491211,151.53811890959227
43.2925,0.704364366495481,-0.0758093931726718,0.927879346712256,-0.0226628923162161,-0.029902142667173,-0.0083322950976696,0.0120340832211722,-0.0017713315848086,0.0552429441395802,0.9983987541912188,-0.0527571171659835,0.0301913078477507,9.839076370667529,0.0363552630027691,0.0027750581580143,0.0017425888416065,-1.0470061363542464,1.9877750051364529,2.044940668945675,1135.0980574321525,1135.816490919841,1153.5999616713889,1140.079785299893,124.2538366606642,103.5628784857106,163.31556900268708,284.60870215948484,151.5386091379232
43.295,1.05577943015676,-0.0419462767542324,1.0663985186807883,-0.0198774750687421,-0.0300687143572632,-0.0058525643744875,0.0120338439660572,-0.0018342715620286,0.0552424826491,0.998398657696631,-0.0511557192509528,0.0292640360953315,9.837730725891676,0.0361884337479229,0.0026484466522119,0.0017860763876556,-1.0469143380343136,1.9877952354909536,2.044946039823352,1135.5266885285944,1136.0385652617808,1153.7089618136645,1140.7475316387731,222.5699731813825,77.56638958169566,-89.28994386605089,254.0354707728548,151.53912454398218
43.2975,1.2924338129646795,-0.003103498143164,1.1009862445435628,-0.0138775984089286,-0.0301159187905411,-0.0022550034965991,0.0120371337897793,-0.0018978561858622,0.0552460615179654,0.9983982890651864,-0.0495539997262567,0.0281138614557563,9.83644496925971,0.0360132603925801,0.0025081314323412,0.0018296219477562,-1.0468227656403164,1.9878155502288752,2.044950148684147,1136.2109072980584,1136.2043228677492,1153.153511952059,1141.349962653756,258.2515950873173,43.12111308861471,-305.8514999304661,176.83429028543335,151.53977121166648
43.3,1.2891774835877257,0.0194665663906396,1.0080810478440523,-0.0073045403499167,-0.0300614605491983,0.0014178967004771,0.0120449519011421,-0.0019604893495061,0.0552557351708321,0.9983975279057276,-0.0479600697725931,0.0268045999892951,9.835222502763374,0.0358287192749359,0.0023526066262932,0.0018757340053251,-1.0467312472133727,1.9878359972191564,2.0449527968889285,1136.8179465040316,1136.254170827224,1152.1797043140111,1141.6317030902007,223.04679285532487,0.5273790121916166,-468.548235248078,59.81751746618679,151.54033347805276
43.3025,1.070069234627534,0.0223895061261765,0.7871975387263128,-0.0006372906342754,-0.0299356315208877,0.0051685417279898,0.0120585105427546,-0.0020211465691917,0.0552743801419678,0.9983962054154822,-0.0463682366365903,0.0254072130489762,9.834063029627009,0.035634302700022,0.0021809341450473,0.0019265754113383,-1.046639224868529,1.9878568227203608,2.044953831248871,1137.3261412623356,1136.20695976281,1150.8107707758174,1141.6490502410873,174.02349722144575,-44.90382427438354,-650.8952923577916,-52.55152772347406,151.540920554007
43.305,0.6255602152624657,-0.0066345666508594,0.401142703166259,0.0046908395967471,-0.0297243214023886,0.0084390381092535,0.0120758202050357,-0.0020767284398849,0.055302310277909,0.9983943357739016,-0.0448166464558053,0.0239334655887624,9.832964493713327,0.0354301006492443,0.0019930605052413,0.0019839232896492,-1.0465466043109963,1.9878776371843447,2.0449537309780363,1137.688063990138,1136.0296517058523,1148.9252278522251,1141.3689454515838,80.1132796614912,-85.48027496907297,-697.6231992656245,-145.97900127382303,151.5416551782096
43.3075,0.1974996109486168,-0.0635273866891244,0.0187956545622216,0.0052660440913035,-0.0295234061686923,0.0091599895541872,0.0120925441787594,-0.0021269608375499,0.0553320609922481,0.9983923838372056,-0.0432921918601797,0.0223451412610023,9.831924368603362,0.0352169456044876,0.0017902380490348,0.002048588440645,-1.0464544568643073,1.9878970438863828,2.0449540094594467,1137.7267076606427,1135.7795583879652,1147.3226547794925,1140.9191552347188,-40.496389408624246,-118.12435750483343,-609.4635903930404,-212.2704534081828,151.54229382131751
43.31,-0.1626309620266755,-0.1574783647350626,-0.3663531778267805,0.0019655409048146,-0.0293627733427198,0.0076516022589127,0.0121045555861217,-0.0021730413052013,0.0553556208144258,0.9983908400255712,-0.0417552285494846,0.0206048298626905,9.830940102651581,0.0349965073936651,0.0015744646126523,0.0021204230915053,-1.046363968150798,1.9879139999031488,2.044955638290556,1137.4855820430948,1135.4390299183278,1145.8779099002586,1140.3075931845424,-159.62864243120768,-160.49392879113813,-565.4884651141691,-292.58912860321783,151.5429612056435
43.3125,-0.4076235861430098,-0.3092130153627303,-0.7712658140503801,-0.0038803495989221,-0.0293726191931615,0.0044231349671068,0.0121113355079391,-0.002216724617239,0.0553687316540679,0.9983899421568098,-0.0401549291810009,0.0187425733282566,9.830009437014976,0.0347711982138896,0.0013480105514275,0.0021984633863168,-1.0462757360755734,1.9879281902974544,2.0449585814316484,1136.9285644484862,1134.977088744009,1144.4952124539202,1139.456209591702,-236.05484744965548,-167.3990557422416,-433.87740891224337,-324.69800608230315,151.54379603860727
43.315,-0.4292349213193327,-0.4585114652084974,-1.0336313945638749,-0.0080694072813652,-0.0297331398778116,0.0013313283231251,0.0121161576354295,-0.002260565492624,0.0553717296925801,0.9983896243240244,-0.0384254884391723,0.0168580597342941,9.82913177824742,0.034543926896316,0.0011131069436051,0.0022810913350544,-1.046189577885429,1.9879401414653848,2.0449623273359627,1136.3053078058476,1134.6020346396172,1143.7085228556991,1138.6841031541323,-266.7846836421631,-135.77926171781075,-234.1181130411936,-316.95326679980246,151.5445200791733
43.3175,-0.2912980001114032,-0.611067727515844,-1.2047611884564107,-0.009940237414173,-0.0307505800922879,-0.0017945617943003,0.0121202084490977,-0.002304798081439,0.0553652503018995,0.9983898345335944,-0.0365549820249508,0.0150073060898529,9.82831106964496,0.0343177837706654,0.0008719812255481,0.0023664307650816,-1.0461054898675837,1.9879504204121143,2.0449666800891886,1135.5946410302747,1134.2981924354197,1143.3246218887136,1137.871443257702,-290.03953096070006,-105.90538550744932,-91.7607856832532,-329.9282982579047,151.54527298276247
43.32,-0.0712999936128889,-0.7457912368392856,-1.299478165587004,-0.0098524374692689,-0.0324615733166569,-0.004887662639183,0.0121256755882575,-0.0023491801837762,0.0553509663421702,0.9983904531796358,-0.0345461509333833,0.0132608441480137,9.827555850623693,0.0340957830806136,0.0006266475565053,0.0024522844911446,-1.0460232111071683,1.9879596548802891,2.044971293304465,1134.8551101510432,1134.0725077120799,1143.2497189272829,1137.034461662842,-297.6664828808659,-77.61642779217037,30.88532495610788,-339.6480634191354,151.5460489501841
43.3225,0.1830818869472933,-0.8329861128754001,-1.3054355914019729,-0.0084123244456205,-0.0348669532670084,-0.0081286255509823,0.0121345687367965,-0.0023958951550747,0.0553308116359573,0.9983913430721522,-0.0323607835644584,0.0116771590142404,9.826880305058223,0.0338806464475376,0.0003788688358243,0.0025359896703579,-1.0459420091327587,1.987968216234884,2.0449763953087747,1134.1063086158715,1133.9101102964592,1143.479048513494,1136.173202940608,-330.4120643252773,-78.34179271058558,148.08177731444331,-382.9759520623925,151.54685112311583
43.325,0.4638030988496723,-0.8557318631331847,-1.2165776933356167,-0.0061513563743782,-0.038371545433062,-0.0121219424492618,0.0121468943847511,-0.0024496355650872,0.0553028632604473,0.9983925985410912,-0.029919918002343,0.0102665647962517,9.826304909995912,0.0336746526753761,0.0001304074241473,0.0026144651122921,-1.0458614226960707,1.9879762212799448,2.04498290140048,1133.203049829416,1133.6807987485267,1143.9901278138555,1135.119581902529,-331.8880176119485,-111.64030692879096,208.8447625085633,-386.6872827089833,151.54784125326847
43.3275,0.647196608280374,-0.7966682038062239,-1.0704578600803762,-0.0035962460001785,-0.0414901747059216,-0.015144043667495,0.0121614100662664,-0.002512406985622,0.0552660643300338,0.9983942878863435,-0.0272039246908332,0.0090124302335236,9.82585569201438,0.0334795555735299,-0.0001172766957182,0.0026846780245798,-1.0457811746245436,1.987983560232525,2.0449911956576527,1132.4468685278111,1133.351908761815,1144.5232723260372,1134.239766527062,-299.19385399311903,-185.7152595421537,216.35765230254611,-345.4173290207522,151.54868685305166
43.33,0.7619890325336302,-0.6619038219121814,-0.8638323424881131,-0.0004435817644807,-0.0439404748766378,-0.017568084151963,0.0121763870442044,-0.0025863413532361,0.0552219111880729,0.9983963448344904,-0.0241953590908018,0.0078837295695573,9.825563361398812,0.0332965824143189,-0.0003631231337323,0.0027436611168598,-1.0457013887158626,1.9879899772371643,2.0450017179729367,1131.707080559452,1132.7522224508168,1145.0719160753672,1133.3924952574268,-307.23491676151497,-344.54787894301825,227.67847063343828,-353.78990718927616,151.54955052403696
43.3325,0.830191992421043,-0.4381467893507201,-0.5667371589549624,0.0026318332603437,-0.0456115027570588,-0.0196042648046634,0.0121898287116392,-0.0026708464190667,0.0551723547133886,0.9983986889971141,-0.0209335888962296,0.0068429108722089,9.825461957082899,0.0331264083445054,-0.0006063354822901,0.002788983247881,-1.0456223667724136,1.987995189199592,2.045014652746904,1130.9106939440028,1131.6291693670987,1145.6616646792052,1132.4708169911148,-258.7082512331149,-478.8864411101992,195.53608337754667,-312.78793398484964,151.55060385828617
43.335,0.8510625600190531,-0.2240407287533504,-0.2941695145186362,0.0042003198712369,-0.0460600830611076,-0.0206107644296487,0.0121995432443844,-0.0027589598231746,0.0551209281618338,0.998401169812778,-0.0175848741581141,0.0058521026502994,9.825587178016544,0.0329690938026614,-0.0008464974144303,0.0028193178462756,-1.0455441021599543,1.9879991196505036,2.045029675392528,1130.4135393032857,1130.3577902452644,1146.0495964922554,1131.8285555875016,-137.2475064605053,-559.3589981942472,126.24580859212642,-221.1920415825454,151.55149268716
43.3375,0.8626478718348148,-0.0073076134933094,-0.0141020633595461,0.0053377037057017,-0.0457161981895016,-0.0210235600904272,0.012205322267087,-0.0028460439489141,0.0550728157435606,0.9984035153605793,-0.0142680517488988,0.0049072553466058,9.825973882479005,0.0328240715298893,-0.0010836430751475,0.0028341849275768,-1.0454660335981292,1.9880019367319657,2.045046000923657,1130.2244564117009,1128.8323743761302,1146.2928937221652,1131.364856783203,17.280848229156874,-686.3347254597683,71.46286411317287,-157.61646391457484,151.55238913780929
43.34,0.884370285442819,0.2356509977652432,0.3089628798378667,0.0067071910163012,-0.0449545812959224,-0.0208922659173857,0.0122082039737427,-0.0029289676083854,0.0550312655236217,0.998405542573893,-0.0110702860949867,0.0040252612248883,9.826653848965162,0.0326901271880424,-0.0013180974096739,0.0028342610228698,-1.0453876180826225,1.9880038448766375,2.045062764548268,1130.4999435444315,1126.926116617964,1146.4069108128215,1131.0404732679283,198.16150362925197,-670.1806521949247,17.925168423143912,-82.40929662420389,151.55346896748688
43.3425,0.909562052540371,0.415968358405965,0.549243284297915,0.0081176886206804,-0.0443569372570213,-0.0201963087281872,0.0122131813048775,-0.0030027573515222,0.0549979671291591,0.998407111577924,-0.0081086664179465,0.003301683172398,9.827652480730212,0.0325654412302447,-0.0015505372830185,0.0028217299652539,-1.045308257139634,1.9880057318906192,2.0450788580762054,1131.2152639298477,1125.481471115154,1146.3825195642808,1130.9528103000819,388.66920263493614,-496.64839326755697,-16.082529484143453,-6.2251777686526335,151.55436861326984
43.345,0.928930813766736,0.5657442972890004,0.7333234024393533,0.0102927046713953,-0.0432990195237023,-0.0187039800356497,0.0122258430442149,-0.0030652764181447,0.054974721013558,0.9984080612147008,-0.0054409884876081,0.0028407046258771,9.82898727219646,0.0324477568920532,-0.0017821075460329,0.0027999651427815,-1.0452276372259888,1.9880086838199929,2.0450931121170006,1132.4432895576044,1124.4428746516285,1146.3264981654008,1131.0093473790853,566.5098120940287,-315.5845594711286,-6.335548260082248,36.83837504302508,151.55526351483627
43.3475,0.9284674321008975,0.6827521809817826,0.8487741019456387,0.0129869105217537,-0.0414824485486788,-0.0163988627226401,0.0122480024408402,-0.0031158478587076,0.0549621471901163,0.9984083374188704,-0.003096867774389,0.0026714031538582,9.83066677757982,0.0323345918271093,-0.0020142185252133,0.0027734272455235,-1.0451460672987507,1.9880130132636544,2.045104621763236,1134.0478129903192,1123.9035483177975,1146.3508418229803,1131.137002175297,710.2693384605577,-70.63519556632879,57.46418366190272,55.83600240667565,151.55615106544784
