t,ang_acc_x,ang_acc_y,ang_acc_z,a_vel_x,a_vel_y,a_vel_z,quat_x,quat_y,quat_z,quat_w,acc_x,acc_y,acc_z,l_vel_x,l_vel_y,l_vel_z,pos_x,pos_y,pos_z,mot_1,mot_2,mot_3,mot_4,dmot_1,dmot_2,dmot_3,dmot_4,vbat
7.315,-0.2937551010782623,-1.2603459418088456,1.2557311422557191,0.0189944958502565,0.0006850743832226,0.0033425767084023,0.0024967184262546,-0.0019442080167767,0.1030204098334784,0.99467408152213,0.0164903081821429,-0.0048127464367258,9.745989622071258,-0.0161419904391728,0.0128639324260481,-0.004355814353222,7.177534883128345,3.7829609026290183,1.1795703180939163,1114.0952366282925,1126.3091385555952,1112.3016337432107,1117.872229684241,84.01173282591294,-348.4896605711657,-676.0287364701215,-584.4792090259159,151.59570146837774
7.3175,-0.3753571374892904,-1.2753049115102624,1.2656976325541252,0.0182726250016866,-0.0016874398128284,0.007649011382151,0.0025107586925216,-0.0019474615126705,0.103036272274967,0.9946724066979044,0.0156480015946255,-0.004076985943221,9.746209955230231,-0.0161482072197784,0.0128278922909118,-0.004530143617352,7.177489960190904,3.7829833366497336,1.1795581780380162,1114.42226661006,1125.392999305711,1110.712423325756,1116.3375562025567,166.44471558893557,-324.21313909240564,-458.1308589776752,-534.014543332853,151.59535061776398
7.32,-0.4492478692394423,-1.2637741749533096,1.184243950415088,0.0171917360071067,-0.00410565253185,0.0113852825169398,0.0025212741463834,-0.001945383002647,0.1030466245563783,0.9946713216984412,0.0145962637937938,-0.0034367774824077,9.746813060926176,-0.0161551406584651,0.0127923936257001,-0.0047013005033064,7.17744484980028,3.7830070015370088,1.179546752979188,1114.9274602062371,1124.6880728601332,1110.0109794483224,1115.2021569675767,265.24673745244047,-278.1019025061655,-133.63279119635365,-414.0040599551045,151.59504518486753
7.322499999999998,-0.5291274199383299,-1.204930613361153,1.017521743774992,0.016086667690779,-0.0073573666745114,0.0144731742593376,0.0025345260613509,-0.0019410826315679,0.1030516942651832,0.9946707809072612,0.0134011520882464,-0.0027786678241552,9.747787839873267,-0.0161630672461808,0.0127562157933718,-0.0048694045367112,7.177399226444238,3.783031799646416,1.179535535239696,1115.748500297322,1124.0024897931803,1110.0442593697744,1114.2675359027814,445.2178606030524,-307.0765773071409,176.74186067561473,-353.64435727229494,151.5947293042534
7.325,-0.6319075748948743,-1.050619688219666,0.7412526181878608,0.0150342703218258,-0.0119402623657402,0.0170710752468402,0.002552537662936,-0.0019382285117295,0.1030536331379387,0.9946705491690048,0.0121318182895273,-0.0020715323579861,9.749121569362913,-0.0161720815012738,0.0127183872358022,-0.0050343991796336,7.177353301373054,3.7830576075516262,1.1795243552628536,1117.1535495092523,1123.1526899735975,1110.8946887517004,1113.4339351812152,583.2109757797296,-317.3142731921829,425.19155997190586,-253.85796462747416,151.59434391149352
7.3275,-0.7192206281359592,-0.8412675470400023,0.467471644790564,0.0140371600425608,-0.0155296094236954,0.0184543791815969,0.0025728948388111,-0.0019374719177089,0.1030572271802722,0.9946701345752754,0.0107911130443905,-0.001363576025779,9.750800295140385,-0.0161820638065199,0.0126783946556709,-0.0051960845292371,7.177307098142204,3.7830835738688138,1.1795130829204128,1118.6645551762213,1122.4159184272191,1112.1702171696343,1112.9982460796439,658.1934394590147,-291.3534737334492,590.7668395508734,-123.71667771035654,151.5940230768448
7.33,-0.7941478602486307,-0.5553568748010933,0.1718314559171251,0.0122184459833915,-0.0180119909219292,0.0190545770645147,0.0025947867780513,-0.0019404892804014,0.1030647542250485,0.9946692987068544,0.0094063755357256,-0.0006735842084505,9.75280815258179,-0.0161928859711708,0.0126360744670759,-0.0053540603140698,7.177260289780968,3.7831093320324056,1.1795007496688767,1120.4445167065471,1121.6959226049305,1113.8485229494547,1112.8153517926635,735.0499384657426,-271.6724833253978,708.9251231413224,-38.39618978754597,151.59371095043107
7.3325,-0.8441404227341209,-0.2251453268183182,-0.1258962514480379,0.0095922136385093,-0.0193268352612661,0.0190295675012808,0.0026184377499235,-0.001947034973972,0.1030760532493575,0.9946680573623516,0.0079715014505042,3.491532342941861e-06,9.755127467169277,-0.0162044342617822,0.0125916460221014,-0.0055078401127417,7.177213424697101,3.78313456597577,1.1794874133776543,1122.33980486855,1121.057556010592,1115.7148427853408,1112.806265130706,755.1610515184326,-217.27974285891383,762.8025128989683,27.154321170338005,151.5934135353867
7.335,-0.8516300706649688,0.126286413397819,-0.4085876073416524,0.00629930396253,-0.0192001373032729,0.0183912626749085,0.0026440322303846,-0.0019570170581183,0.1030895993601484,0.9946665681723572,0.006485493832528,0.0006710088633218,9.757738509489698,-0.0162166579072282,0.0125457268803379,-0.0056568307185077,7.177166294688225,3.7831587101756017,1.179473964026624,1124.2203219641394,1120.609523890636,1117.6625355139495,1112.9511233985152,787.627722739961,-135.43703318451043,850.8544915236325,84.86573431164467,151.5931438181183
7.3375,-0.815251258734146,0.5304607232736142,-0.708432485752924,0.0021530383087077,-0.0174800057046706,0.0169186758946325,0.0026683633088121,-0.0019689828247591,0.1031038933164173,0.9946649980280636,0.0049168450928588,0.0012681881857056,9.760619598297907,-0.0162295658240305,0.0124993179626392,-0.0058003317229165,7.1771188150130625,3.783181649068745,1.1794610631552842,1126.2779434822496,1120.3803708446696,1119.9691152429589,1113.2305938022644,702.1305160899979,-27.32234359655253,830.7679647167511,109.8591534811954,151.5928643387157
7.34,-0.7692570396530205,0.8280289490860456,-0.90836593567803,-0.0006854496251463,-0.0149305707875612,0.0148352244860926,0.0026875072022505,-0.0019804915776425,0.1031180021032657,0.9946634596942528,0.0032166811771819,0.0017209759546123,9.763746652061334,-0.0162433005237663,0.0124536515334762,-0.0059375032193365,7.177070451577163,3.7832031167821576,1.1794484655523276,1127.7309745445891,1120.4729121726532,1121.8163753375331,1113.5004191659211,515.5595880373877,93.51136556483853,717.7206909375099,103.75480633347472,151.59267610193487
7.3425,-0.7535435330037134,1.0690182568031634,-1.0365694142701227,-0.0020235882426841,-0.0117801904590257,0.0118015660390818,0.0026999378943552,-0.001988102456144,0.1031319508410419,0.9946619625844692,0.0013253634482537,0.0020025177397162,9.767092725181811,-0.016258259157694,0.0124100010157836,-0.00606732432331,7.1770214010083615,3.7832231183232263,1.1794356648394813,1128.8557414224365,1120.8479276724938,1123.5577186976464,1113.7493678339315,417.57247145379534,220.6785786699631,737.8838915047411,93.50741994335492,151.59254232574213
7.344999999999998,-0.8283809498043319,1.2934048653151005,-1.0936061353602955,-0.0019642285886262,-0.0082387535476715,0.0076615249991737,0.0027066867737756,-0.0019884864856835,0.1031425118298377,0.9946608459634128,-0.000805094544406,0.0021342832636168,9.770627762516881,-0.016275352020919,0.0123693625293284,-0.006188489762634,7.176972693169588,3.783242078110341,1.1794226714593024,1129.8188369018583,1121.5763050660028,1125.5057947950568,1113.967956265638,290.5409381433463,304.666149963493,687.5132833351164,63.326332765929216,151.5924525669384
7.3475,-0.9948456302679234,1.433751764590318,-1.0615642859841303,-0.0010960728976086,-0.0055941774439735,0.0041949717481332,0.0027078078564097,-0.001982269082139,0.1031462871809588,0.9946604611477596,-0.0031428456611392,0.0021099773854413,9.774318677786633,-0.0162960230532302,0.0123324372408828,-0.0062991892702543,7.1769249621977735,3.783260458979444,1.1794082077106067,1130.3084461131532,1122.3712584223113,1126.9952851143219,1114.0659994977611,130.95844404267837,346.64233298975927,562.5317485985792,27.134286510677462,151.5924413937178
7.35,-1.2591295908546452,1.53052269254193,-0.9631833531141418,-0.0009152069424055,-0.0027177685073317,0.0010186038107718,0.0027027831978628,-0.0019718273653509,0.1031442597666718,0.9946607030771548,-0.0056176181239706,0.001908379024387,9.778129616580344,-0.016322039117806,0.0122996443494855,-0.0063972877406513,7.176878815837347,3.78327865483858,1.1793913922460728,1130.4736291220715,1123.309516730952,1128.31845353805,1114.1036276981913,-6.586068733895585,434.78450617513784,535.063796473662,23.19626443586507,151.59250056358775
7.3525,-1.6158822366033587,1.58875963865336,-0.8046392118734365,-0.0037018954169504,0.0013625629206582,-0.0017127214357352,0.002689692217522,-0.0019602739087891,0.1031388037834301,0.9946613252944236,-0.0081419809786605,0.0014799144218581,9.782022459882418,-0.0163553758266593,0.0122709450521553,-0.0064805802983126,7.176833896431283,3.7832967657949648,1.1793723543064987,1130.2755157694835,1124.545180953187,1129.67060409669,1114.1819808199407,-142.20346057937,463.07812667238153,448.974448478712,57.63475131002574,151.5926563121752
7.355,-1.8645519256530416,1.5765511307709663,-0.6717779836956719,-0.0092582338733675,0.0053582634572858,-0.002819417532834,0.0026659817420406,-0.0019475996654942,0.1031341925539592,0.9946618921142392,-0.0106849465667663,0.0007701161824406,9.785957496597716,-0.0163979563449987,0.0122457953690375,-0.0065472449400464,7.176789261501448,3.7833152744803247,1.1793516651004807,1129.7626118191747,1125.624907364314,1130.5633257804436,1114.3918014547414,-277.06433793410406,431.56561370520654,298.70980854207755,146.11058975415602,151.59285826823137
7.3575,-1.9682769229595107,1.485505364529884,-0.5732867880837356,-0.0169805910369607,0.0098448659117203,-0.003188083785724,0.0026342940027488,-0.001931786079422,0.103132246782951,0.9946622108285323,-0.0132391591914686,-0.0001685309070772,9.789893842414896,-0.0164516423539099,0.0122229489097755,-0.0065961839830442,7.176744675495063,3.78333522652314,1.1793304439039676,1128.8901940798132,1126.703009021713,1131.1641531394005,1114.9125337687115,-402.2545920331681,422.7564160605288,184.7327892650395,280.73238774359794,151.59313625655463
7.36,-1.908578491457127,1.3234399784059288,-0.5188102975148233,-0.0247919481541041,0.0142185414699946,-0.0034124391201831,0.0025986484092063,-0.0019138724563744,0.1031314858012311,0.994662420835162,-0.0157306656389437,-0.0012605596900862,9.793790762762152,-0.0165182310225351,0.0122006248937645,-0.0066269110827611,7.176700205180701,3.7833570792430793,1.1793092339303455,1127.7513388590091,1127.7386894446165,1131.4869897267688,1115.7954633934592,-503.38692387245993,395.02271793527075,55.97859459003421,452.8706898504976,151.59347781224133
7.3625,-1.6469270285253952,1.0826637576714784,-0.5196910717426175,-0.031278565351981,0.0176986934921,-0.0037292607802442,0.002560652617388,-0.0018950756162036,0.1031305457152831,0.9946626559206444,-0.0180835532280869,-0.0024751453294653,9.79760926856229,-0.0165992373820748,0.0121769127217757,-0.0066396106851043,7.1766561536285165,3.783380714453603,1.1792880514529616,1126.3732594604508,1128.6781226113892,1131.4440461123506,1117.176887217964,-630.780639786112,381.9870819189954,-102.53213915543928,715.1999925569878,151.5938962886437
7.365,-1.1450318677562348,0.7271277838048006,-0.5685435488146847,-0.0369023591195387,0.0204713754724668,-0.0045773624219864,0.0025220061184457,-0.0018756694956085,0.1031288579426349,0.9946629698746016,-0.0202380540003629,-0.003774997514563,9.801313246535514,-0.0166957433119603,0.012150032447084,-0.0066352187187544,7.176612493066112,3.783405724386068,1.1792673050153495,1124.5974356600786,1129.6486248542114,1130.9743290309916,1119.3714633562442,-644.4188586117117,325.4113614809809,-231.6275103334241,870.8067508082606,151.5944872737271
7.367499999999999,-0.628796665804901,0.3985777685245186,-0.6266872742589791,-0.0394366015992178,0.0216351625988584,-0.0058934598824838,0.0024837381109133,-0.0018566165994015,0.1031269738991017,0.994663301411788,-0.0221218859403449,-0.0051346408285215,9.804870727389282,-0.0168082729490292,0.0121185916529751,-0.0066153018669064,7.176569031302927,3.7834314153952833,1.1792475500337327,1123.1511651673925,1130.305179418794,1130.2859085606835,1121.530920972005,-538.2572413684217,229.0050889378612,-312.78224546886787,888.4647290420351,151.59505335781455
7.37,-0.0946806901792401,0.0635857808051421,-0.6706383222938007,-0.0395681955687499,0.0218639372588464,-0.0078795140999652,0.0024489858633154,-0.0018397480340836,0.1031244028666047,0.9946636899657976,-0.0236429115247114,-0.0064870310689179,9.808254839056206,-0.0169367382861444,0.0120816360973505,-0.0065820027426443,7.176525499406902,3.783457307360724,1.1792288177532864,1121.9061494532364,1130.7936502989007,1129.4104178036473,1123.8137870014543,-468.0319842820332,178.25132820614215,-390.08099977557595,972.2563708611985,151.59569494370365
7.3725,0.4732933204739815,-0.3196978239425158,-0.6731917329047518,-0.0372438175906022,0.0213468885251679,-0.0108777734261487,0.0024182062171721,-0.0018240305876466,0.1031212689237967,0.9946641226240132,-0.024773558339749,-0.0078098604417262,9.811444897229142,-0.0170802729552164,0.0120388412458577,-0.0065379286564994,7.176481811318372,3.7834826458648134,1.179211448731464,1120.811005245982,1131.1964360598247,1128.3355035618051,1126.3922028263119,-318.7680378100208,122.11067058538252,-369.0014089666953,875.856669112382,151.59655060263808
7.375,0.8327192017649133,-0.6072948214121777,-0.6182569040144622,-0.033904786645598,0.0202819158754707,-0.0134960536545874,0.0023912281799663,-0.0018080076588677,0.1031180325226079,0.9946645544553956,-0.0255010782836652,-0.0090910983777976,9.814426824836737,-0.017237246779076,0.0119904660626915,-0.0064859302522558,7.176437771665164,3.783506513003452,1.1791957976777114,1120.3123092641863,1131.4042036518276,1127.5654107588139,1128.193070347016,-107.77649081324172,65.95536667982883,-253.57441051519885,607.9071870244791,151.59733370778775
7.3775,1.0383531573169635,-0.8435098186378843,-0.5024074534663748,-0.0299114111961816,0.0184147576817532,-0.0156917932638998,0.0023657470114335,-0.0017921575121363,0.1031157599304261,0.9946648798136164,-0.0257864644169319,-0.0103637606266843,9.817193457750129,-0.0174053046188286,0.011937262325063,-0.00642876268865,7.1763930229617054,3.7835285524534097,1.1791820136855171,1120.2721227919155,1131.526212893224,1127.0676315092292,1129.431738761434,74.7571486390841,46.480238497771175,-139.10198675066863,390.620576894261,151.59818771003043
7.38,1.1035155514472827,-1.0474888072022592,-0.3113674750218675,-0.0248562140134971,0.0150616854207219,-0.0173784148352843,0.0023385538202873,-0.0017779069908137,0.1031157562664095,0.994664969241801,-0.0255829445577423,-0.0116804691860614,9.8197443397821,-0.0175814294025176,0.0118802405211185,-0.0063688923500911,7.176347653469072,3.783548802452732,1.1791698215282715,1120.686095007382,1131.6366048443165,1126.8699008250603,1130.1461732314874,205.89981700768917,42.602171706858826,-6.267922728329856,133.78188981428423,151.5992923644771
7.3825,1.0273749143843087,-1.1410741318853133,-0.1314072951185306,-0.020970978288437,0.0114182181276823,-0.0177718307907766,0.0023086517036149,-0.0017661757795138,0.1031164410101771,0.9946649879942147,-0.0248596006331751,-0.0130501413245091,9.822085115554705,-0.0177620935009549,0.0118202948177724,-0.0063083823694418,7.176301262403667,3.7835677967105426,1.179157858613049,1121.301621876954,1131.7392237517583,1127.0362918955875,1130.1006482105056,264.34378188724276,49.633278482361824,121.29498820172816,-128.95660168215093,151.60027792297925
7.384999999999998,0.8653455245779123,-1.1563066857456683,0.040961678668296,-0.0183546367767466,0.0075652138379149,-0.017182945726846,0.002279505445806,-0.0017568417610686,0.1031164999440391,0.9946650647828152,-0.0236084429710024,-0.0143929519515467,9.824226732560952,-0.0179432920609073,0.0117581045539252,-0.0062488382969701,7.176253275975372,3.7835857746363097,1.1791456948220167,1122.007813916818,1131.8847712367283,1127.4763757660692,1129.5013902230767,267.2560168025086,66.6450087683657,203.79841124654808,-302.1874406796151,151.6013291469541
7.3875,0.680329953836111,-1.1206737184738556,0.1901172577305371,-0.0171374224727002,0.0042643593087622,-0.0160733297847411,0.0022555683035178,-0.0017488717032662,0.103114191300884,0.9946653722537354,-0.0218496833456381,-0.0156085100691471,9.826184673471385,-0.0181207263181057,0.0116940403187497,-0.0061913348715624,7.176203146806968,3.7836027227825832,1.1791333739425875,1122.6379019609667,1132.0724487956,1128.0552839518205,1128.5897110071076,204.37603290071357,81.55142215799603,240.22190741930785,-397.7721831552405,151.60243347223948
7.39,0.5236854893535154,-1.0532974372790889,0.3022258285804864,-0.0172595118764529,0.0019720678338362,-0.0149725965990063,0.0022399744102473,-0.0017433200702696,0.1031101782473174,0.9946658329770852,-0.0195781396885252,-0.0166269430153672,9.827977976287904,-0.0182900079074403,0.0116282282505431,-0.0061362994749821,7.176151137310586,3.783619082635003,1.179120940138655,1123.0296940813218,1132.2925283475183,1128.677485303166,1127.5125293073,97.60551463746403,92.84709274029608,254.4360154405749,-461.5435752478887,151.60360019479913
7.3925,0.4185034656213425,-0.9755799947681322,0.3949511906411575,-0.0177626787525061,0.0001734409088669,-0.014013764256998,0.0022317501648655,-0.0017413494991345,0.1031058678993159,0.9946663010027164,-0.0168073901632958,-0.0174595158124802,9.829628167979331,-0.0184469176901747,0.0115604961115012,-0.006083580201277,7.176097902277099,3.78363568365988,1.1791080959660238,1123.125929534154,1132.5366842593016,1129.3274640290233,1126.281993130868,-26.546977154249017,74.34163413381769,207.02076317698345,-412.956667713124,151.60507027698307
7.395,0.4147491253418074,-0.9339415067431548,0.4412316721914504,-0.0178349724462677,-0.0009109326009791,-0.0130525918387679,0.0022300597724952,-0.0017450599811209,0.1031003345766353,0.9946668699092072,-0.0135442516934523,-0.0181174294394188,9.831158029734842,-0.0185876731585819,0.0114902594886972,-0.0060325687188613,7.1760434404010125,3.7836532010257447,1.1790941359004148,1122.8969591955506,1132.6642365181874,1129.7125891190508,1125.4477459687344,-140.4052789805094,20.104489505093145,114.08883062850023,-275.70114960381613,151.60635208997263
7.3975,0.4942246035567201,-0.9230147726025172,0.4592207664697633,-0.0171925430613171,-0.0020579008427951,-0.0116339984558146,0.0022338004377332,-0.0017545683720125,0.1030937453700128,0.9946675240115233,-0.0098456170181652,-0.0186137714748898,9.832590683905,-0.0187089300572132,0.011416792920179,-0.0059824522944365,7.175987863123315,3.783671628328552,1.1790784126978895,1122.4239031392515,1132.637206706827,1129.8979081821656,1124.903487382849,-235.6383720212812,-61.366987786097006,39.99939786922454,-171.7017460953721,151.60769061641105
7.4,0.6654495718767376,-0.9294550254467202,0.4558768496500921,-0.0157946453487908,-0.0039198133708609,-0.0098565288176414,0.0022426528477512,-0.0017696916259411,0.103085135126098,0.994668363974498,-0.0057818538089942,-0.0189466137810432,9.833948766807952,-0.0188079505885637,0.0113393295097324,-0.0059324134410294,7.175931451280448,3.783690814745864,1.1790602888369337,1121.7187673354442,1132.3574015792567,1129.912586108397,1124.5892372382575,-258.3957523202626,-147.8925824839766,-19.4641294970556,-70.98342759141056,151.60935934447832
7.4025,0.8520666683709153,-0.9274079004594352,0.443124574394041,-0.0142336760395151,-0.0060043548456227,-0.0088456353465252,0.0022550886510769,-0.001786241447532,0.1030733851623376,0.9946695160816909,-0.0015114587931505,-0.0191307605657909,9.835254002388979,-0.0188826139198047,0.0112573018766638,-0.0058820580744036,7.175874117781468,3.783710662333156,1.1790412391496343,1121.13192437765,1131.8977437944072,1129.8005875346803,1124.548570244892,-209.62989080035632,-226.72776703012036,-55.30453228775632,3.5711927158445937,151.6107994184832
7.405,1.057951578786954,-0.8830148909225747,0.4356766325364096,-0.0119461569183924,-0.0087809428467028,-0.0084868459917977,0.0022692204212093,-0.0017991385345528,0.1030592199826125,0.9946709186429382,0.0027837014190038,-0.0191879158570852,9.836526679377656,-0.0189314866386214,0.0111705793807531,-0.0058315571352858,7.175815942512844,3.7837310721295134,1.1790230727729911,1120.6706178814425,1131.2237627441064,1129.636063446958,1124.6070932018367,-151.2988867869385,-332.5765122745523,-65.61760240711149,11.604377804724455,151.61228727200807
7.407499999999998,1.2945511521637771,-0.745922772332094,0.4431316153996212,-0.0083950995305806,-0.0125719373634003,-0.0081496291388615,0.0022836809841442,-0.001804326997728,0.1030455545359606,0.9946722808370217,0.0069400012285328,-0.019133985109725,9.837785088958364,-0.0189539222381592,0.0110796208909249,-0.0057816089858599,7.1757572755290155,3.78375147756308,1.1790071253855858,1120.3754299437155,1130.2348612330345,1129.4724995226447,1124.6065921339157,-53.549734040371966,-381.1531366214776,-40.657241390727854,-36.909754287217645,151.6141232220649
7.41,1.460259066741626,-0.5493719175315485,0.4603069441233123,-0.0048340983134831,-0.0154856328931288,-0.0075216571529492,0.0022960434245692,-0.0017977090920574,0.1030346133100291,0.994673386778988,0.0107905504214993,-0.0190083964447435,9.839045085574048,-0.018950182712909,0.0109854665035963,-0.0057332424423729,7.17569863510816,3.783770815339004,1.1789940438583824,1120.4028692112406,1129.317997060999,1129.4327772400045,1124.4225444304009,74.97188709834256,-374.6349405038797,19.712584203895503,-130.8456502365766,151.61569146187486
7.4125,1.5701313494348617,-0.2739524906373563,0.475522785049217,-0.0005376832289341,-0.0175505701914255,-0.0062836581897565,0.0023051393920135,-0.0017785682565618,0.1030251008914351,0.994674375949508,0.0142394457785209,-0.0188360219487291,9.840319130136992,-0.018921578627159,0.0108895729327181,-0.0056873652403111,7.175640694694155,3.783788954254125,1.1789833636351503,1120.7502893792073,1128.3616865305148,1129.5710624436645,1123.9523638827327,191.6246595991693,-382.66423466080494,94.69280043645288,-237.89280682227,151.6172944154468
7.415,1.6222328291463544,0.0464287196941164,0.4766927847178775,0.0042810393107556,-0.0185287269562478,-0.0046021922149261,0.0023147651280998,-0.0017531790859052,0.103016442633425,0.994675287333044,0.0173423306371322,-0.0185623099565882,9.841614985307277,-0.0188703889055184,0.0107938026413595,-0.005644303757855,7.175584411423864,3.783805802270387,1.1789748590166675,1121.3609925092364,1127.404675887695,1129.9062412421868,1123.2330803962896,299.5648430135652,-375.61868417520486,188.10600638362703,-334.8342994264457,151.6189221444618
7.4175,1.6035539189134795,0.3829552519765311,0.4508684827492974,0.0089987000387594,-0.0179485333270509,-0.0028635288313029,0.0023289515082717,-0.001729303102639,0.1030090643199669,0.9946760537757834,0.0201912957710259,-0.0181348299249107,9.84293526655387,-0.0187996623628574,0.0107002898782192,-0.0056036117114283,7.175529952073267,3.783820884105273,1.1789672105382811,1122.248113594275,1126.4835931096388,1130.5115924755823,1122.2781923856005,434.80875617766304,-386.0083792398737,325.20961529440467,-441.7079702639152,151.62057496995715
7.42,1.5160226172032705,0.7511597228293978,0.387333377276516,0.0136402338799464,-0.0154065296493648,-0.0012346948334166,0.0023472201392327,-0.0017110935160305,0.1030035260377788,0.9946766115759504,0.0228073852906678,-0.0175856491348806,9.84427719879349,-0.0187129869879373,0.0106112002534869,-0.0055639896739924,7.175477554145044,3.78383378502834,1.1789589557724796,1123.5350362901247,1125.4746339914957,1131.5322893186587,1121.02454054497,490.5390455352167,-345.22141045991526,409.20873464966417,-447.90973194609296,151.62258159221273
7.4225,1.408033126735038,0.9943375495173524,0.3132210840953003,0.016770214132865,-0.011986735234865,-0.0003503603625827,0.0023682710466446,-0.0016978852459128,0.102999799608692,0.994676968605224,0.0251258209345144,-0.016956188123738,9.845631976092033,-0.0186142929081426,0.0105283400881954,-0.0055233949062222,7.175427164624355,3.783844612393288,1.1789487199950694,1124.7008088219511,1124.7574860573393,1132.5576361488309,1120.03864372587,462.93425770592046,-251.10091481001825,415.139907779994,-350.4397855302688,151.62426921161708
7.425,1.284502278538726,1.1487453628422792,0.2275221197923056,0.0193366361436628,-0.0080408504892741,0.0001195137329696,0.002394829205479,-0.001686378517245,0.1029947955225315,0.9946774437326764,0.0270496093865939,-0.0162057893878681,9.84698394762312,-0.0185077275559569,0.0104526815245256,-0.0054792308875938,7.1753785541283515,3.783854695898965,1.1789366055091899,1125.8497075786543,1124.2191294174456,1133.6079888575587,1119.2723416173187,479.5342013421407,-184.8412621786377,417.18116100119886,-267.05465599298464,151.62596850781296
7.4275,1.131982016698775,1.2336605038022594,0.1220557443811027,0.0219219475318499,-0.0038419590868452,0.0003675625064174,0.0024248765236016,-0.0016715339716163,0.102987603926643,0.9946781432122336,0.028449753728664,-0.0153846029636918,9.848310739005216,-0.0183973378935695,0.0103844308302467,-0.0054284545208267,7.1753314998513975,3.7838654848482336,1.1789229583414549,1127.0984798286615,1123.833279746446,1134.6435419538368,1118.7033704459052,425.2736957981687,-91.1443731118217,301.13904594741786,-151.99067907442765,151.62801654377776
7.429999999999999,1.0016410351370009,1.2365354329398184,0.0371773403511416,0.0241428879673817,-0.0010689490810257,0.0004187458639953,0.0024563122306336,-0.0016519034459645,0.1029803777295352,0.9946788505948456,0.0292792435979136,-0.0145522064145334,9.849582824182956,-0.0182869125128447,0.0103229856314359,-0.0053677470180448,7.17528522603213,3.783878259386829,1.178906900349926,1127.976076057645,1123.7634075518863,1135.1136840872955,1118.5123882219464,310.8458592699729,31.234550930822238,62.19153358815807,-36.52201183790645,151.62972754238612
7.4325,0.8594312278670271,1.1915824809231907,-0.0413849475327465,0.0266903589845005,0.0011703269170386,0.0003912172682794,0.0024905883592096,-0.0016318357246614,0.1029776617939364,0.994679083433508,0.0296234016589706,-0.0137097982766159,9.850763875365024,-0.0181798525314376,0.0102670460810929,-0.0052938321168224,7.175239255607778,3.7838929970074626,1.1788881381660163,1128.6527091250116,1123.9894525011002,1134.9544996217776,1118.5207603867157,250.87977891499287,172.60585182090867,-247.5626172939496,16.241417074295175,151.63143962335067
7.435,0.6652034676551294,1.0999685971793944,-0.1263358892832966,0.0293276864616988,0.0036963059219695,0.0002943226876718,0.0025299424837377,-0.0016167780714896,0.1029821217058161,0.994678550781658,0.0296015930893518,-0.0128436800180956,9.85181266497948,-0.0180790962334993,0.0102147686207157,-0.0052040264370734,7.175193606525662,3.7839095016986826,1.1788667436207327,1129.2304749522202,1124.6264368109912,1133.8758710008256,1118.593595307318,175.01866555758542,293.8648787272149,-546.4071183619242,13.0084784669637,151.6334917550148
7.4375,0.481636968447151,0.9959978513178334,-0.1871165771047604,0.0304895089855318,0.0058548547953527,0.0001371998703304,0.0025746078956066,-0.0016062172761414,0.102993175397829,0.994677312236618,0.0292221864414576,-0.0119648598056445,9.852685743371696,-0.0179869964517494,0.0101640397005511,-0.0050968892872895,7.175148348556023,3.783928197739024,1.1788439173050198,1129.5278024527995,1125.4587768947363,1132.222464029968,1118.5858027790505,83.16182041840142,387.7054991481228,-793.6996750923469,-37.69513935049042,151.6351971622559
7.44,0.2744798910390213,0.8595245253409048,-0.2320263155937046,0.0307104534962192,0.0080530124395672,-0.0001656423874428,0.002623849378601,-0.001596760013001,0.1030082892974841,0.9946756377183494,0.0284437045870811,-0.0110947624601491,9.853339227570004,-0.0179052614072321,0.0101128248056352,-0.0049724485457464,7.175102838932629,3.7839485169179112,1.1788216004101075,1129.6462840543122,1126.5649643067316,1129.907372625364,1118.4051196105656,17.861306146278746,476.51528244028776,-998.8794739910403,-106.55403729788532,151.63689394440033
7.4425,0.0417020215050586,0.6906968230438078,-0.2570620121256921,0.0308341570217532,0.0104572125194969,-0.0006515893529524,0.0026744589156218,-0.0015842582790264,0.1030227626857296,0.9946740297831776,0.027212035483333,-0.0102989791668842,9.853730966525758,-0.0178349619869342,0.0100594707035606,-0.0048322074534266,7.175056160958113,3.7839694370770465,1.1788012047013103,1129.617108983531,1127.8413533069377,1127.2280666600127,1118.053032592561,-49.223098879793866,532.8592968373073,-1099.8954631325212,-176.23880224933066,151.63858036258523
7.445,-0.2359576900821015,0.4805435335228478,-0.2477757924745244,0.0314118091990128,0.013022459638996,-0.001409403470386,0.0027212059178312,-0.0015680488364001,0.1030361155351942,0.9946725531882438,0.0255429995654018,-0.0096876596144915,9.85382240241438,-0.0177765401320102,0.010003133316911,-0.0046788619762569,7.175008435137433,3.7839897240531215,1.1787841678304218,1129.4001685599133,1129.2292607909183,1124.4078953097016,1117.5239255993188,-140.43040403990133,609.5756753404787,-1190.1797828591295,-252.34139259360367,151.64024988654623
7.447499999999998,-0.6321981604720835,0.195128959694887,-0.1844575633095614,0.0325233876884078,0.015196471211583,-0.0025812072430056,0.0027602314068715,-0.0015519410400931,0.103047942642733,0.9946712542938084,0.0235472752768267,-0.0093509752559173,9.853580423137533,-0.0177300801686749,0.0099436477642099,-0.0045159784121083,7.174960043336526,3.7840086183501698,1.178770856901298,1128.9149569633314,1130.88923168364,1121.2771677457174,1116.791325629593,-212.13704129700545,588.2811497299951,-1049.426578075258,-263.1332940987306,151.6422274443069
7.45,-1.0033495406506778,-0.0443253063231934,-0.0833526110170215,0.0326512575013096,0.0155497972301627,-0.0035687253947662,0.0027934918760774,-0.0015418600372202,0.1030568832532386,0.994670258815856,0.0213919313510955,-0.0092674785686735,9.852979105467073,-0.0176954787770888,0.0098813569976903,-0.0043476854339307,7.174911766438174,3.7840257102635566,1.1787607273227605,1128.3394833534282,1132.170666539568,1119.1607624193255,1116.2082591288251,-252.89214286418112,470.1466663953572,-693.3341310101977,-200.71760465604305,151.6438487438518
7.4525,-1.3699346895423767,-0.2447609019149036,0.0645462943577155,0.0301031605878249,0.0141850315996931,-0.0040592350975776,0.0028240735120934,-0.0015421325911451,0.1030630407457202,0.994669540682867,0.0192168974189417,-0.0093888316864786,9.852001545295522,-0.0176724648664003,0.009817040111129,-0.0041782757402742,7.174863969944761,3.7840407670641665,1.1787527336390784,1127.6504962490103,1133.2399650156171,1117.8104970906659,1115.7877376063127,-303.48891921708594,401.510057298728,-388.6840451353775,-122.63979871813979,151.6454356967627
7.455,-1.725802814322602,-0.4020262433461725,0.2803745514811929,0.0237209137650054,0.0111439443468467,-0.0038425878585084,0.0028524369450556,-0.0015519620556026,0.1030675129016597,0.9946689859432166,0.0170572125386455,-0.0097063380815983,9.850640990594451,-0.0176606205204898,0.0097516550485353,-0.0040119271083818,7.174816481905303,3.7840537132463834,1.1787460991420795,1126.8220387573429,1134.1782168260615,1117.2173421936486,1115.5950601352347,-282.1793647507153,277.37360244246383,-49.65305471282696,-7.252219568499795,151.64729205999467
7.4575,-1.904244001070276,-0.4552708152584232,0.4758713959217301,0.016886392970166,0.008457679275485,-0.0032034979741927,0.0028792688858095,-0.0015680830998,0.1030706940944602,0.994668557106623,0.0149000107816985,-0.0102002993043514,9.84890055482648,-0.017659463091792,0.0096859598325129,-0.0038524312428686,7.174769397297822,3.78406482670988,1.1787404307952467,1126.2395994252568,1134.6268330278294,1117.5622318171015,1115.7514765084702,-189.36533562924015,108.35514994664896,280.8343527080129,134.34211859749044,151.64879337664627
7.46,-1.9377313890350871,-0.4463109097821539,0.6643939597200321,0.0099481137997759,0.0068661627436634,-0.0020275144738623,0.0029029684444835,-0.0015877099562483,0.1030708107877797,0.994668447237282,0.0127364958696752,-0.0108949938824069,9.84679280292416,-0.0176685105071904,0.0096202130067781,-0.0037029294817257,7.1747222141550635,3.784075261553924,1.1787347364624867,1125.8752120791967,1134.719992575795,1118.6215139571887,1116.266770728222,-99.97805571579404,-31.11615980910822,569.1989246711395,309.260823240181,151.65024188654965
7.4625,-1.835406555895792,-0.4077686496797816,0.8511665489639674,0.0030989475530416,0.0065853974685337,0.0004153645775734,0.0029224418587075,-0.0016055793955925,0.1030668591530853,0.9946687720086645,0.0105090664873026,-0.0117976855543917,9.844339135742963,-0.0176872234892599,0.0095540898139544,-0.0035660509970546,7.174674716655425,3.7840858958916703,1.1787289714543383,1125.7397091466776,1134.471252228784,1120.4082264404572,1117.297780624671,-3.551265744317864,-137.7057660056864,688.4173233132207,442.7367253865308,151.65191464591695
7.465,-1.6747122631499518,-0.3826623113449387,0.9512175076464044,-0.0004808311182942,0.0071849523609014,0.0033558010001004,0.0029386835103086,-0.0016189215296468,0.1030595850761553,0.9946694556954688,0.0082113824505472,-0.0128773725480198,9.841568426299762,-0.0177150596295644,0.0094867066809787,-0.0034438058102832,7.174626463690937,3.7840978442086546,1.178723087642939,1125.857455750475,1134.0314637457664,1122.0636005737547,1118.4804543551547,79.72297796395821,-205.3589559552209,638.5648377292591,531.18310422484,151.65325210000623
7.4675,-1.492220634987003,-0.3812492469116021,0.9751435000267707,-0.0025172700561893,0.0073883665945899,0.0069225830047342,0.0029514049876856,-0.0016263609855422,0.1030528026464033,0.994670106306007,0.0058594815734791,-0.0141282120234947,9.838516147649548,-0.0177514803575966,0.0094168440057385,-0.003337642822035,7.174577758012785,3.7841115188524586,1.1787169985557102,1126.1383240364976,1133.4444574490078,1123.6010506291036,1119.9536961457952,138.96113637124768,-274.11807610456566,601.1807787940271,698.4772797181598,151.65453001716557
7.469999999999998,-1.2893119765388115,-0.3983249686484647,0.9161691779393428,-0.0050363760582568,0.0063960799001462,0.0110211387636773,0.0029591290885999,-0.0016250458569345,0.1030501534475577,0.994670355781562,0.003435412902265,-0.015561455398322,9.83522324290644,-0.0177960150413061,0.0093430837302913,-0.0032486242253235,7.174529369482936,3.7841265876223247,1.1787113161912908,1126.5522614323313,1132.6608733652436,1125.0695044677248,1121.9728407537455,151.2688224016106,-293.41024433447893,458.3170654873,764.2690654556353,151.655995514614
7.4725,-1.1431900189978244,-0.4135067080782161,0.8112585131083678,-0.0075809332862757,0.0050002898066158,0.0134698655620173,0.0029609936059894,-0.0016159208328482,0.1030529005721871,0.9946700741674348,0.0009937963255534,-0.0171807383204808,9.831734407760461,-0.0178482852897217,0.0092639761031367,-0.0031772777873064,7.174481677623583,3.784142321707004,1.178706388705318,1126.8946681485056,1131.9774062273355,1125.89263595654,1123.775041473073,129.03457351524395,-280.0839183348688,246.61444715544127,717.4839054937607,151.6571619113166
7.475,-1.0190383218647203,-0.4150521959874597,0.6818902837450918,-0.0100376536646253,0.0036967928086279,0.0146720525771812,0.0029569482918184,-0.0016012542023742,0.1030580068805914,0.9946695725013044,-0.0013864966498058,-0.0189734058620853,9.828096896000615,-0.0179079037673509,0.0091781324868515,-0.0031236436813873,7.174434682801532,3.784157821760768,1.1787022063651489,1127.1974342999076,1131.2604537735692,1126.302576703502,1125.5602602812148,116.18916292909736,-297.77886564352866,108.69275692539536,687.233093138062,151.65827477676532
7.4775,-0.9084406712035176,-0.3990540951961503,0.5566858397858734,-0.0121953218282214,0.00255148527875,0.0151368701573389,0.0029470041973793,-0.0015840054384647,0.1030620731758662,0.9946691988249016,-0.003616646261648,-0.0209243507636716,9.824359244893005,-0.017974270510273,0.0090844198059607,-0.003087214344539,7.1743878218497725,3.7841727824372873,1.1786978496966372,1127.475613963151,1130.4885118991178,1126.436099741167,1127.2112069387636,113.86314008950892,-330.8506137948896,11.224693902750245,600.2446434052346,151.6593460336777
7.48,-0.8066354061360883,-0.3581916103511696,0.4541202097125354,-0.0141523397934944,0.0014204276944713,0.0151950747566441,0.0029290974944726,-0.001565452696335,0.1030633362773687,0.994669141016558,-0.005648943727629,-0.0230534095532664,9.820570128253635,-0.018046450447682,0.0089820121474264,-0.0030669823568158,7.174340682885832,3.784186769008611,1.1786923386947437,1127.7667500003552,1129.6062007045948,1126.358700173016,1128.5614834982407,144.61181171768965,-422.1295535592252,-51.30667924440896,496.2654850800496,151.660369972745
7.4825,-0.6829421426383472,-0.2796273733940343,0.3588315523973895,-0.0164923736873179,0.0001356108874267,0.0155574356745969,0.0029049584310568,-0.0015464974688568,0.1030624015775658,0.9946693311317808,-0.0074396691049559,-0.0253038616117873,9.816776994895294,-0.018123185847973,0.0088703124049831,-0.0030615827664468,7.174292471929504,3.7841999349867033,1.178685581488251,1128.1986730217395,1128.3778641313215,1126.1795663449448,1129.6925343641635,178.84536743991174,-479.0986814285236,-63.81455312416755,320.3172128327492,151.6615468961263
7.485,-0.5708589037162615,-0.1927894557323979,0.2911127376289008,-0.018365110053366,-0.0007765875779764,0.0162983547732073,0.0028803551248348,-0.0015307025011521,0.10306287646407,0.9946693739395764,-0.0088895339332762,-0.0275446052174742,9.813025116349252,-0.0182030062417378,0.0087489150720289,-0.0030693593097165,7.174242932539732,3.784212931531149,1.1786775190650538,1128.6609768375547,1127.2107072974522,1126.039627407395,1130.1630695624046,204.01619849581476,-486.90061649405055,-47.767391065282126,85.71689373593654,151.6624860394585
7.4875,-0.4446745104131878,-0.0930382927680446,0.2159484106899943,-0.0196122274694259,-0.0014316498110474,0.0171783673580394,0.0028618579491075,-0.0015220072585956,0.1030649509075791,0.9946692250678753,-0.009894720462298,-0.029629621436207,9.809357065441251,-0.0182844833662756,0.0086173967708777,-0.0030885968574643,7.174192414994341,3.7842262759754406,1.1786683340548558,1129.2187540142183,1125.9433610488516,1125.9407293896184,1130.1211188328434,247.37126602045083,-554.5669123454563,-41.366773031223566,-127.73373874420304,151.663383134026
7.49,-0.2756222340418829,0.0238841218813311,0.0968778847831474,-0.0201036741718177,-0.0017050211506568,0.0180861450934601,0.002849634612354,-0.0015199817690453,0.1030679500896117,0.9946689539103026,-0.0104540456618334,-0.0315298202630446,9.805812350520512,-0.0183662813803445,0.0084755383096161,-0.0031177902719476,7.1741416801954765,3.7842403233610047,1.1786581875799695,1129.8978331676567,1124.437872735725,1125.8327935422387,1129.5244008686836,225.05581139376343,-522.0167433613026,-47.5063019157925,-293.9583498997371,151.66441151039695
7.492499999999999,-0.1161262434866601,0.1027283521388692,-0.0365684675429084,-0.0202946944231036,-0.0013929899765046,0.0187660036400549,0.0028403271167562,-0.0015204034447687,0.1030722179950744,0.9946685404572564,-0.0106516456968862,-0.033278782905479,9.802426954446233,-0.0184471742217378,0.0083235150759324,-0.003155812851224,7.174091079224786,3.7842546258675296,1.17864832817275,1130.3440330711871,1123.333277332045,1125.7031978800396,1128.6513270833448,116.4190870446898,-374.4444471140548,-71.32511514510195,-399.95429762066976,151.66522814556723
7.495,0.0736723541079533,0.1430078148972627,-0.2095160923506891,-0.0209351086109112,-0.0007320275556544,0.0193279841082398,0.0028321184250062,-0.0015201545726921,0.1030788725393057,0.994667879326099,-0.0105508990459366,-0.0348847224333305,9.799233072032008,-0.0185260622018975,0.0081619780561468,-0.0032018376961829,7.1740401143637245,3.78426823164356,1.1786391324543457,1130.4799286028804,1122.5656505001548,1125.4761679665135,1127.5246293805803,-51.583176510886126,-224.62214397279368,-133.2348734165199,-518.8612577695137,151.6660019517392
7.4975,0.3456931620927702,0.129917654237426,-0.4518781234161106,-0.0217620527224341,0.0001913911689457,0.0193940173530825,0.0028230058926961,-0.0015177034822736,0.1030901084611921,0.9946667517708344,-0.0101883241609054,-0.0363660802982964,9.796259136449235,-0.0186019713531754,0.0079921064598775,-0.0032552251394265,7.173988527021317,3.78428053974818,1.1786303764102917,1130.086117188633,1122.2101666121807,1125.0370235129567,1126.0570207944968,-255.1249170022456,-21.866410896973782,-195.9033561081511,-534.4594465417799,151.6668792168935
7.5,0.6033938678220387,0.0610805112764396,-0.6629252769503027,-0.0219857509888463,0.0009427017333175,0.0185943830856507,0.0028161394758132,-0.0015148558740122,0.1031038774687609,0.9946653565752184,-0.0095280774816387,-0.0376519478269291,9.793529873899853,-0.0186742181082147,0.0078153144667311,-0.0033154149519443,7.173936599027408,3.784291738408824,1.1786221314018044,1129.2043040178692,1122.45631844567,1124.4966511859727,1124.8523321478715,-467.53663421096553,209.58247344256495,-260.39860488299934,-459.28558964566093,151.66756593581468
7.5025,0.8653291177720714,-0.0680409767389455,-0.8484444896689209,-0.0210492404299285,0.0015059946640867,0.0165908108370342,0.0028152271854226,-0.001513896664458,0.1031200459182341,0.9946636916661304,-0.0085270183446384,-0.0386665483039371,9.791066435561524,-0.0187423517573656,0.0076334121235473,-0.003381878393665,7.173885263221826,3.784302097960597,1.1786141903073524,1127.748434017578,1123.2580789793935,1123.735030488542,1123.7605928462683,-658.8351036982799,397.9311544545083,-345.9800885054011,-411.3092093314296,151.66820447071535
7.505,1.0959392354779047,-0.2405180625475893,-0.9841561711787326,-0.0186270901937758,0.0017011127692448,0.0135079347965098,0.002821092479154,-0.0015173839605246,0.1031376477902172,0.994661849854846,-0.0071451958543565,-0.0393963676018873,9.788886378830256,-0.0188061783390321,0.0074484392577223,-0.0034540110701102,7.173834906702372,3.7843115940608727,1.1786056895339625,1125.9101284993778,1124.4459742179424,1122.7667507434455,1122.7957861012144,-785.2868063459649,537.4485306529209,-437.80309229433453,-354.6498869667251,151.66880122406172
7.5075,1.2413331701843613,-0.4489107768130992,-1.0335629263162731,-0.0144683353134223,0.0010845433893917,0.0095416511174302,0.0028312544779746,-0.0015258555608396,0.103154496577888,0.9946600636028764,-0.005391052226656,-0.0398938547916305,9.787003719568665,-0.0188656403371021,0.007262564553573,-0.0035312217429335,7.173785684356228,3.784319991988232,1.1785960691762756,1123.8219999858484,1125.9453216326583,1121.5460150270703,1121.9873434114347,-909.1359255945656,683.7614092956446,-584.8677026816983,-324.1947975119798,151.66934513331108
7.509999999999998,1.2717636845182747,-0.7124231643624218,-0.9838625974012531,-0.008690409255372,-0.0007327567209313,0.0050762642360276,0.0028423097349713,-0.0015387813435574,0.1031683725435108,0.99465857370546,-0.0032979333566935,-0.0402328757505609,9.78542893496583,-0.0189206588949879,0.0070780037839958,-0.0036130168261646,7.173737286995611,3.784327096146741,1.1785854353380254,1121.364448871405,1127.8647812644203,1119.842412230037,1121.1748121136543,-845.4825180462828,688.3239206627569,-645.8373248566796,-276.1810255410241,151.66993322657152
7.5125,1.166090953081289,-0.922194676340715,-0.8649740516558878,-0.004278467025605,-0.0029859178136577,0.0022876375556212,0.0028549787977066,-0.0015559274358092,0.1031774033642606,0.9946575725754334,-0.0008872750714891,-0.0404129240424757,9.784168952307857,-0.0189710171919707,0.0068968644147438,-0.003699116480347,7.173689004488607,3.7843330819964582,1.1785746024099466,1119.594587395617,1129.386941235972,1118.3168284027868,1120.6064382837299,-607.9387338549582,555.2552826889083,-596.7397564133511,-209.08211983643383,151.67036667897753
7.515,0.9389090211082836,-1.1006287360943843,-0.6972030187844515,-0.000832918905325,-0.0056921873736148,0.0006060723364471,0.0028688914911522,-0.0015762554450248,0.1031821242751353,0.9946570075840404,0.0017993071021426,-0.0404578779790495,9.78322703243876,-0.0190162643024727,0.0067211295681418,-0.0037894907183723,7.1736407866209495,3.7843376118999807,1.178564599446431,1118.3247552021298,1130.6410576778655,1116.85871344797,1120.129401514472,-421.8162642193964,457.07994667796874,-572.5848124092075,-192.04498550835024,151.67073776519467
7.5175,0.5684320190088785,-1.2603221602658232,-0.4802098188624522,0.0021117333430658,-0.009142071354182,-0.000401346321941,0.002881594160778,-0.0016003009456063,0.1031837947716558,0.994656754851339,0.0047444031874564,-0.0404392717375448,9.78260244406716,-0.0190557577276486,0.0065524738094456,-0.0038841805869836,7.173592611450938,3.784340774416037,1.1785557886816764,1117.48550607452,1131.6723409693618,1115.453904340741,1119.646213356188,-197.77704296903232,283.8029140170935,-416.17185718165246,-164.67510478969768,151.6711068262888
7.52,0.2205275031462704,-1.337020177499027,-0.3109515043232521,0.0033557324003167,-0.012289567795543,-0.0006691557429458,0.0028928120224899,-0.0016308360958951,0.1031861871765779,0.994656419822572,0.0079761577198346,-0.0403936586116373,9.782290107138127,-0.01908866824575,0.0063921609373606,-0.0039831250831036,7.1735444748293595,3.7843428904560175,1.1785486566458128,1117.3358699872847,1132.0600722479508,1114.7778541620619,1119.3060259905235,29.916652238626465,48.22106102451574,-124.16158163782976,-127.72385036501235,151.67134818683385
7.5225,-0.1100389427428038,-1.34289989859348,-0.172442293928203,0.0031135319797033,-0.0156866776673417,-0.0006271080928099,0.0029023738811162,-0.001668628078891,0.1031902841165211,0.9946559005596424,0.011481940364668,-0.0403530985040922,9.782280333643524,-0.0191140315394226,0.006240741942913,-0.0040860439726063,7.173496326006124,3.7843447396849914,1.1785434961939079,1117.6350893357132,1131.9134462744844,1114.8330964325519,1119.007594104363,192.69319971358937,-188.5560109924467,224.15327187978184,-130.47640313771177,151.67151822472658
7.525,-0.4204698686914437,-1.2564534075879004,-0.0498605673403914,0.0009898003187158,-0.0196319546083914,-0.0004436272472083,0.002910298393413,-0.0017111084062374,0.1031930273300374,0.9946555189235832,0.0151828186292474,-0.0403393023266456,9.782558440659471,-0.0191307600529431,0.006097967379838,-0.0041921824627124,7.173447483915115,3.784346549471727,1.1785395357437627,1118.2993359858526,1131.1172921929888,1115.8986205214608,1118.6536439748352,262.04061138287767,-389.894939150926,559.8181206724921,-137.56513979738267,151.67163747072007
7.5275,-0.5693299432260758,-1.100554530567285,0.017158426576411,-0.001890152888538,-0.0226748948057294,-0.0002756998355832,0.0029143224704942,-0.0017524310667921,0.103193944111027,0.9946553403260135,0.0189294159277283,-0.0404106328744323,9.78310427443946,-0.0191376065643026,0.0059631029626639,-0.004300025025474,7.1733975549283056,3.784348409552011,1.1785352353035827,1118.9452923926276,1129.9639715787296,1117.6321870359143,1118.319768405376,247.4354494831512,-549.9108981003363,846.5516595147345,-152.77784420377756,151.67166492508247
7.53,-0.5826695684953078,-0.8536946601759243,0.0543296664315464,-0.0049541088007787,-0.025379881747265,-0.0001452224164166,0.0029122069712325,-0.0017882327958009,0.1031922073035012,0.9946554646711524,0.0225997224849178,-0.0406254780051709,9.783891435595667,-0.0191333620313824,0.0058348930462369,-0.0044070350847793,7.173346491572931,3.784350988793877,1.1785285325946135,1119.5365132332684,1128.3677377024871,1120.1313788190344,1117.8897547538163,216.6974593988062,-697.1553268150424,1094.205331580111,-195.8867608094848,151.6716167818163
7.532499999999998,-0.4887476374189223,-0.5320853215203439,0.0733671867183994,-0.0074343015398578,-0.0275539113420053,-5.563140968381925e-05,0.0029038140221424,-0.0018202812526046,0.1031872966329105,0.9946559421881904,0.0261942018012967,-0.0410100780816604,9.784886521127005,-0.0191170409150437,0.0057117167739144,-0.0045096641516733,7.17329448590275,3.78435438026153,1.1785174676452532,1120.0287796896216,1126.4781949446547,1123.1032136938147,1117.3403346013288,178.1299686708773,-802.8208077285569,1252.2239497309595,-255.91925688436825,151.67150564496046
7.535,-0.2931545340226228,-0.1276580912437554,0.0783301746896709,-0.0086819008622605,-0.0287026589113316,-8.572495407802543e-06,0.0028910049943517,-0.0018487289203281,0.1031796092675075,0.9946567254578949,0.0296854438094483,-0.0415439479572151,9.786049865258446,-0.0190879531476094,0.005591785097161,-0.0046041115312206,7.173241389858769,3.7843580459364334,1.1785021285162343,1120.4271630766227,1124.3536336638444,1126.392498567689,1116.6101584693945,181.1964715789771,-952.2734550324333,1452.1481413340102,-366.3226010808895,151.6713186713691
7.5375,0.0099661876495835,0.4355950922963853,0.075984198500665,-0.0085504815111709,-0.0286687529020789,1.662277667874394e-05,0.0028764719269438,-0.0018703110031723,0.1031714974283157,0.9946575688103418,0.032981393059593,-0.0421783470325752,9.787336408264068,-0.0190458182428692,0.0054733417979875,-0.0046869835008259,7.173187757514577,3.7843617156672607,1.1784832282676199,1120.9347620475166,1121.7168276694915,1130.363954400486,1115.508721595924,220.20215866796676,-951.4734200337645,1414.8932024659944,-436.60130722156305,151.671007418794
7.54,0.284757800974462,0.9519315190495256,0.0707789388957568,-0.0074379927471738,-0.0274172902782257,2.5774238963518367e-05,0.0028630246271776,-0.0018811073062629,0.1031639079349458,0.9946583741519732,0.0359787298440392,-0.0428550532529954,9.788696575172018,-0.0189909499100789,0.005354635310532,-0.0047557337210123,7.173134266886133,3.7843650996679927,1.1784622862224456,1121.5281738699623,1119.5962665636755,1133.4669645800188,1114.4271519332867,305.54394264377805,-795.9248922388892,1157.1128545447907,-450.1429224581085,151.67067666691867
7.5425,0.5517369731855905,1.4901356148303977,0.0637648041919625,-0.0059569165859368,-0.024747417712239,3.764744101630031e-05,0.0028561080404521,-0.0018782878831044,0.1031544791837154,0.9946593769388256,0.0386029476903163,-0.0434604322457527,9.790077620704889,-0.0189243442984499,0.0052338602536201,-0.004809004014252,7.17308163017014,3.7843684481568154,1.1784408817481995,1122.4624817607355,1117.7372032082972,1136.1495186732095,1113.2580069836335,508.59749231259406,-719.2318276081704,1056.8747835609652,-502.72608811948146,151.67027359471135
7.545,0.840470211445718,2.123581452273912,0.0517087298714198,-0.0038412506878148,-0.0196614466311799,6.791139032305305e-05,0.002860158385149,-0.0018604544298676,0.1031425167824011,0.9946606399089316,0.0408080849870688,-0.0438974348039814,9.791425326958132,-0.0188475766551539,0.0051093946004248,-0.0048467607270979,7.173030508216952,3.7843719059096914,1.1784200790923278,1124.0711613315254,1116.0001074256347,1138.7513384978236,1111.9135214926891,664.1148734083032,-531.8058985547509,846.417169755541,-454.4738940732356,151.66970902659966
7.5475,1.0421743550265095,2.6111603896065807,0.035640992259677,-0.0016664101930952,-0.0138006456123915,0.0001112280700994,0.0028805226686511,-0.0018310743149734,0.1031287227863029,0.9946620676171936,0.0426481734555502,-0.0440554225528172,9.792685442611807,-0.0187626905468325,0.0049797922465818,-0.0048701564859715,7.172981223270513,3.7843757809986815,1.1784006084485934,1125.7830561277767,1115.0781737155237,1140.3816045219871,1110.9856375132674,727.1844542066145,-239.9360816607492,547.7488444212785,-296.2827261651518,151.6691735937849
7.55,1.1890646264735427,3.023012506278772,0.008272210519758,0.0012435102190844,-0.0064358322694907,0.000169761008111,0.0029154692020762,-0.0017930494399267,0.1031139164303655,0.994663571767373,0.044155859574811,-0.0439552131506828,9.793806105615712,-0.0186719267050523,0.00484384272732,-0.0048815230587839,7.172933634207016,3.784380076987684,1.178384064199054,1127.7070836025584,1114.8004270173312,1141.49008271993,1110.4321078618636,829.7731268500406,38.74359271908443,383.3345652572543,-123.53675699373788,151.6685741860412
7.5525,1.2873621931088135,3.399617214210133,-0.0440879927354827,0.0055843425184365,0.0034651145215533,0.0002339733420165,0.0029604721012592,-0.0017487778640321,0.1030981155303369,0.9946651566963508,0.0453524816585768,-0.0436663446075875,9.794739527434404,-0.0185774897907783,0.0047005484756429,-0.0048840539620442,7.172887669048258,3.7843845269848697,1.178371712742039,1129.931921762027,1115.271891679119,1142.2982773482736,1110.3679537282987,746.7836562228217,307.13942517832686,220.43814925200888,91.63620949180051,151.6677856209817
7.554999999999999,1.2999563101354317,3.6018662596826534,-0.1080021606621362,0.009398184239897,0.0121196124346179,0.0002457224300715,0.003012090025387,-0.0017011789073141,0.1030817923450007,0.9946667766584936,0.0462756673710775,-0.0432344804799222,9.795443153681187,-0.0184813208175482,0.004549179646673,-0.0048812509066994,7.172843024040128,3.784389053629925,1.1783636236651167,1131.4410018836725,1116.3361241432228,1142.59227346619,1110.8902889093226,473.44828431506454,552.7823854106491,45.525299155179766,331.2893751792742,151.6670746176512
7.5575,1.2469515736553745,3.6797155436618896,-0.1954504082207127,0.0126845169256772,0.0208132079463974,0.0001402606817816,0.0030669991813263,-0.0016516523879697,0.1030664397197402,0.994668283571826,0.0469372191676733,-0.0426970913129175,9.79588073592598,-0.0183848890232353,0.0043893249700901,-0.004876367774513,7.172798793311926,3.7843928153147814,1.1783585550346984,1132.2991631836023,1118.0358036061723,1142.5259038440495,1112.024400604195,206.8960395738617,765.9420322894841,-88.09430318031886,544.3415104221517,151.66631265342053
7.56,1.1507170310962895,3.6502842203266246,-0.3015457008124255,0.0154797196230987,0.0295972108864327,-0.0001402850015767,0.0031206732756268,-0.0016006042963806,0.103052778716979,0.9946696156494038,0.0473303007301252,-0.042111063313447,9.796022607845096,-0.0182891326741671,0.0042208197911254,-0.0048718530861248,7.172754191962446,3.7843956670185785,1.1783537428865187,1132.475482081542,1120.1658343046709,1142.1518019502882,1113.6119964614338,-100.57860951920009,921.6505481971321,-232.76617859010497,716.3193080759963,151.66551206846313
7.5625,1.0173102302284616,3.4870540956043206,-0.4248455681417133,0.0179226113751669,0.0386522899259133,-0.00073951463177,0.0031713350258703,-0.0015459304987666,0.1030419899529055,0.9946706593264508,0.0474071495935101,-0.0414738202327117,9.795845936320163,-0.0181944849311521,0.0040436950711829,-0.0048691739043429,7.17270914102443,3.784397588646804,1.1783476859949351,1131.7962701360063,1122.6440563471579,1141.3620729510988,1115.6059971445748,-467.00334871198805,1119.4935805796615,-455.9545180319316,920.0277865760397,151.6646690559034
7.565,0.8314325837464134,3.137214163941852,-0.5803256617205099,0.0204757866246622,0.0494228956780407,-0.001928687186946,0.0032219191689735,-0.0014861949655778,0.1030346263365498,0.9946713492149568,0.0471444289402829,-0.0406924959195618,9.795334064591763,-0.0181010303379738,0.0038580657903668,-0.0048687534484211,7.172663951745226,3.7843990939261754,1.17833952749427,1130.140465337982,1125.763302207569,1139.8720293601286,1118.212135394314,-701.7566305754067,1131.4605281699428,-639.4107184552149,947.8275511382636,151.66361340783345
7.5675,0.6661375983020004,2.729379358417109,-0.7037488981219067,0.0221560095434887,0.0575394563590629,-0.0032910226785454,0.0032708939192939,-0.0014198004975733,0.1030306260292708,0.994671697244334,0.0465079564987972,-0.0397622978129943,9.794476362075889,-0.018008588126066,0.0036641992524631,-0.0048702145675275,7.172618692514401,3.784400544447761,1.1783284515321426,1128.2874869831292,1128.3013589880075,1138.1650193588227,1120.3451349002662,-767.677143514009,968.4256509073955,-768.4582813698563,794.8438692861315,151.6627004280832
7.57,0.5015202632491491,2.232961485744377,-0.8029946198478332,0.0231781790773619,0.063793746286959,-0.0049486904867695,0.0033159186585369,-0.0013477469130336,0.1030292850602867,0.994671781066361,0.0455133474082391,-0.0387019711706218,9.793267786901076,-0.0179168099301084,0.0034625158836593,-0.0048726894620091,7.172573225030838,3.78440206694716,1.1783137855450818,1126.302079620412,1130.605430462106,1136.0297379532794,1122.1863547407445,-817.6039106167254,939.1259327362803,-1007.335309984704,696.5759111717638,151.6617567135077
7.572499999999998,0.3129419850604369,1.5872867311668286,-0.870292203138271,0.023660599385267,0.068726549581467,-0.0073677312020748,0.0033549465854757,-0.0012708818638881,0.1030296778229273,0.9946717017959952,0.0441742639632567,-0.0375279994543639,9.791709438492013,-0.017825204897725,0.0032536687204685,-0.0048754227384904,7.172527940032982,3.784404044971784,1.1782957101111102,1124.1994674300458,1132.9969886516888,1133.1283428088996,1123.8280144561247,-671.4638146323665,813.1689775772603,-1089.7159338584747,487.14382055064686,151.66059278547215
7.575,0.1626799150148191,1.0453451238957263,-0.8648374835972413,0.0237396315115475,0.0709824121001482,-0.0098080637133473,0.0033867750296641,-0.0011885721886385,0.1030300648622364,0.9946716451928496,0.042477483930489,-0.036242335424876,9.789809124499527,-0.0177331612593207,0.0030386245553928,-0.004878346953771,7.172482801715593,3.7844060919312144,1.1782750988502704,1122.9447605472503,1134.671275349992,1130.5811582839872,1124.6220738434977,-359.270984637886,613.4890705945912,-1008.9770633074536,193.63075485204416,151.65959935647675
7.5775,0.0098403591713869,0.5327012629007292,-0.7768296364707546,0.0236977036181591,0.0718929051598175,-0.0126490728807383,0.0034133991983594,-0.0011000909886188,0.1030284808431012,0.9946718099053736,0.0404146048558756,-0.0347905982715213,9.78758171049127,-0.0176399803600486,0.0028187648602349,-0.0048824764976059,7.172436833833638,3.784407341980765,1.1782538821089374,1122.403112506856,1136.064434004662,1128.0834574923615,1124.796168230385,-65.19976275190086,564.2697856192292,-1056.234577539021,-48.67974683529714,151.6585845466956
7.58,-0.1955035461178795,-0.0293295706908691,-0.5674049533326231,0.0236786165808954,0.0719824820900915,-0.0159958783161613,0.00343362379407,-0.0010017930581836,0.1030238019900399,0.9946723215381558,0.0379142650476612,-0.0331819722246084,9.785050111779555,-0.0175449360267723,0.0025960158793413,-0.00489021146621,7.172390038232401,3.784407101303952,1.178234808768732,1122.6187617334908,1137.4926242780882,1125.299985396292,1124.3786751093212,204.4164332382977,490.9857774762818,-974.3131925330298,-232.19095939121456,151.65734520841187
7.5825,-0.3989880326599987,-0.4493737061032463,-0.3147905660895979,0.0237258728719931,0.071420561174293,-0.01811971948022,0.0034476920835072,-0.0008924670226115,0.1030135867644904,0.9946734348777334,0.0349562320039873,-0.0314105187851052,9.782245060038964,-0.0174475293788917,0.0023726790275382,-0.0049050335320345,7.172342175449373,3.7844052909730017,1.1782199478712243,1123.4251946730476,1138.5193628920435,1123.2118915296965,1123.6352134334293,406.2452058342928,375.5563621173304,-788.4603482442058,-342.05364072305014,151.65629654005767
7.585,-0.6450717670057339,-0.8190017388534707,-0.0096604957798948,0.0234951759223782,0.0701791645241112,-0.019052076746054,0.0034594509491867,-0.0007789998452194,0.1029976642389316,0.9946751465442476,0.0316861943405389,-0.0294254986836429,9.77920466783245,-0.0173477467866502,0.0021514343901447,-0.0049308463846769,7.172293850956599,3.7844018029404287,1.1782092219809899,1124.6499877626622,1139.3704060886748,1121.3576836550712,1122.668406905706,514.1143450143882,301.7266089547839,-710.3484099332187,-395.5871029213624,151.6552336216574
7.5875,-0.9223856591828926,-1.1450977005759937,0.3072765699205813,0.0226259248295557,0.0682233259982793,-0.018830975669603,0.0034709457245076,-0.0006686417599765,0.102977797177683,0.9946772592046548,0.0282548953949663,-0.0272212697598501,9.77597526650753,-0.0172461749770598,0.0019352414243842,-0.0049716333986629,7.172246007663275,3.7843971074300335,1.178201134407854,1125.9957663981195,1140.0279959368174,1119.6601494800304,1121.6572779188225,512.3453487240222,198.7867443136153,-650.5324290642104,-386.495820416948,151.65416037612553
7.59,-1.2173533766004458,-1.4116380088638163,0.5950651404168461,0.0206674149513464,0.0652164527692929,-0.0171590890593061,0.0034816087752065,-0.0005666936876808,0.1029562520385748,0.994679535344923,0.0247723498077537,-0.024848196896074,9.772610877204965,-0.0171440647957263,0.0017271685177594,-0.0050310219835484,7.172199583225887,3.784391700438975,1.1781941478091051,1127.2117145062823,1140.3643398102429,1118.1050215097503,1120.7359278036213,448.74873800264186,52.78681451982378,-655.0403553347363,-359.0463108003027,151.65307626263458
7.5925,-1.550920024978858,-1.649638351401629,0.8562188906875924,0.0169442094381604,0.0604722359938278,-0.0136364879828304,0.0034894211588092,-0.0004738694578974,0.1029352509964052,0.994681750669483,0.0212597034450972,-0.0223842722326977,9.769172019199187,-0.0170432389826885,0.0015302631122867,-0.0051120497437643,7.172155242149788,3.7843855310634607,1.1781882283047176,1128.2395100881326,1140.2919300094163,1116.3849477033568,1119.862046364821,282.62971298291325,-114.49374022872932,-600.064990040086,-272.45231894417554,151.65176453939594
7.594999999999998,-1.7763221624262453,-1.771827267210532,0.9792622278150644,0.0125081965452866,0.0559781436889195,-0.009893418370677,0.0034941648087338,-0.0003903467423045,0.1029157662161101,0.994683805242336,0.0177352232009356,-0.0198792236486726,9.765723286144873,-0.0169459483137926,0.0013473858138408,-0.0052168079068145,7.172113008856254,3.7843780522484938,1.1781834398278843,1128.6248630711968,1139.7918711090992,1115.10469655955,1119.3736662089004,56.13995248327348,-290.62758622909024,-462.89027086569223,-144.51763448851432,151.65066355313004
7.5975,-1.9072472630559727,-1.8115108427263744,0.9980906298469464,0.0068562092176544,0.051445661401771,-0.0062371227283658,0.0034970497820067,-0.0003163458566282,0.1028988099251703,0.9946855909682932,0.0142250244797007,-0.0173619711741746,9.762331029286258,-0.0168546312364505,0.0011811072046875,-0.0053462201038246,7.1720730509838555,3.7843688101499335,1.1781793310285307,1128.520209850549,1138.8387920782711,1114.0704963490284,1119.1394581923785,-130.3560122916475,-511.06302784038434,-371.6680592081376,-52.099816841692736,151.64955548142197
7.6,-1.9271936559261416,-1.7667721937160104,0.9230552539668426,-0.0003941339596539,0.0461210130413763,-0.002839329581681,0.0035007663257875,-0.0002522122346311,0.102885598688203,0.994686973981908,0.0107647831594406,-0.014838347049293,9.759060860016973,-0.0167716673842012,0.0010334892914668,-0.0054998611594213,7.172035181469911,3.7843580953975406,1.1781754169497198,1127.9730830097385,1137.2365559698967,1113.2463562635087,1119.113167124692,-237.81061274203745,-649.274980391888,-214.84138463061305,24.129155534729367,151.6482186034458
7.6025,-1.8281128753404048,-1.657574032258158,0.8085775080091472,-0.0062106673932441,0.0417820091123903,-0.0010090540743897,0.0035061059715155,-0.0001979097508914,0.1028780459243635,0.9946877553470964,0.0073828157180321,-0.0123539030022038,9.755975284122702,-0.0166991286691656,0.0009058997497407,-0.0056758625483295,7.171998786224265,3.784346490974909,1.1781708995387017,1127.3311567868388,1135.5924171763115,1112.9962894258751,1119.260103970052,-252.9423685983656,-701.6451772642689,4.347239270919182,82.6516811330311,151.64709909753904
7.605,-1.63045782482213,-1.4830103497010272,0.6774454231063062,-0.0111095028158133,0.0378171999411062,-1.0226831667888074e-05,0.0035119852382024,-0.0001520367431973,0.102876631521588,0.9946878914404256,0.0040805520795353,-0.0099892253305778,9.753131390725143,-0.0166385738309667,0.0007987684608855,-0.0058709323462997,7.171963163657591,3.7843347548842607,1.1781642076608083,1126.7083711667467,1133.7283300835757,1113.2680924598635,1119.526425530357,-229.0562155995352,-846.3342198157261,241.5568441217198,132.2888801428263,151.64597439838207
7.6075,-1.3264512341016024,-1.2136631840325158,0.5334345234045269,-0.0153636864549603,0.033838897197893,0.0006697153232806,0.0035143652978128,-0.0001122931065529,0.1028804389606145,0.9946874934973796,0.0008386243228287,-0.007879600644076,9.750578826044247,-0.0165909220582603,0.0007115374726603,-0.0060805070486736,7.1719276193204164,3.7843231511005295,1.178153296903529,1126.1858757088412,1131.3607460772332,1114.204073646484,1119.9215483707662,-135.66919605014226,-871.0055720093081,434.44539626330896,148.51643422112235,151.64461903038128
7.61,-1.0573942633656592,-0.9530187760040844,0.4367912965027704,-0.0176268159462092,0.0312245314462363,0.0011296471140717,0.0035087850738182,-7.394400114458568e-05,0.1028877493906159,0.9946867572084956,-0.0024088410680204,-0.0061605575172981,9.748358191904368,-0.0165563868399528,0.0006426776663919,-0.0062992118632538,7.171891761099494,3.784312395329712,1.1781373896915428,1126.030025186496,1129.3733022235292,1115.44031944118,1120.2690077014627,2.615209077384917,-773.8472618914494,564.3577199925523,132.14739730870232,151.64348482085683
7.6125,-0.8145247844356222,-0.6718597795404592,0.3657584243108453,-0.0187522613504767,0.0294355244495516,0.0017818614092098,0.0034948581903392,-3.314747366224843e-05,0.1028967083956432,0.9946858769919804,-0.0057017213518969,-0.0048852511069935,9.746499725725549,-0.0165345385922338,0.0005897698862546,-0.0065213452767861,7.171854907421572,3.784303042046664,1.1781170362432232,1126.198951754228,1127.491509767776,1117.0258622464466,1120.5822853573095,116.41711091374665,-716.0499437368042,666.8143479717996,113.16104400553073,151.64234555290747
7.615,-0.6149015326193176,-0.3857678773557814,0.3103984764174553,-0.0191993208437526,0.0282965920929292,0.0027057990669761,0.0034737118622029,1.044720319474984e-05,0.1029070408668594,0.9946848777710248,-0.0090097608552688,-0.0040775080270882,9.745023245432135,-0.0165244204806682,0.0005497937417071,-0.0067414361056453,7.171816456264776,3.7842948426209846,1.1780927193088944,1126.6121107410647,1125.7930525048453,1118.7743911810387,1120.8348129214903,208.2456651877736,-611.9820939277037,704.7200985012901,84.56666212937486,151.64120184707684
7.617499999999999,-0.4756812646484469,-0.1063648176902813,0.2658865678160975,-0.0193377212428821,0.0276971858887777,0.003868903499974,0.0034480174170925,5.5198416004260806e-05,0.1029183063810509,0.9946837961401724,-0.0122625304001261,-0.0037265217467413,9.743938899264515,-0.0165246984859683,0.0005193043580204,-0.0069548516730008,7.171776409502005,3.7842875287516433,1.1780660876291833,1127.2401800801667,1124.4315992981376,1120.549462738953,1121.0051186679564,295.1899029168607,-493.8766186960143,746.0883438386348,67.32165837916143,151.640052334494
7.62,-0.3657781372965596,0.205633400178692,0.2209044712127993,-0.0196840420407905,0.0274591905499933,0.0050566690176204,0.0034204180801042,9.728190583277667e-05,0.1029297361251537,0.9946827026855444,-0.0153496883893462,-0.0038164292266247,9.743248573976816,-0.0165338673609728,0.0004946619984061,-0.0071581840408093,7.171735332976959,3.784280760202309,1.1780389999742091,1128.0880602556488,1123.3236694113652,1122.504832900232,1121.171421213386,297.8309692045503,-302.6792738928616,664.2529968482321,74.31484212987674,151.63866541913
7.6225,-0.2996364103531218,0.4322455950473842,0.1938273585489924,-0.0203322999870685,0.027801118582136,0.0055291119315964,0.0033917059901645,0.0001347619199529,0.1029390310794646,0.9946818322085236,-0.0182041147024855,-0.004352571132548,9.742947790964728,-0.016550364991941,0.0004721790740019,-0.0073495292007277,7.171693589783708,3.784274654600418,1.178012671227144,1128.72933492619,1122.918202928673,1123.8707277231947,1121.376692878606,204.44781566202872,-43.10056218109913,474.03717658490774,129.2052619930046,151.63750269264213
7.625,-0.2264005555873464,0.6014519867469073,0.1848862169521965,-0.0214447213722773,0.0289152501114423,0.0054573122926923,0.0033626035886766,0.0001681207990708,0.1029461746007266,0.994681182964645,-0.0208090028128324,-0.0053254360191349,9.743027484935928,-0.0165726616882975,0.0004483598863666,-0.0075284115605078,7.171651850140012,3.784269464636632,1.1779880354596004,1129.1102993339591,1123.1081666004595,1124.8750187831563,1121.8174475233511,65.48328407170769,221.59169145598315,350.34332728201497,287.31162101226505,151.63633172695648
7.6275,-0.0951647700721495,0.7060866091272646,0.197956761739617,-0.0229573971550557,0.0310716526883683,0.0051409416771912,0.0033310551338737,0.0002007920660282,0.1029515472073294,0.9946807207723664,-0.023213813748942,-0.006761932878255,9.743476051756327,-0.0165992686206454,0.0004200194580161,-0.0076955644920781,7.171610115270068,3.784265148813632,1.1779647393657493,1129.0567513465485,1124.0261613859527,1125.6224443596047,1122.813250983667,-126.51790415307273,440.725024683716,197.75136914814047,460.9175254190275,151.63491567460395
7.63,0.0663314284881326,0.6883647033093565,0.2220013173812032,-0.0240251142032219,0.03345984695379,0.00519676833775,0.0032961715086126,0.0002370653921296,0.1029552404777135,0.9946804375383396,-0.025485821518313,-0.0086533928057631,9.744280904035524,-0.0166287513246531,0.0003843458406198,-0.007852560427167,7.171567899454182,3.784260990722448,1.1779426632494627,1128.4777098131935,1125.3117917238783,1125.8637756288972,1124.1220351504462,-350.16721228085606,594.8529719388389,20.778885035088468,620.6971270095114,151.63372543003223
7.6325,0.2851748568357677,0.542251847247151,0.2419893307374946,-0.0245878977157069,0.0362124561584623,0.0058284176430203,0.0032585345204092,0.0002801999100472,0.1029595344798273,0.9946800941793766,-0.027672916048767,-0.0109540040288085,9.745430024141704,-0.0166597736989613,0.0003390652153265,-0.0080014784532453,7.171524912005256,3.7842558047363424,1.1779218328285728,1127.3059152851442,1127.000426245647,1125.72633878478,1125.9167366187148,-633.296089811406,788.6902090716089,-141.38109377504708,864.2033454018657,151.63252311465652
7.634999999999998,0.5966165818478355,0.2169555326457169,0.2368652593963915,-0.0242374317818166,0.0390641129262213,0.0068694008095078,0.0032193888695291,0.0003310122034191,0.1029660726397838,0.9946795161080718,-0.0297776146532371,-0.0136001145380616,9.74691321740643,-0.0166912058890435,0.0002823424829083,-0.0081445999167269,7.171481731288724,3.784250014048957,1.1779024849631676,1125.3112293641368,1129.2552427692362,1125.156870160022,1128.4430518774554,-797.9710678676099,824.4773120299391,-268.5573722609718,941.0804239716272,151.63106448788716
7.6375,0.8717342271174141,-0.1609273631171383,0.1931127982681295,-0.022837329950261,0.0400439105397421,0.0077943303486386,0.0031834196263273,0.0003903411866383,0.1029757780669578,0.994678592007132,-0.0317989426787345,-0.0164524247057196,9.748722736571498,-0.0167221665961214,0.0002126514532788,-0.0082842040535734,7.1714388260658675,3.7842436571973375,1.1778850471873712,1123.3160599458063,1131.1228128057967,1124.3835519234751,1130.6221387385729,-816.0172421749937,697.2661484186393,-357.3244411354959,817.896560421704,151.6298342672785
7.64,1.1241654966147048,-0.6087455751225486,0.0962136136025411,-0.0203778614027777,0.0389374421819756,0.0090310728832132,0.003153140212923,0.0004574169444799,0.1029891093702282,0.994677266709462,-0.033711672928288,-0.0194091918310722,9.750853762047283,-0.0167520477828021,0.0001287978358905,-0.0084222190745625,7.171396405883617,3.7842362172821287,1.1778688349554682,1121.2311431532612,1132.74157351133,1123.3702479543442,1132.5325346795646,-807.6764329723289,576.3021573305318,-431.4415123731216,668.1066091330337,151.6285868858682
7.6425,1.3268237413763293,-1.0789079362228209,-0.0460133090828986,-0.0172638953187321,0.0364778796371307,0.01038219299683,0.0031278877353088,0.0005302141624233,0.1030057223312405,0.994675579503666,-0.0354747414384962,-0.0224262930344039,9.753304120252547,-0.0167804684709572,2.9821601599260992e-05,-0.0085599642275016,7.1713545787895985,3.784227948115391,1.177852270237376,1119.2776777809447,1134.0043235924493,1122.2263443616096,1133.962671784238,-706.3257684198711,393.67425221995217,-470.5244023454825,406.2788947747408,151.62732376169203
7.645,1.4341142913060498,-1.5376115171394324,-0.2281487107085368,-0.0132534269754227,0.0330557231972439,0.0109045465710994,0.0031088392739759,0.0006026245199996,0.1030261633543202,0.9946734739534469,-0.0369659274390069,-0.0254269159499374,9.756073587473816,-0.0168072747835413,-8.514152235225664e-05,-0.0086979134292957,7.171312993374173,3.784219113278197,1.1778349992441932,1117.699514311162,1134.7099447724297,1121.0176259426169,1134.5639291534383,-570.0751381074617,164.32888750260085,-522.1165742121796,35.88892427342293,151.62603972107323
7.6475,1.4166015351483123,-2.032490008804796,-0.4536406351510746,-0.007389088606717,0.0279781176081484,0.0096598608401278,0.0030986225844683,0.0006661853651014,0.1030484097429372,0.9946711572080634,-0.0380155393590657,-0.0283070786186787,9.75916299715512,-0.0168324707738735,-0.0002170462282822,-0.0088357520067811,7.171270923004066,3.78421062548858,1.177817650311403,1116.4273020904075,1134.8259680299623,1119.6157614905487,1134.142116405605,-352.2974497017988,-79.87425896935916,-487.6311623360938,-348.0827565770671,151.6244720691574
7.65,1.269207255095931,-2.369310358498103,-0.6143438652881517,-0.0022866194982892,0.0227389333398595,0.0073294703938736,0.0031012458404926,0.0007146554637412,0.1030684735793255,0.9946690352719884,-0.0384949771013893,-0.0309292310996283,9.762572998394791,-0.0168561382318305,-0.0003668872225406,-0.0089725287876525,7.171228661352236,3.7842034943683647,1.1778004294892956,1115.9380270626527,1134.3105734775827,1118.5794701309364,1132.8235153705527,-83.84480467984937,-319.62208877126386,-365.0159001226789,-701.7392467079085,151.62314135832116
7.6525,0.9990004795753384,-2.592775745489565,-0.7184061396950633,0.001991733060114,0.016323624994645,0.0047065413842883,0.0031171950364031,0.000745869008402,0.1030820239097518,0.9946675586173512,-0.0383625066640692,-0.0332152420088852,9.76630273844151,-0.0168783853926935,-0.0005353804083514,-0.0091067018532156,7.171186986876374,3.7841980257751175,1.1777824327295356,1116.0080780670082,1133.227857586106,1117.7906819899356,1130.6334201720656,134.38882967757596,-576.1327858442323,-265.5977222817967,-1100.2860661689062,151.62178290950447
7.655,0.5867308875820483,-2.6948996244080727,-0.7666456369946286,0.0056675630583832,0.0074014970694661,0.001990521449944,0.0031444414464561,0.0007615166806708,0.1030862927487319,0.9946670213623536,-0.0376571666012151,-0.0351289950689423,9.770348616603687,-0.0168992640110937,-0.0007226583639475,-0.0092361389633189,7.171146272332223,3.7841929121897167,1.1777632641673235,1116.6099712110408,1131.4299095483618,1117.2514815195275,1127.3220850397083,282.1299679377322,-712.5999140799802,-116.57860695482007,-1263.8827107136688,151.62011772233092
7.657499999999998,0.2286503646865465,-2.627246236932463,-0.7453635305902921,0.0069857637312381,-0.0005366687333393,0.000149834877371,0.003174797088491,0.0007653760757118,0.1030847896593741,0.9946670820925168,-0.0364722878330096,-0.0367526175997612,9.774703297291218,-0.016918663446253,-0.0009278539266413,-0.0093581871283104,7.171105731413056,3.7841870869266874,1.1777418074633936,1117.4187279066969,1129.664858015706,1117.2077889551615,1124.3140066184972,357.3680299458905,-723.3429837367721,71.13957650594936,-1169.585307481136,151.61869877115714
7.66,-0.0622125381516157,-2.4063682278389744,-0.6673702739038336,0.0059275392064035,-0.0079624839511136,-0.0014711996338912,0.0032010171134246,0.0007602523242539,0.1030803901350575,0.9946674624158544,-0.0348814929872724,-0.0381567740777205,9.779355177858095,-0.0169362975689668,-0.0011494161204515,-0.0094697743431124,7.17106471559064,3.7841800344588905,1.1777167784697735,1118.3968113607702,1127.813194629678,1117.6071794020572,1121.4741585023028,440.58802312299514,-793.5581675678928,263.7228991281105,-1118.9622096246765,151.61724559058365
7.6625,-0.2480010771279052,-2.001957173095678,-0.5163515444248519,0.002618162768345,-0.0152774729137392,-0.0034493262645763,0.0032223448173658,0.0007472994460811,0.1030729218144703,0.994668180430798,-0.032914240698635,-0.0392959291859249,9.784288210908954,-0.0169517548170595,-0.0013853624243624,-0.0095677421152476,7.171023482708312,3.7841711287358457,1.177688582284344,1119.621668022312,1125.697067177866,1118.5264034508023,1118.7191955703731,441.84999040686336,-732.6203221102944,387.3969270322587,-851.9808110251414,151.6154616230163
7.665,-0.2296648825534371,-1.5922633681187868,-0.3497627406162456,-0.000870823573151,-0.0196392121380644,-0.00515519378081,0.0032421117480081,0.000726381683114,0.1030614249119706,0.994669324551595,-0.0305679775046595,-0.0400556520498331,9.789481943178371,-0.0169645637490501,-0.0016333018809525,-0.0096493090101517,7.170982883868498,3.7841604724136735,1.177658433874493,1120.6060613128045,1124.1500930191266,1119.5441640372185,1117.2142544471772,372.8415197711536,-549.7999811109937,423.22157173776753,-411.5223834443983,151.613942101798
7.6675,-0.0315014025405274,-1.1658809909625427,-0.1566842027103962,-0.0039600938900853,-0.0219796451157501,-0.00650793442586,0.0032628756460785,0.0006996813996436,0.1030479695469819,0.994670670958348,-0.0278887447580628,-0.040341282066568,9.79491175447104,-0.0169741393159557,-0.001890407714156,-0.0097125622980371,7.170943622398212,3.784148087369219,1.1776278172342398,1121.485875621168,1122.9480672723112,1120.642511309491,1116.6615836531512,327.615592671789,-411.6205441320832,425.82651986009296,-71.16571680085296,151.61239033133907
7.67,0.2801197086716825,-0.7647381381440409,0.0377727502959527,-0.0054869924833513,-0.0228525098491666,-0.006876844839143,0.0032844208060377,0.0006724795092347,0.1030386226599683,0.9946715885992912,-0.0249909208393585,-0.0401166418223468,9.8005494923956,-0.0169796972273815,-0.0021535458264204,-0.0097566580318557,7.170904807814212,3.784133902321989,1.1775977664184791,1122.2441392761634,1122.0919902984663,1121.673296636519,1116.8584258631731,269.05258554389206,-254.44335760062677,372.83122340978366,219.94294847091183,151.61081411828508
7.6725,0.6513448221212088,-0.4233811198608397,0.202025417964799,-0.0041413442457583,-0.0227117424865455,-0.0056255960434345,0.0033057181681449,0.0006482831499521,0.1030371386443996,0.9946716900615498,-0.0219581032905508,-0.0393767872688945,9.806364352666542,-0.0169802705539745,-0.002419702646757,-0.0097816211753798,7.17086541586906,3.784118550773896,1.1775691725997732,1122.831138548887,1121.675850484308,1122.50666742654,1117.7612983955055,219.3327670386726,-91.23532233002345,310.7849103295914,485.26931873644696,151.6092123044028
7.675,1.053277677922221,-0.0916302467065145,0.3315921259703133,0.0001271306259588,-0.022219830520979,-0.0032611688008904,0.0033289739712499,0.0006296025714511,0.1030406167156579,0.9946712660861832,-0.0188498199716219,-0.0380680341951503,9.812323684502273,-0.0169747174913544,-0.002686317729867,-0.0097881621305599,7.170825335613289,3.784103525733295,1.1775429335124163,1123.3408031113568,1121.635813686816,1123.2272211881668,1119.2847724568553,162.73159188963635,44.02700638074842,225.1534771184245,571.5791748146452,151.60726693187084
7.6775,1.2822206855034899,0.1313024967396164,0.375558406051396,0.0048505130470731,-0.0218705422571314,-0.0015681969220284,0.003354915731074,0.000617173389645,0.1030455912314374,0.9946706723595504,-0.0156964533355297,-0.0361818033593533,9.818393526308979,-0.0169618417526149,-0.0029509170082994,-0.0097773917644219,7.170784579777289,3.7840899939138386,1.177518967246366,1123.6447965083355,1121.8959855162116,1123.632434812132,1120.6191942695789,117.52345044929164,137.30377830929976,143.54896141613003,483.0102436670689,151.605632065431
7.679999999999999,1.3474674026203854,0.3233030329354899,0.3621829159142616,0.0100998996496163,-0.0216728640717988,-0.000499187065215,0.0033843700419679,0.0006069091663247,0.1030504215971549,0.99467007839263,-0.012436618891524,-0.033730325572413,9.824538988747213,-0.0169405450692265,-0.0032108151540967,-0.0097503666720749,7.170743590031898,3.7840774013538514,1.1774966104673787,1123.9284203636032,1122.3223325783626,1123.9449659952475,1121.6998236751906,154.26926849013728,198.59011363114828,147.52484767819027,365.28291400773793,151.6039901011839
7.6825,1.217137003262772,0.5459650623130545,0.3013524813714457,0.0159650986640773,-0.0213893188893479,0.0001929927817613,0.0034187500813419,0.0005957128009573,0.1030544661268043,0.9946695483925356,-0.0090293585836024,-0.0307253923716152,9.830724533031107,-0.0169097558558298,-0.0034629001072661,-0.0097079965889644,7.17070250156765,3.7840637755274575,1.1774744791508067,1124.416142850786,1122.8889360843675,1124.3700590505227,1122.4456088396175,228.12410943962348,207.9656214146455,183.96354011007892,164.34032123044904,151.60201945627395
7.685,0.9480302024039712,0.7372167597143857,0.2287783326630997,0.0197782654629081,-0.0207778192682309,0.0004343444020744,0.0034561325795303,0.0005841412350336,0.1030588058546209,0.9946689768750666,-0.0055140949622522,-0.0272494762719021,9.83691418317914,-0.0168684194599878,-0.0037034584056073,-0.0096510398476214,7.170661576878706,3.784046942342009,1.1774519455921475,1125.0690409108015,1123.362160685436,1124.864783695798,1122.5215252813427,331.46976862600036,195.88985153259688,240.79444025292617,-77.80111814017967,151.60038240588287
7.6875,0.5532751032623323,0.9345694084523312,0.1465819026365128,0.0223067055491585,-0.0193850935159797,0.0004980551755477,0.0034965019084213,0.0005755469328442,0.1030620406260071,0.9946685068870708,-0.0019828001524119,-0.0233542115325318,9.843071547874,-0.0168155597613102,-0.0039286305351293,-0.0095800146633617,7.170621726143594,3.784026221981719,1.1774303046939887,1126.073491693916,1123.8683853420305,1125.5740312517876,1122.0566032489166,521.7296405679574,254.21460373300397,362.85605246076415,-294.4579483213664,151.59875669108067
7.69,0.0025197581529666,1.1627263903337863,0.0437771787424813,0.02366971214023,-0.0165667362020066,0.0004988610118103,0.0035392018672203,0.0005714314806339,0.1030641454527753,0.9946681428671768,0.0015059123822736,-0.0191187119555229,9.849159529479772,-0.0167504259361223,-0.0041346455605915,-0.0094950484711165,7.170582535901535,3.784002711579943,1.1774091838129543,1127.6776891136412,1124.633233704101,1126.6790639581016,1121.049235539736,634.6601492384841,326.4115162628128,440.4521113258491,-404.7727142120125,151.59682532536036
7.6925,-0.4621624223937967,1.3287121015387784,-0.0445812135876078,0.0229827550489584,-0.0132221897898852,0.0004755522727347,0.0035787465060881,0.0005737664322032,0.1030668271185366,0.9946677265918104,0.0048734868991123,-0.0147256213215759,9.8551403972676,-0.0166724575203204,-0.0043181590443997,-0.0093959514316088,7.170543259124468,3.783977607055737,1.1773873889010436,1129.2467924401085,1125.5004429233445,1127.7762918084168,1120.0327396778566,633.3457521052559,408.966767967158,462.66520606833257,-390.0131801902345,151.5952363943667
7.695,-0.8609408982288324,1.4514935559163686,-0.1369762551222701,0.020198350153958,-0.0092332812736081,0.0004070980229701,0.0036097652839888,0.0005845519286728,0.1030701367329159,0.9946672715840756,0.0080409008178293,-0.0103631986812606,9.8609756180034,-0.0165813330332631,-0.0044767285419466,-0.0092821891347727,7.170503123380072,3.7839518665012175,1.177364563434576,1130.8444178741674,1126.6780675439368,1128.9923899884432,1119.099169638785,650.5079849219012,586.1109908927699,548.0137776848668,-336.0279494248133,151.59367348776144
7.697499999999998,-1.1945993556996355,1.5387385323080278,-0.2526697880849511,0.0147214363352099,-0.0046268489017624,0.0001699993334723,0.0036306884891032,0.0006016923235795,0.103074057550466,0.9946667869052244,0.0110177262244238,-0.0061591506945605,9.866625331399945,-0.0164771929018824,-0.0046089164112595,-0.0091528589410278,7.17046233101084,3.783925966818828,1.1773405093566789,1132.499332364718,1128.4309978778083,1130.516360696841,1118.3525999307324,524.6935911349393,683.7326818042275,560.6861915633664,-182.8231652928064,151.59183301852073
7.7,-1.3247884681101783,1.5604688242619795,-0.3502264888042894,0.0091903679256404,-0.0012249817321116,-0.0002744605502651,0.0036450146234949,0.000621053414855,0.1030752782453392,0.9946666049324582,0.0138653256873279,-0.0021485850373079,9.872048245035256,-0.0163607087568735,-0.0047144052354233,-0.0090069527469518,7.1704220850183,3.7839005186304058,1.1773151934056576,1133.467885829842,1130.0967309529578,1131.79582094626,1118.185053812321,272.7316116659523,681.5506175726867,502.78867214848424,41.77775045617893,151.59033173311212
7.7025,-1.3076855970265828,1.5280271171529565,-0.4411293463092929,0.0045746969085379,0.0020045067423686,-0.0011354370879568,0.0036560637627167,0.0006407314525539,0.1030718674014619,0.9946669144097616,0.0166029411359907,0.001634192975557,9.877202406021258,-0.0162330690405372,-0.0047936854005258,-0.0088437892264178,7.170383581939184,3.783875447584316,1.177289473900617,1133.862990423048,1131.8387509656723,1133.0303040575839,1118.5614886830135,57.00426408652796,687.1643062109489,474.52221441327407,235.74947671568728,151.58886760612222
7.705,-1.1988663481052184,1.4452002667332875,-0.5183071070886354,0.0018002630927858,0.005452634108889,-0.0024304139617305,0.0036650302705357,0.0006635929025636,0.1030650984420511,0.9946675760729232,0.0191542980626156,0.0051250323602842,9.882046161098625,-0.0160958354875389,-0.0048479007490926,-0.0086632943457149,7.170346199678488,3.7838509736537143,1.177264138474799,1133.7529071502747,1133.5325524840125,1134.1684320183265,1119.3638011958994,-154.0605426368562,640.0971179933231,410.61364371431375,401.2820316909796,151.5874366052014
7.7075,-1.0254266648126256,1.2910210441203411,-0.5695925161826271,0.0006398161894318,0.0093503126239052,-0.0042075984378437,0.0036726172608229,0.0006908499111303,0.1030580669028896,0.9946682647518928,0.021477555363393,0.0082515657531625,9.886538368190433,-0.0159508827655363,-0.004878843882589,-0.0084658494534428,7.170309746319293,3.7838276540446465,1.1772395893803471,1133.0926877098636,1135.0392365556388,1135.0833722761552,1120.5678988414684,-384.62258742902947,590.8768924475352,317.1457937007812,581.7487502104665,151.58604799796828
7.71,-0.783778443169245,1.015980157870087,-0.5956618440489307,-0.0008082264909392,0.0139720852330715,-0.0064498887836277,0.0036779554447286,0.0007229519725649,0.1030518645100299,0.99466886954994,0.0235458164694001,0.0109165587227047,9.890639348108111,-0.0158001999097727,-0.004888947389871,-0.0082523186966942,7.170274428899839,3.783805523783261,1.1772163111118337,1131.8297942131296,1136.48693694625,1135.7541609868304,1122.2725449469517,-510.1963543093115,455.68200510789273,151.3679001664546,636.2513315713521,151.58443340574095
7.7125,-0.5674465347189326,0.7185655308723891,-0.5905150453900238,-0.0026479812535189,0.01698625442908,-0.007841444172387,0.0036812874364005,0.0007605912188902,0.1030461603790018,0.9946694231089092,0.0253327213190266,0.0130550151861999,9.894311571276612,-0.0156457382952437,-0.0048811660466106,-0.0080239621906849,7.1702406359231965,3.7837841171067903,1.1771947946886037,1130.5417059383171,1137.3176465811782,1135.8402117769876,1123.749155499325,-525.0261232112846,247.3743215068278,-80.47186222311382,567.8801845867504,151.5831327046768
7.715,-0.344729378885029,0.3752564330949583,-0.5644459131125916,-0.0047641451062838,0.018595043387016,-0.0084636684334083,0.0036844886810429,0.000801424534285,0.103041023318181,0.9946699128264088,0.02687773997298,0.014639660864042,9.897520110685065,-0.0154893039266702,-0.0048588217053973,-0.0077821815797174,7.170208926640004,3.783762495736011,1.1771753313274955,1129.2046635970732,1137.7238085537842,1135.3518016757148,1125.1119458698854,-558.3024113691528,89.8415028719247,-342.08810128203186,543.3524207027974,151.58188013902912
7.7175,-0.0936152849248524,-0.0478085710183788,-0.5089652982658303,-0.006488002491786,0.0188205052835186,-0.0092533257444592,0.0036890408482581,0.0008431115796637,0.1030360352085805,0.9946703784555054,0.0282217537708342,0.0156490999080676,9.900233871430416,-0.015332283953619,-0.004825608052411,-0.0075284458065416,7.170178273254876,3.783741011346777,1.1771573795893884,1127.7501938814714,1137.7668540955378,1134.1297712705775,1126.4659176028388,-484.0863959608317,-40.26473203007385,-529.8357933562896,436.8584419314722,151.58043416545243
7.719999999999998,0.0710473420430602,-0.3780452352239381,-0.4327619916796416,-0.0062333212386008,0.0177062303252441,-0.0107252833739666,0.0036944514077746,0.0008827164939634,0.1030296585327066,0.9946709840449524,0.0294148744663869,0.0160369341895952,9.90242647004316,-0.0151754819767149,-0.004785622772693,-0.0072641293145308,7.170147822451549,3.783720479894124,1.1771397078899983,1126.7842316172691,1137.5224848936339,1132.7026227089334,1127.2962380795427,-316.2044161191329,-124.90728593866416,-605.8318785632894,268.35923927783944,151.57927754526668
7.7225,0.1469327904727021,-0.6546450181287142,-0.3112818521653338,-0.0041402191173089,0.0155624321134643,-0.0129048730221093,0.003698630733515,0.0009158876076824,0.1030193767779045,0.9946720024212332,0.0305325773238451,0.015738518786462,9.904076827076954,-0.0150190720634579,-0.0047433200614103,-0.0069904493514052,7.170116985140814,3.78370129535112,1.177121290378807,1126.1691718008758,1137.1423176658443,1131.1006118777611,1127.807713799228,-181.31645836558056,-158.25834764234315,-673.5053600537724,165.49760085760823,151.57817169765667
7.725,0.1081764138594995,-0.9051676757454769,-0.1138322273302047,-0.0012873528889578,0.0125027661141258,-0.0150418482084881,0.0037003115780045,0.0009394219557081,0.1030047723230804,0.9946734851378424,0.0316293857932517,0.0147241321493263,9.905169823628414,-0.0148626309124107,-0.0047033147487217,-0.006708638393142,7.170085250366479,3.783682792608028,1.1771019142749988,1125.877649325441,1136.731193155422,1129.335095908664,1128.123726083831,-35.76788204845874,-116.09718870209028,-571.2501398745766,83.93548238318724,151.5769036259391
7.7275,-0.0249140251288316,-1.0429726807782311,0.0751969428572895,0.0001086443056421,0.0098957359674172,-0.0156501463344001,0.0036986665835423,0.0009523464648687,0.1029863117913567,0.9946753886788112,0.0327160220925193,0.0129939839124553,9.905697132055703,-0.0147052350096809,-0.0046702679949766,-0.0064202059662942,7.170052570899481,3.7836646458646106,1.1770816124391315,1125.9903323906335,1136.561831722334,1128.2443611783883,1128.227391211144,105.22754207009027,-7.865852620170867,-314.3840309580877,31.00863358154195,151.57589592502606
7.73,-0.2258915394103957,-1.111613163746658,0.2523777245416426,8.11596040362347e-05,0.0070054489208022,-0.0147841071097789,0.0036951437120517,0.0009557628891511,0.102962167887177,0.9946778961141912,0.0337656177542396,0.0106141870022737,9.905657718250561,-0.0145456169622411,-0.004648895787895,-0.0061271485112079,7.17001889744878,3.7836473552229855,1.1770616164926917,1126.4037870357915,1136.6918638923212,1127.7631757538736,1128.2787692517384,199.75375588342527,109.84381721864573,-78.78673655864243,25.193089719414807,151.57493867457532
7.7325,-0.4452326214430221,-1.1300690913813602,0.3906006493537616,-0.0009916340278434,0.0038560179045608,-0.0129675923035946,0.0036938775237958,0.0009519936671891,0.1029338059091705,0.994680837716042,0.0347311998411233,0.0077216474683213,9.905058418767918,-0.0143824188693427,-0.0046436818101496,-0.0058320611640687,7.169984426000156,3.7836312115574535,1.1770435336507978,1126.9891011700506,1137.1110508084273,1127.850427495595,1128.3533566597412,254.208025178792,232.17200669983447,159.93760142751285,44.01700659236761,151.57402269684587
7.735,-0.6408677978171193,-1.1025863837366479,0.4579751951454369,-0.0030700638189618,0.0008542687853399,-0.0107076373229255,0.0036976834287584,0.0009430707287855,0.102903343448586,0.9946839815925164,0.0355672446028927,0.0044410708188156,9.903914715301616,-0.0142143487419273,-0.0046587345050537,-0.0055380978093319,7.169949286113427,3.7836163338185287,1.1770276420177308,1127.6748271616855,1137.8527239258203,1128.5628637610112,1128.4988542847004,299.4631877775255,373.3004762739336,411.86082460813816,83.35821095502246,151.57315552191213
7.7375,-0.8000691133146169,-1.0430018302316526,0.4487496341911301,-0.0062049108454212,-0.0020241585788271,-0.0081632732981194,0.0037044759122701,0.0009311900304187,0.1028733421075808,0.9946870676244732,0.0362137193943693,0.0008136291442335,9.9022513018388,-0.0140403132578678,-0.0046975653905614,-0.0052488398538782,7.169913474656034,3.783602027512899,1.1770141779078396,1128.4864171089382,1138.9775531897967,1129.9097316186355,1128.7701477145163,281.8566301707566,418.7371551094291,527.932460076829,114.2227589316032,151.5721697257729
7.74,-0.8462267466394287,-0.9917468102983416,0.3759747997666513,-0.0090752149811925,-0.003605611778645,-0.0065924637192154,0.0037119626979397,0.000919744054307,0.1028461323466545,0.9946898596145844,0.0365859191908776,-0.0031104326604497,9.900101657800896,-0.0138595543245459,-0.0047630074211273,-0.0049680226971043,7.169876798795632,3.783587777089106,1.1770032738955647,1129.0841103125392,1139.9464097013674,1131.2025260613952,1129.0699680793584,214.47261025310863,348.05084380781426,492.4737203895487,131.54004985388147,151.57139248046417
7.7425,-0.7895601199371176,-0.954956393943272,0.2608743517611866,-0.0119498416746103,-0.0047646013186641,-0.0058961989335394,0.0037186926555767,0.0009114181833757,0.1028221545731492,0.9946923148038372,0.0366150038149568,-0.0072572584553407,9.897507349370752,-0.0136718271014565,-0.0048571727257296,-0.004699205342478,7.169839546639957,3.783573367691593,1.1769943420767677,1129.558780160204,1140.7178074088363,1132.372100220584,1129.4278479637856,181.44170292771764,245.77318673846617,430.76940097472294,164.39553309606148,151.5706591671366
7.745,-0.606982060233648,-0.9253042577330152,0.1085206440956449,-0.0151253972788418,-0.0066081187558565,-0.0059322110527438,0.0037211601772984,0.0009072455240293,0.1028024666838947,0.9946943361493712,0.0362617084645086,-0.0115913652029582,9.894517330769848,-0.0134775918063325,-0.0049813065935421,-0.0044455568316036,7.1698028360228285,3.7835587891928895,1.176986195999575,1129.9913188271776,1141.1752756350595,1133.3563730662688,1129.8919457448387,141.8322274860687,66.78963120830446,268.5121933749145,168.95628278325964,151.5698272891846
7.7475,-0.3758224095335724,-0.8980280513730557,-0.0087466632082976,-0.0170490035870366,-0.008745795623765,-0.0064925910555904,0.0037168679842842,0.0009064274244375,0.1027878245906758,0.994695856447622,0.0355271855684009,-0.0160584516080502,9.891186598434864,-0.013278074946734,-0.0051358270160134,-0.0042097010914277,7.169767806983514,3.783544233137615,1.176978751150973,1130.2679412976343,1141.0517555648776,1133.7146611874584,1130.272629377702,103.20323354080976,-161.15855428061312,44.9462853567648,139.23877403426854,151.56917193256604
7.75,-0.0963176795227891,-0.844417848592509,-0.100113745869926,-0.017710350056257,-0.0111788317864372,-0.0073982830064276,0.0037041920048455,0.0009066363297251,0.1027790219145616,0.9946968038243622,0.0344477810241047,-0.0205905054330577,9.887574906107812,-0.0130751754533575,-0.00532031690451,-0.0039936984310253,7.169735595482302,3.7835290574434577,1.1769719277499189,1130.5073349948818,1140.3694828636567,1133.5811044930526,1130.58813961501,106.41442181359024,-411.7324649769304,-147.81637761912268,107.23097130849284,151.5685529715217
7.7525,0.2472501301057869,-0.725507038372952,-0.1768072777239321,-0.0169130791803179,-0.0140969486820731,-0.0084072464656788,0.0036839539975882,0.0009053863461552,0.1027759462234512,0.9946971915628288,0.0330722310230919,-0.0250750152613995,9.883745341550851,-0.0128712094086378,-0.0055336072032774,-0.0037990531912193,7.169705444504893,3.7835137128053766,1.1769652744683827,1130.800013406702,1138.9930932399932,1132.9755792993628,1130.8087842342445,111.22133452400033,-572.4403157558421,-264.73685474330176,43.22709101334205,151.56784855424849
7.755,0.5081472768348719,-0.5697486505533592,-0.2200620618064736,-0.0151092607527064,-0.0163355113774403,-0.008791338792193,0.0036621495450751,0.0009003295471343,0.1027732760433958,0.9946975495209625,0.0314624560263651,-0.0293032787595582,9.879762674264052,-0.0126685968209165,-0.0057739419245904,-0.003626691690788,7.169676653073612,3.783498977422328,1.1769592874425394,1131.0634416675018,1137.5072812848775,1132.257420219336,1130.8042750700768,107.12359154190608,-629.9335057401684,-285.49956917495973,-50.082006006961066,151.56729052413283
7.7575,0.7161946179222111,-0.3521775050839882,-0.2534769312067703,-0.0126903307256286,-0.0181747544700931,-0.0086445640427002,0.0036433090759544,0.0008924981549676,0.1027678922223016,0.9946981813609764,0.0296165107530581,-0.0330982164003506,9.875692087176349,-0.0124697192423844,-0.0060386796484682,-0.0034771200897351,7.169648809461119,3.783484472516329,1.1769544804197436,1131.3356313644117,1135.8434257112924,1131.548081453488,1130.5583742042097,105.22993094218916,-672.6676826799719,-247.8743016854476,-140.37080776952578,151.56675878647656
7.759999999999998,0.8723568822656773,-0.0900378495286318,-0.2828190428820465,-0.0101901518510697,-0.0194404794611325,-0.0085695871052879,0.0036279658871291,0.0008831926637287,0.102758913883554,0.9946991745818075,0.0275248479336915,-0.0363728799446045,9.871596755500644,-0.0122768324140119,-0.0063241886639916,-0.0033503119455726,7.169622093834732,3.783468910683508,1.176950935163252,1131.5895913222128,1134.1439428714775,1131.0180487109087,1130.1024210312291,89.35661213677312,-671.5421312916221,-136.59068474994743,-228.91416466923636,151.56624592764408
7.7625,0.968010595822595,0.2066894532440399,-0.3017025471901447,-0.0076146873009853,-0.0197378644911793,-0.0092954728678032,0.0036125959327785,0.00087432113047,0.1027482755637546,0.9947003402519178,0.0251634337843377,-0.0391329705483519,9.867535733214304,-0.0120920021630621,-0.0066258547523436,-0.0032456019597133,7.169596987955192,3.783450596247528,1.1769484254959235,1131.7824144250956,1132.4857150548344,1130.8651280297383,1129.4138033808636,60.49774211418444,-713.0359291488526,39.3682839342939,-343.9817497362045,151.5657523834614
7.765,1.024947636331932,0.5669941274955393,-0.2992731373301796,-0.0040534234021209,-0.018721297304814,-0.0108760303861009,0.0035976173611837,0.0008675672000831,0.1027394756911887,0.9947013138068488,0.0225261559067675,-0.0413228917828685,9.863561927340182,-0.0119170426570084,-0.0069383747910839,-0.0031614355303158,7.169572717547519,3.783429410203832,1.1769455056636495,1131.8920800327835,1130.5787632257327,1131.2148901305804,1128.3825122825479,12.866946366466708,-688.8871012622222,211.98937116064823,-398.86934193596915,151.5651781801751
7.7675,1.0397563966366228,0.8408987457798122,-0.2713332792991426,-0.0009327534483099,-0.0165962207907378,-0.0119145595210218,0.0035879816142721,0.0008633028470172,0.1027333519652178,0.9947019905716928,0.0196472963386306,-0.0428171931610415,9.859720391706345,-0.0117534415481153,-0.0072561772825431,-0.0030953192755683,7.169549235631976,3.783406058133115,1.1769414800502083,1131.846749156928,1129.041279548523,1131.9250748855416,1127.4194566711835,-54.024011606180714,-613.2120008111218,342.3576909899639,-388.394338622592,151.56471172724227
7.77,1.0494298801988324,1.055324111974992,-0.2185167363676589,0.0011156482880817,-0.0131713389202842,-0.0119796502973413,0.0035889697888538,0.0008602753021411,0.1027290926667789,0.99470243655577,0.0165984713550649,-0.0435044702556924,9.856046867640073,-0.0116023789761781,-0.0075736543873227,-0.0030440207128076,7.169526499992696,3.783380755299012,1.1769352629986882,1131.6219599747528,1127.5127032216772,1132.9266785855302,1126.4405405894347,-147.00827113720464,-677.628975409394,451.9634822434096,-413.85417943321016,151.56425436965904
7.7725,1.090259009618881,1.223758086328196,-0.1268592189784272,0.0022913379171666,-0.0081947359802033,-0.0114225011656066,0.0036005986979742,0.0008620692672267,0.1027266404047336,0.994702652975795,0.0133496603562061,-0.0433840484691311,9.852567097202147,-0.0114647370143511,-0.0078853085220459,-0.0030040804219838,7.169504096893086,3.783352966118509,1.1769268771612695,1131.111707801242,1125.6531346714764,1134.1848922967583,1125.3501857740175,-229.6011443048932,-683.7442623291881,421.02131390280175,-373.3894652661172,151.56371229840852
7.775,1.1599088458986788,1.2935063334491934,-0.0172884306803339,0.0033745379363014,-0.0042457651786712,-0.0113479926344517,0.0036208915064502,0.0008718001784898,0.1027262330299146,0.9947026185062138,0.0098792192396757,-0.0425116514020469,9.849295670287065,-0.0113411807965399,-0.0081860230304586,-0.0029719869370692,7.1694818007744185,3.783322371743581,1.1769168094152007,1130.4739542532284,1124.0939819100315,1135.031785155044,1124.5735932631044,-297.82213303688604,-611.7406154445365,238.11533018193185,-273.14597997688577,151.5632635975489
7.7775,1.2534372230793496,1.3139454742848926,0.147914331421499,0.0055618496438001,-0.0013266918879477,-0.0121358996105463,0.0036472332785852,0.00088867509411,0.1027284379957179,0.9947022838638748,0.0062430805866905,-0.0409783899894939,9.846235712492,-0.0112322690348036,-0.0084713393529535,-0.0029443925704392,7.169460071612416,3.7832902059706,1.1769058009355382,1129.6225971360575,1122.5944315942538,1135.375468947668,1123.9844558741331,-415.5013227258767,-618.2568947778823,-17.264593583059106,-210.5564894854569,151.56281508902163
7.78,1.3542519037953835,1.3170935185969235,0.4276686763530971,0.0096213902119403,0.0010987842232033,-0.0132645202696146,0.0036775087114045,0.0009121583030743,0.1027338665410336,0.9947015937587697,0.0024944433057742,-0.0388781461530088,9.84337961510033,-0.0111384773833638,-0.0087376872353237,-0.0029183914289138,7.169439501162367,3.7832575105581583,1.1768948835246031,1128.396447639599,1121.002697436142,1134.945462187129,1123.5208108156771,-472.4310324377812,-524.3308456041743,-316.9589951875945,-129.80594647620185,151.56227388852912
7.782499999999998,1.3973510987604507,1.318562109967428,0.7231930911259633,0.013857626358494,0.0029045784890133,-0.013467792051351,0.0037123535868907,0.0009404968917119,0.1027411284338041,0.9947006905903676,-0.0012836358058246,-0.0362641177101677,9.840709715763568,-0.0110601213989372,-0.008982524442051,-0.0028915194986855,7.169420201217145,3.783225020195224,1.1768846511238151,1127.2604419738686,1119.972777366233,1133.7906739717303,1123.3354261417524,-458.92634469042673,-320.7856570191848,-622.0466385662027,-38.03800862865582,151.56181819112743
7.785,1.370953258687314,1.3180799265638803,1.050583812000992,0.0181688477611015,0.0052931542894794,-0.0119272003116852,0.0037497493836468,0.0009726058430558,0.1027475672088499,0.9946998569770344,-0.0050272795950585,-0.0332484247257855,9.83819943323336,-0.0109972207748159,-0.0092042636020013,-0.0028618528790607,7.169401967926298,3.7831924037248847,1.1768756472960529,1126.1018159161467,1119.3987691510463,1131.835228994298,1123.3306207725338,-449.7825495341864,-136.48304953415075,-891.0173855193506,20.160437805449448,151.56135515406575
7.7875,1.2790529378626632,1.3019022384369496,1.3657520817607776,0.0219131139140024,0.0084792779676903,-0.0086155814689208,0.0037851288598994,0.0010069518128511,0.102751054677472,0.9946993312614132,-0.00867100895132,-0.0299996256581776,9.835814611581672,-0.0109493991114541,-0.0094021744708045,-0.0028278607957875,7.169384239925336,3.783159743156864,1.176867500861276,1125.0115292261971,1119.290362118562,1129.3355870441328,1123.4362283307796,-397.69650762960674,76.93541829385302,-1083.4048902362842,56.38561639971278,151.5608843158445
7.79,1.1105148558418767,1.2445874229124168,1.618471235513114,0.0247615555783417,0.0123637195150095,-0.0036772444711976,0.0038158849105684,0.0010415514027761,0.1027530685533667,0.9946989724105674,-0.0121399359503402,-0.026651761398668,9.833515112488223,-0.0109158543220198,-0.0095762917695461,-0.0027881844373964,7.1693668432478495,3.783126887787772,1.1768589543189711,1124.1133333779987,1119.7834462425155,1126.4182045431166,1123.6125488545324,-325.18838246129013,341.93312012212846,-1305.345601259824,77.1834099535243,151.5604021505418
7.7925,0.8277796356550599,1.1094476707552752,1.8068211846024635,0.0275791216742526,0.0168329481703664,0.0029278806557199,0.0038412569900561,0.0010747380110018,0.1027573237609366,0.9946984015344104,-0.0153659065808681,-0.0233021838058864,9.831256512400461,-0.0108953002373956,-0.0097274038826935,-0.0027416351505294,7.16934867230776,3.7830935246876862,1.17684892793428,1123.3855873138907,1121.0000277191727,1122.8088590378338,1123.8221453805472,-194.0964241669504,521.3501729214497,-1284.5875143713147,65.58155585180569,151.55980817591555
7.795,0.5312390273232719,0.9402214504168044,1.8562668631738009,0.0297012131092162,0.0199004424530853,0.0083207197409271,0.0038627445581651,0.00110568048043,0.1027677029576396,0.994697213350967,-0.0182976165658911,-0.0199997712180984,9.82899190144187,-0.0108859844939084,-0.0098570778713126,-0.0026873395589421,7.1693294225556885,3.7830596208526,1.1768372008714194,1123.1428512571642,1122.3901971071227,1119.9952669712602,1123.9404566337914,-12.84424249674912,583.2550564837799,-1023.0029135327858,24.74732075456866,151.55929886431844
7.7975,0.1827663939104068,0.7233876022596745,1.8005453324455487,0.0312502115929743,0.0221385158080409,0.0132145260258897,0.0038846900951889,0.0011337977121944,0.102783994317043,0.9946954139700508,-0.0208886082726907,-0.0167323470328967,9.826673774788649,-0.0108857490389067,-0.0099677391227023,-0.0026249549900911,7.169309564516529,3.7830257991089873,1.1768244542175843,1123.3213661014072,1123.9163030015916,1117.69384447017,1123.94588198432,171.0384960570118,637.1397564653441,-838.7402137374189,-33.15397764590741,151.55877304797548
7.8,-0.2699629268824655,0.4304764024059778,1.6360553656984456,0.0316429288577083,0.0239502371619506,0.0183047830301043,0.0039092966004152,0.0011596054722534,0.1028026880519413,0.9946933568146672,-0.0231246825288118,-0.0135205178266419,9.82425620996955,-0.0108921674953507,-0.0100625751197379,-0.002555012083341,7.169289081884841,3.782992933836308,1.1768117410414491,1123.9980437374493,1125.5758958894492,1115.8015659025732,1123.774686745562,309.84227025374565,538.9778507026791,-524.722431930388,-95.425047332312,151.55812166649767
7.8025,-0.6493694284463881,0.1782740070888238,1.43982920197884,0.0306200925148645,0.0247776504293655,0.0216302320748421,0.0039343270260907,0.0011842649338076,0.1028229373277889,0.9946911358876122,-0.0250204115057492,-0.0104620110428561,9.821697092898928,-0.0109027475057929,-0.0101452540060971,-0.0024790523916275,7.169268197932852,3.782961513045512,1.1768005833913209,1124.870577452676,1126.6111922551047,1115.070232310518,1123.4687567476583,381.8002503266456,313.5038299223162,-111.9733220137557,-152.22521855091495,151.55756180769586
7.805,-0.9954194623479432,-0.0579206860600298,1.2066148205162675,0.0284815891221981,0.0246650739013478,0.0239105721575029,0.0039573782629073,0.0012100238529825,0.1028448998933679,0.9946887409324584,-0.0266191124206092,-0.0076459811942221,9.818959997362665,-0.0109149451876528,-0.0102197561673548,-0.0023994509976361,7.169246555103343,3.7829316032532394,1.1767918662118424,1125.9070449890828,1127.1434150390612,1115.2416992925043,1123.0135606528072,447.7827671357868,117.32217025787826,257.7245045991786,-219.3912016104652,151.55698563135076
7.8075,-1.3319446305336349,-0.2963196968271111,0.8994451713502433,0.0247717852761257,0.0234104874878014,0.0260011937041963,0.003978136072114,0.0012379838921433,0.1028704748488792,0.9946859749289488,-0.0279445242750528,-0.005112864466487,9.81601582239287,-0.0109262359836071,-0.0102900966357669,-0.0023190588289589,7.169224212026792,3.782902974651525,1.1767857187181139,1127.1094912883548,1127.1978031063943,1116.358854833514,1122.3718007396062,400.9089441679493,-58.12278023258965,521.9764560034603,-235.2866333195884,151.5562787597192
7.81,-1.5205814884206523,-0.4441260284745387,0.6204413709375172,0.020702890408711,0.0218066448451623,0.027828258765153,0.003998680117945,0.0012678586507253,0.1028991873966918,0.9946828785983112,-0.0289949674202093,-0.0028488750822352,9.812844164888688,-0.0109340926929748,-0.0103601528744613,-0.0022408546587577,7.169200980764462,3.782875183651016,1.1767811608124215,1127.9115897099225,1126.8528011378983,1117.8515815725216,1121.8371274862093,250.35002912105108,-179.821182970458,647.1600468236056,-194.9537291305701,151.55568050308068
7.8125,-1.5910623939911734,-0.5346015645420165,0.3105776717381427,0.0156191348333009,0.0200498302173012,0.0299161163292236,0.0040223557837361,0.0012973417393374,0.1029291127550146,0.9946796403603292,-0.0297327347036781,-0.0008098653187586,9.809434416987001,-0.0109360881928966,-0.0104334171894992,-0.0021676845719907,7.169176868336174,3.7828482163816153,1.1767768293335419,1128.36124143396,1126.298697191542,1119.594655067632,1121.3970320939532,113.25002092644596,-220.99089779654167,680.6687730993108,-150.25114747809633,151.5550785268075
7.815,-1.5588147811142903,-0.5824406543358368,-0.0246048212284614,0.0099424799816383,0.0183255122327203,0.0317547495417839,0.004050254274988,0.0013250964367959,0.1029576161358018,0.9946765303494672,-0.0301486980343446,0.0010150679446006,9.805786598824064,-0.010930000973341,-0.0105127763837996,-0.0021022817097874,7.16915154674172,3.782822080129976,1.17677249355503,1128.4778398145547,1125.7478466489156,1121.254925438018,1121.0858717488188,-24.05662175415324,-177.18156004553217,576.6378246347481,-88.6197430129433,151.55447888665876
7.8175,-1.421776382109802,-0.5921403479650575,-0.3715440019625658,0.0044161707887409,0.0168209440077417,0.0323018393069492,0.0040806369291722,0.0013496717481867,0.102983398524191,0.9946736925573546,-0.0302411664028446,0.0025889488660111,9.801911765229686,-0.0109140085003958,-0.0106002763188573,-0.0020472562608248,7.169124094037815,3.7827965462320585,1.1767680967305572,1128.2409583251892,1125.4127893913144,1122.4778441908056,1120.9539333788887,-153.08639220320728,-51.75244500205846,374.1327022274697,-19.41461153987844,151.55388988623685
7.82,-1.1984991492873363,-0.5811430468058487,-0.7534564656928407,-6.103625058178082e-05,0.0155346018797271,0.0301816124796817,0.0041089310593154,0.0013721127608644,0.1030068001698961,0.9946711095201012,-0.030065392629753,0.0038306763993791,9.797831973433667,-0.0108869127610205,-0.0106969307442369,-0.0020051820659639,7.16909479335665,3.7827711782429247,1.1767633767138044,1127.7124078535387,1125.4890844239053,1123.1255889491551,1120.9887986911194,-203.76791299386676,130.09755806993147,84.92827051795938,38.54706721763333,151.5532064017183
7.822499999999998,-1.0271302153740522,-0.5671079581264444,-1.0035988577706438,-0.0010089553101363,0.0146586603068037,0.0263044691427412,0.0041321344485428,0.0013924129129413,0.1030262364166624,0.9946689583999128,-0.0296539073186674,0.0046921444371122,9.793579738211529,-0.010848352023376,-0.0108026712001467,-0.0019784786865199,7.169065028271576,3.7827452152091583,1.1767582613552547,1127.22211876022,1126.063277181664,1122.9024855433954,1121.1466687149768,-174.3426614694309,345.0125018129784,-223.83300426732168,80.63100247436694,151.55266378152317
7.825,-0.9377420549741704,-0.5577634891165295,-1.1546328612202423,-0.0002063099745901,0.0134641034910166,0.0219017292780713,0.0041509716484726,0.0014082494296314,0.1030413551982595,0.994667276908834,-0.0289861103745553,0.0051959800702858,9.789197245760489,-0.010799047105303,-0.0109162598126272,-0.0019693950061145,7.169036909906865,3.7827171822235592,1.1767535042310535,1126.8406945461916,1127.21414693297,1122.0064239278188,1121.3919537034913,-123.06222675995636,625.7337680264686,-474.864284449512,119.88493892761596,151.55215666225723
7.8275,-0.9520987838031199,-0.5566454647131692,-1.225871317801427,2.927524648609149e-05,0.0117611516765847,0.0175914400721403,0.0041663532052338,0.001414629345453,0.1030518378499154,0.9946661030745616,-0.0279872109513386,0.0053643295982957,9.784735656026958,-0.0107407398728421,-0.0110354908999414,-0.0019800826644211,7.1690122371642975,3.782685689820231,1.17675013999898,1126.60680762642,1129.1919460217969,1120.5281641211475,1121.746093409615,-48.46163160245953,798.2996743823776,-536.2067696639884,137.2412542790273,151.55159598944266
7.83,-1.0460407328401484,-0.5672632993684479,-1.2146734915826287,-0.0012993933119735,0.0103533751622581,0.0149130304328377,0.0041816002503421,0.0014092870815103,0.1030581327310189,0.9946653815087936,-0.0266277439223475,0.0052719485769975,9.78025360627332,-0.0106759192516014,-0.0111576240083286,-0.0020125062129361,7.168992042143894,3.782650720359272,1.176749067417947,1126.5983863881793,1131.205645304882,1119.325390079499,1122.0781599748864,22.051422667619146,834.5728089019027,-387.87058679486927,140.57036120971432,151.55117237742616
7.8325,-1.173118917329927,-0.5951733262809574,-1.1594191019372606,-0.0042879935672713,0.0087714591904942,0.0128656719801341,0.0041953751440281,0.0013966186184278,0.1030626237485013,0.9946648647210896,-0.0250134581236383,0.0049159056884442,9.775816185946452,-0.0106073826433945,-0.0112799050805934,-0.0020684012961097,7.168975727530499,3.7826133359835032,1.176750284830694,1126.717064739758,1133.3648100663063,1118.5888111871732,1122.4489452156636,58.82957659305373,918.6524068193389,-142.231426793572,171.0567115419999,151.55079699007285
7.835,-1.2963078162843282,-0.6576558178919703,-1.065570366801747,-0.0094447447375734,0.0069927857317368,0.0103292542699614,0.0042049448150729,0.0013836977099401,0.1030669406205978,0.9946643864948485,-0.0233006452886818,0.0042710960154546,9.771493048577588,-0.010537701849501,-0.0114001421818608,-0.0021487699622709,7.168961718686785,3.7825750654380825,1.1767525179213836,1126.8925342711443,1135.7989073389783,1118.614232945531,1122.9334435325964,54.83142666516986,818.9228767145497,182.70223775207728,178.84127375119004,151.55040382506678
7.8375,-1.3372034378874955,-0.7419446738493551,-0.972101478683612,-0.0143497327920102,0.0060338225563461,0.0077624472552516,0.0042034961410536,0.0013779326083306,0.1030735134480005,0.9946637157227176,-0.0216560586693697,0.0032337354872854,9.767356667846862,-0.0104688809654852,-0.0115169650143224,-0.0022536411539283,7.168948640182349,3.7825363553795537,1.1767540962856295,1126.991221873084,1137.4594244498787,1119.5023223759335,1123.3431515844195,18.982758922675607,540.23983662388,515.9545416733746,151.35525658224975,151.550123832825
7.84,-1.295805137872999,-0.8635043250053008,-0.868414504324934,-0.018884187602178,0.0053857784341198,0.0050870750815343,0.004186377280627,0.0013848729373069,0.103081828343611,0.9946629202156574,-0.020202229246908,0.0017391048299006,9.763479789514205,-0.010402077062484,-0.0116300455104638,-0.0023818233524881,7.168935358905776,3.782497753032216,1.1767530782179876,1126.987448065758,1138.500106522098,1121.1940056538979,1123.6902198155076,-19.5847174511077,290.0288227483605,765.6420760019664,114.49331222366044,151.54989196768915
7.8425,-1.1927296354457884,-1.0069395727409092,-0.7640352116896043,-0.0227093827072132,0.0042780836413504,0.0027979272717501,0.0041580656988737,0.0014026069897152,0.1030865623158042,0.994662532810656,-0.0188955210077033,-0.0001135430322296,9.759932899677322,-0.0103375575250713,-0.0117401619557031,-0.0025308220480724,7.1689208112093,3.7824596136061617,1.1767489428551174,1126.8932982858285,1138.9095685636207,1123.3305327559433,1123.9156181455376,-53.997847951769714,2.4923993923494514,887.507705270919,45.41248217106028,151.5496985921002
7.844999999999998,-1.0402782481333852,-1.1482378675673628,-0.6743110338765275,-0.025508085611845,0.0018096601707265,0.0012248515046282,0.004124737391021,0.0014268864567024,0.1030853421543744,0.9946627763847324,-0.0176419271217192,-0.002194435483051,9.756782907335332,-0.0102749812898095,-0.011848904949161,-0.002697488559169,7.168904371814767,3.782422556946748,1.176741991267802,1126.717458825999,1138.5125685190596,1125.6315441802524,1123.9172822263629,-86.45322333618608,-346.0122090222359,953.9726305349379,-59.51482937448545,151.549549707967
7.8475,-0.8412099690712044,-1.2679726308022812,-0.6050307211761253,-0.0274625709959027,-0.0027293351871109,6.138568912264177e-05,0.0040919414233294,0.0014503357568218,0.1030793749149241,0.9946635110367495,-0.0162875348239018,-0.0043892278923204,9.754091746611664,-0.010213656061203,-0.0119584472696069,-0.0028784511743649,7.168885811544,3.7823872732442783,1.1767334748352716,1126.4610321691475,1137.1795075185096,1128.1003959086179,1123.6180439986651,-97.46588003752846,-602.2176839348472,800.9942225970574,-152.95070726185597,151.54941976493447
7.85,-0.6885427198869186,-1.2972779011497146,-0.5902106509583485,-0.0279092907934767,-0.0073563058341176,-0.0005199708358379,0.0040615468040505,0.0014673370293608,0.103072135431728,0.9946643755657212,-0.0147204579853676,-0.0066477224478275,9.751915297314214,-0.0101527550774718,-0.0120712463533855,-0.0030705555401766,7.168865826433203,3.7823538034419135,1.1767243991097485,1126.2301294258111,1135.5014800993847,1129.6365152932383,1123.1525286900535,-100.12340874455035,-738.0185432612208,469.15366279273354,-205.65454917805687,151.54934992541263
7.8525,-0.5645616550214774,-1.2396324298625407,-0.6213130244187977,-0.0278307756023117,-0.011963511415348,-0.0009777065683548,0.0040338328477025,0.0014741495288214,0.103066535846143,0.994665072306177,-0.0128696547797529,-0.0089425875781479,9.75030227105984,-0.0100914679815335,-0.0121897558815465,-0.0032709288387768,7.168845793912499,3.7823217871389305,1.1767147878729063,1125.9604151254248,1133.4894148022036,1130.4461642225815,1122.589771252775,-145.8708024527854,-896.7299208150243,184.68328469266848,-225.65413315310727,151.54931722541954
7.855,-0.4353237596998398,-1.0870049305943033,-0.6941039106032929,-0.0279565786076832,-0.0163306939904151,-0.0017905268282616,0.0040076607509396,0.0014717376221746,0.1030630022515225,0.9946655595991925,-0.0107600166377084,-0.011260261489858,9.749293540934397,-0.0100290044448321,-0.0123161661746475,-0.0034770546587988,7.168827360784033,3.782290043510189,1.1767043669540258,1125.5007754135474,1131.01783049531,1130.5599317167016,1122.024258024288,-209.7828781888028,-873.112049673337,-82.11665252047342,-155.50098892268002,151.54931746133383
7.8575,-0.3153376311318763,-0.9198832875376292,-0.7582664650543056,-0.0286633998516922,-0.0187127774104421,-0.0033002992708004,0.003983558160267,0.0014587275131363,0.1030618502172109,0.9946658037347244,-0.0083702139450676,-0.013555726745411,9.748921401799466,-0.0099645864804654,-0.0124522246017493,-0.0036865902936602,7.168810990868984,3.7822574101505335,1.1766935296643395,1124.9115007344808,1129.1238545538367,1130.0355809599791,1121.8122663081615,-297.9526541643345,-686.4341681152983,-299.6306534411424,-2.1036378389454047,151.54934786604483
7.86,-0.1378028574501479,-0.753470989460161,-0.7858886122342837,-0.0301596853240793,-0.0199833873768859,-0.0061428197123622,0.0039636829880118,0.0014364176667845,0.1030604952969889,0.994666061117514,-0.0057303660597757,-0.0157436580995208,9.7492093427396,-0.0098971327705757,-0.0125993307415865,-0.0038974554223286,7.168795285896788,3.782223976316325,1.1766829166766533,1124.0110121427258,1127.5856596547335,1129.061778449496,1122.0137398350932,-475.4353199841818,-571.7317573944123,-481.5635904171007,190.73270677218207,151.5494063114761
7.8625,0.1854760170147424,-0.5958271610477264,-0.7386999622370085,-0.0324213189806161,-0.0207068976141155,-0.0104160129148759,0.0039487779938946,0.0014077669623132,0.1030549283218246,0.9946667398733104,-0.0029089951143985,-0.0177604267937041,9.750171940970251,-0.0098251564574047,-0.0127585797682359,-0.0041078277307462,7.168778779842984,3.78219001142885,1.176672777065164,1122.53432413456,1126.2651957668647,1127.6277630078937,1122.7659298420226,-597.8253751725915,-391.3078013223268,-536.6031489122748,343.4919199339293,151.54950515919109
7.865,0.5581926767542139,-0.5175982284640748,-0.6239706298426034,-0.03389364344883,-0.0210013409826665,-0.0136513111877282,0.0039375556372016,0.0013753305776155,0.1030432835880842,0.9946680355799352,2.5284649518102917e-05,-0.0195814750795534,9.751814598516445,-0.0097469127244984,-0.0129307216010607,-0.0043159887883179,7.16876107833939,3.78215590278446,1.1766637412887406,1121.021885266863,1125.629120648122,1126.3787627049346,1123.7311994347629,-634.0373945897145,-162.60657691638886,-480.72746670924727,411.7790349942236,151.5496089391905
