t,ang_acc_x,ang_acc_y,ang_acc_z,a_vel_x,a_vel_y,a_vel_z,quat_x,quat_y,quat_z,quat_w,acc_x,acc_y,acc_z,l_vel_x,l_vel_y,l_vel_z,pos_x,pos_y,pos_z,mot_1,mot_2,mot_3,mot_4,dmot_1,dmot_2,dmot_3,dmot_4,vbat
0.0025,3.161737641543047,-5.779900269174332,0.1551563070826381,-0.2337502411120719,-0.1813353478982036,0.0122313421440359,0.004082346962412,0.0061957204733001,-0.0604813478622142,0.9981420248820562,-0.0593877871452397,-0.0386072815410309,11.291473580428795,0.1015416096144388,-0.0871373015213031,0.8681619807708794,-0.9623078220108494,0.8231406422285132,0.1995055165842877,1145.2872782680683,1193.5670188758256,1178.2243429960995,1175.372769578324,801.1097118580436,-1259.0407092174244,-278.09019161049946,-1453.9107101685659,163.72509449547815
0.005,3.979179459621161,-5.188704923651544,0.0577749541662067,-0.2212161054606493,-0.1966062962211337,0.0096427007662245,0.0038629593385617,0.0060427779858354,-0.0604490563927902,0.9981455991124976,-0.0575868076418887,-0.0429475708468062,11.294271631196787,0.1019284695371619,-0.0876759019045243,0.8716118846094554,-0.962055148852054,0.8228748405708123,0.2016869497229173,1147.2900525477135,1190.419417102782,1177.5291175170735,1171.7379928029027,771.1392813765542,-1145.1321918699707,-338.357082009361,-1347.1195448940307,163.73655087176252
0.0074999999999999,4.308534814966095,-4.647875722843648,0.0829488388317855,-0.2080150976332779,-0.2076546197637374,0.0076422962779135,0.0036435762277649,0.0058816627208174,-0.0604173821396533,0.9981491639166932,-0.0556224117177645,-0.0472745459670639,11.296977586344825,0.1023324926133617,-0.0882161864770241,0.8750702571139516,-0.9618017380469586,0.8226086151327964,0.2038685242634147,1149.1429746749511,1187.8413579164755,1176.5325575860527,1168.637171853854,721.8839968453267,-989.240769204207,-494.3454724810636,-1229.6795610445315,163.74546583617015
0.01,4.2143326957949325,-4.093953548928671,0.2061583717335088,-0.1937130683955183,-0.2172846691760481,0.0064639795464856,0.0034234672046599,0.0057095758212616,-0.0603843578167415,0.998152839876748,-0.0534504697273706,-0.0515968366668053,11.299504592919524,0.1027589851356595,-0.088759240654501,0.8785437655819589,-0.9615477674001078,0.8223422079928429,0.2060515553907395,1150.89947253194,1185.473213256761,1175.057390154668,1165.58959499768,703.0005786488344,-956.8698952000428,-746.5847364780074,-1304.676742593619,163.7537336470291
0.0125,3.6220460836756416,-3.441724569768681,0.4142530788246595,-0.1785226310000749,-0.2273390510652063,0.0067776298774296,0.0032016307668724,0.0055205940291558,-0.0603506802303477,0.9981566041188414,-0.0509608385061603,-0.0559236532909574,11.30173818706211,0.1032195800174255,-0.0893055788123418,0.8820383626508314,-0.9612941532221791,0.8220754875847783,0.2082388221435421,1152.6579775681953,1183.0570084404756,1172.7996339036629,1162.1137881408858,567.8004370003692,-792.1957614920302,-885.1309786326055,-1231.1602030507859,163.76291685288683
0.0149999999999999,2.78834919641954,-2.919598237104041,0.5850491949814481,-0.1690438214463077,-0.2344343588187003,0.008769390617093,0.0029770756804118,0.0053125922975741,-0.0603195806869637,0.9981602584462124,-0.0481329516508965,-0.0602678487901947,11.303537799616622,0.1037200310465299,-0.08985539115899,0.8855597504030174,-0.9610422044387298,0.8218073621941496,0.2104324822044465,1153.738474716942,1181.5122344493009,1170.6317352615051,1159.433793982426,347.6218512027571,-499.56007256168954,-885.9177537590765,-1018.914745729671,163.76996147072978
0.0175,1.7134609928883928,-2.423474607364717,0.6932293385939596,-0.163484999860322,-0.2402864612658234,0.0120230749057582,0.0027494907434592,0.0050824828583646,-0.0602947090947298,0.9981635835061567,-0.0449284886082044,-0.0646241912438548,11.304740942356492,0.1042678870281942,-0.0904073866559436,0.889111997978486,-0.9607922385409158,0.8215377171826576,0.2126338032212222,1154.396086824209,1180.559208077667,1168.3700451348675,1157.0192144122375,201.62237841982457,-268.0927463121861,-962.3385456149203,-1004.124351707878,163.77638318704652
0.02,0.2954771009189074,-1.85228221138132,0.7077902467701201,-0.1613610036165191,-0.2460637971620975,0.0160393341236054,0.0025222098553494,0.0048332458514732,-0.0602742950298412,0.9981666428162908,-0.0414534965901659,-0.0689118657381019,11.305167211153346,0.1048582982093247,-0.0909556769172,0.8926991738963825,-0.9605438514922712,0.8212669513861293,0.2148433814865005,1154.746586609041,1180.17177071774,1165.8200425334303,1154.4131722238867,66.45388763413396,-15.220158758302212,-868.8027846293156,-917.9747109695203,163.783379171215
0.0224999999999999,-0.8856928101477612,-1.387054398635816,0.616366326248425,-0.1630781387153442,-0.2502028030408625,0.018824110546999,0.0022959762302379,0.0045694646073905,-0.0602570330969065,0.998169471308918,-0.0378472216082362,-0.0731087674827499,11.304624142947915,0.1054832430397315,-0.0914991991805371,0.8963231075582581,-0.9602955652094272,0.8209961946932304,0.2170619728366636,1154.7283562623795,1180.4831072838756,1164.0260312117207,1152.42934085739,-61.49958293676717,240.15023845508944,-610.4578870803379,-774.7638468856621,163.78862573718663
0.025,-1.953820826402092,-0.9215981253382663,0.432386344049977,-0.1679361127356221,-0.2537643935483747,0.0207898134393449,0.0020725358657631,0.0042903062561724,-0.0602413248189322,0.9981721471708904,-0.0341271015838219,-0.0771605239601466,11.302914049228663,0.1061433692556929,-0.0920347930081839,0.8999826060872558,-0.9600461913729748,0.8207258827012303,0.219291030056905,1154.4390886943572,1181.3725219100152,1162.7677530980288,1150.5393529894584,-158.27387951176203,424.2937577776956,-396.19033459471206,-755.5762440667421,163.7932779379119
0.0275,-2.8597700440316047,-0.453971219015637,0.1952048076336397,-0.1751124494001996,-0.2563970222966546,0.0220534621263024,0.0018523994624424,0.0039967751746118,-0.0602288555301158,0.99817454738418,-0.0303474317334798,-0.0810404793642618,11.299839465039303,0.1068360075018598,-0.0925610870768267,0.9036745334306427,-0.9597957479602413,0.8204553957182402,0.2215320709817876,1153.9369868648207,1182.604576072764,1162.0450795387471,1148.651459637056,-255.55275654546688,525.410684174358,-154.7715936464102,-763.5298939549106,163.79744657768435
0.0299999999999999,-3.5095024362103864,0.0050540618628974,-0.0683985829601075,-0.1847440276191835,-0.2575033464397291,0.0223732966020536,0.0016330171415517,0.0036900940906629,-0.0602193059590223,0.9981766789057805,-0.0265594013494362,-0.0847883331337046,11.295209567191481,0.1075573207398653,-0.0930827347128016,0.907393388597331,-0.9595444846193322,0.8201845506843145,0.2237849102461999,1153.16132491163,1183.9995753308872,1161.9938951297968,1146.7217035196838,-411.15733420442655,575.4448547068477,116.71210804261132,-848.4287521891017,163.80104452175706
0.0325,-3.9490789172451906,0.5164322233903704,-0.3604425852819904,-0.1982583603964351,-0.2570691511820141,0.0214620875137299,0.0014099181010621,0.0033719832809956,-0.0602095647797466,0.99817872264193,-0.0228177024443387,-0.0884843212535656,11.288846449460047,0.1083015902015183,-0.093608621631594,0.9111319227511092,-0.9592920212022836,0.8199129191850208,0.2260485540864112,1151.8812001937988,1185.4818003462983,1162.6286400789604,1144.4093158761107,-528.4100215390022,457.8028278386224,323.0269645143832,-823.0025234716315,163.80471974923395
0.035,-4.030030757438687,0.8818260931303507,-0.5439543128556866,-0.2098860798334004,-0.2552945588563177,0.0195055079980031,0.0011814854194041,0.0030431294348381,-0.0602005651458668,0.9981806172710938,-0.0191505775407974,-0.092138919430835,11.28059162011956,0.1090648589824514,-0.0941415389796003,0.9148820480148327,-0.9590380243670108,0.8196400171204017,0.2283222336804712,1150.5192748039349,1186.2885894700803,1163.6090299523687,1142.6066909023257,-597.1085717133523,184.16409645965368,443.8208535215383,-653.5462772890245,163.80726094810973
0.0374999999999999,-3.8493317853324336,1.1499346663696692,-0.6277599368976658,-0.2201508835699025,-0.2519844818087455,0.0163691699014585,0.000947412997851,0.0027066736541275,-0.0601917681855133,0.9981823839811856,-0.0156361287041297,-0.0957322061067261,11.270311252678088,0.1098378570513914,-0.0946825774889738,0.9186353979949176,-0.9587821767914648,0.8193654831461021,0.2306058055896484,1148.895657335232,1186.4026208285964,1164.847744346568,1141.1415844896655,-752.9819883416624,-139.66520793796923,549.3224262260358,-518.2089216392344,163.8092783849264
0.04,-3.4009245462605673,1.3300619473620532,-0.597224850467849,-0.2300192974518087,-0.2467916294282744,0.0121472048225883,0.0007116151694271,0.0023685393097335,-0.0601811895713519,0.9981841200262282,-0.0124129501719604,-0.0991487375080318,11.25790158121194,0.1106051915642923,-0.0952258793329096,0.922384071218406,-0.9585244903499384,0.8190899246195155,0.2328988805125468,1146.7543648622263,1185.5902634303905,1166.3556420834989,1140.0156462941295,-798.5263582740565,-458.190115973684,516.6427966199985,-282.4061128719675,163.81111470620513
0.0425,-2.888757669091941,1.356463263451691,-0.4776011551648009,-0.2364591511075903,-0.2423907356119574,0.0093252023797165,0.0004731694372539,0.0020382093232189,-0.0601680689060796,0.9981858428220804,-0.0096844720845161,-0.1023822635382454,11.243292269575864,0.1113455457624026,-0.0957748174286326,0.9261190049678648,-0.9582660947055388,0.8188135491439986,0.2352021418626758,1144.9030255438615,1184.111670248728,1167.430958329668,1139.7295539253057,-736.4786619894406,-741.6073114494341,351.8917796146072,30.860026947812017,163.812172777518
0.0449999999999999,-2.2843007700621967,1.2689639626628295,-0.3080569472363884,-0.2417016617720468,-0.2387698402231975,0.0079675584746599,0.0002296371040494,0.0017186612550092,-0.0601539938740038,0.9981874443150036,-0.0074974027162832,-0.1054469947290452,11.226450569854393,0.1120502500260205,-0.0963346911338461,0.9298285575836698,-0.9580065512732084,0.8185370998841405,0.2375160757039436,1143.0719715522791,1181.8822268731433,1168.115100981572,1140.1699464288683,-793.245638927829,-1119.499642852043,179.47173983575348,345.34043933281293,163.8127580643758
0.0475,-1.4911231929257471,1.0666626667882564,-0.1227022561580826,-0.2470712085301792,-0.2355687902502988,0.008478495091183,-1.8246632165485545e-05,0.0014130759857645,-0.0601372640100473,0.9981890140310024,-0.0059006593754425,-0.108281678434702,11.20738403419896,0.1127095364451058,-0.0969060392681668,0.9335009673553945,-0.957745371307466,0.8182614365228748,0.2398407005444971,1140.9367973492226,1178.514172034468,1168.3283170288469,1141.4562561219695,-777.2862590367814,-1317.3336428874325,-32.04099379636315,569.5682257076892,163.8129332786808
0.05,-0.795558512615879,0.8445618954094818,-0.0351213016332411,-0.2507836404692926,-0.2338192141804145,0.0106832622966447,-0.0002707663847334,0.001122548871572,-0.0601159315605181,0.9981906599748432,-0.0048893463495938,-0.1108411133705105,11.18614162941594,0.1133180270116699,-0.0974912902528585,0.9371231757360808,-0.9574826010862386,0.8179868900705147,0.2421761902507384,1139.1855402570955,1175.295558658706,1167.95489601259,1143.017787557407,-710.3237632352377,-1325.9046637268973,-257.78066993539153,678.5199980308338,163.8126537670773
0.0524999999999999,-0.0974979517904728,0.5939155295721638,-0.0506846526648897,-0.2529398530619046,-0.2327198079514512,0.0137002084819506,-0.0005304146954429,0.000839287329122,-0.0600887730777843,0.9981924569561758,-0.004253482988851,-0.113114071857474,11.1628141244415,0.1138881038713189,-0.0980958171506771,0.9406793155409648,-0.9572187788339293,0.817712836505602,0.2445241727837829,1137.3851785330464,1171.8846487158335,1167.03941367917,1144.848856112124,-743.79989358813,-1356.9649087200112,-440.93359683884074,736.4956768837603,163.81194845435337
0.055,0.564881356374718,0.3325227891039428,-0.1429048711030672,-0.2529874872502324,-0.2319662427706894,0.0159573248984009,-0.000800498006668,0.0005526418520051,-0.0600551648709055,0.998194447390687,-0.0037181766805276,-0.1151010867627332,11.137533169615194,0.1144388392959639,-0.0987258860898118,0.9441526288477796,-0.9569547567946008,0.8174386514045259,0.2468858611622099,1135.4665407891548,1168.510734115106,1165.750228028396,1146.7002659418258,-813.0590753444714,-1294.0290619028008,-578.2798738958257,698.9429002017908,163.81090150705575
0.0575,1.126040856789568,0.0663608665443758,-0.2750554775247426,-0.2501389351458927,-0.2317533418095954,0.0159016438160718,-0.0010806369872222,0.0002527728614893,-0.0600147614824018,0.9981966571712206,-0.0030341959598049,-0.11672077973807,11.110469691536272,0.1149886563553172,-0.0993805472788753,0.947527787554284,-0.9566910360025462,0.8171645967208389,0.2492607684889694,1133.319883156324,1165.4145034063195,1164.1480143096908,1148.343570613133,-1008.0791282881823,-1251.1258857931812,-736.410531263937,629.72493651414,163.8094559904893
0.0599999999999999,1.6110878474945942,-0.2538336365776501,-0.386215091825643,-0.2439883877878097,-0.2322061342173343,0.0129346706193172,-0.0013723449565751,-6.2265308231221e-05,-0.0599682059441445,0.9981990417839596,-0.0021293559226293,-0.1179454749723021,11.081829380003024,0.1155426034948578,-0.1000626702688738,0.9507919490085082,-0.956428161123218,0.8168916180058979,0.2516476512955557,1130.426145147714,1162.25510468614,1162.0681753720762,1149.8488906243963,-1108.3050122360878,-1049.074165964976,-759.7251569465246,457.7102349994677,163.80727730338643
0.0625,1.8245927234908368,-0.5206938467531796,-0.3797786088815928,-0.2374077515102634,-0.2330345896803811,0.0090073618926511,-0.0016717043880796,-0.0003945814659043,-0.0599235482951034,0.998201111594818,-0.0009396303931193,-0.1186305377261586,11.051849271462485,0.1161077856454611,-0.1007625269383399,0.9539351982288168,-0.956167054194998,0.8166198030575191,0.2540466418488068,1127.7783580951436,1160.1691325764943,1160.349388524958,1150.6321217881302,-1081.8183148099242,-728.2938819172606,-655.6580656943419,216.87038872973952,163.80510344749382
0.065,1.8363455643444004,-0.7875148538219834,-0.2389753720023281,-0.2301103501029533,-0.2340515268181204,0.0052435458141588,-0.0019761397289687,-0.0007419070790767,-0.0598871776273694,0.9982024748225464,0.0004969863044556,-0.1186732286111211,11.020790711538128,0.1166834893171396,-0.1014729916968543,0.9569506771357502,-0.9559082392373796,0.8163486273092455,0.2564566907251476,1125.0170535736643,1158.6136352765539,1158.7898850436045,1150.9332425680452,-1189.31868989407,-602.5609867759152,-626.5101038236929,41.6663803228857,163.80257125395264
0.0675,1.6699418738442091,-1.1007617362244102,0.0585313246687383,-0.2219082488386818,-0.2357076924637793,0.002641169194953,-0.0022825222963216,-0.0011010728018505,-0.0598636667730313,0.9982028545595686,0.0021141873136644,-0.1179684982365598,10.988932963747231,0.1172671919363578,-0.102185455096658,0.959834732159646,-0.9556511422523692,0.8160779202088165,0.2588750294734998,1121.8317646456733,1157.1563276426148,1157.2168380058397,1150.8404536897447,-1101.300819627976,-508.23851692775816,-518.3647074958112,-90.12833573815432,163.79913345682084
0.07,1.4585648621089586,-1.3407368705037508,0.3589931881781705,-0.2172988223907549,-0.2380239667909507,0.0030069476209554,-0.0025886233093112,-0.0014700003385702,-0.0598543927847093,0.9982021693094726,0.0038621009815307,-0.1164407203532118,10.956565659489748,0.1178580089943916,-0.1028925961572484,0.962586407681868,-0.9553945179652547,0.8158077454314683,0.2612980889908573,1119.5105494755244,1156.072442691915,1156.1980615061254,1150.4826008893544,-807.2580312176812,-455.2647920521858,-345.83992239950084,-181.2067397761897,163.7959466151111
0.0724999999999999,1.293410616195184,-1.5285247416564325,0.6320628954503295,-0.2163441443565356,-0.2416718381240047,0.0060612230462189,-0.0028904647993935,-0.0018463580313991,-0.059855867912374,0.998200640825821,0.0056736363806248,-0.1139896480785773,10.923981541286304,0.1184533710020121,-0.1035837563445346,0.9652081717639588,-0.9551377401530946,0.8155375642310161,0.2637243463400085,1117.7954744895849,1154.880003682354,1155.487638393842,1149.9344199908635,-569.2126329890026,-586.152434206316,-249.83035461364173,-272.1240904692882,163.79243775660512
0.0749999999999999,1.2741665661302979,-1.6546077380428987,0.8514312735934537,-0.2176722216960373,-0.2471666605146222,0.0111394704786576,-0.0031808159496879,-0.0022253618649313,-0.0598613238982403,0.998198705005426,0.0074152045390209,-0.1104632506029153,10.891469102772824,0.1190449236261988,-0.1042418112857431,0.9677062855801531,-0.9548808379160476,0.8152668693849042,0.2661531146808638,1116.6644863105792,1153.1416805208835,1154.9489097330572,1149.121980437008,-243.8444822026665,-694.3980291855945,-155.54369057304015,-322.40291416383087,163.78786846416975
0.0774999999999999,1.4532973557722395,-1.6554432283741407,0.9183666382185072,-0.2186641268327548,-0.2520933697887093,0.0151822913079437,-0.003455735482264,-0.0026014578624662,-0.0598645118200909,0.9981967639362274,0.0089335138362622,-0.1058001938148764,10.859304552445918,0.1196233268016551,-0.1048546998454447,0.9700883852642996,-0.954625127186925,0.8149942567137605,0.2685849606065282,1116.5762520785715,1151.408013536426,1154.7099199409768,1148.3224054200443,136.97347443139722,-733.8375891141361,-65.86565951311053,-352.3188154728356,163.78377142239188
0.08,1.8198531775620288,-1.5371012494392402,0.871359410744856,-0.2177536172733067,-0.2568097388637086,0.0182632954067695,-0.0037105748560572,-0.0029708412014677,-0.0598621179263225,0.9981950469355164,0.0101061170037809,-0.0999403065309706,10.827745947373288,0.1201831804041108,-0.1054070537460195,0.9723632127986004,-0.9543720235915504,0.8147183527483169,0.2710210786567119,1117.3493536827364,1149.4724925753128,1154.6195814354917,1147.3603863596438,429.8658469006564,-778.0160302851974,-21.214690465058062,-420.5239131340928,163.77938525399816
0.0825,2.2844049705543825,-1.3235906661953976,0.7534123091140423,-0.2141010555612602,-0.2610348622534135,0.0204977263526606,-0.0039433259308709,-0.0033337198730023,-0.0598498382197628,0.998193827159876,0.0108951637831894,-0.0928941021055099,10.797027094818148,0.1207269053101453,-0.1058877422448949,0.9745389316310886,-0.954123179518589,0.8144381762328393,0.2734632592567259,1118.7255813130748,1147.517933385,1154.6038464886517,1146.219785854374,652.1885245317202,-740.052190728283,1.6113159603264635,-508.3321710613741,163.7747676131349
0.085,2.766453975540242,-1.012671987068655,0.5878406120982624,-0.2065072185714393,-0.2644847650898948,0.0218823444779949,-0.0041525210742866,-0.0036896877581304,-0.0598240542417049,0.9981933410623614,0.0112461023156004,-0.0847023027897111,10.767353097004058,0.1212555371179822,-0.1062865860533114,0.9766244828032103,-0.9538794836336876,0.8141536627314716,0.2759124629657647,1120.6102963053947,1145.7722316216712,1154.627638015293,1144.8187255043367,882.3154736653571,-660.6481701021943,8.645055583883725,-679.1563526060594,163.7698809183136
0.0875,3.2423205660393055,-0.5634952422608361,0.3830750035945772,-0.1942030044621568,-0.2673378761356295,0.0227099839699907,-0.0043383234311894,-0.0040380983034886,-0.0597833300777604,0.9981936901615468,0.0110997827900998,-0.0754571208495537,10.73889653154486,0.1217693368952951,-0.1065968243670534,0.9786293462403092,-0.9536410321834822,0.8138649028210758,0.2783689724190546,1123.1371586814016,1144.2146925344891,1154.6470717665711,1142.8240040913436,927.8572546187224,-449.14580279523847,-0.4630822186754821,-776.5163161363049,163.76371893128825
0.0899999999999999,3.496541706900043,-0.1607818364404596,0.238390068796337,-0.1831593290275535,-0.2682275992420971,0.0226834831029984,-0.0045041827817579,-0.0043827904926932,-0.0597335433119502,0.9981945057963034,0.010498255478133,-0.0653292644624972,10.711794730064268,0.1222776960166357,-0.1068173529084754,0.9805622811315164,-0.9534054563611524,0.8135734085702299,0.2808309588443242,1125.2495825784883,1143.5265026076952,1154.6253226042,1140.9361439236554,810.1662762640003,-134.05624916654259,-19.773566641197288,-783.968392614544,163.7583452820337
0.0924999999999999,3.58680028227992,0.225880674138341,0.1471163880166763,-0.1731100341570635,-0.2673655895092514,0.0220794452050102,-0.0046552584239789,-0.004726800263561,-0.0596835793006681,0.9981952355129124,0.0094714076098761,-0.0545369910690296,10.686148501421144,0.1227873335067013,-0.1069519189502087,0.9824330228283822,-0.9531694931881308,0.8132812903152732,0.2832963254547515,1127.1879900627216,1143.5444112886564,1154.5482039333651,1138.904162128271,795.219753569426,150.7610161200772,-44.06864259453864,-899.8554611850969,163.7527355191475
0.095,3.535439534583966,0.6267217844378067,0.1106869414809153,-0.1628084593828484,-0.2646426814149764,0.0212444126508668,-0.0047949107934871,-0.0050685300321844,-0.0596382712932231,0.998195596292002,0.0079548069242792,-0.0432716627718819,10.662021894527513,0.1232927902528264,-0.107004676945937,0.9842538631735768,-0.9529307003674212,0.8129907886194218,0.2857620871188534,1129.2256813463357,1144.2803076882956,1154.4049793912272,1136.43686661773,701.4941124503815,350.61820184646393,-56.32224686082731,-890.1048638015701,163.7457444766252
0.0975,3.393147678235441,0.8897140617782315,0.1351576253015667,-0.1554260892163614,-0.2616426025593927,0.0208207317990646,-0.0049292606697237,-0.0054069276640654,-0.059599705358293,0.9981954525076592,0.0059101003065306,-0.0317845999600123,10.639442904109378,0.12378762934654,-0.1069881698270428,0.9860369419366846,-0.95268723613044,0.8127035566283298,0.2882256293715573,1130.6954606249735,1145.2975022978887,1154.2665926990608,1134.4536378092632,555.0023869159753,426.11320200576256,-54.841428801500975,-762.5130289809923,163.73971258607992
0.1,3.1806308793107334,1.0777471588034655,0.1950900909509201,-0.1485909698316325,-0.2584201583284292,0.0209456388595268,-0.0050666257860222,-0.0057438217111385,-0.0595693288291731,0.998194680223732,0.0033762554944977,-0.0203680652541184,10.618405992424083,0.1242700042345087,-0.1069211313700589,0.9877929600837811,-0.95243830353841,0.8124205987791623,0.2906860681946679,1132.0006932809156,1146.4108736983244,1154.1307722472195,1132.6243014728248,557.7119623675567,430.27082022217616,-59.57456473865927,-766.161113684938,163.7334789440848
0.1025,2.8633382065753934,1.2371582905922736,0.2728815891652173,-0.1402323013077953,-0.2545592593222987,0.0218774199131698,-0.0052074108709317,-0.0060745150142955,-0.0595464687698681,0.9981933510800606,0.0002593573867457,-0.0091492851039514,10.598875220505636,0.1247233819862886,-0.1068094402777137,0.9895346102258024,-0.952184641268014,0.8121422220293332,0.2931455983714239,1133.4840204368113,1147.4488563989996,1153.9687198753677,1130.6228322408383,543.0362111771057,279.1490443701155,-63.25664469136439,-709.1157355348073,163.72577920112096
0.1049999999999999,2.5522383295511673,1.3389073900943576,0.3166432037290503,-0.1330349743874709,-0.2513394316239325,0.0232914237980311,-0.0053508120678456,-0.0063936721438395,-0.0595268332790272,0.9981917595370196,-0.0035316505429513,0.0017770613031253,10.580788735572709,0.1251293138674359,-0.1066582685681534,0.9912726763225665,-0.9519276370021572,0.8118683778199188,0.295606544377566,1134.715874336801,1147.8066189201747,1153.8144890237627,1129.0787227951507,499.31224992374246,-0.9334721550203556,-71.72969555417708,-607.5262920872331,163.71918991228367
0.1074999999999999,2.2028085973628726,1.4420878843422555,0.3155141399229227,-0.1262436373268789,-0.2482595944974506,0.0250967053138444,-0.0054988959738609,-0.00670120961832,-0.059508156719476,0.9981900315624972,-0.007956270311789,0.0122715072532662,10.564065059107241,0.1254813397455931,-0.1064774910985141,0.993013010805645,-0.9516698250327082,0.8115976360190162,0.298070874409714,1135.98058168643,1147.4441890382243,1153.6100713975968,1127.5852007804024,509.37013710945354,-269.28153135336265,-93.17831886983176,-600.2985727293429,163.71243297649139
0.11,1.840559307467548,1.571458045272874,0.2708026957059748,-0.1206218879740445,-0.245440866399164,0.0267800446574535,-0.0056537006371407,-0.0069987426806494,-0.0594893048760806,0.998188215938508,-0.0129226138745453,0.0222083891599057,10.548609597875767,0.1257778257243826,-0.106276151606591,0.9947576774353712,-0.9514134259648876,0.8113284113354043,0.3005411213778788,1137.2627250223484,1146.460211263408,1153.3485974294135,1126.0772299315042,506.5988831603586,-517.1645447751865,-118.33429384578255,-613.553720025447,163.70554570398977
0.1125,1.5000282242702987,1.7549383423721847,0.1810787287401844,-0.117145991726831,-0.2427798653722792,0.0278207678684387,-0.0058168549016892,-0.0072917424789522,-0.0594740852053473,0.9981860433864042,-0.0182452046448077,0.0314864733350289,10.534321474144107,0.1260270470224304,-0.1060603469218728,0.9965045178034087,-0.951159170320996,0.8110601741376733,0.303018931624931,1138.5135761022318,1144.8583663143484,1153.018399928368,1124.5174321802751,523.7454200100724,-779.4786163286054,-155.01860714998642,-694.8687153140321,163.6985116894597
0.115,1.1658148727764677,2.0458900588105156,0.0449488639659889,-0.1155643538300582,-0.2392722804876858,0.0281157857450404,-0.0059897469140608,-0.0075855446633273,-0.0594660809870996,0.99818326273977,-0.0237299518164917,0.0400213941039867,10.52109990584448,0.1262381054685986,-0.1058352691091553,0.9982483986095612,-0.950907536943852,0.8107929111164675,0.3055071166179594,1139.8814521223987,1142.5628181817651,1152.5735043936638,1122.602886354934,464.5968286656621,-839.3890272506716,-162.15112489931,-698.7142165168729,163.6899146296866
0.1175,0.9690727231835496,2.332828229215021,-0.0716450311470868,-0.1156588492224003,-0.2354904258163921,0.0276683139185395,-0.0061722625009031,-0.0078807220248849,-0.0594638539119958,0.9981799672412536,-0.0292733333541308,0.0477673688857648,10.508849306530845,0.1264103412674633,-0.1056044634229367,0.9999833028196092,-0.9506586880394576,0.8105270977268321,0.3080080066227576,1140.83656024556,1140.6614211780952,1152.2076443038711,1121.0238610976908,329.925029545712,-679.0449782085501,-131.11343205187066,-610.5461274649781,163.68262996706187
0.1199999999999999,0.8433506865303612,2.6236907301756154,-0.170872497376862,-0.1150671214548656,-0.2301433955888261,0.0268350118979465,-0.0063583752867559,-0.0081735489503682,-0.0594630234787642,0.9981764945649684,-0.0348600865894876,0.0548094386758877,10.497482602402847,0.1265338444622637,-0.1053605109569761,1.001704264047606,-0.9504118207997468,0.8102626632336358,0.3105212718225243,1141.5310772701273,1139.1675932907224,1151.9179372334045,1119.5501557176092,238.9291391783449,-487.6280233072075,-95.45674121468456,-602.8552993747337,163.67523186789708
0.1224999999999999,0.7150937622336286,2.9076660944827544,-0.2560352022563997,-0.112093890724555,-0.2215742270306342,0.0256860931947296,-0.0065408668885935,-0.0084602435301237,-0.0594577263552592,0.9981732815781456,-0.0404708117722967,0.0612684093469191,10.486925117482468,0.1265985568369129,-0.1050935992909856,1.0034064682504462,-0.9501661340148744,0.8099995208370371,0.313045299196573,1142.0312059414518,1138.2232810615592,1151.730360597798,1118.009584600817,130.92604381613444,-170.9317917893712,-37.81377476134363,-513.5012657826787,163.66623614808668
0.125,0.5774951193103214,3.0390890449389194,-0.295506342399381,-0.1086404577157577,-0.2130040824786044,0.0245981046082043,-0.0067130268481642,-0.0087384815481044,-0.0594438632590912,0.9981706488996976,-0.0460519493239092,0.0672652984991478,10.477116795980384,0.1265981079969195,-0.1047940242591847,1.0050855686785656,-0.9499211031894635,0.8097382750064057,0.3155777320793444,1142.185707489208,1138.3129343317755,1151.7288683595975,1116.9826493886956,19.45479616829287,226.3702043746887,25.55824112223488,-345.633725782545,163.6586506861822
0.1275,0.3703618309461834,3.017645039201695,-0.305699065485019,-0.1057197153905279,-0.2040093280473383,0.0235332507346167,-0.0068685530027983,-0.0090063052629449,-0.0594174317355541,0.9981689079694,-0.0515412026469189,0.0729213824923643,10.468012578188093,0.1265273630986409,-0.1044525433583235,1.006738741535354,-0.949676230520567,0.8094791336145057,0.3181156298369843,1142.1284799222933,1139.3551320834326,1151.858151803409,1116.2814159719044,-53.41996377687787,647.7700006711069,66.2464299260136,-226.896530418662,163.6509836019573
0.13,0.0366153926089347,2.7988688519625953,-0.296196241673888,-0.1035725312201614,-0.1938476481555499,0.0225973548256864,-0.0070057440981484,-0.0092637414296266,-0.0593798471756934,0.9981679982410048,-0.0568334010163497,0.0782696587640067,10.459582923450842,0.1263873696765215,-0.1040673572745014,1.0083637497368247,-0.9494317759835846,0.8092218415620653,0.320656884304134,1141.9186076703236,1141.551784335131,1152.0601005092278,1115.8481667366025,-85.10212422625038,917.5119158387581,60.597440889659936,-92.6110099896504,163.64170089695935
0.1325,-0.2941140627890971,2.466910604950753,-0.2818079745383544,-0.103210330797397,-0.186537013907582,0.022063288254498,-0.0071240640727955,-0.0095116754316357,-0.0593336899418253,0.9981677725752854,-0.0618099830281359,0.083325189743505,10.451811520006071,0.126182027047778,-0.1036383554845813,1.0099600159930848,-0.9491883943256412,0.8089667785494465,0.3231996782623959,1141.702969301162,1143.9426916626264,1152.1611390078574,1115.818360921956,-81.67490031792106,1000.6142214641376,1.0086561648677153,45.78648879964926,163.63390547133773
0.135,-0.6415304517869855,2.0138935382315006,-0.2737359564594599,-0.1045764773294524,-0.1808161270698335,0.0216087673335586,-0.0072313199330919,-0.0097509962941721,-0.0592831213727631,0.9981679253322396,-0.0663509320523881,0.0879327969442302,10.44469503932786,0.1259174102267608,-0.1031816223999349,1.0115269864165835,-0.9489466311425876,0.808713430277542,0.3257435551916266,1141.510233168734,1146.5548554424515,1152.065143790052,1116.0770991806007,-70.46023147431691,1023.4930182461984,-84.16862223148193,136.89556068775335,163.626058064054
0.1375,-0.9712588398405048,1.4953439806571218,-0.2784170717060001,-0.1072529163038327,-0.1764661076093954,0.0211884919206001,-0.0073373248314884,-0.009980578986414,-0.0592311718499028,0.9981682171177968,-0.0703862990273533,0.0918966587805827,10.43823911039698,0.1255964489086672,-0.1027175996865903,1.01306562487963,-0.948707016940435,0.8084619214836648,0.3282882114776436,1141.3506681437905,1149.0601567538574,1151.7402958967,1116.502838725395,-61.82456793376326,914.1476298299939,-186.98254825094392,189.21406715126048,163.61817498195094
0.14,-1.249152094938491,0.9439940013171748,-0.3041566290760943,-0.1110282741152322,-0.1736898520039774,0.0208544184387407,-0.0074502961855687,-0.0101990649331866,-0.059178647522658,0.9981685450921401,-0.073865295563861,0.0950566898994642,10.43245518136572,0.1252218477621903,-0.1022638412229165,1.0145782854772063,-0.9484701178247156,0.8082130311522435,0.3308323252979837,1141.2011103290652,1151.1255935916015,1151.1302310487974,1117.023169516357,-79.68665121034057,751.8133195451347,-315.69008858959904,225.8479216558497,163.61025774251868
0.1425,-1.5021209773879796,0.3041302716922488,-0.360744342675341,-0.1160566207147136,-0.1721692575796481,0.0204893867948578,-0.0075770343376673,-0.010408536089037,-0.0591290797424733,0.998168606842436,-0.0766835940570246,0.0972860113819075,10.427358922891283,0.1248044085160916,-0.1018337096243345,1.0160671933119323,-0.9482362233331074,0.8079674507244762,0.3333758936454999,1140.9522348877388,1152.819223351583,1150.161845453752,1117.632078333674,-115.32978522536776,473.8409935161166,-368.110347127369,208.71454655089207,163.60072889306323
0.1449999999999999,-1.6449575169920587,-0.1694148523055196,-0.4243495873397458,-0.1202794806472417,-0.1724624343302337,0.0200741649565522,-0.0077244397629626,-0.0106118923882612,-0.0590890055767305,0.9981678941882322,-0.0787379529074147,0.0984545714800399,10.422968483572292,0.1243577901063812,-0.1014395824662386,1.0175340877274794,-0.9480058224049244,0.8077246620945888,0.3359205932492684,1140.6244614029383,1153.4947985591823,1149.2896793131606,1118.0667422491115,-162.88631188490476,126.59084751549076,-324.0713191696174,153.55293465359023,163.59277292025453
0.1474999999999999,-1.7278484476603875,-0.537469731635825,-0.4907902521425174,-0.1245302542760391,-0.1742037668758038,0.0193099145172149,-0.0078895881630843,-0.0108084467499295,-0.0590625727241727,0.99816612684433,-0.0800288292199527,0.0986312966779793,10.419299393502705,0.1238871253814449,-0.1010742890094417,1.018982905950359,-0.9477789770964966,0.8074832154651926,0.3384696827194129,1140.1378033283142,1153.4521775891603,1148.541488857904,1118.399843006942,-239.60456879831304,-145.8792290703967,-259.92490723692725,125.11790433049998,163.5848108544268
0.1499999999999999,-1.777874410523005,-0.8208589050867086,-0.5484995233366649,-0.1296402439693478,-0.1773312473359032,0.0177191967072698,-0.0080653494285739,-0.0109977594557331,-0.0590497880304355,0.9981633062998452,-0.0805731116720035,0.0979718164938227,10.41636558381945,0.1233969088272418,-0.1007223619512889,1.0204174782923419,-0.9475553849804584,0.80724170042687,0.3410261298684734,1139.4264385589468,1152.7654024138303,1147.990054776976,1118.692331770764,-260.1122543513609,-317.7196077410824,-124.04926051840437,92.56426976476169,163.57526064352572
0.1524999999999999,-1.7950032921328207,-0.9113449323716306,-0.5580329226940651,-0.1337746989425458,-0.1802613572110918,0.0157309171679708,-0.0082483509389151,-0.0111862132425012,-0.05904924750548,0.9981595201919916,-0.0802586043251968,0.0965596257276418,10.414181896644568,0.1229057177499302,-0.1003750265896569,1.021838555747823,-0.9473348416979792,0.8069999426170748,0.3435897359808318,1138.8372420565574,1151.8635795504551,1147.921242555312,1118.862664355766,-198.02147152490744,-376.7659626401834,62.9429220936799,55.533140250236045,163.56731397367096
0.1549999999999999,-1.8061881821366572,-0.8495472788844687,-0.5098149881890289,-0.1379290757399713,-0.1834448386533815,0.0132400129472337,-0.0084383045253058,-0.0113790904556221,-0.0590571505792556,0.9981549950795048,-0.0790084566265896,0.0944110642590161,10.41276165508084,0.1224297323129732,-0.1000303995695776,1.0232463520133654,-0.9471178627397197,0.8067581672592851,0.3461599701906628,1138.4363312013222,1150.8815726006292,1148.3047693874444,1118.9699974720152,-88.14517674209118,-395.91264680921046,265.5940914410619,33.46306670377996,163.55938954498248
0.1575,-1.8326937553775309,-0.618554832106816,-0.3845067560264176,-0.1427567369701975,-0.1869754311177643,0.0104903462030525,-0.0086329117129704,-0.0115801189214173,-0.0590689127677323,0.9981500184331316,-0.0767961158957483,0.0915806376612136,10.412114055512877,0.1219813439241777,-0.099683145904298,1.0246422360930632,-0.94690528632418,0.8065167838145321,0.3487362274103963,1138.3965161728468,1149.884016316409,1149.2492130125172,1119.0299796892848,84.98220500846394,-306.9592637355524,412.5556000290086,10.542918526425629,163.54991761263406
0.16,-1.8772000688714956,-0.3252643894299307,-0.2406078731814039,-0.1464068803593779,-0.1887470639155623,0.0089774535861853,-0.0088291401214846,-0.0117903049610039,-0.0590827057498947,0.9981447354049092,-0.0736674930177448,0.088132559336929,10.4122433189125,0.1215672955395202,-0.0993267648026296,1.0260291159016413,-0.9466972465588775,0.8062766498128823,0.3513168462891598,1138.8612422263643,1149.3467762819516,1150.3675473875894,1119.0227120646473,304.7889510765796,-138.69880995380288,495.3434186926638,-13.535094793542145,163.54206398274286
0.1625,-1.9498265738365033,0.0222195809218077,-0.0921254650113123,-0.1498665749452872,-0.1888507372308859,0.008559024421823,-0.0090260890212026,-0.012015651958268,-0.0590972071835049,0.9981391726249904,-0.0695734043610143,0.0840930312147904,10.413149603490544,0.1212040835552004,-0.0989592604854698,1.0274092680961011,-0.9464932848450331,0.8060389212135451,0.3538997538298104,1139.9204609282299,1149.19052226664,1151.7259301059803,1118.962304215317,595.3641541038445,12.026787242939452,633.0938756996596,-33.42616090385488,163.53426121724
0.165,-2.055588438330512,0.4396060437368827,0.0409505614275914,-0.1545034936577268,-0.187151682696158,0.0094731024262117,-0.009221792213261,-0.0122626714762948,-0.0591110876373786,0.9981333518881106,-0.0644635007237952,0.0795131054662862,10.414826442107016,0.1209079912853402,-0.0985773482104604,1.028786031219651,-0.9462923511772766,0.8058046545217523,0.3564835272218881,1141.8380629968835,1149.4069102181663,1153.5330167660877,1118.855581260128,786.3242608518243,128.62702950842493,682.9879649283151,-36.940200139861155,163.52496719945913
0.1675,-2.1350173652847624,0.7501173235041155,0.08299775281009,-0.1591610788875701,-0.184465761672057,0.0111488885852565,-0.0094181260124568,-0.0125252726220877,-0.0591236272989297,0.9981273620668712,-0.0585496348421385,0.0743520864191204,10.417259735197488,0.1206685371166612,-0.0981879539294411,1.0301654721039997,-0.9460941510479408,0.8055745018329658,0.3590668940604642,1143.852082232489,1149.833657414182,1155.140869930622,1118.7776032146176,844.9950072800211,193.57323612866804,657.7453689490534,-13.805785358135823,163.51728709706433
0.17,-2.166426083521891,0.9952582049641412,0.0359325094989221,-0.1649419686372825,-0.1811144735130102,0.0129546866512615,-0.009617027224375,-0.0127985470426724,-0.0591358558334843,0.9981211697889673,-0.0520209823510556,0.0685743235139356,10.4204287488059,0.1204762830418565,-0.0977983071143675,1.0315535061163918,-0.9458973792682038,0.8053482100001466,0.3616495593770621,1146.0630380332839,1150.3747763988097,1156.8217436108328,1118.786552333337,875.905103800641,215.52667498567624,678.5498798488328,33.41846325920412,163.5096823628498
0.1725,-2.130252425367752,1.1823414535688184,-0.0783463941121347,-0.1715038974532863,-0.1778112830503736,0.0141767662468955,-0.0098221404475721,-0.0130771789300151,-0.059145267279964,0.9981149432025554,-0.0450694732915473,0.0621166835877223,10.424306642029135,0.1203187571935896,-0.0974204050042537,1.0329553274403076,-0.9457006506637268,0.8051250747872035,0.3642334992146548,1148.2316077514922,1150.9112907891104,1158.5336193298663,1118.9446955309138,812.535764325184,197.51784599270633,679.1329692751327,120.61833051457133,163.50214570719845
0.175,-1.9948624574884457,1.3096432461610754,-0.2436855357899,-0.1782298841262406,-0.1746396813517998,0.0141645813166452,-0.0100346320426669,-0.0133540026589802,-0.0591485188378482,0.9981089531481128,-0.0379230660681233,0.0549739984423885,10.42886026907236,0.1201775685317272,-0.097061749694979,1.0343761286394255,-0.94550394994877,0.8049042492235062,0.3668207959892382,1150.1257168549096,1151.3623656287732,1160.2174084572086,1119.38964398591,732.9846804954774,171.1070979994937,709.9337646795026,287.1815685736706,163.49469745320363
0.1774999999999999,-1.7269603836846423,1.4146469054149449,-0.4475951496884326,-0.1850840733902641,-0.1708139380450875,0.0127531815503275,-0.0102524366426106,-0.0136232222259031,-0.0591421306502074,0.9981034960136183,-0.0307773841800475,0.0472195472384627,10.434051759959328,0.1200353152497852,-0.0967230770503552,1.035820284315372,-0.9453065084994352,0.8046854465877867,0.3694123848280886,1151.8965311539696,1151.766826279108,1162.0832881532635,1120.380603373782,558.7961811185348,126.16970912076852,639.1743540317323,451.2236198961112,163.4858693742661
0.1799999999999999,-1.4443607597119739,1.4788686952776704,-0.5828755270873849,-0.1890953049277195,-0.1676895135313568,0.0106717395600388,-0.0104754287232312,-0.0138871245248484,-0.0591224539961261,0.998098751364693,-0.0236473633518732,0.0389064512306401,10.439841333120741,0.1198904657789472,-0.0964081508235453,1.037288735695605,-0.945107105189176,0.804468626312799,0.3720091256502918,1152.9196977605025,1151.993214174377,1163.4132802273673,1121.6457620853907,330.3671190354632,67.97912736151369,468.28797820448887,597.9164279578521,163.47860934907257
0.1824999999999999,-1.1463778530292787,1.5354265338958635,-0.6457632474559151,-0.1913279349629228,-0.1645636836176192,0.0080558095244902,-0.0107006442417663,-0.0141448244656406,-0.0590919641826925,0.9980946100660189,-0.016608441744988,0.0301514973735984,10.446186924999354,0.1197350854353791,-0.0961139191195214,1.0387826892678311,-0.9449053720255102,0.8042537399445636,0.3746121552339853,1153.548366749147,1152.1067219159156,1164.4247280442862,1123.3701855135714,222.19814370250768,16.587354451530686,367.13159199312,844.7762481412601,163.47145529205383
0.1849999999999999,-0.8181488925198322,1.605208353471846,-0.6164498634933285,-0.1926672328072305,-0.1607546247833734,0.0049750396354175,-0.0109224912646514,-0.0143935379025582,-0.059051002214346,0.9980911467395716,-0.0097664472494461,0.0211356572218276,10.453046106855036,0.1195566060543458,-0.0958324592740408,1.0403035370763882,-0.944700642823237,0.8040409849030453,0.3772211917790946,1154.0306884790148,1152.0761509466347,1165.248938187333,1125.869643326097,161.45932897870793,-50.06293316150728,246.79537639053683,960.159850603849,163.46299848404223
0.1875,-0.5890774599060946,1.6655191655709345,-0.504726788944566,-0.1933282652595146,-0.1574609509939006,0.002919664245492,-0.0111374853940433,-0.0146308408038831,-0.0590009373125287,0.9980883517695024,-0.003206483579334,0.0120066412530148,10.46037820104854,0.1193442929368265,-0.095559783627709,1.0418516600297987,-0.9444929711959648,0.8038309329309489,0.3798349249357996,1154.3556633940404,1151.856407250108,1165.658704926239,1128.1709847665907,142.2937012879628,-144.55591143246224,130.40848153973445,922.4389788786984,163.45606129478216
0.19,-0.411052178242117,1.719034040709961,-0.3170166219019802,-0.1940340174818784,-0.1538589251758079,0.0016775025140985,-0.0113474550311375,-0.0148535955992137,-0.0589466517815233,0.9980859623449416,0.0029863953834491,0.0028088861494066,10.468145220499164,0.1190884899749542,-0.0953020606968917,1.0434262228535787,-0.9442850064152674,0.8036235048974332,0.3824535169883439,1154.7421569854548,1151.3533713894724,1165.9009805950316,1130.4818382204903,199.0294570737204,-301.78971981354124,103.52290566315779,967.3716327673437,163.44924183725948
0.1925,-0.2463726974750992,1.7542093548726572,-0.0312005801578907,-0.1949628755122648,-0.1488319751172687,0.000991168676734,-0.0115580228642521,-0.015061598787977,-0.0588957827346552,0.9980834684634172,0.0087997503886132,-0.0064814409966771,10.476311796608387,0.1187883708771751,-0.0950721019873052,1.0450247966508228,-0.944079805119618,0.8034186617672082,0.3850774441227208,1155.350810679409,1150.3474586510404,1166.1763194545547,1133.0078429304272,244.94387965505643,-438.26607848959566,123.29486124654056,854.4650473637366,163.44119769648327
0.195,-0.1393969442370064,1.741106659921894,0.2346251064627598,-0.1954106403360784,-0.1436987562606505,0.0009252634649028,-0.0117751837366826,-0.0152536615193859,-0.0588512494559208,0.9980806497257854,0.0142072766509899,-0.0158890813275893,10.4848447091331,0.1184421920377539,-0.0948841949383322,1.046645119856904,-0.9438796299371917,0.8032164718044645,0.3877074792307165,1155.96687638373,1149.1620409970244,1166.5174549012643,1134.7541634573092,254.30330568760812,-533.9972315647169,182.8006459175411,602.7718143021951,163.4346119812818
0.1975,-0.0511628930288161,1.6707496792633376,0.4985541480425125,-0.1950975005751341,-0.1379970112457664,0.0015967252895322,-0.012005393663292,-0.0154294505268294,-0.0588144549903745,0.9980773575134712,0.0192033200908648,-0.0254424788362193,10.493712702250596,0.1180514099606404,-0.0947533289668786,1.0482849007910844,-0.9436845500637628,0.8030169304657189,0.3903429921306038,1156.622327207847,1147.6774724932168,1167.0903226841424,1136.0217020019384,253.52700863736547,-622.7995615381582,278.27679523975326,424.9202257040902,163.4281499368061
0.2,0.0340900898864415,1.558954540198744,0.7348895130882168,-0.1942725964998056,-0.1328273536741144,0.0031655070169129,-0.0122506751549176,-0.0155935170850443,-0.0587860121819993,0.9980734668225892,0.0238782830672864,-0.0350687819331292,10.502885755731429,0.1176282250365433,-0.0946842082423303,1.0499421554787725,-0.9434936285643124,0.8028200286755602,0.3929833312483806,1157.2345114269167,1146.0480431893336,1167.908838877463,1136.8787645858297,217.82498084817212,-652.5426543103998,391.06256385643934,255.72591091217848,163.42179122397314
0.2025,0.1412083161157917,1.4264611130246214,0.9059265648295796,-0.1935519743437198,-0.1291577691887755,0.0059601694810854,-0.0125091054135604,-0.0157484791999642,-0.0587650911375857,0.9980690158527656,0.0282741936381612,-0.0446144038669768,10.5123349065549,0.1171808653279235,-0.0946731218725394,1.0516167978745468,-0.9433058780764654,0.8026251761268248,0.3956275246700319,1157.711452112088,1144.4147592216648,1169.0456355034244,1137.3003315564993,165.63771940514,-673.350910246881,569.2621496757051,116.10625120752036,163.41555841374702
0.205,0.3405743407683878,1.2939736813499532,1.0044130484703648,-0.1936214262313497,-0.1261816930304045,0.0103627925650565,-0.0127752791280961,-0.0158945058140651,-0.0587509392191955,0.9980641198641714,0.0323717999088438,-0.0538581893223449,10.522031905549454,0.1167125047532363,-0.0947085538557433,1.0533106780886043,-0.9431199430719088,0.8024319975074795,0.3982751166250493,1158.0627000239426,1142.6812886380992,1170.7551496258416,1137.4592958418673,90.16242564757697,-568.3892840486345,674.2377575656513,32.35049155332487,163.40822753496704
0.2075,0.5980681368329605,1.2380429544122076,0.9902152137105784,-0.1942232015479545,-0.124325286087157,0.0141021341425152,-0.0130457912302093,-0.0160298911135778,-0.0587417636624028,0.9980589613629391,0.0361079906349102,-0.0626281273590421,10.531948460235139,0.1162228031463895,-0.0947828124883605,1.05502624190999,-0.9429362524227232,0.8022408652441457,0.4009255524412986,1158.1622642403258,1141.5728128014216,1172.4168242912529,1137.4620840142659,5.9111868930358735,-348.2219717264359,694.6827801210961,18.716430087033675,163.40224535443954
0.2099999999999999,0.9696593912552652,1.2612302390722603,0.8902760956002921,-0.1943913213382911,-0.1225590325301144,0.0169980361525489,-0.0133136710155953,-0.01615296167085,-0.0587365171546866,0.9980537245175344,0.0394076231105779,-0.0706854588835321,10.542055484165948,0.1157114736348623,-0.0948796559167302,1.056767046109996,-0.9427556082575236,0.8020522391873625,0.4035783148595288,1158.0922559584078,1140.940178779467,1174.228563526447,1137.5528779923025,-54.76852211936628,-153.94835927991224,803.3527924055799,110.66346016446056,163.3963998352847
0.2124999999999999,1.53069572151319,1.3818889690806606,0.7087112749500359,-0.1925970906435652,-0.1198680710204723,0.0192255385347883,-0.0135742351204761,-0.0162686010154141,-0.0587306560641844,0.9980486627317074,0.0423290344179165,-0.0778411404019888,10.552321763369756,0.1151919751079559,-0.0949865163508497,1.0585348972883049,-0.9425788977722572,0.8018662307515747,0.4062347443641025,1157.888421629729,1140.803071005022,1176.4335882532807,1138.015401315088,-79.56275491774241,53.54762271208524,791.2522367754256,255.70314864871736,163.38955052057923
0.2149999999999999,2.0571713105397795,1.5461513914826572,0.5375794524520776,-0.1888131676661269,-0.116818299906524,0.0201831183984328,-0.0138263398848449,-0.0163805987381118,-0.058721406575941,0.9980438981911334,0.044904509075583,-0.0839961866062577,10.562713459283568,0.1146761698057622,-0.0950969857282807,1.06033110044655,-0.9424071646380696,0.8016824999405062,0.4088956365199109,1157.694442183819,1141.2079168930275,1178.184824710324,1138.831393735546,-61.209357521010986,258.1788020806923,657.4486571944811,427.1186581221624,163.38398690726646
0.2174999999999999,2.5850778080297507,1.7495782362727703,0.3782691997586608,-0.1826603117757322,-0.1126393929475944,0.0205100816938511,-0.0140672923037209,-0.0164887800532474,-0.0587039719752135,0.998039760938351,0.0470755337835084,-0.0890395039777288,10.573194337622768,0.1141665598757759,-0.0952010692687184,1.0621580438999776,-0.9422417535811988,0.8015006178822734,0.4115611320834158,1157.582374842124,1142.0939650154255,1179.7208315392531,1140.1509946056988,-5.710522249592025,474.84147438781247,603.2593762599839,678.7844614944784,163.3785818159265
0.22,3.1524245666135102,2.0060380984770525,0.2246906940146818,-0.1733287989040279,-0.1065309184002551,0.0205146726052301,-0.0142933798844376,-0.0165912499749653,-0.0586755421070086,0.9980365107610764,0.048741993068761,-0.0928593920266078,10.583725645445995,0.1136611428679748,-0.0952851931736689,1.064018587392218,-0.9420822769307599,0.8013195174116207,0.4142309262821132,1157.6658895725711,1143.5821242649663,1181.201121591624,1142.2253160430184,79.59212301157086,591.2795275441107,472.1285778160105,812.2410870641481,163.37229055363835
0.2225,3.531317065467839,2.2122591333949857,0.135227846158735,-0.1645993956618776,-0.1011142637486416,0.0203908113273681,-0.0144993462608147,-0.0166848846159359,-0.0586345877889425,0.9980343769969005,0.0497748336711186,-0.0953330320393976,10.594266327865538,0.1131536325521037,-0.0953312509223917,1.065916045045993,-0.9419272315421302,0.8011370721436643,0.416905201682262,1157.9803354571818,1145.050362653146,1182.0814744283332,1144.2122000410195,178.37342725551915,602.4518784591231,276.0575880154645,804.5089380229903,163.36721851294132
0.225,3.7812235929575215,2.398359487420568,0.0837095134365049,-0.1553065357141455,-0.0958070507791587,0.0202993392928751,-0.0146823146624006,-0.0167726027254636,-0.0585858340762811,0.9980330864694044,0.0501772965352635,-0.096402643146066,10.604772375370876,0.1126497847979573,-0.0953234025425566,1.067851784923895,-0.9417743914308788,0.8009518518961578,0.4195841191675121,1158.5577567088487,1146.594383657262,1182.5814095317014,1146.2478607331332,263.3686935368585,608.5608947221766,141.67945053527535,792.6275110027738,163.36233246958807
0.2275,3.909335476714592,2.5604029868774334,0.0563143096132225,-0.145593274532813,-0.0904173843318912,0.0203166813783353,-0.0148387224533524,-0.0168603154728137,-0.0585330141987272,0.9980323873389148,0.0500218553750936,-0.0960124735619879,10.61519794434352,0.1121592680529178,-0.0952438589749755,1.06982648117875,-0.9416218366397708,0.8007639605029091,0.4222676016541458,1159.297178924866,1148.0931671267567,1182.7898716810096,1148.1753375960336,307.77966441673897,569.875303569142,25.002185037828877,720.435125670155,163.35760640579545
0.23,3.8812731059224586,2.6795004172068886,0.0454212685765631,-0.135370727116613,-0.0843479142860883,0.0205251713851684,-0.0149686387293443,-0.0169570527090796,-0.0584801290124497,0.9980319075948294,0.0494616698028052,-0.0941996712767785,10.62549575674294,0.1116968791062744,-0.0950824467654591,1.0718391415106596,-0.9414675802421038,0.8005745562309763,0.4249550677064762,1160.0966550309324,1149.4437601751079,1182.7064204568903,1149.850036361484,322.46494725932246,548.2675022772578,-85.13316332687273,663.9060616490946,163.35307917357912
0.2325,3.669994639080575,2.748656516061189,0.0349922708796056,-0.1230447880662669,-0.0758112557268569,0.0210167968152577,-0.0150775247908423,-0.0170603442729552,-0.0584286004937047,0.9980315382056,0.0484260630759856,-0.0911475096603349,10.635619247858164,0.1112514125927094,-0.0948433451609013,1.0738897079919443,-0.941310320799945,0.8003843540999472,0.4276461191028764,1160.9095036611627,1150.8345046381432,1182.3642058643752,1151.494867904279,244.93407043887575,471.90142733711536,-151.91318822544403,541.9303624169511,163.34788272368294
0.235,3.3634963474207784,2.7304871197637595,0.0194028685671784,-0.1134490974308735,-0.0679954813776767,0.0215773019369848,-0.0151721565247103,-0.0171605741996687,-0.0583768845139404,0.9980314473605097,0.0467092162797048,-0.0870910096600002,10.645524133673572,0.1107948906605302,-0.094536254083047,1.075978700306556,-0.941149729591435,0.8001943067351687,0.430340306118316,1161.3213253831268,1151.8032673117934,1181.946854515763,1152.5596881735687,90.19462569153792,356.8677925774406,-180.9064718663647,369.7552135364273,163.34375293888513
0.2375,2.962798008995194,2.632590086266632,-0.0073820839514804,-0.1054933834693384,-0.0607085615287033,0.0220991956003184,-0.0152607733665279,-0.0172497808701215,-0.058326364638467,0.9980315843039012,0.0441571003118536,-0.0823076379625671,10.655169248617833,0.1103030863180484,-0.0941747262187689,1.0781050320105636,-0.940987177690668,0.8000048795331587,0.4330387806111334,1161.3604767896204,1152.6188436010304,1181.4596735050432,1153.3436439719612,-63.122527755740805,341.403246675374,-221.8264788968564,293.642308162272,163.3398347593514
0.2399999999999999,2.437750038908024,2.4444441970327215,-0.0466300232119843,-0.0983695929718268,-0.0533999541307087,0.0222627642102721,-0.0153525478005329,-0.0173223189449195,-0.0582746330166973,0.9980320672552218,0.0406828617084711,-0.0770992001798541,10.664518070159659,0.1097565190870102,-0.0937763262424922,1.080265772257586,-0.9408239968348294,0.7998159030442403,0.4357441088621109,1161.005712744348,1153.5102835451703,1180.837722121279,1154.0278997143803,-173.32399953225,328.2852028835365,-233.1990202192184,219.48613382042012,163.33538023692407
0.2424999999999999,2.010158500742337,2.2509528330726893,-0.0759689990388125,-0.0941935165468878,-0.0481806029138467,0.0218855968147633,-0.0154475934840833,-0.017375919081759,-0.0582209658961338,0.9980329929838504,0.03627540634583,-0.0715748562300454,10.673540647528032,0.1091429342704882,-0.0933400237400817,1.08245795879234,-0.9406608855752484,0.7996270818780263,0.438458155189587,1160.4938567919592,1154.260269615448,1180.2936784039473,1154.441074641063,-205.50092709613617,320.5512309244111,-225.94087012803337,146.39619549311632,163.33187543483896
0.2449999999999999,1.6345650758132215,2.042692435520368,-0.0909996978616464,-0.0913573674511443,-0.0433993733182501,0.02127642638169,-0.0155467742673931,-0.0174086596635348,-0.0581667395554069,0.9980343165570666,0.0309455458871443,-0.065858826868936,10.682213735192944,0.1084524405173227,-0.092867809452826,1.0846775791790895,-0.9404980370700916,0.7994385935667007,0.4411813141169089,1159.9782081088674,1155.1130396997924,1179.708017770639,1154.7598806918459,-173.4639683884323,417.5074775919252,-269.98227146414115,132.87063333759747,163.32858663710044
0.2474999999999999,1.2646952585810276,1.7953763346661271,-0.0866072268602603,-0.0887518077952994,-0.0383378948656669,0.0206052694025121,-0.0156524147454249,-0.0174245667473197,-0.0581159041714988,0.998035712658304,0.024843792626747,-0.0600944063562555,10.6905211003116,0.1076901454574373,-0.0923656990564336,1.0869187883659928,-0.9403356498360276,0.799251812421589,0.4439136560966329,1159.6265369500168,1156.3478070034075,1178.9437670466264,1155.1054278077513,-55.49143106150036,498.5161332372168,-286.7628829477778,128.62332385097932,163.3248900607699
0.25,1.019751649315004,1.6011777804670084,-0.0652369082161568,-0.0865842400164526,-0.0347599694602479,0.0201994292582981,-0.0157677550249665,-0.0174279002290368,-0.0580731254714689,0.9980367887118636,0.0181354658142407,-0.0544347183687661,10.698454045920299,0.1068637455313447,-0.0918437983659575,1.089175766254611,-0.9401744550129,0.7990688111827993,0.4466543116595071,1159.70075095356,1157.6056203659784,1178.2742033559,1155.4029973111008,116.27787199272451,561.4879433450365,-258.82859244525184,126.02735775085408,163.32201763283476
0.2525,0.8203476044679158,1.4240560619323657,-0.0313892996794882,-0.0839170311326715,-0.0314004177952895,0.0199870159215368,-0.0158907456982069,-0.0174250900331115,-0.058041809851317,0.9980372554248252,0.011031532255645,-0.0489033522582078,10.706011050097588,0.1059868590704568,-0.0913027947160594,1.0914440341950595,-0.9400154411903712,0.7988913675494927,0.4494024067218969,1160.2079263099806,1159.1552467201327,1177.6496240844003,1155.7355645965056,261.66004454112203,676.2926257089924,-221.59227402903505,138.5267347756779,163.319360317421
0.255,0.642510950338881,1.2600529490677654,0.0062815699948237,-0.0810042188143822,-0.0280871485532019,0.0199342175753428,-0.0160204556444872,-0.0174204775674878,-0.0580209213681065,0.9980370783735428,0.003703299111302,-0.0435321037703394,10.713196557378948,0.1050701092314599,-0.0907485908969381,1.0937204164898366,-0.9398600397903604,0.7987212017715717,0.4521563262659636,1161.0090511762655,1160.9870834945234,1177.1662419857548,1156.0956309849792,355.0707277607213,809.5682660284631,-127.63336480570604,146.84068136516527,163.31688037792878
0.2575,0.4835948628868432,1.1096933563101608,0.0397756434641658,-0.078531212248207,-0.0251346878818193,0.0200713040626751,-0.0161511618921257,-0.0174203032530336,-0.0580089339855048,0.9980362633372784,-0.0036440568131973,-0.0382292578574151,10.72001963597066,0.1041295088198941,-0.0901775648602601,1.0960035507981587,-0.939709568838688,0.798559681575736,0.4549140184000001,1161.9832799487842,1163.2030880502753,1177.0114572603716,1156.4697680033314,409.98561686683354,1069.6734621134046,45.040981393003634,162.88469788360075,163.31461265813817
0.26,0.3282125946209369,0.9447475534310932,0.0645332686366699,-0.07689841957754,-0.0223934596554483,0.020456086387934,-0.016280392260875,-0.0174286358740751,-0.0580048268344026,0.9980347327169574,-0.0108516615605703,-0.0329565948839575,10.726492360464544,0.1031783005493217,-0.0895936869337286,1.098293065701891,-0.9395652561430918,0.7984076338913442,0.4576750358498317,1163.0589792605997,1166.3354508050904,1177.3914468927198,1156.9100544743972,338.5984524683405,1224.1883652440251,248.34136328604447,158.8984764508494,163.31213406105698
0.2625,0.2489702461383258,0.8199236493287331,0.0664829946709704,-0.0767634694337593,-0.0207288609321091,0.020947898627205,-0.0164012001525753,-0.0174473758981301,-0.0580081888001688,0.9980324358036848,-0.017818929598241,-0.0275652614011049,10.732628143818967,0.1022253544453047,-0.0889906574083862,1.1005907959203398,-0.9394271906809004,0.798264094351723,0.4604390635445967,1163.676272211126,1169.3240298764952,1178.253164076802,1157.2642603855857,156.0880078380704,1257.4440498065983,451.5286750096034,142.2595479960363,163.31026870574763
0.265,0.2453579142526869,0.7028585587040544,0.0465502287082946,-0.0776518226895422,-0.0193088405116408,0.0215414120799238,-0.0165059172456945,-0.0174741924978575,-0.0580172567605076,0.9980295168543208,-0.0245439672087436,-0.0218801659687489,10.738440065083866,0.1012700471696929,-0.0883597734010216,1.1029000930288813,-0.9392951885579288,0.7981275983261052,0.4632057449047036,1163.83941929979,1172.6226710541234,1179.6490902677679,1157.621352214377,-42.83274523722863,1484.8389441392997,698.9690114878607,167.4400648762456,163.3086088838021
0.2675,0.3345049544208116,0.5566962479418383,0.0028201016848025,-0.0788153835013509,-0.0173508167478308,0.022120810145226,-0.0165917824678158,-0.0175135924853914,-0.0580295248330626,0.9980262280143768,-0.0308800673860417,-0.0158109077157603,10.743940692960724,0.1003267587348206,-0.087700039284032,1.105222231631719,-0.9391674500411245,0.7979972629968493,0.4659746370869119,1163.4621084849396,1176.748224597192,1181.748009134241,1158.101460709967,-220.35718757379047,1499.8557752209294,797.402755925986,195.2045538091168,163.30685263267486
0.27,0.4691097943385205,0.4177660506544985,-0.0398960741474793,-0.0786745264107413,-0.0154166631284903,0.0222238675845749,-0.016657568766956,-0.0175622503181168,-0.058042018212485,0.9980229759329172,-0.0368540849928121,-0.0093027980992075,10.749140622081445,0.0993916831081296,-0.0870120910326865,1.107559441827925,-0.939043434043396,0.7978720234218475,0.4687467082742975,1162.737633361921,1180.121949930228,1183.6361040473976,1158.5973749834227,-338.55514947090313,1275.9086341163754,729.145856991635,233.47125279424273,163.3055841783548
0.2725,0.62491468536378,0.2537719748902582,-0.0721815516801626,-0.0767622669581081,-0.0135733970190372,0.0218563289502415,-0.0167019983331845,-0.0176178496165935,-0.0580548978315638,0.9980199182809096,-0.0424795060523139,-0.0022991831952698,10.754048544049816,0.098462268881464,-0.0862925566293481,1.1099130764241187,-0.938922083023989,0.7977495196853097,0.4715236869183309,1161.7693327375853,1183.1277677677735,1185.3937384191995,1159.268816973938,-425.90384024874726,1164.027456602206,691.8817020085947,353.11766937070354,163.3045171945043
0.275,0.7863503608982803,0.0386131657932119,-0.0801382036443696,-0.0732014973949619,-0.0122187300074539,0.0211200112766394,-0.0167315185040051,-0.0176748294362939,-0.0580688083271684,0.9980170717668196,-0.0478357158426966,0.0050818696991456,10.758671599702728,0.0975282556476519,-0.0855521780344477,1.1122827665851251,-0.9388028452231896,0.7976258855741942,0.4743087502350027,1160.6081141606771,1185.9420872132391,1187.0955125574408,1160.3629633302764,-384.1702579346471,855.0349315569283,534.6201872775505,457.9046441131591,163.30346904863637
0.2775,0.8764098642694698,-0.1352590547872791,-0.0520745931236533,-0.0699272961274842,-0.0122342607840097,0.0204796277243791,-0.0167531045251586,-0.0177274587797862,-0.0580811571336308,0.9980146061924738,-0.0530078995099963,0.0127024147334488,10.763015516731716,0.0965771018237401,-0.0848003975847516,1.1146673020946836,-0.9386849673951124,0.7974979808297153,0.4771039950082444,1159.848481447912,1187.4029424255584,1188.0668393555873,1161.558340194504,-220.72689096075896,371.7352231657056,291.0658135860555,538.1168795368008,163.3027889616832
0.28,0.9144560426586408,-0.2715380585167567,0.015175349158231,-0.0668773398894504,-0.0134027713793447,0.0199592768275038,-0.0167708095981347,-0.0177710827750399,-0.0580930654675998,0.9980124835671396,-0.0580660162883205,0.0204724121197168,10.76708458573866,0.09559752610103,-0.0840371973131522,1.1170654571134888,-0.9385671629351372,0.7973645839124043,0.4799081843855952,1159.5044797058736,1187.8007633290676,1188.550841625371,1163.0535477279604,-50.23494284168915,-14.360743416591491,121.71859378836405,638.9453395908271,163.30230970269207
0.2825,0.9192058554998164,-0.3558554143403485,0.1112976880899453,-0.0643898052180447,-0.0151021579368592,0.0195936587363067,-0.016786908925274,-0.0178068814669315,-0.0581069031229139,0.9980105032450178,-0.0629588139426126,0.0283291733833119,10.77088244984744,0.09459040305231,-0.083256443219839,1.1194754037708297,-0.9384495387882033,0.7972259891193161,0.4827195400715507,1159.5973067337036,1187.3311387084755,1188.675432324529,1164.753066892458,148.97078431231407,-363.8526346022896,-18.383729312745327,705.323836699062,163.30199684362438
0.285,0.904683812224904,-0.3645314835828777,0.230341783980341,-0.0629829764284457,-0.0169452470199018,0.0194830343627491,-0.0168058092445579,-0.0178320611406427,-0.0581232220762277,0.998008595827073,-0.0677173802560733,0.0361411786143171,10.774411523082511,0.0935475090706666,-0.0824575252936673,1.1218960968452087,-0.9383327395189596,0.7970832676339237,0.4855369817898402,1160.2493336274351,1185.981500156056,1188.458922978807,1166.5801669114555,403.9670719649162,-726.9947234395197,-149.1837498185758,788.910218220962,163.3018834632665
0.2875,0.8861412549806235,-0.2895380987234088,0.3742647879947442,-0.0618811555325429,-0.0187464298168935,0.0197919166922591,-0.0168349306662762,-0.0178441794460891,-0.058139389440219,0.9980068166264227,-0.0723598553136042,0.0436952693821627,10.777673822522503,0.0924615652781372,-0.0816480685706753,1.12432642004936,-0.9382177218375132,0.7969375608594875,0.488359591755934,1161.617142093528,1183.6961650912779,1187.9295135754362,1168.6976179835628,575.2277343272058,-889.0054558483008,-223.077097883654,726.2525265988262,163.30197502924625
0.2899999999999999,0.8710905502379963,-0.1691953017916877,0.4695289540173031,-0.0604410644323402,-0.0196847808794319,0.0205759400837116,-0.0168825632711725,-0.0178417697929617,-0.0581524081497577,0.9980052102823712,-0.0768820088694268,0.0507435634873434,10.78067093034274,0.091328094723101,-0.080839577675948,1.1267653914317433,-0.9381047933320128,0.7967909006783676,0.4911861323522492,1163.1254722990711,1181.5364728768147,1187.343537489389,1170.2114295444499,635.3092158222418,-850.5409092650639,-249.4864445774081,512.5859588811688,163.30223777649076
0.2924999999999999,0.842271736529676,-0.0136732973577127,0.5030871522248718,-0.0580204370627982,-0.0199669352082843,0.0221164014956754,-0.0169522655519979,-0.0178267802437013,-0.0581592365130899,0.9980038438048816,-0.08121250489379,0.0571298321904421,10.783403417964527,0.0901504806832231,-0.0800351115897205,1.129212473380522,-0.9379940401664868,0.7966464025917644,0.4940153933496793,1164.7936881726391,1179.4434605449524,1186.6820813525492,1171.2605477779687,706.9371613444212,-849.4965199646676,-298.287399580158,327.5020428658988,163.30268892170784
0.2949999999999999,0.7724037096251272,0.1800619996979149,0.4320745122859763,-0.0546937186753813,-0.0195411847816016,0.0249562310539616,-0.0170421684191193,-0.0178043661396453,-0.0581604227445545,0.9980026103478,-0.0852211440892251,0.062806204859294,10.785870672880431,0.0889400539424024,-0.0792274379895113,1.1316673290390216,-0.9378856071157806,0.7965064774761166,0.4968483440671072,1166.6601581057932,1177.2889902769912,1185.8521004914883,1171.8489397587791,616.1353790170318,-707.6893646434194,-308.94455529542,107.08416546844992,163.3034405716731
0.2974999999999999,0.6792979760170849,0.3235381255096294,0.262328163904485,-0.0521070774724899,-0.0185603939753097,0.0279656396673709,-0.0171497743865705,-0.0177770992625551,-0.0581555868598933,0.9980015174087143,-0.0888363266417459,0.0677299742851569,10.788071105950875,0.0877031368381556,-0.0784111446625574,1.1341295873130874,-0.937780183067106,0.7963719480676535,0.499686968598428,1167.8743650677245,1175.9050137217355,1185.137358576072,1171.7959686053107,374.79580171857344,-461.3296543493557,-295.359815799429,-100.1782289698439,163.30423563154767
0.2999999999999999,0.5577663925086446,0.4245858615406053,-0.015051282442818,-0.049830993623796,-0.0170115978560856,0.030772109386811,-0.017269949082892,-0.0177476081692484,-0.0581426829846361,0.9980007184439224,-0.0919915882001376,0.0719155799812532,10.790002528763756,0.0864466109122811,-0.0775775059291216,1.1365985158233995,-0.937678873566263,0.7962438703262394,0.5025323156453939,1168.534137114386,1174.9823420052446,1184.3753014124911,1171.34804861393,145.8002124913945,-310.3205208190954,-354.73490331210047,-221.3230823175761,163.30519675528865
0.3024999999999999,0.4057221573701523,0.4802314671443775,-0.4150150322487637,-0.0477122155542495,-0.0148571566136415,0.0319242390935915,-0.0173939957805356,-0.0177198557454377,-0.0581161643059929,0.9980006116750658,-0.0945993502016515,0.0754621881735636,10.791662550363183,0.0851803578527821,-0.0767119479766899,1.1390729818613539,-0.9375816925958032,0.7961226048737589,0.5053856292009923,1168.6033661301815,1174.35341111764,1183.3636840595116,1170.689353193723,-85.09748092428701,-165.50171954054335,-390.50301395955063,-209.3653923505824,163.30653075665603
0.3049999999999999,0.3035374439015331,0.4693827680659456,-0.7342051846463081,-0.0470346160478693,-0.0133800880236636,0.0299652945756885,-0.0175118506253474,-0.0177013323853836,-0.0580752582042887,0.9980012788465704,-0.0965067722181522,0.0785085507111511,10.793049867749632,0.0839233390119412,-0.0757971077239339,1.141550940064433,-0.937488172377514,0.7960089780340234,0.5082463739512856,1168.1086497097647,1174.154833407542,1182.4227863426931,1170.3012216521772,-279.5615390017699,-30.538385711815835,-391.79763351626167,-76.39512085752352,163.30778504123123
0.3074999999999999,0.265937031865256,0.4048316536926114,-0.9481661345967732,-0.0476901288075957,-0.0126991435056554,0.0256310569567763,-0.0176159368005275,-0.0176931426236787,-0.0580206412729567,0.9980027876268566,-0.0977035309391982,0.0811433080338193,10.79416347261583,0.0826808724673049,-0.074822870279069,1.1440306680665036,-0.9373988308661568,0.7959026685282762,0.5111148699117705,1167.2055584351726,1174.2007191890807,1181.4046958919303,1170.3073775894354,-394.3518442380533,47.1922842977619,-407.76492540417127,78.38472077100953,163.30917872659353
0.3099999999999999,0.3025566551557122,0.3003041002241561,-1.0242597410729928,-0.0486972454956048,-0.012215099539581,0.0206155847825928,-0.0177036982780521,-0.0176976047220817,-0.0579566153940099,0.9980048870730752,-0.0981568458413907,0.0833613613660497,10.795004689387117,0.0814622267599733,-0.0737904117595165,1.146509423643646,-0.9373136992872309,0.7958027557101858,0.5139915207384315,1166.1368904885744,1174.3907948290307,1180.3839617156725,1170.6931452560323,-422.52286763296024,102.5291788843332,-385.1975133070933,226.25245983103903,163.31068219167128
0.3125,0.4313345393007674,0.1479407071862038,-0.910320303603438,-0.0490639301250518,-0.0112653868138715,0.0156341831104932,-0.0177771330667721,-0.0177176329319823,-0.0578854320724926,0.9980073573795932,-0.0978221596253228,0.0850786238121439,10.795576578783416,0.0802782869206445,-0.0727115810935033,1.1489839937370356,-0.9372323344094023,0.795708642787528,0.5168759434914415,1165.0929440970078,1174.7133650835024,1179.4787083253948,1171.4386398885906,-403.3151702518804,172.3488234489649,-336.18457407069366,355.55642880653943,163.3123117489994
0.315,0.6679820145066303,-0.0882333863510187,-0.5752467297138752,-0.0482268593451823,-0.0097842444841278,0.0104913395434896,-0.0178432342109526,-0.0177516074024255,-0.0578095280064875,0.9980099611370404,-0.0967542788650662,0.0861158515940345,10.795882313060767,0.0791298862915756,-0.0716100848388454,1.1514517664283983,-0.9371539652420088,0.7956197704092671,0.5197675721875779,1164.120314637315,1175.2525389462755,1178.703038845319,1172.4709274000647,-285.122810661778,230.56865708499552,-208.57511321655673,353.98302037915494,163.31440581780487
0.3175,0.9028849581333116,-0.3168447596117419,-0.1827287523695251,-0.0464810399235656,-0.0092160473190167,0.0079341142964355,-0.0179059887091494,-0.0177986337475984,-0.0577303802996457,0.998012559618513,-0.0950028873764636,0.086378488632462,10.795923068786564,0.078018553781417,-0.0705023044717426,1.1539114088442894,-0.9370783695424476,0.7955358488155763,0.5226657265127033,1163.6673300436987,1175.8662083689276,1178.435832759312,1173.2085549904864,-96.3059739729032,294.18372533509654,-8.2857641056762,226.7120121370224,163.3162618190729
0.32,1.13459101732886,-0.5451558408808312,0.231499651961003,-0.0438141959140819,-0.0103753151273418,0.0086825140348833,-0.0179675596000911,-0.0178550779974852,-0.0576522676551616,0.9980149361421616,-0.0926872006806803,0.0858239288487719,10.795696501692863,0.0769390324719973,-0.0693997702883478,1.15636330816934,-0.9370053959049414,0.7954575303458981,0.525568904675764,1163.6387847674505,1176.723457572951,1178.6616100247907,1173.60448746075,74.53353912947014,448.5062898996144,216.37071239242664,81.48495358441315,163.31822833858044
0.3225,1.3611846655630355,-0.770835701356126,0.6331342744235923,-0.0396752063206878,-0.0135989754971144,0.0134033677581934,-0.0180257328199444,-0.0179190272596031,-0.0575806037405779,0.9980168571070211,-0.0899009062767852,0.0845216817269497,10.795195863627791,0.0758890134262873,-0.0683025626355222,1.1588092225412283,-0.9369345346112936,0.7953844047763698,0.5284755846722792,1164.0399977393463,1178.1087398184256,1179.517686321274,1173.6159797584085,200.97477234080523,569.7823150868312,395.7768641626441,-57.819740292734366,163.3207115448413
0.325,1.4771685152691252,-0.8923795917958736,0.8256193347007214,-0.0355603082695826,-0.0169555939989672,0.0186690879861519,-0.0180819389902348,-0.0179884092979007,-0.0575151950150523,0.9980183484714704,-0.086737156030638,0.0824801845605632,10.794410903735349,0.0748652445124169,-0.067218544419535,1.161251122730642,-0.9368664115368764,0.7953152456840438,0.5313848830640628,1164.6436586291543,1179.5723691483852,1180.6404943456039,1173.3153887592864,270.8682202739508,635.8427138016845,494.64290023806774,-147.77598439418384,163.32288115243503
0.3275,1.4920916026753754,-0.9345952726838712,0.8499000392983929,-0.0308372144331639,-0.0201537565483483,0.0230584654654634,-0.0181310824633856,-0.0180596749330559,-0.0574570084502752,0.9980195118311228,-0.0833325762237611,0.0798576866623785,10.793324480660669,0.0738598439211965,-0.0661390298401864,1.163692418100789,-0.9368005693633442,0.7952500629950247,0.5342963511742593,1165.394338840716,1181.287953387434,1181.9909008224645,1172.8770998364375,336.2671655677784,774.6391079988363,584.6344648962253,-180.25983715515375,163.32515255679007
0.33,1.38407669481667,-0.906745371223834,0.7226928166832391,-0.0249167398028185,-0.0233001417812994,0.0262462039126615,-0.0181735336425573,-0.0181295154006731,-0.0574085240159517,0.9980202597338436,-0.0798140115802504,0.0767029629200094,10.791915921868512,0.0728658904727034,-0.0650662441168306,1.1661354554879626,-0.9367374549850012,0.7951872807630747,0.5372115041504453,1166.3249944569934,1183.4455646883791,1183.563666670085,1172.4140895735106,329.9756289417016,768.684581271463,522.778625124874,-139.10277302388738,163.3279942345119
0.3325,1.2013088578953235,-0.8378212736100416,0.5362417487906387,-0.02036632549224,-0.0251823623238857,0.0271773315214025,-0.0182116591604887,-0.0181959313694453,-0.0573710102651415,0.9980205189897772,-0.0762767534648988,0.0730302634377043,10.790160486132704,0.0718792351796336,-0.0640055551432365,1.1685814811856623,-0.9366777253439788,0.7951246536152843,0.5401330316752215,1167.0442169854243,1185.1313762937912,1184.6047939480889,1172.181585971318,262.1524177768149,600.8168792480768,318.30199508312916,-59.61250307218501,163.33045834359808
0.335,0.9611948020610936,-0.7466437745116905,0.3268311895537424,-0.0172641678549127,-0.0264918575728968,0.0268629657015926,-0.0182485097616041,-0.0182535782990295,-0.057341499885425,0.9980205084424474,-0.072883265651309,0.0688409908524623,10.788028882723935,0.0708872133480154,-0.0629636916778561,1.171031306129586,-0.936621186425381,0.7950613160641528,0.5430609487435292,1167.6357565458775,1186.4496490846195,1185.1551766455007,1172.1160270581497,221.30387169909207,443.8218662573941,109.6420080988536,-14.33070271746145,163.3330221196186
0.3375,0.672478769536423,-0.6325558630114579,0.0990055719169092,-0.0159321622068528,-0.0277206758492581,0.025849021392913,-0.0182822765359864,-0.0183034124830358,-0.0573212250936853,0.9980201735582878,-0.0696660443394695,0.064247716194368,10.785488428250188,0.0698911895005482,-0.0619341349250607,1.1734847517169331,-0.9365674999120825,0.7949985728482398,0.5459952985550947,1168.15073634392,1187.3504856250784,1185.1530039885831,1172.1099324577308,153.20477054224267,189.5733581732655,-100.63889853267928,-17.929844509671952,163.3362146870117
0.34,0.47720256801969,-0.5405232850424264,-0.0536938669404181,-0.0162416109977558,-0.0287044859754633,0.0248916739718342,-0.01831604597795,-0.0183447848870078,-0.0573085689395746,0.9980195592960918,-0.0666802602528666,0.0592566783656779,10.782505126892975,0.0688888103076853,-0.0609222069178238,1.1759404791030519,-0.9365165089099652,0.7949378779547571,0.548936049468471,1168.4017803985887,1187.397515875486,1184.6519821528373,1172.0263778356011,62.33033970588616,-144.5418018183771,-265.29342400276596,-84.56102653076407,163.3389730055998
0.3425,0.3622913724631213,-0.4511141640196997,-0.1668056630105431,-0.0167054264793416,-0.029759880619185,0.024150872854727,-0.0183469663969605,-0.018379382934553,-0.0573035983586869,0.9980186789120196,-0.0639339315492548,0.0540019848001953,10.77904301234807,0.0678822176754618,-0.0599190110959881,1.1783969741532585,-0.9364679491565704,0.7948802107584902,0.5518842302299107,1168.4623880424494,1186.6277766159865,1183.8265368685693,1171.6871273250767,-8.036736054737041,-444.26421636017,-343.47002894032784,-198.41233377956067,163.3418347135007
0.345,0.3191391783651051,-0.3598531683442267,-0.2561354172411944,-0.0168615942339856,-0.0308338812150082,0.0236958317176791,-0.0183699019946419,-0.0184090959383778,-0.057301879337794,0.9980178448126532,-0.061424839954327,0.0486668629827008,10.775065964422668,0.0668730823981847,-0.0589108945230099,1.18085246438423,-0.9364218560385216,0.7948258010076725,0.5548398734130001,1168.361596718315,1185.1761947936852,1182.9346320081356,1171.0343161667035,-81.29507293647286,-731.4995675753829,-324.62299143048733,-346.8471406632031,163.34478354373903
0.3475,0.3504522843651446,-0.2613366920895919,-0.3309005761124139,-0.0164343059343815,-0.0318690831182276,0.0235749907340668,-0.0183810519660709,-0.0184362931369353,-0.0572984089448112,0.998017371438404,-0.0591316202935557,0.0434033549104908,10.770539579191697,0.0658641266973035,-0.0578875478020624,1.1833046183716343,-0.9363780108472866,0.7947751229531672,0.557801803301505,1168.055912677767,1182.9702787781096,1182.2034219114169,1169.9528916217607,-184.45458630249033,-1109.0271380021468,-239.59890540959327,-565.4104656940485,163.34783894990088
0.35,0.4465110739732439,-0.1324535370462898,-0.4150639487962943,-0.0149476425775024,-0.0328481791184331,0.0236039666791527,-0.0183822827966042,-0.018458907443443,-0.0572931636699592,0.9980172630119748,-0.0571164729934963,0.0382300540737368,10.765432120251957,0.0648485148651655,-0.0568524756899713,1.1857507973129513,-0.9363367849596352,0.7947274359253631,0.5607706962271307,1167.4393237868023,1179.6310591036745,1181.7366374810877,1168.2072638382333,-266.7823661387529,-1301.15307503976,-87.48218172736505,-693.6471576467353,163.3516303825061
0.3524999999999999,0.5548048757222303,-0.0191360391786455,-0.4781656279327506,-0.0130356250730441,-0.0331755551776945,0.023445980671782,-0.0183777716163059,-0.0184807677111228,-0.0572873733328474,0.9980172986210714,-0.0553046366657031,0.0331194556730571,10.759715714132884,0.0638335497562725,-0.0558140769241031,1.1881873450319231,-0.9362975542706592,0.7946826645828261,0.5637466324810013,1166.722000847073,1176.4645134029108,1181.76601100278,1166.4846558335273,-320.96034769083747,-1288.6205656733312,95.84939512733496,-709.9001089709036,163.35489512153472
0.3549999999999999,0.6766971341109428,0.0927324829319541,-0.5159207686326768,-0.0111590586811476,-0.0328677198598051,0.0224528686243372,-0.0183672593951597,-0.0185046058586442,-0.0572820870270491,0.9980173701683662,-0.0536423908003158,0.0281355633776652,10.753364900844511,0.0628232165965451,-0.0547707541817785,1.1906114407543271,-0.936259701408132,0.7946401591370968,0.5667290988551948,1165.8345220483484,1173.187956275308,1182.2158844567243,1164.6577632933788,-408.50069425168806,-1392.3847368684608,271.0224996617851,-785.473531576735,163.35827014935012
0.3574999999999999,0.8321497440980453,0.2173014580993516,-0.4996553844603577,-0.0096073274495107,-0.0319339655187151,0.0200172742714955,-0.0183499119169754,-0.0185308195626183,-0.0572786917679489,0.998017406102777,-0.0521192890751153,0.0233494714818977,10.746357672367267,0.0618158988373233,-0.0537202079898669,1.1930208655617967,-0.9362233669408347,0.7945999748825844,0.5697174317651764,1164.679497375815,1169.5025897185683,1183.1211235010887,1162.5572881756436,-415.35602620033353,-1257.6517902176863,367.2507686596415,-727.8763970395622,163.36244864577142
0.3599999999999999,0.963782385254289,0.3115947625404761,-0.4156140488220825,-0.0084110178517835,-0.0309621343465755,0.017402371802989,-0.0183242909737658,-0.0185593236093661,-0.0572781385617501,0.9980173815132136,-0.0507285424166129,0.018843134825812,10.73867601153704,0.060808862424611,-0.0526592440368929,1.1954138017864833,-0.9361887550602797,0.7945630038828165,0.5727107887721593,1163.7577419173467,1166.8996973242195,1184.0521383000223,1161.018381308181,-327.25308214889964,-895.0945997712543,377.3527322176502,-547.8553968115189,163.36603826928703
0.3624999999999999,1.0790640773515836,0.4006949464223536,-0.2550101967808754,-0.0061463989154462,-0.0299709279712173,0.0151341789195956,-0.0182899913062938,-0.0185948364344332,-0.0572814751320752,0.9980171573387774,-0.0493528743681885,0.0146808614204015,10.730306895626711,0.0598113119599213,-0.0515869139878988,1.1977879829273603,-0.9361556415616322,0.7945300458628726,0.5757090749195317,1163.0432319650704,1165.0271167197122,1185.0078871621772,1159.818011191586,-230.91370440279184,-629.5645300991049,396.1331588834124,-433.8718178788436,163.36973984224
0.3649999999999999,1.1659030414396563,0.5121441142101926,-0.0009774319382256,-0.0017051868809545,-0.0288067302450477,0.0140627040999212,-0.0182462291116277,-0.0186376733788439,-0.0572888821027111,0.9980167325840016,-0.0479644988910656,0.0109292068850632,10.721241229164349,0.0588223112540892,-0.0505023850931644,1.2001418167743372,-0.9361239861018988,0.794501772154182,0.5787125457513693,1162.6031733953328,1163.751874673724,1186.0328040944396,1158.8490222187868,-76.2048040071931,-311.54261657829886,340.82264870667103,-272.0652766983219,163.37431117573206
0.3674999999999999,1.177563066973354,0.6166269041361706,0.2274744893741489,0.0027810439277975,-0.0278479965626774,0.0147988617996207,-0.018192687354777,-0.0186854633018327,-0.0572942061743055,0.9980165102881778,-0.0465859109652167,0.0076439872166003,10.711474348193924,0.0578347547560704,-0.049406864824781,1.2024739658841204,-0.9360939583172044,0.7944785066939551,0.5817216960365342,1162.6622079450344,1163.4694036368207,1186.7120004057103,1158.4576848080944,109.4315684410957,16.38495043989677,227.33210631427008,-72.50401958381183,163.37822826055665
0.3699999999999999,1.1277102121167863,0.7384524160247407,0.4316930185978495,0.0065884877627162,-0.0266615413875739,0.016486841216931,-0.0181325215150251,-0.0187346697261619,-0.0572916952049409,0.9980168293911528,-0.0452582891564592,0.00480417512196,10.701006678408834,0.0568399405276919,-0.0483098309416525,1.2047828197476766,-0.9360668481123214,0.794459463736357,0.5847367388062473,1163.1503312375382,1163.8337994259234,1187.1694646260107,1158.4865021208675,247.05213326965327,215.64481980408323,146.57490804743233,72.73944973039754,163.38225648721507
0.3724999999999999,1.0456207866813227,0.873590639662782,0.5929789750528112,0.0093480399881218,-0.0249742585248393,0.0184685567944867,-0.0180715463883841,-0.0187787877557049,-0.0572749153140851,0.9980180751491072,-0.0440819309065339,0.0023276066504989,10.689843619068602,0.0558230496460885,-0.0472272319812443,1.2070668209123008,-0.9360434448587968,0.7944429513449788,0.5877575926846539,1163.8974686113827,1164.5476277358412,1187.4448749459475,1158.8213820567464,323.42838027016086,318.77986057934294,71.52606216618545,187.91413419098697,163.38637619872668
0.375,0.956602927076108,1.0186613988620363,0.6873813828369619,0.0109956361015707,-0.022600313742047,0.0206102763940957,-0.0180120365697303,-0.0188124578896113,-0.0572436297123706,0.9980203188421178,-0.0431404563600241,0.000204213152238,10.677995628056737,0.0547724407365931,-0.0461654910296636,1.2093247019041915,-0.9360238375192717,0.7944282121643124,0.5907848887971974,1164.767473138889,1165.42769872882,1187.5270949368419,1159.4260727918227,361.3824188245868,365.6040256219964,-2.3084291967734294,291.4314973130783,163.39060509344603
0.3775,0.8762113158435721,1.1956582617949592,0.7170756395788668,0.0119366975226987,-0.019300782727245,0.0233257969088242,-0.0179535165091427,-0.0188351666064966,-0.0572023914851511,0.9980233155509928,-0.0424217136114456,-0.0015167857470542,10.665479000239989,0.0536884722590177,-0.0451230686426255,1.2115550848838212,-0.9360075223143792,0.7944157426186159,0.593817629667388,1165.7043807055056,1166.3756478639511,1187.4333327999639,1160.2785395433118,300.3527301393203,297.6489552897871,-67.33889223919499,302.04774611438523,163.39580410589403
0.38,0.8413850423088594,1.340901310360146,0.6758948479820183,0.0125148047152511,-0.0164452679339716,0.0255954802877129,-0.0178942288775122,-0.0188504930394222,-0.0571552976954053,0.9980267936996364,-0.0418314235876491,-0.0027576898918284,10.652316241888464,0.052581577243175,-0.0440945274457039,1.2137564753700347,-0.9359941606419852,0.794407098709065,0.5968534422022138,1166.2692367895856,1166.915943505269,1187.190400475646,1160.9363115223944,171.41166768624302,147.52553443508972,-142.24997197129585,216.05618832891173,163.40023854348726
0.3825,0.8280691500338899,1.4779515003674837,0.580488159497975,0.0139843627793374,-0.013578541952825,0.0274766144174886,-0.0178338991688017,-0.0188655115773678,-0.0571036488263448,0.9980305498819824,-0.0412030849355862,-0.0034719843119091,10.638536588488636,0.0514711034343436,-0.0430773888865647,1.2159269306521097,-0.9359837782064548,0.7944026213363868,0.5998916450646671,1166.5614390439368,1167.1132755361264,1186.7220829401072,1161.3588204849564,75.95511286713183,17.624498544455477,-280.7651144767076,100.98880182904387,163.40477648502397
0.385,0.8025120344016474,1.6194043598368215,0.4300695463387904,0.0168694719387834,-0.0095269221084954,0.028931077572994,-0.017776073188154,-0.018884724670512,-0.0570481544871491,0.9980343941292004,-0.0404261279868084,-0.0037035515768959,10.624175995976971,0.050370987612595,-0.0420783872683159,1.2180641332189708,-0.9359771808161992,0.794401275691404,0.6029329903128605,1166.6490123539213,1167.0040659979911,1185.7865749032624,1161.4412555315398,1.879726515790024,-74.70612572255952,-423.48817537390414,-50.75898299055548,163.41033891048994
0.3875,0.7478157338113335,1.7024477610555568,0.2970025277538049,0.0196484691876726,-0.0054308076633061,0.0294606256501616,-0.0177203831516743,-0.018909473038718,-0.0569890980756989,0.9980382902491668,-0.0394680502654562,-0.0034243963990512,10.609276892595355,0.0492870752047788,-0.0410946218198127,1.22016578936382,-0.9359746222074702,0.7944028094324578,0.6059788281639376,1166.5708376765156,1166.7397449075136,1184.6046420632379,1161.1050255700036,-49.442043717635855,-106.94405078920671,-573.3362978690361,-215.41067948046452,163.41506964642414
0.39,0.6399153801579082,1.729223918850904,0.1794173123003438,0.0222764475986327,-0.0009545351601188,0.0294310971064444,-0.017664986320159,-0.0189380797128145,-0.0569299831705474,0.9980421017000898,-0.0383695015575373,-0.0025897672469004,10.59388876698177,0.0482177098151402,-0.0401191772058545,1.222229147914876,-0.9359757846550067,0.7944071751724182,0.6090309978712934,1166.4018021353331,1166.4693457440453,1182.9198934139172,1160.3642021341375,-90.7870910019482,-88.01092521980526,-865.367012839669,-401.9669533777684,163.41989692733355
0.3925,0.4475018095597532,1.6785145369129235,0.0735765472957431,0.0247767354708002,0.0046307509768052,0.0290343592374225,-0.0176089040919783,-0.0189680782431871,-0.0568735110246705,0.9980457386540154,-0.0371918400045811,-0.0011841630308841,10.578068711832138,0.0471590857454111,-0.0391467176083332,1.224250634219453,-0.93598111961522,0.7944135958158541,0.6120918098073301,1166.116902221506,1166.2996902814148,1180.2778069990395,1159.0951908031147,-122.57424751619499,-26.48431273992171,-1067.950696038905,-512.9654209987161,163.42579835737152
0.395,0.2461298659071805,1.5610040465322887,0.0188919326528209,0.0260314823408315,0.009356260871936,0.0286795843146012,-0.0175533020648465,-0.0189949071744212,-0.0568215011662921,0.9980491647441356,-0.0360422934292849,0.0007493317744686,10.561881227061267,0.0461020497412643,-0.0381768846640705,1.2262262406496651,-0.9359903951624732,0.794421372125376,0.6151615269096269,1165.788930897752,1166.3369241803457,1177.5801399337226,1157.799375029144,-162.159420881744,45.20133802334381,-1163.6422976446272,-552.6730493955251,163.43080459639202
0.3975,0.0256658304305127,1.3699241779165607,-0.005211184708441,0.0263348197450765,0.0136961337123564,0.0285993613224015,-0.0175020058760437,-0.0190122700035716,-0.0567737078563897,0.998052448073975,-0.0350639483581953,0.0030989474748495,10.545397691287148,0.0450328307008299,-0.0372157512761387,1.228152014082092,-0.9360029816795916,0.7944310955008774,0.6182382042177293,1165.306105117097,1166.5256969715315,1174.4595955108164,1156.3318255561371,-229.77823508304007,84.05924818325721,-1293.1577100951004,-608.892719427285,163.43589985259342
0.4,-0.1902385435207932,1.1319496312588735,-0.0108567116716666,0.0259498902752381,0.0172813970510791,0.0286954694737548,-0.0174640019260347,-0.0190157290669151,-0.0567312765278191,0.9980554508631388,-0.0343572139575216,0.0056343916642888,10.528695805454092,0.0439422247423722,-0.0362815302852218,1.2300240438435754,-0.9360180574646236,0.7944417963010372,0.6213203105546269,1164.6400397223367,1166.757220421262,1171.1143513832471,1154.7549114320075,-320.05869139206845,73.77728171163646,-1346.9768967142031,-652.4652250629509,163.44106680687432
0.4025,-0.3775211707881523,0.8653121817278635,-0.0024640076983911,0.0249407516393829,0.0197438372143594,0.0288184037806874,-0.0174453288793153,-0.0190009107844699,-0.0566943473222436,0.9980581432442556,-0.034025236393987,0.008177229030411,10.511857060532792,0.0428199992872789,-0.0353852622345384,1.231839540619726,-0.936035374096607,0.7944526774839715,0.6244068938119385,1163.7058116601368,1166.8945833800897,1167.7247110272451,1153.0694994308224,-473.6443125644196,-4.3640539919124395,-1428.6361517461487,-757.5461541596262,163.44631747273684
0.405,-0.5444954099790362,0.5542989563577316,0.0158122097839031,0.0233556907267038,0.02151175444639,0.0289387886730684,-0.0174467292535645,-0.0189659895913685,-0.0566588899832301,0.9980607760439588,-0.0341218486317397,0.0106548817485023,10.49496450813262,0.041660681266785,-0.0345250123522069,1.2335968509370936,-0.9360548221644944,0.794463432895068,0.6274972998021504,1162.2718181595149,1166.7354001513024,1163.9711706245164,1150.967180661209,-568.9905513064327,-143.45911845371108,-1268.011321275752,-771.0986220958141,163.45271098929152
0.4075,-0.6211706771949684,0.3325752599823806,0.0336308882162366,0.021855423957019,0.0221104080183729,0.0290922085246616,-0.0174646280209695,-0.0189125527260266,-0.056623607218362,0.9980634555754576,-0.0346344264905156,0.0130780291242998,10.478100402724396,0.0404662047258694,-0.0336881725152335,1.2352952639570765,-0.9360760196772918,0.7944744600162769,0.6305917614944239,1160.8608589036048,1166.1772877878211,1161.3846544208664,1149.2140063203433,-591.623077337544,-341.8205763092825,-867.2050700754418,-677.465942733533,163.45811272577143
0.41,-0.6186938681650204,0.1796348089253523,0.0506089962599826,0.0199935257006741,0.0219186719686677,0.0293301621358767,-0.0174904134128119,-0.0188439311237234,-0.056588257053166,0.9980662841549416,-0.035518300540267,0.0155555168593654,10.461343317322708,0.0392418096770692,-0.0328502864882646,1.2369351403231887,-0.9360990306396636,0.7944873551500177,0.6336904718670449,1159.3137027728271,1165.026297269756,1159.6351452741392,1147.5798509475417,-693.0730893000595,-660.3015454560131,-545.5116496166734,-658.3615110567274,163.46358631814138
0.4125,-0.5129666251760712,0.0970603257187899,0.0683997614139903,0.0173648199442119,0.0212407919777921,0.0295973364703883,-0.0175150956250947,-0.0187684613315998,-0.0565545674838333,0.9980691641181438,-0.0366229350577412,0.0182018781776591,10.444766260547608,0.0380049359048013,-0.031986250127098,1.238517345921624,-0.936124000800888,0.7945038144980346,0.6367942625131058,1157.3954934571043,1162.875780060541,1158.6570961727832,1145.9221987650596,-706.8483332894168,-911.0575165752372,-178.3742233960309,-535.7955501871852,163.4702313660746
0.415,-0.3395190269617954,0.1163835042422178,0.0814206644493698,0.0152678432184291,0.020681334884769,0.0297625122037023,-0.0175346365806104,-0.0186923807852732,-0.0565215951934073,0.9980721024748102,-0.0378315255483972,0.0210227161160535,10.428434221383084,0.0367684282802279,-0.0310846575340111,1.2400435623517407,-0.9361505967588176,0.7945247598784231,0.6399031520903714,1155.77946110638,1160.4710096868798,1158.743274157159,1144.9008731966055,-653.8389021945544,-1058.1975259481278,179.66925602663835,-319.2556902538432,163.4758276676264
0.4174999999999999,-0.0934555298079764,0.2179521713639765,0.093555786305356,0.0140606311835341,0.0204210197211589,0.0298749672103495,-0.0175469571627375,-0.0186186678702511,-0.0564860832128992,0.9980752660235436,-0.0390880068195978,0.0239788179634149,10.412401365040035,0.0355373397403122,-0.0301404139849772,1.2415167643910427,-0.936178355631722,0.7945494552813167,0.643016270817028,1154.1262989461316,1157.5847924308005,1159.5554424529164,1144.3259203137904,-751.824716722384,-1320.8268170852211,445.1809810406348,-153.11330016698022,163.48147808146405
0.4199999999999999,0.2489389991471218,0.4088003906276562,0.1070896310502277,0.0142467602711256,0.0206681681281886,0.0299993635288272,-0.0175570318575657,-0.0185448116085976,-0.0564437165460359,0.9980788589241176,-0.0404371579465188,0.0268801028247523,10.396709467142667,0.0343042389534917,-0.02916749341526,1.2429411604657299,-0.9362080394327004,0.7945767511562535,0.6461312318211822,1152.020337522768,1153.8668756014536,1160.969179062362,1144.1353066957709,-805.5051338644708,-1355.311917881271,524.1846628877279,-2.7701525783868393,163.4883122679401
0.4224999999999999,0.5416036950499536,0.5979329871252475,0.1158611629751215,0.0157400322304,0.0214953874580218,0.0301444829142039,-0.0175700381879707,-0.0184704654392144,-0.0563966249510059,0.9980826766922708,-0.0418769765577538,0.0295363315950058,10.381386113714003,0.0330674493668475,-0.0281807058874998,1.2443220445682923,-0.9362399092756842,0.7946069885359291,0.649246000748708,1150.0987732768094,1150.808232841394,1162.176365767355,1144.3120695508985,-810.8188689248883,-1163.2476643343568,413.9390637255016,108.61750637063768,163.49404537477895
0.4249999999999999,0.8085849325920054,0.7784973331446788,0.1179206813567597,0.018111948699077,0.0233239890587034,0.0303925749589678,-0.0175835902336049,-0.0183973174230751,-0.0563503713359428,0.9980864168733024,-0.0433698752070396,0.0319213858164293,10.366442506737105,0.0318296222538399,-0.027176496416781,1.2456659125931209,-0.9362735614809068,0.7946403442231877,0.6523603281394446,1147.9662431781437,1148.050637279782,1163.0388743809897,1144.678394227624,-882.4735525832231,-1029.1184987629995,246.20588358507095,148.5562413050955,163.49981045076476
0.4274999999999999,1.0375714047142557,0.920784114914534,0.1103245903935533,0.0208703028487302,0.0262169739645591,0.0307556379746052,-0.0175860198510842,-0.0183278820983172,-0.0563120470605422,0.9980898371828872,-0.0448695054336437,0.0342090896059125,10.351872679850567,0.0305945043255742,-0.0261287497856132,1.246980039443807,-0.9363087971509498,0.7946782609759706,0.6554742548251296,1145.6864055138933,1145.662640347579,1163.4073951852804,1145.054850757424,-924.6942893193584,-859.8891615784387,4.600010860667676,115.97232359968064,163.5055974276738
0.4299999999999999,1.2105179000612467,0.9874868217859508,0.0866089245069708,0.0239307335118143,0.0302570330033301,0.03124255726235,-0.0175706532211269,-0.0182639609737927,-0.0562850587597737,0.9980928280562288,-0.0463338479629709,0.0364796299998504,10.337656111021964,0.0293651202699842,-0.0250243977314988,1.2482711544366127,-0.9363455501753382,0.794721608194751,0.6585880206054721,1143.3427717315467,1143.7511914718896,1163.061874435293,1145.2582558456224,-1000.5078899867376,-747.8471358281233,-310.96385135369894,7.6914628093618305,163.5114064043094
0.4324999999999999,1.3490019879706898,0.9689620255667049,0.0372792746862421,0.0279256461982308,0.0353834252013868,0.0318239232842443,-0.0175385325752067,-0.0182104639010678,-0.0562680894684177,0.9980953518968873,-0.0476433399126546,0.038670296615787,10.323760222301484,0.0281537853260604,-0.0238693993425286,1.2495446305588347,-0.936385176795444,0.7947699560751406,0.6617023096201836,1140.6838660639596,1141.9234046684385,1161.852575928512,1145.0933080714708,-911.9109922291037,-615.4314897847593,-549.3026364027169,-148.95869203005515,163.51839836705372
0.4349999999999999,1.4081927495174444,0.8892796916509543,-0.0187056068628747,0.0315246176281608,0.0386991824728378,0.0320866888344195,-0.0174896084876733,-0.018168704654426,-0.0562583428251251,0.9980975403685084,-0.0487519980045532,0.0407491441882062,10.310140723975287,0.0269642086120815,-0.0226673693211284,1.2508049492271252,-0.9364280400758028,0.7948226772632847,0.6648174288677947,1138.7832167704012,1140.674034022966,1160.3153612532794,1144.513462385472,-656.8539180994769,-471.07163695741247,-678.7895217702038,-329.48116921547773,163.52424059258547
0.4375,1.415494910972294,0.7895240949649742,-0.0823389463405903,0.0352537516442229,0.0401692999509261,0.0320311860058031,-0.0174232363292009,-0.018137572558023,-0.0562511732940018,0.9980996859261704,-0.049662773422262,0.0427063859669799,10.296744764313392,0.0257943542558174,-0.021420373382517,1.2520552099197615,-0.9364739182327574,0.7948794587819245,0.6679333609965854,1137.3995964734622,1139.5680464836514,1158.4586283196609,1143.4459022253934,-465.56009234204754,-474.8497087457959,-836.7419675598732,-562.3110842145247,163.53009772255243
0.44,1.3788472277382606,0.7065379239722795,-0.1552578744794914,0.0394679513635283,0.0404148220075185,0.0317511504786628,-0.0173445933899182,-0.0181154694601164,-0.0562400439440067,0.9981020948266444,-0.0503805922977949,0.0444245892210141,10.283515735481012,0.0246420665872953,-0.0201445224936164,1.2532964197937844,-0.9365226009884784,0.7949395754267462,0.6710513386995915,1136.4554163086912,1138.299785479237,1156.13165141548,1141.7019069643995,-226.74973879265943,-458.3259565632484,-839.0213198871143,-686.2021960538635,163.53714349842187
0.4425,1.3248729752242643,0.6969028872282457,-0.2032994382972369,0.0424568052091169,0.0403930685054723,0.0312892734011978,-0.0172606720205868,-0.0180976578999433,-0.056220046186678,0.998105007439513,-0.0509737073823783,0.0457562069556673,10.270396075742024,0.0234977808231319,-0.0188602743326866,1.2545276350581616,-0.9365745246708312,0.7950023953079397,0.6741723136393423,1136.2658477794987,1137.2764167008352,1154.2635217202253,1140.014891245124,28.511312771433925,-390.2091123680744,-711.7138798541412,-676.4783145668838,163.54303027102162
0.445,1.2631971243718263,0.7560679607968,-0.2263561681497306,0.0447761075543726,0.0410181642017323,0.0303876002402077,-0.0171761746895848,-0.018080114408539,-0.0561906477080965,0.9981084443622162,-0.0515009577280728,0.0466101188971674,10.257330600584536,0.0223534524122975,-0.0175816643190176,1.255745904798628,-0.9366297270050452,0.7950672328923171,0.6772987469386482,1136.5979728725483,1136.3487399173966,1152.5730820162091,1138.3195153915651,224.17716137406367,-356.4588345715489,-698.5326194541352,-694.6371296810861,163.5489351430849
0.4475,1.18893577794094,0.8853070434052541,-0.2160611410536034,0.0470426690708661,0.0427089784986439,0.0289871627635895,-0.0170940753969198,-0.0180615159032583,-0.0561501947870036,0.998112469985299,-0.0519679587226718,0.0469440127963786,10.244270100400499,0.0212075205293211,-0.0163175549640163,1.2569463687743825,-0.9366888628507386,0.7951339457965018,0.6804322747682663,1137.3867335863692,1135.4941225279774,1150.7708586229546,1136.5417055967187,315.3783144122369,-244.53461767398016,-630.5572735358048,-579.6356094547258,163.55604585375036
0.45,1.120523575120681,1.0144701945640886,-0.1764574964790033,0.0489519762604593,0.0448448970963993,0.0279639127357474,-0.0170121972979499,-0.0180398395306907,-0.0561022916350853,0.9981169524534363,-0.0524040668515286,0.0468259681472994,10.23117304071018,0.0200557157953198,-0.0150637237449545,1.25812300828826,-0.9367527184117364,0.7952032351769426,0.6835728624588633,1138.1748644446095,1135.1260668290267,1149.4202956485303,1135.4213373442915,294.54931801160427,-49.17330922776269,-525.1110037827852,-354.89251412791384,163.5619959159317
0.4525,1.0221438113757795,1.1283944434597304,-0.1152849734783745,0.051688171248439,0.0477734302354881,0.0274741797960018,-0.0169281095898505,-0.0180115152365316,-0.0560531537980754,0.9981216456935628,-0.0528722850303834,0.0463333485440591,10.218008234826623,0.0188893582690665,-0.0138154451644964,1.25926910080157,-0.9368204928725136,0.7952754267742561,0.6867200557674537,1138.8594801764273,1135.2482559818386,1148.1453036040407,1134.767243026079,225.360461175296,141.44175749293015,-510.9955046797036,-183.6353978222631,163.56797686345547
0.455,0.876707057442668,1.2029402741435729,-0.0488028204570008,0.0552023426070563,0.0511474115160666,0.0275081714964357,-0.0168387152570138,-0.0179739584991077,-0.0560050951852056,0.9981265172382486,-0.0534143261074539,0.0455664821279708,10.204755949217654,0.0177015047996141,-0.012566145429807,1.2603777599018195,-0.936890580363928,0.7953505021699563,0.6898730809173301,1139.301666750486,1135.8332756164912,1146.8653181251318,1134.50316035518,92.1408049919136,344.38813675042155,-525.9200114990558,-22.95777003314468,163.57398825719432
0.4575,0.6584267710739623,1.2049407630199047,0.0095756278944462,0.0586887035364196,0.0546461379634079,0.028029997765223,-0.0167409787431682,-0.0179266394010398,-0.0559581986188245,0.9981316232999604,-0.054028716130282,0.0446332245436513,10.191408027346544,0.0164897142120307,-0.0113091065804373,1.261442436594101,-0.936961339734163,0.795428377311651,0.6930310985476761,1139.3201842013868,1136.9701966655907,1145.5157035465454,1134.6524541759131,-104.19287160439116,607.4095745959305,-617.6242618856571,137.86132645527675,163.5800430821811
0.46,0.3202870686983835,1.1031654834711064,0.0597352728682163,0.061354285406682,0.0587259286306992,0.0287835692761364,-0.0166319176261895,-0.0178709623668879,-0.0559141244311342,0.9981368974278236,-0.0546752224330399,0.043646154532007,10.177966732931289,0.0152558816400519,-0.0100375218255941,1.2624573893773408,-0.937032017826908,0.7955088905691746,0.6961937603205738,1138.780702392464,1138.870323489471,1143.7771968157035,1135.1924669874563,-287.2758803007398,760.816458580029,-656.460125635885,238.11527117509263,163.58736883439275
0.4625,-5.465813729401322e-05,0.9255212998352667,0.0850564111090683,0.0619415354178274,0.0621193141830159,0.0293020144592456,-0.0165123201092783,-0.01781225122706,-0.055875417671841,0.9981420891737808,-0.0552301867887245,0.0426488171123654,10.164443575077703,0.014012122756292,-0.008753611184222,1.2634179447821403,-0.9371028802649816,0.7955920523284647,0.6993607635920739,1137.8838047998831,1140.7742789584909,1142.233402918366,1135.8430305317888,-431.31678125737346,791.7630600893054,-630.6613759046735,276.02263303065206,163.59353143983068
0.465,-0.3205227881915676,0.6574698737139164,0.1008653474908494,0.0612227151965589,0.0651342395524719,0.0296201697898674,-0.0163882277821323,-0.0177508952331645,-0.05584032084003,0.99814718782513,-0.0556625804826671,0.0415778849604984,10.15085567368784,0.0127591436657383,-0.0074735427767255,1.2643210911346916,-0.9371750214487676,0.7956786429819069,0.7025302251326515,1136.6241184861772,1142.8291387899176,1140.62388993618,1136.5725801526098,-599.6123134247222,894.8398078886376,-711.538896013871,307.5197432129241,163.5997640706833
0.4675,-0.6603276563088393,0.2601796990351597,0.1223295310273196,0.0589519365741678,0.0673356707615303,0.0297965205791398,-0.016268315504331,-0.0176859673442209,-0.0558081816880832,0.9981521016865172,-0.0559663013442865,0.0403172736489734,10.137222322631938,0.0114951478515629,-0.0062203695537373,1.2651656112032328,-0.9372487400003688,0.7957684025475265,0.7057007493614499,1134.8857432327595,1145.248477997934,1138.6757084382966,1137.3806292478534,-640.9493619119979,847.6704393543051,-707.0208897872355,262.0685398476778,163.60733637711678
0.47,-0.8805721985515089,-0.09968395020986,0.1519759390824001,0.0559454879581551,0.0675862954568979,0.0298355829042134,-0.016158094458069,-0.0176161235843048,-0.0557762297636523,0.9981569184866508,-0.0561475872462725,0.0388172373997656,10.123560457443972,0.0102175205270402,-0.0050091003510535,1.265952108091999,-0.9373244564821708,0.7958610994571735,0.7088715569955285,1133.4193716766172,1147.067490986689,1137.088785487244,1137.8829228518482,-548.2900424043687,650.4309609808837,-614.3838554645748,141.4112691831632,163.6137334771698
0.4725,-1.0208935213915236,-0.4424878089928271,0.2019810382572923,0.0525117968922129,0.0661111329176038,0.0298681366163187,-0.0160604742306118,-0.0175398341470451,-0.0557372159976488,0.99816202299003,-0.0562193993587922,0.037082812876142,10.109881174495424,0.0089236697916471,-0.0038478934711824,1.2666827614419427,-0.937403262032068,0.7959568359073547,0.7120422446157912,1132.1442930207377,1148.5006328028385,1135.6037891609735,1138.0876855937693,-476.621878012838,504.1851350644715,-614.767348302302,2.1729462319854047,163.62023207632245
0.475,-1.104362322695136,-0.787994850164022,0.2878355845469993,0.0488820047164049,0.0627257088067666,0.0300498727021703,-0.0159773528523099,-0.0174575777598045,-0.0556888343878257,0.998167505365944,-0.0561606045796259,0.0351377703782517,10.096186897509005,0.0076165162690133,-0.0027419238402405,1.2673609854641397,-0.9374857402693632,0.796056406281201,0.7152121499112452,1131.0362622865528,1149.5884166620115,1134.0149487457325,1137.893787583008,-318.7583502407048,273.8020015666732,-539.5154005415857,-150.6779525144337,163.62816132583959
0.4775,-1.1199606013708536,-1.0024952057679617,0.3768278809313596,0.0464691757080756,0.0592776761874159,0.0304418693526262,-0.0159084507365132,-0.0173706869836424,-0.0556332375407651,0.9981732284837868,-0.0559412070774774,0.0330454966696146,10.082468109292375,0.0063012331703229,-0.0016905076879302,1.267991141200117,-0.9375717379227938,0.7961600998468378,0.7183810358616997,1130.550501269534,1149.8696428106718,1132.9062121582658,1137.334295831197,-102.28056603550716,-26.28447445526972,-386.9875630920018,-304.152940055977,163.63488830435963
0.4799999999999999,-1.1015172561699915,-1.1411031815380883,0.4722281219578695,0.0445242856283199,0.0562246955357071,0.0312186201626369,-0.0158529967541085,-0.0172827525330618,-0.0555754100402693,0.998178867676834,-0.05549204959738,0.0308757133368758,10.068701454480424,0.0049888711631532,-0.0006909666062456,1.2685781388190585,-0.9376607132332194,0.7962676538940158,0.7215482552763002,1130.5248594563755,1149.4569942897351,1132.0800109302725,1136.3730228827283,72.18188971842284,-329.4306942260425,-288.1840568082709,-500.19909831758525,163.64175146984647
0.4824999999999999,-1.055620271849842,-1.2389235278826196,0.5739051812092949,0.0422838409863908,0.0533132033096082,0.0326623053448759,-0.0158080372174543,-0.0172007139778136,-0.0555214483255063,0.9981840137879864,-0.0546846655371473,0.028738914943465,10.054847971928837,0.0036987783795005,0.0002660467760986,1.2691270502196184,-0.937752792925236,0.7963780202801921,0.724714764455641,1130.9114107181263,1148.2224893395417,1131.4652918742245,1134.8333003396092,181.89403891028613,-550.9648014138288,-158.78978149999043,-608.1327949820201,163.65015915555313
0.4849999999999999,-0.998980553116544,-1.2776941187448907,0.6311837413142898,0.040153228966495,0.0510824710306974,0.0341920025523211,-0.0157695646822174,-0.0171311798879867,-0.0554719498475334,0.9981885861450616,-0.053401463876945,0.0267611115106437,10.040851959771103,0.0024495816173209,0.0011935468395038,1.2696427897982128,-0.9378483267884534,0.7964896085266804,0.7278817139821822,1131.4343296509269,1146.702170282666,1131.2860620227725,1133.332358907818,207.67218072260204,-664.7800352641292,-2.125487312923722,-610.338704714058,163.65731871640423
0.4874999999999999,-0.9162772664292396,-1.2791190942025255,0.6403980470348447,0.0375448492076721,0.0484887216388677,0.035850258554207,-0.015731800202825,-0.0170753067092768,-0.0554253468422736,0.9981927456744872,-0.051640450021089,0.0250893790382476,10.026640205002863,0.0012458799467642,0.0021091708645073,1.2701298981764717,-0.9379473206757418,0.796601758042041,0.7310498012666921,1131.9497716217393,1144.898589163221,1131.4546644376599,1131.781606816039,172.48184028398995,-727.7185354166241,122.78672039988112,-597.4087365968438,163.6646476612093
0.4899999999999999,-0.8063038401885437,-1.2469300912186063,0.5965545697399415,0.034828347221147,0.0454286232136567,0.0377219522526633,-0.0156950026251493,-0.0170280994327933,-0.055378138833538,0.9981967676868714,-0.0495194202561221,0.0237335484655253,10.01212375580709,7.74249452502075e-05,0.0030150559459468,1.2705924275432963,-0.9380501181849076,0.7967143384038586,0.7342182862947934,1132.2967388523468,1143.0635776055829,1131.899995624772,1130.345315224834,66.09257371428606,-694.0909512535194,238.88171957437388,-511.08727254436366,163.67212369980464
0.4924999999999999,-0.6638696413516034,-1.167938504001032,0.4769658447839195,0.0325664546077644,0.0418725191412094,0.0399634258314951,-0.015659416021039,-0.0169860662317942,-0.0553285325017701,0.998200806836728,-0.0471299300676436,0.0226938986053687,9.997199396763923,-0.0010626335518608,0.0039137940562239,1.271033828714553,-0.9381563023309908,0.7968275466270179,0.73738632312948,1132.2802344903107,1141.4281344069534,1132.6490730355315,1129.226170453317,-116.21180819806784,-627.657631810734,386.9826030972941,-387.5937017253815,163.67978371441023
0.4949999999999999,-0.4672581819903524,-1.0187509781237185,0.2445769567894286,0.0307541853947519,0.0377640771720952,0.0424594785516388,-0.0156259609522571,-0.0169476354238965,-0.0552752413579484,0.9982049470939665,-0.0445269047892791,0.0219481265147503,9.981751921149183,-0.0021766872080516,0.0048064876609338,1.271456815710281,-0.9382651727604396,0.7969421272994958,0.74055332298341,1131.7156798113565,1139.9252894465292,1133.8349086402584,1128.407346716207,-301.1132019807971,-458.50413034017913,468.55762930331326,-207.01246561156927,163.68919510199507
0.4974999999999999,-0.2954328925000034,-0.859483314801498,-0.0087774418034469,0.029994332256901,0.0351523062076881,0.0438021273806342,-0.0155962704549544,-0.016912857570773,-0.0552205010135523,0.9982090382607196,-0.041734909736714,0.0214491748632472,9.965656844515491,-0.0032636509837102,0.0056922479662071,1.271863135088118,-0.9383761357526202,0.7970589456178979,0.7437192349018806,1130.7746684804067,1139.1356137552525,1134.9918611820483,1128.1911081252592,-459.910677856487,-224.7254750720911,474.4727719639737,-5.478343625736666,163.69722424680916
0.5,-0.1312172751862499,-0.6861880906605932,-0.288304138569383,0.0298851183951755,0.0335153447775591,0.0438190548122378,-0.015569921448843,-0.0168797133508656,-0.0551651404104174,0.998213075361568,-0.0388214728248265,0.0211791983238919,9.948782989240236,-0.004328522410247,0.0065748562888184,1.272253237420634,-0.93848877728082,0.7971781725594992,0.7468854146246586,1129.416126422074,1138.8016620711687,1136.2072725000783,1128.3799549980783,-659.6547581765583,-74.91660416394463,512.6821099691308,134.6823054991075,163.70544933568544
0.5025,0.0443887600772166,-0.4896408988417122,-0.5976899779421011,0.0303350989813179,0.0323802517622478,0.0418705955547742,-0.0155446559343376,-0.0168441176178321,-0.0551078524553562,0.998217235435849,-0.035894784694372,0.0211460850992177,9.930996309156695,-0.0053822523534877,0.0074622616713911,1.2726260581935864,-0.9386035238804012,0.7972994225037427,0.750053277374439,1127.4763946895239,1138.7610307344328,1137.555271731894,1128.8645196527548,-731.4829510097745,7.838300463390618,445.14453522301613,180.6475543581653,163.71554686198039
0.505,0.1696517391535537,-0.3510830096677328,-0.7939434662670681,0.031073063807571,0.0319483723404731,0.0388525378347558,-0.0155206828821194,-0.0168021361481385,-0.0550483976964627,0.99822159542362,-0.0330547240314173,0.0213002046355522,9.912164658149408,-0.0064356148437421,0.0083557708696796,1.2729790926993807,-0.9387207276754121,0.797421746441901,0.7532234090207472,1125.7587116670252,1138.8408535734857,1138.4329951761931,1129.2831927698692,-672.457422571278,5.221452047408088,261.97788700819706,120.6814188748466,163.72415057346527
0.5075,0.2773618994973097,-0.2488277182289817,-0.8950268811190524,0.031986817121532,0.0317042436538008,0.0354153231100786,-0.0154977914490364,-0.0167546107893783,-0.0549861957697415,0.9982261765782467,-0.0303028968302353,0.0215990752638908,9.892161791230548,-0.0074877736767259,0.0092579702269533,1.2733085976032983,-0.9388404632141796,0.7975450372622181,0.7563961238032016,1124.1141075766675,1138.7871379946698,1138.8651611669347,1129.467926747129,-678.3227961219376,-107.95764511271943,50.76856690388919,-23.39081702425572,163.7329494218486
0.51,0.400338531897821,-0.1688922186803096,-0.8991576390259953,0.0328863727162091,0.0315250769801165,0.031766572978349,-0.0154729613989785,-0.0167053718982619,-0.0549223726053006,0.9982308985139526,-0.0275812583034568,0.0220533089581468,9.870870796404372,-0.0085312659593822,0.0101782311482272,1.2736097948803395,-0.9389614315928004,0.797670000883774,0.7595705449082346,1122.3670976864155,1138.301065347922,1138.6868380107128,1129.166238684748,-595.5239735421073,-277.7134148474547,-195.77515850897237,-225.20299123098565,163.7437316383318
0.5124999999999998,0.5100108811329394,-0.1329450120953139,-0.8157981319848981,0.0333223583646792,0.0315141880294622,0.0293007017748033,-0.0154434103535159,-0.0166541711878814,-0.0548580717923476,0.9982357437778792,-0.0249069890368584,0.022661127679859,9.84818777742014,-0.0095693850837974,0.0111239218407802,1.273877017705337,-0.9390828289678634,0.7977976254943631,0.7627453067458467,1121.136487708957,1137.3985709204323,1137.88628537439,1128.341911790974,-453.68302586589334,-482.9860462313258,-452.9476332889313,-467.1235138327116,163.75290122579315
0.515,0.6361236655932772,-0.117170179024928,-0.6660054410725222,0.0337202193310871,0.0315159846703115,0.0273695554338749,-0.0154069348507881,-0.0166010253150499,-0.0547934274428922,0.9982407375731204,-0.0222852099169896,0.0234088270938659,9.824025736495456,-0.0106048487197826,0.012100186946642,1.274103830313244,-0.9392046063837692,0.797928430077604,0.7659200588781022,1120.098682557086,1135.8861351167654,1136.422099844268,1126.8306211155843,-399.2972744938921,-707.5199103285279,-679.4842236594826,-720.8887761624729,163.76225933278704
0.5174999999999998,0.7727016479581311,-0.1053443304224907,-0.4826190802121563,0.0346060075459894,0.0313120337884507,0.0258790673159883,-0.0153628676689144,-0.0165458538916175,-0.0547295292331761,0.9982458307485336,-0.0197158644839192,0.0242529148879631,9.798317790543894,-0.0116404664702862,0.0131074285784304,1.2742830148933515,-0.9393268682107556,0.7980627541459472,0.769095177518993,1119.1400013364876,1133.86097136879,1134.4888642560927,1124.7374679101615,-389.4256278783356,-922.5857003736556,-854.7057438671337,-966.6095777486124,163.77177114235909
0.52,0.9050206043397072,-0.0802094280375753,-0.2867033583797252,0.036622416913914,0.0308300958840965,0.0251671164834404,-0.0153137202314763,-0.0164840002432237,-0.0546669584415668,0.9982510283071816,-0.0172790687376159,0.0250861436975938,9.771019841326755,-0.0126899997812232,0.0141367499431507,1.2744064926544552,-0.9394501389567116,0.7982003602824204,0.7722707886610684,1118.1515544176943,1131.2732066148972,1132.1485711249325,1121.9975732268413,-470.7345724475086,-1244.0580529064835,-1078.4562239188735,-1325.1115899859076,163.78146450592763
0.5224999999999999,1.0305958190823543,-0.0136956482039534,-0.0718951731463337,0.0403113129252445,0.0302364777259808,0.0254495813830256,-0.0152617848442107,-0.0164115650566405,-0.0546053818857667,0.998256376810741,-0.0150342557769097,0.0258120574945348,9.742112505142872,-0.0137648647117503,0.0151795327517827,1.2744653656072986,-0.9395748903280003,0.7983415090461258,0.7754476610401956,1116.78632847425,1127.6406811042575,1129.0965831364983,1118.111909960232,-543.3884921390013,-1399.408433722009,-1130.4800802391571,-1495.1191828483827,163.7933007279058
0.525,1.0924173401435815,0.0828519464433996,0.0708729130100596,0.043785339069468,0.0299203356630578,0.0263836315226294,-0.0152071859741722,-0.0163275334205946,-0.0545437911806381,0.9982619462779329,-0.0129821890899252,0.0263863120363476,9.71160224822936,-0.0148688888375026,0.0162328409611312,1.2744500356897612,-0.9397013755074968,0.7984866802891061,0.7786266443489533,1115.434611956999,1124.276164446287,1126.4961707237367,1114.5219773125991,-588.2708919038117,-1394.782402228337,-1027.2050345274683,-1473.3901290263916,163.80332973234937
0.5274999999999999,1.1061641830611195,0.228638348190551,0.1664743576675778,0.0468623946155272,0.0299775074480604,0.0274642396717573,-0.015148421020425,-0.0162345415774056,-0.0544833705967468,0.9982676522226585,-0.0110527713537149,0.0268063600563337,9.679521973708612,-0.0159964251073983,0.0172981206451545,1.274350508420867,-0.939829542703776,0.7986351382464857,0.7818076884729741,1113.8449740147307,1120.6667690931158,1123.9605579638608,1110.7449593151002,-746.4107789797248,-1628.9530671048835,-1085.2945204422203,-1672.121716433092,163.81352450631883
0.53,1.077538238549397,0.4606992021474182,0.2337125074195399,0.0499511861507168,0.0306949156751896,0.0284377517257007,-0.0150866336588752,-0.0161400123620243,-0.0544267324000818,0.9982732135504097,-0.0090809335910148,0.0270308197179273,9.645931251351504,-0.0171288083903279,0.0183706596870365,1.274156958784179,-0.9399602231999306,0.7987855549778943,0.784990600924641,1111.7025580621007,1116.1313991107627,1121.0696981215256,1106.1613687304339,-816.4413438664262,-1690.895593508547,-1030.346770580808,-1673.4114611434943,163.8259423910537
0.5324999999999999,1.0266507814359749,0.6980844550200128,0.2631036519332492,0.0522585469649946,0.0319824611228967,0.0288758177933956,-0.0150230277166145,-0.0160515906918721,-0.0543747736860659,0.998278438918284,-0.0068990173594419,0.0270267464259392,9.610914494688991,-0.0182461506300567,0.0194457825901785,1.2738599184744908,-0.9400942929251266,0.7989378752155534,0.7881752461515579,1109.7627672953988,1112.212291125573,1118.8088241109567,1102.3779020093828,-801.9639538247694,-1591.7012301777943,-872.8863389228073,-1495.3135171822382,163.8364382413797
0.535,0.9582733633371175,0.974655934521085,0.2816384244956918,0.0546030676202376,0.0340633099731441,0.0290264722078679,-0.0149564669094062,-0.0159737074372472,-0.0543255997925326,0.9982833770304418,-0.0044064135264971,0.0268124771498424,9.574578322552368,-0.0193364527355904,0.0205244969444783,1.273450442097778,-0.9402315725969476,0.7990928164262017,0.7913623945651682,1107.6927382929769,1108.1728929598737,1116.7052664269115,1098.6848011445227,-942.8469339547964,-1795.7619408135527,-889.8000374585527,-1596.0970032924236,163.84707982605389
0.5374999999999999,0.8660478297912508,1.3443592522467238,0.303910985433326,0.0574404172196109,0.037230511163218,0.0291793902577581,-0.0148843117154308,-0.0159103281715989,-0.0542763640295109,0.998288159112108,-0.0015175654614389,0.026442867129455,9.53704864653768,-0.0203887946978017,0.021611549293048,1.2729206616576392,-0.9403715041502833,0.7992512116522154,0.7945519613829353,1105.0485326256248,1103.2334814215053,1114.359823923664,1094.3974169929206,-1001.9784965847056,-1813.9819537605017,-830.375651367239,-1541.0498471470405,163.8600088331068
0.54,0.7893548364066331,1.6782615672319672,0.3240759781707034,0.0594312914279434,0.0401748894060286,0.0294876384287427,-0.0148066835942758,-0.0158602062448721,-0.0542255657405739,0.998292884407274,0.0017501900584851,0.0259216745322292,9.498467295383564,-0.0214051223210467,0.0227038008734251,1.2722643157005915,-0.9405130764110068,0.7994138646957069,0.7977424251290237,1102.682845810053,1099.1029831910712,1112.553388170075,1090.9795519087875,-986.323076131247,-1632.6320882793866,-692.6688110878325,-1324.1642387479703,163.87090825236533
0.5424999999999999,0.7249369221311072,2.0263052752766395,0.3392895383808419,0.0609038626999713,0.0439400535251675,0.0300605025270958,-0.0147246370191713,-0.0158180479940883,-0.0541737315301569,0.9982975923714504,0.0052971282674473,0.0252375084009785,9.45898735331274,-0.0223976227180048,0.0237951760213103,1.2714771509256684,-0.940655025134392,0.7995814742004808,0.8009314239003718,1100.1169172449684,1095.0703209801084,1110.896479868225,1087.7765957991808,-1060.0148033191535,-1575.571373336878,-640.6237119099382,-1237.6056625017543,163.88192831483457
0.545,0.6780020099438531,2.3685936880677474,0.3411283319105094,0.0623570436382274,0.0489584652381441,0.0308985732414768,-0.0146416820975469,-0.0157737729087326,-0.0541210824556361,0.9983023776605204,0.008930224776679,0.0243346711215989,9.418768559085809,-0.0233900711225284,0.0248732294151911,1.270557183582034,-0.9407969986389884,0.7997531793813635,0.8041176927751785,1097.3827717934576,1091.2251263243868,1109.3502696105256,1084.7915235962787,-1126.5932232383864,-1465.689807366742,-599.3970230995723,-1136.5008921613016,163.89304116593212
0.5474999999999999,0.6570425168199242,2.676584226832308,0.3142137566326164,0.0638517653820684,0.0555042050803389,0.0320981548191529,-0.0145607722825225,-0.0157200199647481,-0.0540695556016125,0.9983072065193022,0.0125008287356176,0.0231763452814895,9.377971911218573,-0.0243991293108862,0.0259279948381686,1.2695048721588715,-0.9409394194998368,0.7999278221177137,0.8072994142350474,1094.4839511287767,1087.7418719432746,1107.8994947527272,1082.0940913383743,-1294.180040010359,-1419.110247567413,-632.5180307131171,-1123.559482325708,163.90425714183388
