t,ang_acc_x,ang_acc_y,ang_acc_z,a_vel_x,a_vel_y,a_vel_z,quat_x,quat_y,quat_z,quat_w,acc_x,acc_y,acc_z,l_vel_x,l_vel_y,l_vel_z,pos_x,pos_y,pos_z,mot_1,mot_2,mot_3,mot_4,dmot_1,dmot_2,dmot_3,dmot_4,vbat
45.3025,1.0958244058887507,-0.9701801915049932,0.5895685579440983,0.0008329105545755,-0.0128906563844161,-0.0102675939998244,-0.0059409509740099,-0.0087748120902496,-0.2205783031109895,0.9753097011333663,0.0146320250701724,0.0498324190140689,9.720290214487903,0.001166186728181,-0.000894444860006,0.0007738238001116,7.029699428568668,-0.0477272612482766,3.5714992698351185,1096.973065243081,1109.960857503498,1118.1809949434614,1126.0512234261175,207.28652554772205,-385.2034561747452,-304.0988706255613,233.1776142461724,156.1720270187313
45.305,1.1440075284617492,-0.975725410970698,0.643086925034895,0.0026345961895911,-0.0151942343124408,-0.007175338587545,-0.005974596030056,-0.0088708729084767,-0.2205976593161167,0.9753039756929311,0.0123956764257862,0.0478352715615119,9.716694499070524,0.0011354462249007,-0.0007835701915346,0.0003370820324202,7.029702128238322,-0.0477379069347709,3.571509086859484,1097.454538994068,1109.007481410248,1117.2738077979907,1126.5122922936027,161.1220247711218,-377.82659051602224,-419.78219877502835,160.04857133249067,156.17135996180903
45.3075,1.1806508353449576,-0.9719265574476752,0.6146410795625014,0.0052427576760554,-0.0172176904349197,-0.0052127192418104,-0.0059855563740434,-0.0089590241902152,-0.2206202910219439,0.9752977947030266,0.010355527851152,0.0461680269954711,9.7144477907442,0.0010829391369002,-0.0006714801862,-0.0001057930744307,7.029708739125008,-0.0477458823434738,3.571519220497592,1097.7786753669359,1108.0717245509195,1116.082083949588,1126.8514662827795,78.95556537596858,-348.53974834418653,-503.13160946249536,113.57015325901205,156.17069314270867
45.31,1.1934258948338263,-0.9736435903072705,0.5450655343104687,0.0086015056046465,-0.0192352352426148,-0.0043503105321236,-0.0059728588210833,-0.0090253642176785,-0.2206421709114846,0.9752922456184884,0.0083110178775655,0.0448024140668734,9.713539263052816,0.0010102473979281,-0.0005592797097673,-0.000545909181893,7.029717454083992,-0.0477518062111704,3.571525571795795,1097.849316820948,1107.264782668526,1114.7581497506767,1127.0801430598983,-51.91464599353895,-270.7020944331341,-539.1921529575,58.06530946980941,156.17002713729363
45.3125,1.1628563772867107,-0.9936105564494324,0.4578545163929936,0.0123544672297963,-0.0213161540774347,-0.004351634555282,-0.0059429387446616,-0.0090718957520477,-0.2206567368512378,0.9752888176795236,0.0063833227600908,0.0436361822121328,9.713918518951923,0.0009200977053163,-0.0004483031897594,-0.0009732175444484,7.029727177089668,-0.0477564303688242,3.571525277953042,1097.519102136968,1106.7182140787531,1113.386123184799,1127.1417928301287,-241.13442574329483,-165.48854199037623,-593.4542644024018,-24.032354043605693,156.1693625861467
45.315,1.072099382951321,-1.0482243776357323,0.356507703942009,0.0162436787662614,-0.0238358036036796,-0.0042343495067861,-0.005904432101102,-0.0091000328449558,-0.2206614009631696,0.9752881260539056,0.0046786172822116,0.0425229176670891,9.71550432736985,0.0008164490539306,-0.0003397807352777,-0.0013770733261845,7.029735531808566,-0.0477599997792135,3.571516915062616,1096.6436446922328,1106.4373399585747,1111.7908784286676,1126.9599812896804,-386.1699879899177,-39.70082052894911,-567.4367300019011,-118.88161249820143,156.16856707335015
45.3175,0.9591592414762384,-1.1221383634463706,0.2775032857279554,0.0186061728398832,-0.0259718660619972,-0.0036155658631171,-0.0058662166240836,-0.0091099100347944,-0.2206519468253653,0.9752911992477066,0.0032654546002593,0.0413052585859955,9.718187837811296,0.0007043791524334,-0.000234726349603,-0.0017471569745522,7.02974042566276,-0.0477626309870675,3.571501548838716,1095.5882521970175,1106.5197099761083,1110.5489395347884,1126.5473847676371,-455.5140637497459,88.5213272359126,-476.4687278587935,-227.67198016287867,156.16790571967124
45.32,0.8208861974634467,-1.2225923640187928,0.1987361265220503,0.0201542333498521,-0.0283012542839744,-0.0028504151701684,-0.0058307816486789,-0.0091026007672283,-0.2206267815871459,0.975298529978508,0.0021875089537818,0.0399510776528895,9.721836577085021,0.0005897135132656,-0.000133995059369,-0.0020744258562566,7.029741491181894,-0.0477634911902455,3.5714822555474375,1094.366074373483,1106.8799465947548,1109.4085347893724,1125.8216213888654,-525.720235237555,200.60649338647687,-485.37885392000624,-393.71167459789257,156.16724565182022
45.3225,0.6346159663958443,-1.360914354522488,0.0985975068609751,0.0214502959466092,-0.0315447609800997,-0.0021247675157438,-0.0057954563319496,-0.0090811071281038,-0.2205883606118969,0.9753097230817442,0.0014874399976518,0.0385349373864196,9.726298872369858,0.000478463535513,-3.8391932189689554e-05,-0.0023518290208598,7.029738598932983,-0.0477632487453128,3.5714593520900624,1092.959651020832,1107.52274244304,1108.1220452651903,1124.5788263946497,-469.8987825864021,250.9959856358444,-466.9604940063776,-512.4967151179696,156.1664542941372
45.325,0.4603611479975157,-1.475669491603335,0.0093349222176456,0.0223203086217649,-0.0348710235530204,-0.0016412845253065,-0.0057588621590032,-0.0090567027023843,-0.2205435732215312,0.975323286998339,0.0013555805952543,0.0371431751719555,9.731406417845356,0.0003761878283315,5.123361466251452e-05,-0.0025747965649754,7.0297326773341,-0.0477620077488083,3.5714334253914735,1092.0165804605497,1108.1349265229346,1107.0737323193391,1123.2591378132743,-296.86861692469665,237.52739564753608,-424.49703142580006,-573.5397372786587,156.16579464374058
45.3275,0.2544878371641168,-1.5682697085340411,-0.0822990104788339,0.0231001322501457,-0.0389466228507472,-0.0012397632492202,-0.0057203609795524,-0.0090495422943993,-0.2205035446925875,0.9753366409418908,0.0021407778318054,0.03588697875825,9.73698044009579,0.000287459049424,0.0001338859633331,-0.0027415978668603,7.029725495720005,-0.0477591356261031,3.5714073520042087,1091.4753079362079,1108.7103794212783,1105.9995601080605,1121.7111277082547,-125.61140085983934,223.7537634329544,-482.4348153821415,-713.1684485283705,156.1651337326097
45.33,-0.0482571644533747,-1.6329428906232828,-0.1818239613723787,0.0238431963936538,-0.0441477576325771,-0.0011981510027673,-0.0056853581695996,-0.0090826344431603,-0.2204719313428745,0.975348733658208,0.0042607681494978,0.0347733660583216,9.742839321908445,0.0002155561538356,0.0002084662937654,-0.0028534575280425,7.0297192049093615,-0.0477550212351993,3.571383937638416,1091.388523456251,1109.2536953400984,1104.6615582424308,1119.6932955706357,63.30838613008781,165.5136416308841,-492.08267234678095,-751.3261100452175,156.16433833106856
45.3325,-0.3587907367708023,-1.6397369802182291,-0.2404364777946834,0.024199643032809,-0.0482389367005648,-0.0017595218371925,-0.0056559516366908,-0.0091673434554948,-0.2204507781758276,0.9753588444081118,0.0078884094614216,0.0338211756308632,9.748811330292659,0.0001625081011878,0.0002739164587745,-0.0029143202961327,7.02971650577688,-0.047749185339693,3.571363680539268,1091.7918498668585,1109.5379476294331,1103.5391467463253,1117.9544971580267,248.72345019299252,74.78539292806813,-429.1858474785918,-692.9237767476573,156.16367341579294
45.335,-0.7340988022336784,-1.5936378208452049,-0.2527773878526294,0.0241025550158122,-0.0520270615969543,-0.0030411991525978,-0.0056435914683037,-0.009303999432317,-0.2204400305422651,0.975366531755015,0.0130190913022337,0.0328221526057803,9.75473820378534,0.0001293211281644,0.000329610276983,-0.0029304005459867,7.0297172039601445,-0.0477416294421063,3.571346383962464,1092.6321407072166,1109.627622304739,1102.5156290050368,1116.2286766868956,393.48433648028134,4.096381937419298,-368.87611801195715,-681.3859454899388,156.16300672303507
45.3375,-1.1539037383436208,-1.5016960359335787,-0.2152727049327914,0.023389939498432,-0.055733966921629,-0.0048114754233007,-0.0056600274802074,-0.0094734561734888,-0.2204357041499589,0.9753720824934192,0.0192725535245203,0.0314751351977713,9.76048530084364,0.0001163981010407,0.0003757086574485,-0.0029096932786174,7.029718798564522,-0.0477336742152753,3.5713321177229487,1093.759271549258,1109.55842953912,1101.6947661562672,1114.5475674305803,497.96086715584335,-64.38485662803376,-246.91861861784767,-657.0582487208234,156.16233926961783
45.34,-1.5956198917945998,-1.3517719289056787,-0.1181599190215727,0.0213181140801334,-0.059308888141906,-0.0066573966988509,-0.0057047252164574,-0.0096561635284317,-0.2204355635126827,0.9753750360829148,0.0262031616941105,0.0297080778935428,9.76594145127298,0.000123676847094,0.0004133034112341,-0.0028614978650057,7.029720060857919,-0.0477267019710444,3.5713223678331447,1095.1219450429971,1109.3056980215983,1101.281035911947,1112.9433854432896,624.9362104617817,-153.05910329026474,-52.66418148068657,-682.5911634178883,156.1616722835113
45.3425,-2.0838968329632794,-1.103316206464949,0.0406194499654261,0.0162427918858623,-0.0629544502191676,-0.0077067312201739,-0.0057685960235667,-0.0098432650791857,-0.2204369993607679,0.9753744279928356,0.0335294435687364,0.0276543054949387,9.771017072029624,0.0001506473261799,0.0004444014056091,-0.0027958011862078,7.029720862256848,-0.0477213705256805,3.571320048967696,1096.8839526015684,1108.7931340226685,1101.4314452488636,1111.1346116134891,647.7301628895,-223.83418314368447,177.85338323372147,-637.8810067963858,156.16087489632795
45.345,-2.397111883772433,-0.8400277709925966,0.1729243220187176,0.0096297989247289,-0.0653940373113219,-0.0069051396113385,-0.0058291549562575,-0.010017424205535,-0.2204419974489807,0.9753688363333398,0.0407498722184937,0.0256634772582197,9.775654514970974,0.0001965071551754,0.000471717130479,-0.0027223533965907,7.029721078638221,-0.0477182561946965,3.5713268069346404,1098.3605958574417,1108.1865271058812,1102.1703028281147,1109.7539804093108,573.4401369777311,-281.25000027143125,424.8968310923474,-515.417139311112,156.16021517794363
45.3475,-2.5525841055807885,-0.5209362435367088,0.2613785571520272,0.001274073979577,-0.0672684604522274,-0.0048758494519703,-0.0058670073381159,-0.0101611649148793,-0.2204521624739667,0.9753596985972232,0.0473737659196081,0.0240222082573905,9.779822131711455,0.0002601664754956,0.0004984442606484,-0.0026494648902786,7.029721138402033,-0.0477171952556453,3.5713396869293232,1099.7511532864587,1107.3868840213106,1103.5559294043264,1108.5575259169323,576.2171720672321,-393.83190599399177,743.17401060892,-468.46094297428544,156.15956361337228
45.35,-2.525863375193555,-0.0804291960739184,0.2874045343791159,-0.0090106380960387,-0.0685272975302844,-0.0025630868834805,-0.0058823313112464,-0.0102651241646446,-0.220466071599305,0.9753490353477744,0.0531520254820112,0.0226742499913716,9.783505579379506,0.0003402961052068,0.0005279941458146,-0.0025829519052327,7.029721640154302,-0.047717990141373,3.571351441148256,1101.241681717779,1106.2173675759102,1105.8861728811612,1107.411675694438,508.53589859567234,-455.81878512871833,944.4185690811939,-360.8204429522728,156.1587948192646
45.3525,-2.3379656360832954,0.325422616250268,0.2401943332357436,-0.0163953121413626,-0.0686586377356935,-0.0012741860648819,-0.0058804361374428,-0.0103251395578318,-0.2204875921035668,0.9753370754286912,0.0579614582513369,0.0214859344622157,9.78670883176672,0.0004354925930015,0.000563622153369,-0.0025258199146361,7.029721867930426,-0.0477215090959414,3.571356855694752,1102.2938327794348,1105.107790095669,1108.278022249728,1106.7534237021723,373.05318331126733,-453.7474568265177,1017.8643250690834,-193.0770533678164,156.1581672347095
45.355,-2.026413093700272,0.7546807825657657,0.1348892561415128,-0.0215190926405978,-0.0678128778343364,-0.0007316461440338,-0.0058700342382939,-0.0103402914450305,-0.2205207433188281,0.9753235501601952,0.0617610591450372,0.0202706564365594,9.78945234836741,0.0005444143412233,0.0006080816713178,-0.0024788029446941,7.029721222912034,-0.0477279505896497,3.5713547083313006,1103.1069476343366,1103.9486302917765,1110.9754945065092,1106.4462904275983,292.0956431910651,-493.6934723707712,1218.3243148372771,-54.423157203490874,156.15755514375113
45.3575,-1.5813318780302388,1.268368941796788,-0.0350692357533263,-0.0254511138481688,-0.0652311221655097,-0.0007873709080791,-0.0058596232278239,-0.0103097900739017,-0.2205615932244463,0.9753096682934992,0.0645174928156053,0.0188438483118731,9.791772341322192,0.0006658556321219,0.0006631795387588,-0.0024413937869572,7.029719240071575,-0.0477363139496092,3.571346300722712,1103.7543109953908,1102.639322733814,1114.3696438239176,1106.4813079161547,173.9035284942237,-446.6304391005875,1245.745804786198,71.28313424375054,156.15683992540846
45.36,-1.1956613696418554,1.6692440237499655,-0.1963712865080454,-0.0276282532198137,-0.0614774371841718,-0.001218104132251,-0.0058624516495731,-0.010238710373701,-0.2206051252594787,0.975296568098702,0.0663369085502026,0.0169568473108074,9.793714289767523,0.000798645514504,0.0007293814159378,-0.0024129034317338,7.029715410111059,-0.0477459081853748,3.5713339784613702,1103.9764652768067,1101.7154780962755,1117.2042235304343,1106.8027060988168,12.50966794850043,-317.6530544821356,1113.4611707110012,170.01198306716503,156.1562604326957
45.3625,-0.8290638954416025,2.0112122362784444,-0.3612106410845901,-0.0290982543319347,-0.0562929259936829,-0.0018303201199268,-0.0058829614133437,-0.0101393056629963,-0.2206470637107774,0.9752850445447628,0.0674320747461421,0.0145645354201405,9.795332818813336,0.0009414857664142,0.00080541823593,-0.0023932782785665,7.029710690390882,-0.0477551603269171,3.5713203491524967,1103.8168593351331,1101.0510574614025,1119.9369496774755,1107.3313678314912,-132.89091108465547,-217.84798169772097,1065.669041556976,228.24635497097157,156.1556979631169
45.365,-0.4907045575729786,2.2877315369191984,-0.5172442919981534,-0.0300304720610325,-0.050427740536469,-0.0027170436709275,-0.005922403185553,-0.0100382430394606,-0.2206796161598178,0.975276455857406,0.0682850332456442,0.011750457052933,9.796685022717575,0.0010927202449532,0.0008881596404045,-0.0023835247253463,7.02970752738868,-0.0477614824034219,3.5713093609097726,1103.312010721383,1100.6262381877864,1122.532568738222,1107.9439378736724,-286.09252581394327,-117.44556010441325,993.8487416618899,246.2903794072156,156.1551490240419
45.3675,-0.1893403433041243,2.476765021283033,-0.6470098066823097,-0.030396732166895,-0.0440936149156165,-0.0041589976586868,-0.0059757626590089,-0.0099523753919955,-0.22069912902537,0.9752713209623212,0.0691713566220692,0.0086850075769494,9.797840909567023,0.0012503304831203,0.0009728649711986,-0.002385593661473,7.02970754400792,-0.047763431636464,3.5713022278614184,1102.3863967060647,1100.4638296608807,1124.9061933857804,1108.562819728526,-494.4293274684646,-29.52675816525655,970.7876567976388,259.18711505047133,156.15461515706667
45.37,0.1358953096182929,2.604878834349156,-0.751347064070626,-0.0302924157520412,-0.0362946530053792,-0.0064316313268031,-0.006034306413368,-0.0098880850884402,-0.220703943922424,0.9752698329611496,0.0701584633557352,0.0055745414192605,9.79888117899995,0.0014119627680548,0.001053785232595,-0.0024019118329512,7.029710878553634,-0.0477614726447699,3.5712989079687865,1100.8398640840433,1100.4786043969602,1127.386507022206,1109.2398734489236,-623.3865959388362,22.184157983008408,822.6855879532989,235.8151782923117,156.1539901020899
45.3725,0.3851092753191029,2.638666702229852,-0.7819988459740178,-0.0297947823294086,-0.029939699660332,-0.008678269190178,-0.0060914479939275,-0.0098483703037975,-0.2206915411218599,0.9752724155698196,0.0712661394707812,0.0025794602008311,9.79989003488941,0.0015750099007664,0.0011248914636963,-0.0024348026345085,7.029716723314078,-0.0477572110453076,3.5712989657583005,1099.2694637263692,1100.574750450796,1129.0196213255488,1109.7418956199883,-657.8768826272881,35.41029382106906,524.7633963936595,195.53602330701324,156.1534809821982
45.375,0.6221504544951226,2.6122971228854888,-0.7435876507810204,-0.028887927664143,-0.0238983388130911,-0.0114080936006747,-0.0061377328949913,-0.0098254512364316,-0.2206674597331854,0.9752778118152484,0.0723038025859429,-0.0001194781577082,9.800957186464855,0.0017367869486793,0.0011805022817459,-0.0024858998950146,7.0297262261761295,-0.0477502698464689,3.571301380640545,1097.5504796709051,1100.6556558660657,1130.0103240041756,1110.2175535654592,-749.3453381575358,17.369977823789096,246.70852806970896,218.72839648146396,156.1529827996964
45.3775,0.9001490917878574,2.528142663974386,-0.6194478096886695,-0.0273707722975201,-0.0167257862190512,-0.0147000506978426,-0.0061698484208169,-0.0098149184286115,-0.2206407280279037,0.9752839300872008,0.0731791783623502,-0.0024348226224705,9.802165675845153,0.001894671614366,0.0012158590470986,-0.0025557271975827,7.029739116723749,-0.0477403462529367,3.571304585330626,1095.522737035585,1100.661600339915,1130.2531639658964,1110.8355376023947,-705.4876328327765,-14.62730139204884,-83.21575446480271,245.93427423015933,156.1523964062504
45.38,1.1258469146560195,2.424101494453869,-0.4665456350032077,-0.0256882982342735,-0.0107423568430144,-0.0167651998550649,-0.0061849699285468,-0.0098085767106523,-0.220620568544937,0.9752887030985502,0.0737359247593472,-0.0042984387111201,9.803593348920527,0.0020463756588416,0.0012276857895868,-0.0026434333825661,7.029753715925626,-0.0477278476876401,3.57130585345482,1094.0230415067394,1100.5825193591052,1129.5942452318511,1111.4472249366106,-525.0847393137107,-39.81099759555728,-430.86562841090887,273.759465084182,156.15191654571757
45.3825,1.3341013235293204,2.295847416449525,-0.2964492417376852,-0.0232832956672631,-0.0051442355943915,-0.0176057393668808,-0.0061853736311516,-0.0098058003151034,-0.2206121554720204,0.9752909005788256,0.0739891933842103,-0.0057047202018545,9.80530278279925,0.0021900198614792,0.0012146993202518,-0.0027468739842413,7.02976950562856,-0.0477150383506274,3.571305288266544,1092.8973133390148,1100.462545351937,1128.0988358238408,1112.2043349278163,-380.4603208519715,-41.52964871140424,-801.1501195992433,367.14899912378047,156.15144516262757
45.385,1.5376319090363635,2.1271619477248516,-0.1192229085884864,-0.019319258254309,0.0007874269442979,-0.0171483016503096,-0.0061757745283759,-0.0098186604248122,-0.2206189293108626,0.9752895607607124,0.0742110963389858,-0.0066399185704275,9.807336287897186,0.0023241654666123,0.0011778765156046,-0.0028628539632231,7.029785811241828,-0.0477043194448132,3.5713047898849886,1092.120739902481,1100.3748711155483,1125.5884946338588,1113.2829699322278,-182.0883860480968,-5.67367058951896,-987.6897443684304,416.66145731375366,156.15088879789997
45.3875,1.6446902904349472,1.9814848452239024,-0.021534537460044,-0.0150283563764269,0.0052200638152333,-0.0157992699105356,-0.0061579321330398,-0.009848457033439,-0.2206429581209347,0.9752841739705488,0.0744570447133408,-0.0070836306679314,9.809725833942252,0.0024480439300505,0.0011203853117961,-0.0029871248894671,7.029800548762162,-0.0476976394326397,3.5713047730646648,1091.986871408774,1100.4341769989894,1123.160387101996,1114.287642214386,41.45128534603526,68.73552256216621,-977.5556954502919,408.26367263245663,156.15043267429385
45.39,1.6615901761161949,1.83235533572422,0.0114929237540997,-0.0098736140661765,0.0092917766025118,-0.0141421421139969,-0.0061314561439927,-0.0098827164802968,-0.2206754407476978,0.9752768438653692,0.0745091644704698,-0.0070432639562301,9.81249192247311,0.0025616879182889,0.0010471089172977,-0.003114329367131,7.029813861619652,-0.0476960129277243,3.5713027985721335,1092.3279963292116,1100.7185487283596,1120.7007161566048,1115.3242882953912,192.33966544369864,159.9461837863691,-950.891579605969,406.41097605108047,156.1499840399361
45.3925,1.5950952906777072,1.6759422778618462,0.001237724148192,-0.0045509243228682,0.0131635270272067,-0.0130984611754332,-0.0060911389261144,-0.0099115376112881,-0.2207129690155168,0.9752684679035372,0.0741772647927185,-0.0064293520307892,9.815634665996539,0.0026658603145594,0.0009640067334102,-0.0032381846751226,7.029825572187456,-0.0476990528601015,3.5712971530430817,1092.9485697359917,1101.2339079179203,1118.4059292039703,1116.3196970946397,275.695458745572,266.78361813796977,-849.8245736083136,375.2056993014221,156.14954124589767
45.395,1.4373736838637379,1.4995803423955487,-0.0287807090907553,2.959211510733463e-05,0.016971046004119,-0.0135875810561595,-0.0060377566036659,-0.0099240206397798,-0.2207564985797237,0.9752589418442054,0.0732758130534651,-0.0052798838266548,9.819131469203072,0.0027620949339306,0.0008774458905459,-0.0033518140438442,7.029834349199209,-0.0477057622960055,3.5712886288713905,1093.70647362294,1102.05246681905,1116.451593288561,1117.2003167918992,309.27014995193167,429.00558540842087,-767.026024467003,353.17531986129444,156.1491048568057
45.3975,1.1774438095290267,1.2482955256212807,-0.0421040171804322,0.0038304006508213,0.0214631533050763,-0.0154178259235245,-0.0059792520229723,-0.0099074908529002,-0.2208052175153418,0.9752485397310776,0.071612555211867,-0.0037894712935903,9.82293689396947,0.0028526012353385,0.0007934763827658,-0.0034481943613717,7.029838654852095,-0.0477156348341801,3.5712773529012107,1094.494920485752,1103.3789358449635,1114.5707990816336,1118.085573693947,233.79676796569927,536.4033291199905,-614.5745945863515,296.45504226204724,156.1485875315752
45.4,0.9345123943298482,0.997350420007271,-0.0145271020606782,0.0054407316576034,0.0248967674200795,-0.0170117093297355,-0.0059247727151187,-0.0098684459378992,-0.2208516924435923,0.9752388223826742,0.0693631083078897,-0.0021059990334267,9.82697509273907,0.0029398162573876,0.0007170653421186,-0.0035206658068544,7.029839900217606,-0.0477267493689411,3.5712656242219727,1094.8754574627676,1104.7344834646476,1113.378720315632,1118.682592003208,69.76442468731943,576.7808354772801,-411.3811080093625,213.12536810053652,156.14816076565643
45.4025,0.6956076501471368,0.7032081337652469,0.0518201628059234,0.0061862134218701,0.027530993484225,-0.0178866139082801,-0.0058745942396967,-0.0098238875533584,-0.2208890159432236,0.9752311762880532,0.0668620970946793,-0.0001719280074531,9.831148578420752,0.0030260688150543,0.000651599078016,-0.0035630740187082,7.029841263027495,-0.0477361353234273,3.571255401626539,1094.843742609189,1106.2628400223516,1112.5138935415855,1119.1512005344503,-109.9662582930597,683.1960630198553,-325.21100316086364,178.41251180425357,156.1477371734393
45.405,0.4280698220315632,0.3145590654484068,0.1489714655611266,0.0071776817274457,0.0294617621004662,-0.0177189549279913,-0.0058287303478248,-0.0097817992060557,-0.2209162366507618,0.9752257342668574,0.064266959581435,0.0020288313731968,9.835347892370894,0.0031134469818648,0.0005989685191303,-0.003569563645168,7.029844465664326,-0.0477418143424168,3.571246469183453,1094.325626171302,1108.1504637797486,1111.7526652998267,1119.5746545622299,-252.02925369726657,677.3186877633883,-248.098873748948,130.21573383251072,156.1472307388902
45.4075,0.2198702986360614,-0.0213985021401302,0.2174202874592277,0.0082997422736344,0.029888649295136,-0.0165373213158828,-0.0057909124377778,-0.009739184590653,-0.2209357173675719,0.9752219701062612,0.061537550826904,0.0043863536018592,9.839454910190874,0.0032037192894556,0.0005599987084963,-0.0035343884406708,7.029848733010126,-0.0477442498770335,3.571235614258889,1093.5835963407037,1109.6494334611655,1111.273399172842,1119.8022792036122,-324.52193216078507,559.0702396704596,-174.14819411719876,60.253985467094125,156.1468088119447
45.41,0.0239926773294204,-0.3453378631388037,0.2461522451861973,0.0092094532020198,0.0288924792396032,-0.014563888884966,-0.005764189384037,-0.0096912777199348,-0.2209491486266454,0.975219538966608,0.0585940516080232,0.0067892429654658,9.84334399707872,0.0032982056118081,0.0005349258092007,-0.0034520523699901,7.029852897759284,-0.0477452101834074,3.571219098231819,1092.7030165104973,1110.9458149781024,1110.8819243292403,1119.8759244895655,-370.6758906186601,505.50272188662854,-161.43822421200565,-7.430357445305908,156.14638520687703
45.4125,-0.1902799017545567,-0.6968403515122028,0.2265373519103379,0.0094045843343419,0.0264995711158289,-0.01218079749197,-0.0057486747808303,-0.0096356766519895,-0.2209592636833536,0.97521785908568,0.055387836432975,0.0091878954825055,9.84688593062661,0.0033976148655445,0.0005237666168061,-0.0033179309241329,7.029856603280768,-0.0477454550108755,3.5711940680080234,1091.7302168876095,1112.1769470706,1110.4662080517817,1119.7651274163857,-311.6093842054957,394.2880482706135,-144.07040082255122,-72.98283637239635,156.14587308366012
45.415,-0.339669035098375,-0.9507337847270636,0.1791903578589418,0.0086229551739351,0.024123677589843,-0.0109840579475241,-0.0057521693856367,-0.0095781793635992,-0.220966717100649,0.9752166950360824,0.0520611594114612,0.0114163833606357,9.849949022595043,0.0035018374703583,0.0005265346555919,-0.0031293869685611,7.029860484204916,-0.0477452668222372,3.571161993113829,1091.1449695894712,1112.9172552194536,1110.1615723251284,1119.5110103077038,-162.50762776963583,244.92625113535925,-106.69336386758005,-127.88445899234652,156.14544198769107
45.4175,-0.4429093782230731,-1.1645345833618224,0.1342384224100354,0.0070124104986329,0.021781055993119,-0.0110057823472541,-0.0057854744537286,-0.0095263696111385,-0.2209712669053939,0.9752159864264855,0.0488054000543854,0.0132561288912363,9.852410275106637,0.0036099053545504,0.0005433202469474,-0.002886891652509,7.029866229795319,-0.0477444023278419,3.571128127296433,1090.9176787487609,1113.401578326277,1109.9327412324435,1119.1257051214236,-23.772692122189827,163.61785837917338,-70.67036198601295,-166.35753406604312,156.14500524538812
45.42,-0.500792779598345,-1.3473222076581943,0.119905122499731,0.0050936471232112,0.0194116072471436,-0.0117947007171752,-0.0058582670844961,-0.0094823506479186,-0.2209727172713718,0.9752157293770636,0.0457049652748217,0.0144850636377129,9.854166702794057,0.0037200901491824,0.0005744081914407,-0.002594716750102,7.029873304157921,-0.0477437138721529,3.571095207555564,1091.02610612886,1113.73534451135,1109.808220515198,1118.6792226373732,122.55067015760008,114.35406888068825,-15.246225653814005,-179.90506219060072,156.1445631321941
45.4225,-0.5063157778893818,-1.489343130433944,0.1658564644352386,0.0032890018141873,0.0167262271507703,-0.0132018289148074,-0.0059690260200851,-0.0094495618870206,-0.2209703142100904,0.9752161039215752,0.0428256041068574,0.0151021733720255,9.855141329415,0.0038300065647357,0.0006203199981041,-0.0022612058019741,7.029880003255112,-0.047744357924713,3.5710632102259945,1091.5304320995483,1113.9733486706803,1109.8565101041745,1118.2261798104714,301.51182939769603,99.43805079246344,66.67760364522337,-186.0382364131013,156.1441139224857
45.425,-0.4688288734900135,-1.5952689104603563,0.2923942302859107,0.001405581036665,0.0127616796724439,-0.0147242462502267,-0.006107641827031,-0.0094379001900874,-0.2209621600024134,0.9752175389737834,0.040325266692857,0.0153008492674781,9.855286598917516,0.0039366808759588,0.0006817723667987,-0.0018987864717459,7.029886751582212,-0.0477474483461777,3.5710350350203006,1092.5336652758494,1114.2325347653125,1110.1416085334245,1117.7490314553072,421.1537784700459,94.79462375788596,139.90438534931064,-157.6486960998057,156.14356613933614
45.4275,-0.419829808455607,-1.6093376112617772,0.4333569032518415,0.0001341652987028,0.0085309137987607,-0.0145319223140415,-0.0062601322733298,-0.0094699436374709,-0.2209476913187855,0.975220049096888,0.0385950957352091,0.0154071466603884,9.854585863093138,0.0040366463203903,0.0007594868449482,-0.0015237093462604,7.029895171816542,-0.0477534071287406,3.5710174198023945,1093.6362009918996,1114.44732178947,1110.5560320309214,1117.437936329972,477.2653770927056,79.46794986494703,192.89110574626912,-105.65295677479811,156.14310217989023
45.43,-0.3800227624672133,-1.522163281417972,0.5619777648122992,-0.0004932644773914,0.0035167059241054,-0.0121441774249518,-0.0063991548683032,-0.0095560370375349,-0.2209364225029501,0.9752215428431036,0.0377395972642726,0.0159567745046258,9.853069075536233,0.0041263086710234,0.0008539674583766,-0.0011548532518215,7.029906575284564,-0.0477619135794155,3.571015270764664,1094.9199921613108,1114.6298745146369,1111.1060640621547,1117.2207666714337,580.4338666350126,56.293622859453805,257.85193378233805,-78.52927309488999,156.14263031122442
45.4325,-0.3735462062389097,-1.2902007355288028,0.6506664106575423,-0.0005546379328834,-0.0023146804433536,-0.0080707506481821,-0.0064963227713813,-0.0096869716048372,-0.2209402113271423,0.9752195631757924,0.0374891259412896,0.0174253383045478,9.8508135724395,0.0042023717989573,0.0009652193949973,-0.000811869652414,7.029920404700356,-0.0477731612703071,3.5710289609801014,1096.538370325072,1114.7287899037667,1111.845291699832,1117.045289964498,584.803549692625,3.5120252474808007,272.9987475386192,-53.71566803052681,156.14205459706739
45.435,-0.4166933379544501,-1.0027633865402836,0.6545103474102428,-0.0004164829524388,-0.0063468966749661,-0.0049820966507275,-0.0065439923785728,-0.0098472721703656,-0.2209676190411306,0.9752122839797078,0.0375496455638095,0.0198674332166086,9.847931847173763,0.0042622804909071,0.0010924269983798,-0.0005131147923919,7.029934851268732,-0.0477860624100237,3.5710542765376925,1097.8440099097754,1114.6474346408743,1112.4710577998487,1116.9521883312807,487.2623375126531,-76.63480540255193,241.39725841584024,-26.72836402537993,156.14156655430813
45.4375,-0.5110378422600692,-0.654957604175574,0.5965446341456333,-0.0005352004253107,-0.0090279773592871,-0.0029515630994586,-0.0065544227324448,-0.0100181532379734,-0.2210169022620689,0.9752000641918263,0.0376550290003211,0.02294596695379,9.84456634085138,0.0043045972656151,0.001233553303499,-0.0002737248449794,7.029948998995721,-0.0477981624551812,3.5710862317630463,1098.9746820126363,1114.345615876754,1113.0522779919115,1116.9116481443707,431.82223964248067,-185.4278383927844,236.51572129605168,-0.6798983728464735,156.14106927825003
45.44,-0.6626904501672516,-0.2319713329581648,0.490037814087778,-0.0014186362130323,-0.0099080062946618,-0.0017148894123957,-0.0065493622113269,-0.0101746304248766,-0.221077736397741,0.9751851442826858,0.0374655691696816,0.0261221308848064,9.840886537031182,0.0043290991689957,0.001385201495223,-0.0001042584614653,7.0299619463547485,-0.0478071442882994,3.5711211226755086,1100.0031211079859,1113.7202954489112,1113.653636406328,1116.9487888394167,311.3906994965644,-267.68228718724407,199.66748899231575,32.88623250203409,156.14046091402577
45.4425,-0.7943563696147647,0.075455664779286,0.3975915560276693,-0.0030214732093791,-0.0085966742639034,-0.0013275714173671,-0.0065435507133044,-0.0103046455691891,-0.2211319890762976,0.9751714476856904,0.036862345384852,0.0290570371618808,9.837075649694848,0.0043366105236378,0.0015427870580975,-1.0158247856129287e-05,7.029974704200118,-0.0478120447820593,3.5711581727032695,1100.53163551012,1113.007204440817,1114.0506154368738,1117.0760793068812,142.74390724378435,-313.1879223727754,132.18301826675602,73.89070820336968,156.13994340792524
45.445,-0.8932465003591831,0.292315891583805,0.3255907156781583,-0.0056212873180574,-0.0061660680998883,-0.0010801151645568,-0.0065401517060466,-0.0104002396345205,-0.2211654756283342,0.9751622069431672,0.035756274128565,0.0316639516773016,9.833325054165842,0.0043286999155144,0.0017010645952374,8.644402465982137e-06,7.029987266690972,-0.0478128408738095,3.5711932925216754,1100.7168406442051,1112.1543558370463,1114.314551497662,1117.3182423804335,18.148992067988864,-391.90342546179807,80.76779596943267,129.11064835237005,156.13941379464123
45.4475,-0.9345801021665272,0.4335721308652076,0.2774640565170043,-0.0095017542000718,-0.0033652154932608,-0.0007821458896978,-0.0065360659271397,-0.0104580787997349,-0.2211757985730998,0.9751579545166886,0.0341196117950349,0.0340096203596935,9.829822531833706,0.0043073461426835,0.0018547129811734,-4.23424236603296e-05,7.029999573722945,-0.0478091462205913,3.5712220244536685,1100.62238047046,1111.0476873135099,1114.4544544167206,1117.7216325486424,-67.95812248293421,-410.2499621126474,21.073723809002463,158.96768751391443,156.13876266389184
45.45,-0.8872816724976924,0.465678819766417,0.2724204700600401,-0.0128008304001765,-0.0016273818072309,-0.0005428778651302,-0.0065264965151755,-0.0104813564440937,-0.2211627935099628,0.9751586051977512,0.0320406420098261,0.0362313037932756,9.826740735366313,0.0042746390597519,0.0019987675777475,-0.0001528207914276,7.030011684138683,-0.0478024551991099,3.5712415615388835,1100.3770500317903,1110.1031060264822,1114.419920116707,1118.1130808180037,-107.46241656956003,-375.72875777785936,-39.6257984600904,155.95904552848177,156.13820560371116
45.4525,-0.7526823943295068,0.4426942299228,0.3002319823961726,-0.0156044187777616,-0.0006196015889534,-0.000228851647381,-0.006509492107727,-0.0104790384193418,-0.2211270929478668,0.9751637793921056,0.0297277429801378,0.038444101241644,9.824228155106828,0.0042324833407771,0.0021290430569091,-0.0003088388494089,7.030024023928935,-0.0477943016412028,3.5712502026734927,1100.085068387612,1109.1690435246196,1114.25632542442,1118.5014277762853,-109.12114006883633,-369.79104700000767,-76.16913196850525,146.29544989001832,156.13763127061992
45.455,-0.5564136652784911,0.40347790000585,0.3477242999997566,-0.0176979176138265,-0.0001112298259976,0.0002652698345608,-0.0064836644365719,-0.0104546770259384,-0.2210769444744545,0.975171421756761,0.0272841780160455,0.0407349887859847,9.822407347376162,0.0041823777420842,0.0022424755732843,-0.0004941634920492,7.030036815879344,-0.0477849153320958,3.571248451600064,1099.8314443314466,1108.2541507914839,1114.039074456865,1118.8445580674531,-81.50188083887238,-359.582652295692,-80.0816308789808,120.1060619024542,156.1370404873231
45.4575,-0.3090766577562484,0.3758861616716769,0.405041063925996,-0.0188273969110897,8.824486755368978e-06,0.0011433733851164,-0.0064452811775445,-0.010403228524503,-0.2210207583445309,0.9751795893731592,0.0246340580747613,0.0431999639414659,9.821371756141833,0.0041253688026238,0.0023372420501757,-0.0006918183413722,7.030050096313392,-0.0477745248709175,3.571237622288435,1099.6775589834172,1107.3711302631402,1113.8559172700247,1119.1019580857978,-40.42980517213187,-375.43138216777953,-45.22494064401559,94.1094676820258,156.136426776157
45.46,0.0110930654749848,0.3832279929725056,0.464786356265027,-0.0192846515867183,4.670407094173961e-06,0.0027944624259356,-0.0063874206143474,-0.0103267196118679,-0.2209688982083237,0.9751859444988842,0.0218183232782685,0.0460252601371149,9.821176724279841,0.0040620125398103,0.0024129390544873,-0.0008856479144444,7.030065283972696,-0.0477626709029322,3.5712206118091836,1099.6292953055859,1106.376993880644,1113.8129497536447,1119.3151054058635,4.018658368844643,-345.350705870483,29.064763354316767,69.59124069468962,156.1356591660209
45.4625,0.2703665104289666,0.4307082625232979,0.4944291926062545,-0.0191539826763046,9.76105045349483e-05,0.0046336124118101,-0.0063183383560357,-0.0102280059765207,-0.2209220305154988,0.9751904225009848,0.0189546158783018,0.0491023202469846,9.821839117045538,0.0039925101121601,0.0024707305203552,-0.0010613168743704,7.030082486192795,-0.0477507938891443,3.5711990783594154,1099.6976522752616,1105.6443767337892,1114.0012410867964,1119.4499142892707,48.3587676487994,-258.9321878764662,127.92416906420662,59.641253420492326,156.13498966389648
45.465,0.4880655248298388,0.5154111153952232,0.4968300246362435,-0.0183976202784302,0.0005493513186329,0.0065511282957549,-0.0062523716541752,-0.0101171415149076,-0.2208783578566795,0.9751936977768892,0.016319265262078,0.0522276148366273,9.823338317086167,0.0039168828309135,0.0025135887543283,-0.0012071699853152,7.030101438418484,-0.0477410472898,3.57117420578964,1099.87108914383,1105.082332941261,1114.452570598966,1119.613311672966,102.0957491834384,-188.70756822229288,247.29189740524896,97.15706615911162,156.13428403821183
45.4675,0.6585885318349873,0.6371434748542366,0.4758112430106899,-0.0163124170170505,0.0017755905344558,0.0081667837449838,-0.0062029355504216,-0.010004115357786,-0.2208392878058439,0.9751961483260821,0.0141770742535091,0.0552028635843732,9.825623727344393,0.0038352934529101,0.0025462856477283,-0.0013147306223323,7.0301211683849525,-0.0477345380120082,3.571148359982443,1100.208131021179,1104.7008388926774,1115.2377005738233,1119.9356996200668,147.7891036072813,-78.25149132584397,308.2602347383802,150.3606657128788,156.1333889014068
45.47,0.6952470372453146,0.7313435658468429,0.450373808885746,-0.0134359932862261,0.0034863731539548,0.0087766060446153,-0.0061849511490961,-0.0098959395377605,-0.2208040860196603,0.9751991919452508,0.0127355529518937,0.0577717621351573,9.82862014199732,0.0037484482647837,0.0025750521765233,-0.0013789311596299,7.030140162478652,-0.0477315288153063,3.571124869894792,1100.6100346618657,1104.691075484632,1115.9938717726563,1120.3651150015298,187.25805897328848,69.8488718072992,292.2866949251198,212.33510479285593,156.13259765312228
45.4725,0.6004349622402453,0.7873295314804286,0.4283732478804615,-0.009689421132751,0.005812848436169,0.0089923806349563,-0.0062028855963611,-0.0097971441048208,-0.2207751355574053,0.9752042847609884,0.0121013936800271,0.0598503482733973,9.8322341630542,0.0036578470268226,0.0026071056187443,-0.0013979996475897,7.030157452745238,-0.0477316733218519,3.5711073007276553,1101.144421316046,1105.050083251714,1116.6991340484497,1120.9973751440316,259.33937996606267,243.17427291031277,264.41079031501545,323.7608094430178,156.13175366075842
45.475,0.3455509798147925,0.7810042025622783,0.4056718845294857,-0.0056414438425714,0.0087921011192112,0.0094613754629365,-0.0062515193082999,-0.0097191921066758,-0.2207539391767692,0.9752125557926749,0.0124638469452113,0.0615516053141908,9.83635567576141,0.0035658888737695,0.0026500436370196,-0.0013728919242395,7.030171850840649,-0.0477349249011212,3.5710972820983713,1101.9067315616967,1105.9069468491844,1117.3159257242323,1121.9839190487455,287.2274812375392,375.9601475702093,171.39868354090268,391.9584425963348,156.13067363272447
45.4775,0.0547713984926676,0.7009148340628161,0.3794916266458402,-0.0042524744176762,0.0112981634258227,0.0103948453896115,-0.0063161353713517,-0.0096711150220431,-0.2207421997793774,0.975221760612165,0.0139157001978366,0.063141764022639,9.840866684109491,0.0034758443198101,0.0027112657234017,-0.0013061910245205,7.030183173583676,-0.0477400587600782,3.5710956198428154,1102.5805587222324,1106.9298839895635,1117.5561274661532,1122.9571673570115,254.3124634743044,452.2297285138808,33.91470012882648,404.2203032814746,156.12971326689723
45.48,-0.2446472249050783,0.5381840904191397,0.3281898477995857,-0.0056721930238659,0.0139442384960128,0.0115024492882217,-0.0063814494723144,-0.0096381604887794,-0.2207413036278151,0.9752298211709468,0.0160806092449432,0.0647775618720835,9.845653798492568,0.0033917174903757,0.0027974457584882,-0.0012007455554138,7.030190600491646,-0.047746098374573,3.5710990682597905,1103.1782938790689,1108.168095491755,1117.4854992248763,1124.005020565154,206.64272865322687,510.1955362214658,-73.2119598262296,415.39718608284267,156.12868542974311
45.4825,-0.4973271009377405,0.3148818993125197,0.2443111329801493,-0.0084417257174838,0.0162152417361735,0.0123789540600908,-0.0064357927583578,-0.0095962927932903,-0.2207459985287075,0.9752368642812332,0.0184088904425504,0.0664896904134312,9.850607129629584,0.0033178946134541,0.0029140230589182,-0.0010588518511385,7.030194699923753,-0.0477531811964337,3.5711011078996338,1103.613772365499,1109.480861670672,1117.190067667022,1125.0341532874268,115.48936323071347,516.4545679017615,-154.75051028379744,385.96269847465544,156.12759826045507
45.485,-0.6512614190905929,0.0461713108874309,0.1102869664576029,-0.0114700326313863,0.0172760916624446,0.01306923248567,-0.0064666936736237,-0.0095343944533301,-0.2207535715732698,0.975242843357888,0.0205844322901976,0.0683690265879935,9.85561614373198,0.0032586628514049,0.0030648495937259,-0.0008821937843272,7.030197820372,-0.0477607109340763,3.5710984005354782,1103.755740695222,1110.7503683312611,1116.7117466734583,1125.9348340575257,-16.737705648475263,518.2808112502776,-222.63574931073413,340.7345562933718,156.12643574035638
45.4875,-0.7014878504015394,-0.2756228311728751,-0.1178859512986964,-0.0148667608639702,0.0166882102988683,0.0138871197067258,-0.0064667041378368,-0.0094504088527553,-0.2207675437810256,0.975246586656708,0.0224769471412303,0.07044263354507,9.860574000361101,0.0032179576682966,0.0032519595289469,-0.0006722285047296,7.030200867421343,-0.0477672876788136,3.5710910942675183,1103.5300838372564,1112.0722657269248,1116.0768889204678,1126.7378260688945,-144.36697609309593,434.8108535369242,-218.44769416632252,232.35342902004896,156.12494905975996
45.49,-0.6363684287039201,-0.5013866855109864,-0.3642096538006087,-0.0172911158661331,0.0146439174897458,0.0144518527273851,-0.0064308320909767,-0.0093519765160711,-0.2207965509347647,0.975245941341462,0.0241448641062446,0.072730073744263,9.86538071679874,0.0031992586215778,0.0034754966394417,-0.0004309198080901,7.030203688722426,-0.0477717063828009,3.5710815892893555,1103.033905814756,1112.924422598947,1115.619508202626,1127.0966012026263,-243.4052367616854,277.9261389659295,-138.81972380380722,66.47440274834159,156.1236307342747
45.4925,-0.4830451454724771,-0.6447302435775557,-0.6539072813558471,-0.0189086946731049,0.0114473920336788,0.0145495230079182,-0.0063704378069748,-0.0092564965980934,-0.2208419765113883,0.975240372795943,0.0259004531693276,0.0749779796076698,9.869944809755689,0.003205552061561,0.0037337556479003,-0.0001612396481677,7.030204842116304,-0.0477736974356354,3.571072224311764,1102.3130576534493,1113.4618964217532,1115.3827903014494,1127.070198082636,-336.16858689782583,160.5515810777984,-23.20365231087017,-103.98984848925828,156.1222266613122
45.495,-0.235117047721931,-0.7079131772297369,-1.0088848396746433,-0.0197934003284531,0.007558290431786,0.0128593927864482,-0.0063086794658902,-0.009180559988395,-0.2208952648066701,0.9752316340933344,0.028089725236449,0.076704947388281,9.874191118153439,0.0032391382802407,0.004023285452719,0.0001326685892738,7.030204333340537,-0.0477735771325481,3.5710652259868376,1101.3530628802685,1113.7271805043351,1115.5034899410718,1126.5766519601807,-342.6189874510394,37.096052005135,127.4583849383619,-250.90398273224207,156.12043922493547
45.4975,-0.0040453043978696,-0.6841681675428952,-1.2660988622636171,-0.0196902075653476,0.0051893805790104,0.0093903669182195,-0.0062612705170245,-0.0091296440685248,-0.2209500848828226,0.9752211893371872,0.0308114748019753,0.0775341318430875,9.878069346990992,0.0033012096434447,0.0043390665548135,0.0004455499340283,7.030203940738662,-0.0477707814695815,3.571061102978619,1100.5999627161932,1113.6473766817787,1116.0200822261415,1125.815678168974,-267.3982379454169,-85.45814956855969,299.977601663187,-356.6979421349964,156.1188620274397
45.5,0.2227851416096026,-0.6175522213938284,-1.4316888607982388,-0.018809862556157,0.0040066457638479,0.0045337918034147,-0.0062346534012201,-0.0091045930970056,-0.2210032169000098,0.9752099351430502,0.0340362227068402,0.0772613872353994,9.881553083615497,0.0033915532971505,0.004674710124838,0.0007712421682232,7.0302050442573965,-0.0477651116805393,3.5710604596036455,1100.0160716905407,1113.2998897564923,1117.0033779493883,1124.7931622495048,-205.11108483361124,-198.99927148967345,529.3557624358795,-474.52778178851486,156.11719153890658
45.5025,0.4665137743223929,-0.5338682255788775,-1.4898238786621425,-0.0170463465915496,0.0035145411502407,-0.0017007025079745,-0.0062245748616954,-0.0091063120726626,-0.2210497584552447,0.9751992304337964,0.0376933911306226,0.0759059575753114,9.884638812505,0.00350850511138,0.0050227759571765,0.0011029929427238,7.03021048706621,-0.0477560838554189,3.5710648369298585,1099.574407292026,1112.6523803243315,1118.6668610383183,1123.4430392600336,-122.65319700930468,-261.45147546453967,668.7507726900766,-485.6392683279653,156.11507687762156
45.505,0.6375037527221563,-0.4850734974513645,-1.4191002008885227,-0.0152672567658024,0.0035344999661456,-0.0066822971758775,-0.0062273825476097,-0.0091354889315278,-0.2210836940337182,0.9751906950454516,0.0417178076155943,0.0734945518055912,9.887345246607255,0.0036491319187809,0.0053752548499226,0.0014340649777557,7.0302213756991465,-0.0477451025378036,3.571074770385408,1099.4028057054938,1111.9926323791688,1120.3471318128406,1122.3649659078635,-47.09545837251745,-269.8720048374509,693.6063481573545,-388.8254285505184,156.11322160767597
45.5075,0.7746182440568958,-0.4682284422948194,-1.2489055651189562,-0.013416971586956,0.003461007557486,-0.0106653889618958,-0.006240457484927,-0.0091857811454084,-0.2211040725244965,0.9751848682346672,0.0459220094442818,0.0700267280438891,9.889715773849467,0.0038095740156844,0.0057241242771834,0.0017584717613844,7.030236142420508,-0.047733181874512,3.5710893451691383,1099.3389300001631,1111.3030203001435,1122.134892779107,1121.49891211728,-28.728136032649424,-266.973053814324,697.4860675212744,-293.87431623876535,156.11126854349857
45.51,0.8874319319363018,-0.4709321471758293,-1.0293493168142869,-0.0113243159757329,0.0026551339465276,-0.0131806512700578,-0.0062566178833826,-0.0092386092686403,-0.2211114676486676,0.9751820874836724,0.0498735396268796,0.0655602656791795,9.891820236403257,0.0039854882657243,0.006061694236273,0.0020715916119301,7.030251780027572,-0.0477212711400392,3.571103967989928,1099.2591650253307,1110.6577671100983,1123.8345621504438,1120.8955943266712,-59.96450744629898,-233.26420722771104,616.3176857656284,-168.55861356139502,156.10923384187143
45.5125,0.9776929773986268,-0.4787121557156387,-0.794475064835266,-0.0090570661701067,0.0007126481961239,-0.0138691825186067,-0.0062741356989644,-0.0092897325944021,-0.2211064014607515,0.9751824588144512,0.0534531117515661,0.060134044156837,9.893739424690436,0.0041724004993235,0.0063806866411514,0.0023702255202458,7.03026704983486,-0.0477093484565099,3.5711166063939648,1099.0391074629315,1110.1366992640044,1125.2164812079368,1120.6561190494726,-146.46837757479045,-187.06375424753313,490.68909340069143,-23.488123499998245,156.10710069490887
45.515,1.0699591083769215,-0.4762616197663542,-0.5339030109170871,-0.0065853267726073,-0.0019015983972738,-0.0135904805443583,-0.0062886570583705,-0.0093415606443876,-0.221090744452835,0.9751854863757612,0.0566721143619975,0.0538901445187273,9.895566398490512,0.0043656882825824,0.0066742135492525,0.0026523769986813,7.030283386929967,-0.0476960846692495,3.571128286035871,1098.5268231374564,1109.7224483388604,1126.2880076174483,1120.7781537091712,-226.23247734870912,-110.57813761509404,276.1098239725253,102.77786725019067,156.10442803701483
45.5175,1.1382414702163948,-0.4646237226055165,-0.3397406747124365,-0.0045133288761169,-0.0034824403304055,-0.0136282775646532,-0.0062980798668936,-0.009402989200634,-0.2210628196538699,0.9751913748052466,0.059691493392579,0.0469762479564602,9.897402710363032,0.0045606260230171,0.0069357377061621,0.0029170032100447,7.030302352861721,-0.0476807481958618,3.5711416818221062,1097.9079450761892,1109.5838085759294,1126.597030327798,1121.1700083857231,-265.05539824279447,-9.910993266061656,-0.4540684343735343,196.95888171444423,156.10210811234117
45.52,1.1953618560985915,-0.4560124311825471,-0.1518213535742821,-0.0020860048578063,-0.0042698736447029,-0.0146373682712245,-0.0062957720671189,-0.0094738877036376,-0.2210250625525831,0.975199540829506,0.0624920666131921,0.0396088222769748,9.899363523331287,0.0047522735464701,0.00715939754965,0.003164076890796,7.030325647999189,-0.0476629452451997,3.5711583947625507,1097.2015461462415,1109.67289337253,1126.2857372752767,1121.762948117744,-289.328311007773,88.62153725363001,-256.9411601123242,276.0995735577987,156.09969439279863
45.5225,1.2388811414485579,-0.4658351764520625,0.0930076288845964,0.0012195513778316,-0.004533917731349,-0.0161312709626127,-0.0062812408030147,-0.0095423768538413,-0.2209736201730402,0.9752109210445888,0.0648679296117032,0.0318493992191151,9.901573929797108,0.0049358705790771,0.0073402650563415,0.0033949922267519,7.030354280025447,-0.0476437942262761,3.571176336620467,1096.4613035211496,1110.0269162621978,1125.312324527236,1122.5505062535128,-220.934092619992,164.67433389176648,-423.9855022644169,274.49367910578485,156.09669336109732
45.525,1.2418163047921649,-0.4946812652776864,0.3210952436511615,0.0043605697934319,-0.0046843840930367,-0.0168206879320566,-0.0062610052311705,-0.0096036636290713,-0.2209054098376463,0.9752261831989162,0.0667920373996429,0.0236689072125113,9.904155903840573,0.0051073163928297,0.007474879310309,0.003612562710122,7.030387324506079,-0.0476249940751128,3.5711931853950327,1096.0968756831428,1110.496265041988,1124.1658097639563,1123.1354165132716,-62.384411783900674,212.9571332319576,-477.341815809024,184.8620386185721,156.09410888142716
45.5275,1.195597494932068,-0.533976257929052,0.5640222640552514,0.0078270301971678,-0.0055980205480508,-0.0164635592713743,-0.0062391519202357,-0.0096534596342266,-0.2208304236741388,0.9752430592436062,0.0682462930338146,0.0151014203525174,9.907229757474449,0.0052634604175878,0.007561746723025,0.0038209027693885,7.030421729135071,-0.0476067758629785,3.5712076683676828,1096.14938146223,1111.091701928358,1122.9256154481895,1123.474816446606,135.3062646618799,275.523436078488,-508.4138657680469,56.214957723358,156.09144264248175
45.53,1.0742502763798372,-0.5670328705331137,0.8410898369102437,0.0117358551682247,-0.0078811529874551,-0.0147071199289316,-0.0062205697343526,-0.0096937859300439,-0.2207631575487585,0.9752582106317332,0.0693461804715076,0.0062006366176661,9.910907927954835,0.0054026096338812,0.0076013475810306,0.0040250459706658,7.030454359667397,-0.0475888279587472,3.5712200796510207,1096.7734070064523,1111.873882222381,1121.6237404351148,1123.4164913018883,317.1359678626387,284.3618834713965,-414.71536959376374,-117.94247117710978,156.08815537958077
45.5325,0.9194529053876276,-0.5657248480694355,1.0302310473166219,0.0144270280794267,-0.0103475517221821,-0.012033071330848,-0.0062057666901627,-0.0097200276684515,-0.2207163585808152,0.9752688031450664,0.0700652014559514,-0.0029224300672595,9.915300182472004,0.0055244810684584,0.0075959915623489,0.0042306240584562,7.030483536630337,-0.0475711718660677,3.5712296156012324,1097.7350613015417,1112.5135113457138,1120.8520386002226,1122.8851040907211,451.3405805460898,232.56261820144496,-230.67533268296776,-320.49419669307986,156.08534802411432
45.535,0.7174928019319866,-0.5283430796949361,1.1427179126317029,0.016636543384752,-0.0123815634763267,-0.0082917280650993,-0.0061967542157833,-0.0097246023868268,-0.2206922595997434,0.9752744133118428,0.0703275458931429,-0.0122034944781826,9.920508863997368,0.0056300063103597,0.0075494300379972,0.0044434104048381,7.030508508484724,-0.0475557301881922,3.5712352075884275,1099.030109909184,1113.0366953133891,1120.4703637716996,1121.8140203184223,544.2655925270573,171.10064893381943,-100.1862612995352,-510.0307423399618,156.082476345844
45.5375,0.4864427473690589,-0.4683008523759625,1.1762822955315528,0.0183800405381865,-0.0136812436490453,-0.0040804862349384,-0.0061941111321166,-0.0097121272024836,-0.2206889179589422,0.9752754577351808,0.0702857321094171,-0.0215028830912791,9.926621394340678,0.005720876658529,0.0074665335981744,0.0046684879929086,7.030529663571984,-0.0475441591710299,3.571238423446948,1100.4563892641784,1113.3690145903831,1120.3511072937247,1120.33495037902,562.4735453661401,63.22303033481442,-22.34649580366053,-663.781213459755,156.07955600872137
45.54,0.2366222468219371,-0.3960826299852889,1.1156790590998005,0.0193272369289042,-0.0143417089869654,0.0002222612457079,-0.006196716655409,-0.0096995590759376,-0.2207074177796032,0.975271553961004,0.0703209152598791,-0.0305996337106831,9.933710115496265,0.005799069841718,0.0073527314663784,0.0049097296406307,7.03054894163891,-0.0475375621618141,3.5712433055248525,1101.8424776360123,1113.3528104650627,1120.3586312926811,1118.4951142511263,555.7557534975671,-112.39703286986403,-31.278383861156183,-843.3089082904878,156.0765827078174
45.5425,-0.0602478547831398,-0.3116564167103498,0.9648324375900335,0.01942639999786,-0.0145073637112394,0.0044844183836258,-0.0061997888416217,-0.0096935442472783,-0.2207442585279919,0.9752634789213512,0.0705928885314324,-0.0392565430211642,9.941843558906456,0.0058666258370819,0.0072131401241144,0.0051699508129639,7.030567632491839,-0.0475361729646911,3.571250796998072,1103.2351680316676,1112.8070294260335,1120.1947153744188,1116.1184058375654,444.35917847567913,-297.6017871117916,-133.03521494046905,-858.4462312004845,156.07296097379367
45.545,-0.2873757756266736,-0.247582714553764,0.8151130984773465,0.018646571633173,-0.0142262590301904,0.0063484516088811,-0.0061896067818983,-0.0097014631228853,-0.2207888857212521,0.9752536518973284,0.0712278905734664,-0.0470706597342403,9.951083273757453,0.0059258698536965,0.0070519042968591,0.0054508937306709,7.03058723626924,-0.0475373010518663,3.5712618537542817,1104.0642735283918,1111.8648015295032,1119.6934552179787,1114.202883095122,255.28802248627952,-476.98462914029454,-309.80298447098886,-706.2381007757779,156.06990355891728
45.5475,-0.476582657187646,-0.181471989166542,0.6960382414330001,0.0170658353699217,-0.0142485751448945,0.0063339746328359,-0.0061606070487489,-0.0097317490551948,-0.2208327190039931,0.975243981549486,0.0723994586874385,-0.0538007039849796,9.961477909175745,0.0059795592944668,0.0068716978035523,0.0057538175384128,7.030608663503298,-0.047537615214787,3.571278792216611,1104.5116081440979,1110.4221062803344,1118.6457004520653,1112.5872153336895,120.13857587229032,-731.0677002385897,-589.5900241601961,-598.6545351995239,156.06681200975763
45.55,-0.6511681086046078,-0.0750771181156294,0.6312197739741656,0.0146114373043003,-0.0153617500907642,0.0056692854467649,-0.0061189770902945,-0.0097906139073131,-0.2208690767365494,0.97523588800134,0.0742799771698613,-0.0594521174170483,9.973062291914687,0.0060310811222948,0.0066736796673755,0.0060801659026783,7.030631267093922,-0.0475338344444528,3.571300345515344,1104.6649664077536,1108.2094630283084,1116.745505097176,1111.2096104191228,10.173095061003801,-864.4748150801331,-778.9132905661171,-390.1715262138901,156.06307046286926
45.5525,-0.7561300309347349,0.0530814752008413,0.6457187615906778,0.0126427692707824,-0.0167355419602296,0.0057465303657046,-0.006072314828636,-0.009883531676756,-0.2208920631759209,0.9752306042465472,0.0770233603058818,-0.0640708514664427,9.985859456505091,0.0060844869439577,0.0064580565666057,0.0064320670698142,7.030653698050406,-0.0475244895725861,3.571324647066047,1104.562473619403,1106.0997322049316,1114.7511339992327,1110.6363577026193,-61.48794320721343,-852.2772887760332,-826.12571795628,-96.95656048192808,156.05993163900695
45.555,-0.8311814442951501,0.2260322058748279,0.7056312255076785,0.0111258801222968,-0.0175760564207008,0.0071593649919156,-0.0060293247099061,-0.0100088849447151,-0.2208943169336908,0.9752297407258832,0.0806391286758175,-0.0677668412160627,9.999883052232681,0.0061442066413967,0.0062247710289205,0.0068128639765781,7.030675638931486,-0.047510636458409,3.571349675261332,1104.3575266917176,1103.948076584432,1112.6148765073983,1110.7248276167136,-79.38836877172379,-888.8955750680805,-884.8690581323216,191.86604616483407,156.05677748682322
45.5575,-0.899805519462769,0.463499192634304,0.7830425941605912,0.0094397465958737,-0.0172246527719937,0.0101686564965569,-0.0059896258522727,-0.0101598326278574,-0.2208705036814254,0.9752345272127992,0.0849838911481115,-0.0705065383080592,10.015140121286692,0.0062146053066621,0.0059744234193822,0.0072271177471766,7.030697236365397,-0.0474938645409973,3.57137229909776,1104.1655317755447,1101.6552543295952,1110.3267887085751,1111.5956879334426,-36.71762457854978,-740.6732261534975,-725.418864098985,437.923537023247,156.0529817853335
45.56,-0.9413457642644592,0.6583268454890471,0.8217509403658406,0.0077198435631009,-0.0155484748727889,0.013018665668753,-0.0059529761588992,-0.0103161078520195,-0.2208210804809735,0.975244973899416,0.0896422293815842,-0.0723281371131979,10.031631437724876,0.0062994752834857,0.0057087467501439,0.0076805415201283,7.03071645808379,-0.0474762666087514,3.57138932790004,1104.1739385688247,1100.2447104536627,1108.9877821869015,1112.9144453018307,65.09458829806444,-405.25931670042337,-346.68144899224444,632.1268758269474,156.04981466125813
45.5625,-0.9597590641228694,0.8153513685772315,0.8117019840715719,0.0053879532736431,-0.0125324711708961,0.0155748514296013,-0.0059220931613035,-0.0104577590515796,-0.2207570215564737,0.97525863713062,0.0942086047339144,-0.0733353552557039,10.049344074481407,0.0064018040880545,0.005430923403638,0.0081790985565395,7.03073312724187,-0.0474602359690116,3.571401916919103,1104.4910047170351,1099.628957746092,1108.593381463613,1114.7563223125787,194.806955352892,-85.5008651209896,36.56269130600464,805.7837365986013,156.0466489404491
45.565,-0.950903433973942,0.9245707259153588,0.7547496887590011,0.0027935582004886,-0.0089194075236972,0.0178513084208365,-0.0059032719383597,-0.0105757453166559,-0.2206909134194319,0.9752725124365614,0.098497618413272,-0.0736666359181322,10.068246061276348,0.0065237406024803,0.0051453906912706,0.0087279696467424,7.030748254176733,-0.0474485303750235,3.571413362222335,1105.1479733455883,1099.817206128058,1109.1705956434316,1116.9433639848203,359.78334602609505,281.7322105765393,484.8055834791715,934.3747371386819,156.04348839190885
45.5675,-0.902082479042332,0.9771767006579,0.641201624212399,0.0002914859995696,-0.0055884887205398,0.0197616656276081,-0.0059012026833955,-0.0106727814348348,-0.2206307731637321,0.9752844395094395,0.1025398910575163,-0.0733925940894027,10.088288142388704,0.0066665820599797,0.0048574379907746,0.0093308930707419,7.030763707811258,-0.0474417651428537,3.5714273363246862,1106.2899214471663,1101.0376187989755,1111.01740938101,1119.4281959982748,625.257620976616,759.3506986681613,1095.203364850644,1131.8767658034296,156.0403387392692
45.57,-0.7940940979493997,1.0009658440728624,0.4457020658413667,-0.0024008057250216,-0.0025886127322714,0.0216941523699854,-0.0059103839034834,-0.0107445587248811,-0.2205771590217673,0.9752940845852112,0.1061770885019984,-0.0724312893325501,10.109417270011086,0.0068306016875854,0.0045727426187919,0.009990270672908,7.0307805174033025,-0.0474375612985026,3.571446035815007,1108.2742614504732,1103.613959621401,1114.6466124676876,1122.6027478138403,830.0956534580838,1096.973233640344,1534.017446826314,1176.498692488009,156.03657771576903
45.5725,-0.6641911505279873,1.0154388574850433,0.2418645262967814,-0.0042582624217509,-0.0008190893595867,0.0230649344484287,-0.0059281679054838,-0.0107846765856619,-0.2205320250188657,0.9753010190444245,0.1092201806046781,-0.0707790020299637,10.131569553105495,0.0070153233485194,0.0042969236590961,0.0107074595518395,7.03079669615368,-0.0474348178510408,3.5714682505278383,1110.4403997144532,1106.5224849671722,1118.6874966151347,1125.3106894607095,963.3900296320991,1264.5150773902412,1767.2464015057412,1078.7891569771484,156.03346366032272
45.575,-0.4969212440915609,1.052890590012334,0.0125620937013034,-0.0054358286313325,0.0006932133268469,0.0240493139364878,-0.0059544819771601,-0.0107874134651566,-0.2205000751832468,0.9753042026390112,0.1115054248695533,-0.0684917564307691,10.154669440695743,0.0072196843908234,0.0040353663965221,0.0114830858689739,7.030811210828214,-0.0474340957794713,3.571494764290326,1113.091211598636,1109.9365350083551,1123.4828444752209,1127.9966935987288,1256.3628848543824,1542.417393024955,2198.852476397826,1167.8681014671774,156.03037671193965
45.5775,-0.2566618248779315,1.1409972207648105,-0.2594404645405034,-0.0060766011363907,0.0029386517831266,0.0242282331666261,-0.0059925170397251,-0.0107509286628343,-0.2204849746178238,0.975302780393213,0.1129627149257715,-0.0656854403920149,10.17862797194422,0.0074420880403164,0.0037929117701554,0.0123173510576608,7.030823838894076,-0.0474371261447225,3.5715268891424135,1116.7222141387283,1114.2345719323007,1129.6817589971295,1131.1500299680483,1384.40563669636,1554.3559563923775,2281.2206015980614,1146.3719913328953,156.02671177883283
45.58,-0.0221171833632585,1.2506414960771275,-0.451561247237775,-0.0062516976475602,0.0056022575135142,0.0232069934298759,-0.006032078521503,-0.0106767691566182,-0.2204836335784967,0.9752975358104312,0.1135330021329332,-0.0622078143144374,10.203349616167372,0.0076802595247962,0.0035737626047651,0.0132104162815183,7.030835209197092,-0.0474436023456416,3.571563958344349,1120.0132397821117,1117.70831479031,1134.8889474832008,1133.728553555388,1340.6477807201973,1311.0292570817933,2016.0753714778511,1030.5973495674336,156.02369697103975
45.5825,0.254412257922799,1.390706027870518,-0.5676261910754254,-0.0063308782356006,0.0092120482971744,0.0211396218383271,-0.0060576079047813,-0.0105726700746432,-0.220486937917089,0.9752907304098108,0.1132629178647471,-0.0577804020534619,10.228726789927215,0.007931306116737,0.0033809351665261,0.0141628712554195,7.030847015432997,-0.0474511595567411,3.571604962646571,1123.4254530423327,1120.7897182177132,1139.7621358545239,1136.303016715888,1492.0114032506815,1222.3461312655786,1994.029389795358,1144.8225000666807,156.020731375296
45.585,0.6400664632346517,1.5886030693973068,-0.5831885956656405,-0.0060244826037211,0.014016070545705,0.017935339405745,-0.0060611599491461,-0.0104515002350108,-0.2204896614777518,0.975283888690578,0.1123475240435666,-0.052255218722684,10.254634535408105,0.0081917628931113,0.0032158517131502,0.0151761097052823,7.030860871053925,-0.0474575467833362,3.571648482098253,1127.473296798369,1123.8200454466412,1144.8590944321827,1139.4526660557244,1451.5615885172804,988.1309909593149,1709.1342219675507,1170.6828101454182,156.01724022169398
45.5875,1.001834471452079,1.7810477439656864,-0.4817700168639366,-0.0050334798410272,0.0179217266921735,0.0149841127721453,-0.006042148360279,-0.0103256214780684,-0.220490236578077,0.9752780372904544,0.1110189746738272,-0.0456347276110685,10.280933351520122,0.0084575761946532,0.0030783925637783,0.0162525101863368,7.030876855020441,-0.0474623727679541,3.5716928967002617,1130.6832609849123,1125.730373172505,1148.3078069643539,1142.15643076661,1227.864573071028,646.2185354600811,1203.8963403245568,1096.6657704480742,156.0143956098389
45.59,1.3858106105198131,2.0086007147346634,-0.2727668362325116,-0.0028369145324096,0.0217488596783675,0.0123811781336903,-0.0060068844871874,-0.0102055637540886,-0.2204870810578328,0.9752746571713082,0.1095181697167985,-0.0380700332477989,10.307470154743472,0.0087242190438492,0.0029671332189448,0.0173953207901328,7.030895539126502,-0.0474661534227764,3.5717378682401377,1133.6126196637272,1127.0511381239432,1150.8785761338083,1144.9359949079676,1116.7465596571872,452.71692551782087,900.7825993532088,1117.279420372753,156.0116285255205
45.5925,1.7632743387474317,2.2657674139627915,-0.0039983016023564,0.0008325401748472,0.025772489220631,0.0109369894918656,-0.0059665733096452,-0.0101029213466024,-0.2204737058220828,0.975276879409578,0.1081434725145531,-0.0298095989797725,10.3340779321296,0.008986995199638,0.0028796595230441,0.0186083119862277,7.0309182289554055,-0.0474700445872728,3.57178408011598,1136.266993783201,1127.9939578000956,1152.8117199611222,1147.7428278684763,996.7306839077507,324.55075696991526,665.7131192005324,1115.8437938538243,156.0089331655122
45.595,2.0976247052307446,2.5461736737492777,0.2805129537424125,0.0066430423416078,0.0304072400386803,0.0118112139270965,-0.0059253894691054,-0.0100214074060177,-0.2204467221547734,0.9752867353511516,0.1070170295484126,-0.0209963762974085,10.360585206467391,0.0092409206136854,0.0028133712396021,0.0198956073857528,7.030945860431659,-0.0474741647984806,3.5718306246197127,1138.5962730832612,1128.6738919087911,1154.207141729808,1150.5152138772316,964.3691810476024,294.12522242099345,562.4547092405315,1194.3143562318967,156.00633247530587
45.5975,2.416043972959652,2.8724640840074662,0.5640790603718357,0.0150918776123488,0.0373831213866046,0.0152638857387729,-0.0058791146743184,-0.0099520337271849,-0.2204034883024686,0.9753032333248806,0.1059771158581616,-0.0116614223210093,10.386819510288232,0.0094809376911802,0.0027658509061485,0.0212614377922582,7.0309784492889404,-0.0474778408806307,3.5718774765770465,1141.0888396884416,1129.4645839122013,1155.6239935073263,1153.714399649639,879.3304474846129,324.39498308396423,524.7900033384255,1143.2505373330575,156.00333060812915
45.6,2.608416752136454,3.096416169887968,0.7136253415495492,0.0221185687898419,0.0447692556527024,0.0188707299858775,-0.00582608997167,-0.0098932093318678,-0.2203424644235429,0.9753249634308532,0.1050300992672504,-0.001852726556114,10.41259447634969,0.0097032903307515,0.0027350273700513,0.0227093497103606,7.0310154066352135,-0.0474805161546827,3.571925847379394,1142.9929253206867,1130.295866824212,1156.8310917465017,1156.2314665638999,742.2692351106817,403.7933529435612,523.6818623473241,974.4859711726117,156.00093437798589
45.6025,2.7431503861413975,3.220726479232233,0.7604810127990063,0.02832513338967,0.0535163630406279,0.0218078820353151,-0.0057624006079192,-0.0098471219621146,-0.2202686754486782,0.9753495847354682,0.1042539860876861,0.0084472685514314,10.437715553374268,0.0099058703693874,0.0027198858641061,0.0242418784893479,7.031054748328506,-0.0474815557601382,3.5719773417213485,1144.8001858639918,1131.4835506769173,1158.2424028190603,1158.5868295054977,778.9886875861266,624.607489273693,669.8840043983848,1007.5376383936448,155.99865398338844
45.605,2.868319937177112,3.212718737381118,0.7175157501513482,0.0350047954420513,0.0645855362258725,0.0241430933071999,-0.0056840852493417,-0.0098044456103807,-0.2201928193873605,0.9753740564439388,0.1034934550161037,0.0192053130311974,10.461990588829064,0.010087809310752,0.0027206161629649,0.025860642385629,7.031093118699588,-0.0474817267554418,3.5720321399877872,1146.887868758619,1133.418904270582,1160.1805117684953,1161.2691547558707,744.5441869827675,792.8921743502124,727.7939524548317,968.7407386894893,155.99605788497053
45.6075,2.9549741498100537,3.0637648021397528,0.6226799750378533,0.0403034236114914,0.0735484578836331,0.0253563980216796,-0.0055812359518061,-0.0097483750282005,-0.2201244989514738,0.9753960403525278,0.1024084849817691,0.0304723430492735,10.485232568677915,0.0102494389774994,0.0027390430208929,0.027566163345211,7.031130098114208,-0.0474808424128506,3.572091033881701,1148.5229067989076,1135.4480115486704,1161.8813725813363,1163.4305331989476,611.6457877388817,879.4485367636111,651.8194244202749,856.5706715311139,155.9940154446519
45.61,3.01551278707564,2.778850281824062,0.4927221942313052,0.0461413291964398,0.081622619382114,0.0263758694587873,-0.0054531130876169,-0.009664178566207,-0.2200667169711511,0.9754148635895202,0.1007353646274852,0.0421154139073976,10.507254856323115,0.010392641291806,0.0027779001522055,0.0293576349480282,7.031165239812868,-0.0474803578830019,3.572154571904072,1149.9460976973107,1137.816146954396,1163.4396088905935,1165.5520081135223,547.3156424726695,1083.8463083718943,594.7331137714314,918.4007600028356,155.9921025017817
45.6125,3.018610454100636,2.3206856212582867,0.3192617236619985,0.0547879728128579,0.0895343210180847,0.0275628243344168,-0.0053032376588193,-0.0095404491513406,-0.2200224713015632,0.9754299641904391,0.098288594770011,0.0539238097933189,10.527876589452095,0.0105205615651739,0.0028410237192317,0.0312328914946765,7.031197114084995,-0.0474819052308311,3.572222564342506,1151.2594850112723,1140.8672430905326,1164.8550381501952,1168.022536998964,396.535428079348,1120.9235800752772,408.60320849876206,875.1842421375002,155.98996019314637
45.615,2.92566403565804,1.8833830614573963,0.1750242774346359,0.0629189907544146,0.0943178291570034,0.0282468219444047,-0.0051368752815256,-0.009383661547257,-0.2199915806889734,0.9754413948289884,0.0952478825506274,0.0657261370024497,10.546919914847184,0.0106382670605169,0.0029332247254014,0.0331880777420524,7.031224934880334,-0.0474871306686763,3.5722941659730085,1151.9287748377087,1143.4207648547751,1165.4826249330883,1169.927929324212,165.63682693360136,981.7743616301702,110.90807435194702,692.5862875260851,155.98830449793263
45.6175,2.6976287610153102,1.4396579285134987,0.049704327654654,0.0709005120064112,0.0974171959441638,0.0283469096847254,-0.0049548821872579,-0.0091978866102467,-0.2199734107607217,0.9754494106238516,0.0917134169168641,0.0774246164675225,10.564226820411406,0.0107512333315755,0.0030598212542882,0.0352179574616673,7.031248112723349,-0.047497047303261,3.572367646710944,1152.0876691459396,1145.7761148986788,1165.4095785219545,1171.4854684365914,-21.26736508805267,879.543626408194,-151.34157844809246,529.9298789461135,155.9867847186725
45.62,2.3450060282888283,1.0224069383326653,-0.0463659333281403,0.0783261852730925,0.0995080028080992,0.0279420457765378,-0.0047614873022884,-0.0089874117561907,-0.219966367991332,0.975454489284836,0.0877946796896136,0.0888483049762835,10.579661042719284,0.0108652296218223,0.003225288332732,0.0373155622397148,7.031266209512193,-0.047510769783522,3.5724439496340885,1151.8224380122683,1147.8184829868123,1164.7259170408488,1172.5775787189402,-193.73610410802124,714.2572939620989,-413.0661932098225,284.32763352360786,155.98537812456507
45.6225,1.8472066489180263,0.6627771277498548,-0.0951049026794276,0.0845227926679578,0.1006978575609649,0.0271159902755248,-0.0045657705514899,-0.0087708406801723,-0.2199678610397992,0.9754571709999676,0.0839087450610866,0.0997898451443687,10.593104963792387,0.0109870144541525,0.0034323694067869,0.0394715146126472,7.03127892369725,-0.0475271541652573,3.572525568239707,1151.1189886253987,1149.347401368491,1163.3442475559043,1172.90710660421,-374.1563753379883,539.4414069938163,-744.240733130829,-63.83638265530325,155.98410787563216
45.625,1.113702439557526,0.3150597193498601,-0.0938891112347218,0.0896003740203045,0.1014352915762125,0.0261335905925527,-0.0043741402745094,-0.0085682157886214,-0.2199730290108823,0.9754584962365412,0.0804811734603167,0.110103276651548,10.604471464446233,0.0111229536242063,0.0036815317269251,0.0416741358502411,7.031286789042382,-0.0475438272617356,3.5726142679677455,1149.9516561355777,1150.5156900217828,1161.0047133751928,1172.2583968056636,-446.98106907085,325.1269540028035,-945.0780193520541,-413.22046084466206,155.98274013655987
45.6275,0.4256168792295733,0.0985533644498048,-0.0481442656989067,0.0915446520958513,0.1016598060326909,0.0256375107094286,-0.0041958756648063,-0.0083839398342086,-0.2199748736566447,0.9754600939389212,0.0776189756129604,0.1195132151867841,10.613715590299572,0.0112770838308964,0.0039696240310969,0.0439099651886567,7.031292752836716,-0.0475577068948134,3.572710245634012,1148.8840832800468,1150.9730361385039,1158.6188574591483,1170.8410042999888,-405.2956476125673,104.83788972514142,-1007.6436416832468,-719.8529761260444,155.9817294389879
45.63,-0.2927834186564858,-0.0446524716515933,0.0305778090206637,0.091116399308737,0.1015225638150845,0.0256814019542443,-0.0040378879038049,-0.0082224193305918,-0.2199686305482841,0.9754630905531378,0.0754095989986865,0.1278010353302903,10.620827900456886,0.0114515301114659,0.0042905099369509,0.0461636910828222,7.0313027182293935,-0.0475656407250489,3.5728164268138785,1147.9251778975135,1151.0398794704088,1155.966495166774,1168.6591319250315,-361.6216529368072,-13.229569149182279,-1183.3672021532348,-1069.3078407818107,155.9808504191824
45.6325,-1.137818291148601,-0.1398502996426379,0.1449305695546928,0.0880278740968093,0.1008401148863539,0.0263358007043541,-0.0039147463577755,-0.0080913992293823,-0.2199454075939981,0.9754694656385036,0.0740396063986573,0.1346137536594143,10.62583269255558,0.0116469252950721,0.0046346510287725,0.0484186628452983,7.031321196293656,-0.0475667516418218,3.5729378103190754,1147.0759750153616,1150.906888292758,1152.7020214483791,1165.4944650960767,-248.9487203593389,-49.71065211516335,-1179.97607986802,-1189.131012736506,155.97994493914752
45.635,-1.7996217585380314,-0.1647748777927252,0.2463805557923226,0.0836971333944382,0.1000243766648766,0.0271650734669407,-0.0038323986074969,-0.0079854253283109,-0.2199042209312362,0.9754795496816115,0.073375553096725,0.1397308277786616,10.628795747931752,0.0118607850497461,0.0049915823747795,0.0506583283955683,7.031348860843219,-0.0475623146542374,3.573075463355033,1146.6804342957182,1150.7913262098332,1150.0666147674392,1162.7134768613544,-94.75904540545044,-16.161355939303494,-1006.0501419674748,-1067.9529884833291,155.9793130559684
45.6375,-2.3986827450599377,-0.1509826535430156,0.3478470081686058,0.0782650949071345,0.0994455308899422,0.0279844041071408,-0.0037870342924012,-0.0078990071904805,-0.2198469162637775,0.9754930858217312,0.0732334556948227,0.1431493995647354,10.6298134196659,0.0120892809042185,0.0053516504035525,0.0528673610458983,7.031386383955492,-0.0475532053622972,3.5732262922844775,1146.6021797883343,1150.8260815130611,1147.6717707385392,1160.1547001536576,22.851771738157495,65.47571147367596,-971.304778581774,-1008.0981006561004,155.97880691364495
45.64,-3.0364780420937465,-0.1168066844620429,0.4671741432516925,0.0708811602115288,0.0994342780696134,0.028778305217853,-0.0037678074376399,-0.0078328047877575,-0.2197854575745976,0.9755074816335392,0.0735200802514743,0.1450598002918978,10.629004351595574,0.012328748168593,0.0057074926748799,0.0550328462826072,7.031433327516861,-0.0475400277733456,3.573387609927651,1146.794693154409,1151.1187047672015,1145.2100908745279,1157.6729863580713,101.7132289358885,145.70046364401213,-819.4544118899735,-785.7321369417475,155.9783437014458
45.6425,-3.49432807432143,-0.0925447637773217,0.5613159162472772,0.0637576659393588,0.0998999953385105,0.0293554740267117,-0.0037641851770219,-0.0077797156158211,-0.2197322785459505,0.9755199736869778,0.0739818516694212,0.1456237151449575,10.62651129569641,0.0125754445830071,0.0060538959277963,0.0571456476801154,7.031484712374221,-0.0475254774808103,3.5735570330142203,1147.1107459330133,1151.5545838312808,1143.574498679093,1156.2260394689524,137.9050390869201,196.05560951357776,-555.8556133989326,-447.7912361917771,155.97807737103275
45.645,-3.860545177047397,-0.0864561670810141,0.6380799764617708,0.0551867283144987,0.1005125987714051,0.0301032753784136,-0.0037678054965585,-0.0077326810407309,-0.2196978502614174,0.9755282270978488,0.0743770051304872,0.1449695238114164,10.622490176849572,0.0128270480862798,0.0063883215448713,0.0592008287881512,7.031534598450153,-0.0475126480574439,3.5737319820201834,1147.484218349844,1152.09898281477,1142.4308128075315,1155.4340301771113,144.50869199969813,215.5659257374089,-370.30046774524794,-224.60917477180703,155.9779352374442
45.6475,-4.133867840827574,-0.096139099737242,0.683247220946663,0.0454890112997535,0.1009798980949111,0.0312517137739536,-0.0037652848818845,-0.0076856827639273,-0.2196836635133612,0.97553196079012,0.0744647876707447,0.143341387250567,10.617102072103767,0.013082845051341,0.0067114948530294,0.0611978017106568,7.0315780415726525,-0.0475038498549961,3.573908912099468,1147.833289393012,1152.6324134599683,1141.7229963403659,1155.1029935950928,118.46561174053792,183.95788054643523,-174.72793055032955,-53.23464861230899,155.97789645923004
45.65,-4.274378167371673,-0.1143447051123761,0.6612232043973701,0.0349012574505143,0.1009256706986741,0.0331749716492937,-0.0037548337195292,-0.0076351458456858,-0.2196813357092393,0.9755330622951126,0.0741126583899031,0.1407590812375929,10.61050560444533,0.0133439999873945,0.0070246778220524,0.0631401911397814,7.031613364898177,-0.0475005258028688,3.57408527399842,1148.076546408546,1153.0187722175015,1141.557173154781,1155.16785693405,65.58999542668344,105.67645626332757,51.73147573375072,76.8079366954742,155.97798319473523
45.6525,-4.270260609483759,-0.1245310199921063,0.5195602512128399,0.0218146846823559,0.1001609414549613,0.0365165243093936,-0.0037444115988319,-0.0075650159988072,-0.2196808621475599,0.9755338452253794,0.0729775131064051,0.1369888921468145,10.602858244856675,0.0136108742529641,0.0073282530424696,0.0650356465862979,7.03164309373498,-0.0475013198210855,3.5742591762865903,1148.1612393701455,1153.1607957412853,1141.9816537190347,1155.4870332785704,-13.768975529858158,-16.44577053888565,253.7981652350093,131.5507993869469,155.97823386561075
45.655,-4.117621982916879,-0.1087379807406458,0.2898832007697988,0.0109606592677311,0.0991951805759371,0.0398713517314758,-0.0037349261175421,-0.0074671177936577,-0.2196790168603064,0.9755350699058812,0.0708484550794558,0.1319893540169981,10.594299260867858,0.0138841335573899,0.0076233153026669,0.0668941542328334,7.031668643222252,-0.0475044075676903,3.5744282137240164,1148.0077015308968,1152.9365433648068,1142.8261639809566,1155.825610930985,-117.64387354975736,-167.07493614891706,423.9995927620148,132.29583409082105,155.97856609975932
45.6575,-3.8166390170180926,-0.0591095630897715,-0.0431701062039373,0.0007276257388071,0.0982496225529061,0.0426181248885184,-0.0037230553998659,-0.0073404632135843,-0.219671441307018,0.9755377280939764,0.067648022442582,0.1258464217236942,10.58494659403315,0.0141643685710334,0.0079103510868705,0.0687267541539394,7.031692591744354,-0.0475072328372263,3.5745920525172745,1147.5730200023975,1152.3254210605414,1144.1016516828429,1156.1485124490239,-264.4080407942522,-350.33296816555134,631.4229590157491,133.63409446662885,155.97902786023658
45.66,-3.308732295275825,0.0345660246218794,-0.4975347452582827,-0.0101636058530094,0.0976718199658543,0.0427777008821358,-0.0037086745256681,-0.0071822490278919,-0.2196564958061359,0.9755422186668276,0.0632814548563947,0.1185799177034221,10.5749000887239,0.0144506833493373,0.0081877051307739,0.0705444090771637,7.031717716213818,-0.0475076864870396,3.574752239871118,1146.685661326925,1151.1848785239783,1145.9832787760367,1156.4937814033185,-390.11276968056393,-470.6590490328247,721.9446524148624,123.32061717609632,155.97973356673367
45.6625,-2.7908879568044647,0.1289693322116553,-0.8515719304481302,-0.0176382027433754,0.0979953623936449,0.0394132692471001,-0.003691511713813,-0.006991165650541,-0.2196406812027665,0.9755471121599486,0.0576909071700185,0.1102309766067053,10.564239923324692,0.0147406784518403,0.0084522970081227,0.0723564995010271,7.031745552445774,-0.0475046734044423,3.5749105866525905,1145.6224561539937,1149.972125815376,1147.711374944919,1156.7651155349047,-493.5439160470137,-511.45494057264966,691.7576055399802,111.11756749488552,155.98044940214592
45.665,-2.2137624700506575,0.2233060149485665,-1.1048933297384829,-0.0231392735256249,0.0989428545245032,0.0340466373164579,-0.0036762795795589,-0.0067736185416414,-0.2196236835040834,0.9755524540111332,0.0510114545780842,0.1007808513088295,10.553025481890591,0.0150317324924691,0.008699070944156,0.0741695233489524,7.031776992091761,-0.0474980780199482,3.575068774820232,1144.217941746692,1148.6276038211174,1149.4420668037335,1157.0493692407924,-690.8908377259753,-581.6973754874859,728.7947193340096,129.51235050020583,155.9812996074255
45.6675,-1.4950026795205695,0.3234361104900838,-1.2551503689848311,-0.0276797257373535,0.1000450226948176,0.0280654581101809,-0.0036713754772926,-0.0065427002948954,-0.219600556842316,0.9755592760382504,0.0435439708535487,0.0901749996592939,10.541299817335224,0.0153210357257099,0.0089217175211787,0.0759862468265834,7.031813227187806,-0.0474892628995291,3.575229832289632,1142.168001965362,1147.0636389379372,1151.3553485415907,1157.412677287406,-800.7485815830473,-535.2789275722888,655.5433312057913,133.34113223420445,155.9824773480179
45.67,-0.8977084637562319,0.3920042317308747,-1.261180743629444,-0.0301335941661524,0.1006908132990235,0.024397100391329,-0.0036861142703254,-0.0062960445753689,-0.2195710430767195,0.9755676493422972,0.0352866728018476,0.0782813762237475,10.529104714247609,0.0156023939506438,0.0091131445527777,0.0778059383114452,7.03185528985157,-0.047479687394524,3.5753970144606875,1140.2141988387748,1145.9512091832546,1152.7197834597644,1157.7160749019636,-808.4894713814342,-375.42701606541914,483.25588103833365,115.98135551049924,155.98359157880404
45.6725,-0.3209347942202445,0.4409649318356096,-1.1776382001676935,-0.0314872796333011,0.101299518044379,0.0220638909212936,-0.003725136453137,-0.0060449994875724,-0.2195349841318505,0.9755774993125742,0.026511070254263,0.065138905143314,10.516472199787678,0.0158709046079384,0.0092676556514206,0.0796233255693261,7.0319043097953005,-0.047469334239522,3.5755743021156943,1138.1255546084583,1145.1865038576116,1153.7716279467804,1157.992584064958,-912.5581732211107,-234.9550803271703,383.1341695115811,115.75679836208553,155.98484484678957
45.675,0.3308700791675652,0.4661251907385174,-1.0146240906448267,-0.0317058667743113,0.1023128275245397,0.0199949036703249,-0.0037857902690013,-0.005804818257232,-0.2194928947955887,0.9755884890141344,0.0175472978993462,0.0509645074973722,10.503435469457367,0.0161222615530278,0.0093816394465403,0.0814294383279001,7.031960973647488,-0.0474585588172816,3.575766649974108,1135.651407972667,1144.776433781618,1154.6354543073232,1158.2948588937743,-872.8914091723792,-61.099428871526136,250.54355088774088,114.15409443505794,155.98650950751778
45.6775,0.8271251934930886,0.4466540905732872,-0.8458070905084312,-0.0306629680311504,0.1034744446695202,0.0182745132407858,-0.0038577185286413,-0.0055911874036092,-0.2194519134690253,0.9755989224153324,0.0087101892227433,0.0361450311199751,10.490035540346664,0.0163529591933733,0.0094543297229973,0.0832129309075761,7.0320228940198275,-0.0474474758857316,3.575974900779765,1133.7610975625944,1144.881006713254,1155.0243457012195,1158.5633545371336,-691.8610943297989,128.3572950326546,91.29294665598654,128.56896485753035,155.9880296679294
45.68,1.25469014590809,0.3688426299603581,-0.6537968644259297,-0.0282457227062156,0.1047600270775957,0.0163693572542047,-0.003925708342169,-0.0054195840359067,-0.2194179760729302,0.975607432212504,0.0002984050055557,0.0211711076206975,10.476324623936012,0.0165611766102068,0.0094875924084215,0.084961776405351,7.0320865616828945,-0.0474369338836995,3.576197519910828,1132.192102501021,1145.4182202567808,1155.0919190406028,1158.9377037180616,-562.054146084085,275.3446895907704,-21.71042778133752,181.77778276693223,155.9896854223628
45.6825,1.6076528300721324,0.2326039246213908,-0.4478427751481052,-0.0245650596759038,0.1058452144605944,0.0144929147066651,-0.0039711696396305,-0.005295871581692,-0.219391895644586,0.9756138740950452,-0.0075931873195197,0.0065607132124171,10.462370467359731,0.0167457102480653,0.0094853900244466,0.0866652576702465,7.03214774488504,-0.047428804782635,3.5764303789530607,1130.9508268321763,1146.2577301612066,1154.9157935623132,1159.4722434509674,-417.18959420469696,390.12347262094454,-124.11180114475444,263.4065806258621,155.99145092990508
45.685,1.8508631615630184,0.0187905899144552,-0.2364099553044424,-0.0194492646211664,0.1067259598529869,0.0131899791613221,-0.0039853754067821,-0.0052052939835402,-0.2193685027930812,0.9756195112032208,-0.0152390598079992,-0.0074626454238365,10.448255253245984,0.0169044293761625,0.009450768915834,0.0883157831446657,7.032204775023353,-0.0474244527859536,3.576670359153784,1130.1061545299965,1147.3688376198863,1154.4713600348787,1160.2547366211916,-295.9416304858983,525.5664449493037,-252.57627365718503,398.2305868015155,155.99334443307114
45.6875,2.0032825131129286,-0.3272094407195174,-0.0011465993187252,-0.0124769057797769,0.1074402949781635,0.0128678885304211,-0.0039714885830752,-0.0051236711114289,-0.2193432425295792,0.9756254824854478,-0.0230456444841506,-0.0209570994268819,10.43406645691732,0.0170355914770746,0.0093852816381668,0.089909224033836,7.0322567413267825,-0.0474236492137705,3.576914030867296,1129.4711186797463,1148.8855623859545,1153.6529121940266,1161.463396384976,-188.17717560353972,568.4712489059789,-345.10949535542306,469.9080251065606,155.99575758436347
45.69,2.0201617338747595,-0.6789458558943781,0.1579322127545272,-0.0069204208680078,0.1071173852911671,0.0136287095910021,-0.003933920191146,-0.0050434928166697,-0.2193128736534607,0.9756325981462076,-0.0310703550459018,-0.0339252310039702,10.41988765701795,0.0171414873850368,0.0092909567187802,0.0914440042530766,7.03230214067971,-0.0474252139882037,3.5771576268941043,1129.1652686519797,1150.2111938644139,1152.7458125581031,1162.6042767467222,-98.23448207229808,523.4711167911023,-407.06613251738503,446.05965473469865,155.9978799805002
45.6925,1.9463019047574697,-1.0684403835060088,0.2578791092802542,-0.0022862092785123,0.1051162674895931,0.0149526410228515,-0.0038749291220208,-0.0049690589800639,-0.2192751219673765,0.9756414146487113,-0.0391395985908558,-0.0462678662313163,10.405798988009947,0.0172270130096076,0.0091699716711397,0.092920901597792,7.032339796808321,-0.0474285447855184,3.5773990329615795,1128.9799462693843,1151.502917969911,1151.6175815314386,1163.6936946586507,-72.88618155549466,539.0518364158168,-542.6667937794671,414.24270762151264,156.0001105632813
45.695,1.787043950527228,-1.5371520144137576,0.2999470712779578,0.0024420832284797,0.1009700933575671,0.0165068718899505,-0.0037995825388372,-0.0049030423154079,-0.2192365600543498,0.9756505003969776,-0.0470994045431982,-0.05794506459383,10.391876546252524,0.0172965306308679,0.0090228202934583,0.0943428958973119,7.03237160886528,-0.0474319373290397,3.577639628543836,1128.800837744202,1152.9064530464943,1150.0324785892044,1164.6754902848309,-66.71303469599181,473.8063717251624,-612.313680238651,271.3906651934134,156.0029040942133
45.6975,1.6161344427433864,-1.8997232577643208,0.2732015651753585,0.0060973802162199,0.0964908113306278,0.0175537942697276,-0.0037186660519383,-0.0048318246951713,-0.2192015631087322,0.9756589801650531,-0.0551009576185378,-0.0691033562792177,10.37819072751135,0.0173505792267075,0.0088462453820892,0.095714964161286,7.032402311191897,-0.0474340786340941,3.577879164933543,1128.6463810959049,1153.8719498285348,1148.556013130248,1165.0506479846165,-67.69015200198912,322.7968265202148,-607.4135393488252,33.58371411844119,156.00532375318645
45.7,1.4222439856982363,-2.2051461366832688,0.1941288489102713,0.0096598552614391,0.0911858295504266,0.0184255470145768,-0.0036476130677183,-0.004739449053371,-0.2191725001857092,0.9756663943563462,-0.0633215122186357,-0.0799889491935408,10.36479925492324,0.0173877396998653,0.0086338731940846,0.0970428325015511,7.032437589418265,-0.0474323368337104,3.5781189210268227,1128.4623869841919,1154.5204371790962,1146.9954108924587,1164.8434088554231,-90.66098744451574,188.44002245818407,-682.4086433643207,-225.50987228575937,156.00783230797484
45.7025,1.17742305185245,-2.481724019273284,0.0596078614362374,0.0134507554917136,0.0837579631824984,0.0191225555435277,-0.0035957508154707,-0.0046146999645664,-0.2191530065794989,0.9756718538636991,-0.0718690604793929,-0.0906974052153605,10.351747429544048,0.0174054945820054,0.0083791850362319,0.098332031545372,7.032480991131155,-0.0474258710330031,3.5783617148864355,1128.193076158682,1154.8141499408264,1145.1439699134248,1163.9230986231871,-109.0309762452844,14.12979350012768,-659.149927929465,-429.3837653743407,156.0109385614655
45.705,0.97395075816651,-2.626758315096966,-0.0661397525985359,0.0159270778424105,0.0767832897274136,0.0192113021908985,-0.0035687278805795,-0.0044623871225187,-0.2191442063318137,0.975674937665986,-0.0805449110696177,-0.1011740197600564,10.339065351178103,0.0174031910914406,0.0080765455385496,0.0995872290614707,7.032532447318452,-0.0474161198933494,3.578609028381652,1127.917232102966,1154.5910861465968,1143.6996612528144,1162.6964900285532,-125.35249691170928,-190.69494566482965,-546.3240255076405,-543.8303322309768,156.01360248616783
45.7075,0.7834170767467641,-2.683083058803491,-0.180054146609194,0.0176607382925272,0.0695581902707383,0.0186657322031115,-0.0035576975521718,-0.0042909852140928,-0.2191466557368774,0.9756754166361774,-0.0891432572940393,-0.1110543009760616,10.326775107522616,0.0173800840712803,0.0077240770404961,0.1008126603692907,7.0325889802485415,-0.0474050346857961,3.5788602059891548,1127.5663136741232,1153.8606752125015,1142.4123497858852,1161.2039469620308,-158.31646411694322,-368.6490669367618,-490.36058521489775,-602.4913465621568,156.0163395455598
45.71,0.6102418085601141,-2.67704918773622,-0.2655148361889438,0.0190448020979643,0.0625125592905574,0.0175921925378893,-0.0035508964501662,-0.0041090823084359,-0.2191559381002369,0.9756742835029524,-0.0974722840704673,-0.1199181065464592,10.314887678379112,0.0173359447535923,0.007322084104651,0.1020124928341617,7.032647297118098,-0.047393832179705,3.579111935875512,1127.1256497823808,1152.747840811912,1141.2478583267387,1159.684033295741,-208.24279738072457,-515.8345907645215,-450.4663316804912,-569.7860027074237,156.01913371381076
45.7125,0.4613674297399872,-2.620980111185004,-0.3001832976715257,0.0201696281663329,0.0560904276300114,0.0160539099177219,-0.003538114624079,-0.0039243509667819,-0.2191670079625098,0.9756726952318002,-0.1053541610611681,-0.1273874429445516,10.30340153158156,0.0172713938188485,0.0068727767940434,0.1031907808603709,7.032705182733827,-0.0473826167270383,3.579363418564967,1126.5250996872203,1151.2815022586815,1140.1600181274848,1158.3550169484963,-318.62051070777005,-691.0132505831473,-490.3667229260229,-497.35483245387536,156.02199265879227
45.715,0.3112524603224624,-2.5351678467632226,-0.2758251196751254,0.0211501524620345,0.0492512433075602,0.014254203662004,-0.0035164476769311,-0.0037433335005369,-0.2191761310671719,0.975671493303205,-0.1126035665679866,-0.1332468275433189,10.292300552332852,0.0171881907058795,0.0063793505158203,0.1043511290073759,7.032760927805886,-0.0473724800530538,3.579616065188309,1125.5325472288412,1149.2927745589943,1138.7960247121073,1157.1972591334704,-422.35972788386096,-741.5330448908505,-532.7778723577924,-335.76911142550773,156.0254929805902
45.7175,0.208637975075262,-2.474548454420944,-0.2070119530439007,0.0217587182704865,0.0439037112495214,0.0132255707491539,-0.0034793574389465,-0.0035795089834429,-0.2191826800765183,0.975670804330048,-0.1189154800471543,-0.1371911908413136,10.2815591891593,0.0170902613462297,0.005848609404391,0.105495997359536,7.03281431359617,-0.0473635815792538,3.5798727711656384,1124.4133010478,1147.573837034225,1137.4961287656945,1156.676171391368,-518.6921588586472,-675.9042924160675,-572.9575908348788,-117.7860110291638,156.02846397353673
45.72,0.1268960581527581,-2.4476870120407166,-0.1060586831182857,0.0223149833706469,0.0385201880040353,0.0125777678942174,-0.003419622413377,-0.0034417267454913,-0.2191883786872652,0.9756702472009656,-0.1240857377872088,-0.1389424167902571,10.271143502831231,0.0169813253634461,0.0052897268256555,0.1066270981334442,7.03286566408823,-0.0473568720270952,3.5801333923120806,1122.9390864345503,1145.9132530969173,1135.9312367579355,1156.6083290783251,-728.4674302857096,-699.8382212922992,-751.9642158898723,50.55372797475825,156.03148629503755
45.7225,0.0517535545535093,-2.469022507418844,0.0233126152184993,0.0228423483546949,0.032126851521106,0.0120885879009024,-0.0033376481096193,-0.0033330531328944,-0.2191930955640243,0.9756698517124288,-0.127999086506455,-0.1384253962153379,10.261008711177796,0.01686488795603,0.0047120954009959,0.1077455691847583,7.032914683441812,-0.0473535405246536,3.580396454940368,1120.7709638963695,1144.074645927762,1133.7363076862432,1156.9289400312418,-847.8446656725491,-642.5653567795403,-843.8811980933455,156.11643488119824,156.0351667413571
45.725,0.0102868946556253,-2.535174093251855,0.1126163266435206,0.0229485004634183,0.0268627324675287,0.0124539872288313,-0.003240517612706,-0.0032524040222651,-0.2191942885275045,0.9756701804226992,-0.1306018283477481,-0.135744420980831,10.251101226443568,0.0167443915168509,0.0041251748280898,0.1088519065881291,7.032961011139792,-0.0473538582420009,3.580661213086141,1118.6998631061851,1142.700426313018,1131.7118307674666,1157.3889112527315,-854.7102610185491,-515.4444102759185,-820.5367233133262,184.31146053747787,156.03827425401877
45.7275,-0.0045027047230553,-2.6461043173732506,0.1518319109044975,0.0227346600555837,0.0212848970808336,0.0143763768397936,-0.003140366036189,-0.0032019650989549,-0.2191899570387363,0.9756716428779568,-0.1317604504102725,-0.1311193140663306,10.241361524435632,0.0166245717533589,0.0035387771111176,0.1099455936014375,7.033003499706857,-0.0473590803994459,3.580929954596772,1116.4974125912809,1141.4974238763848,1129.6336240696803,1157.8504973339284,-957.8263330106995,-492.18413129508286,-888.1418255627526,159.209037300307,156.04141858459883
45.73,0.0121911192457838,-2.811475421410048,0.1246911496588667,0.0224231740627769,0.0137600220176221,0.017766878903713,-0.0030479546863001,-0.003177745397246,-0.2191798875672265,0.9756742688971908,-0.13147987062549,-0.1248007862025271,10.231729664788476,0.0165090138328365,0.0029633942024914,0.1110254444170166,7.033041863769238,-0.0473703816129895,3.5812045490780284,1113.9107314411294,1140.2395056565413,1127.2711216396503,1158.1849564392335,-908.4392389729956,-433.2237502550527,-821.9921835611674,60.57593111915224,156.045228220949
45.7325,0.0541314499296204,-2.9562860350809284,0.0573579237059498,0.0221589920271779,0.0067205845901072,0.019930982283374,-0.0029740915659056,-0.0031800232940498,-0.2191626653763052,0.9756783432878224,-0.1296898479683523,-0.1170525086137935,10.222146615195763,0.0164023236631084,0.0024095170402616,0.1120895485811351,7.033076186940368,-0.0473876337327728,3.581484552886619,1111.9552163964136,1139.3313051251084,1125.5236631518724,1158.1533769895243,-708.3141167002926,-337.41481992827846,-638.8030994006738,-94.54071645822707,156.04842911817803
45.735,0.1194043533841194,-3.084509974106284,0.0011416365646359,0.0219874277725697,-0.000828853203781,0.0199375270336444,-0.0029232673367824,-0.0032092002570762,-0.2191390546799296,0.9756836807167458,-0.1263557388265137,-0.1080418525181547,10.212558623955898,0.0163087941731101,0.0018880903064018,0.1131358480909252,7.033107132339069,-0.0474101522093513,3.5817681446774094,1110.3691608576312,1138.5524315569014,1124.07710614265,1157.7122528569428,-553.4669407481839,-291.713664073346,-527.2926324580143,-246.79386508160968,156.05165318706315
45.7375,0.1952445461586912,-3.184449398171511,0.0103564133912287,0.0221288025252906,-0.0086208749190855,0.0178758449654435,-0.0028965347895374,-0.0032605995313669,-0.2191084481602907,0.9756904321961886,-0.1215705271033576,-0.0979189850212856,10.202917367350445,0.0162312933723262,0.0014087611819989,0.1141626087963922,7.03313525130304,-0.0474360989713139,3.582054587180106,1109.1878816926712,1137.8727368047407,1122.8871999895807,1156.9194076641156,-356.8876173687379,-249.3882864515942,-419.7443646067894,-393.8432050035576,156.05489426546924
45.74,0.2687288816400805,-3.237902009424956,0.1500892235697108,0.0227819674830719,-0.0164983651798732,0.0140210697468018,-0.002887008204837,-0.0033269366781828,-0.2190709765586892,0.975698616112188,-0.1155244605620192,-0.0867130682606918,10.19318241583884,0.0161714141667408,0.0009805087371117,0.1151684884896129,7.033161532959022,-0.0474637076038289,3.5823436234941965,1108.5847227707864,1137.3054901246428,1121.978384319615,1155.743036831924,-116.9032881986067,-225.78554956010137,-344.4832058441484,-586.4440042114315,156.0581541457312
45.7425,0.3338403795061367,-3.2377570747655247,0.4732886592350191,0.0240620138010257,-0.0259638621947342,0.0100222262300378,-0.0028871453031544,-0.0033996780644473,-0.2190306850865077,0.9757073810367026,-0.1084441389013666,-0.0744671113647949,10.183319033252994,0.0161300016019041,0.0006099151198698,0.1161525044208326,7.033187679176103,-0.0474910869079793,3.5826345045123755,1108.6033652516787,1136.7438090569415,1121.1647839603615,1153.9871876430611,133.0109521830609,-188.33550859666352,-255.77458920966436,-683.1850767953102,156.06208673376827
45.745,0.3571278806892126,-3.179108550129462,0.8182838344264963,0.0255057356839549,-0.0339923929501312,0.0098177951838954,-0.0028903303490527,-0.0034706684754814,-0.218992274867018,0.9757157272226332,-0.1005538650595714,-0.0612575553127441,10.173298176227865,0.0161075567783898,0.0003007880241427,0.1171139097234923,7.033215163646944,-0.0475162968301607,3.5829258673536137,1109.2497775317013,1136.3638125816603,1120.699511373568,1152.3271114479503,378.06107163040656,-137.3899201968222,-137.49964215391867,-682.2932837235533,156.0653812884734
45.7475,0.342389018226004,-3.0583997639921088,1.1292098990717387,0.0272090327032951,-0.0420589699280764,0.0139034054016003,-0.002888640511924,-0.0035268316796861,-0.2189602259238771,0.9757227218231402,-0.0921905447654344,-0.0471686705239838,10.163098378247932,0.016102922667375,5.4699856340802914e-05,0.1180521470057343,7.033244196408188,-0.047538348059417,3.5832152732099054,1110.4936706098315,1136.056859455957,1120.4772857495918,1150.5757212244416,650.0256506251702,-124.43882337950527,-25.488034109171767,-766.7017619504065,156.0686950456956
45.75,0.289566694267999,-2.851117763212576,1.3326470524140066,0.0287971306450222,-0.0511842733543965,0.021554518977212,-0.0028803490313578,-0.0035714304199321,-0.2189382297100373,0.975727522260882,-0.083348064148885,-0.0323421221468551,10.15270113751152,0.0161185920304818,-0.0001291065966267,0.1189656658890264,7.033274265213048,-0.0475577445180363,3.5835036719665694,1112.4999057848288,1135.7416184647625,1120.572071203022,1148.4936026381963,781.715426985085,-112.9968607083474,108.54743449823084,-744.9581740160692,156.07269624082608
45.7525,0.2328561007752466,-2.6417044427611054,1.3019952207803083,0.0292281726284408,-0.05789441663638,0.0283983428818762,-0.0028665563638663,-0.0036235971723525,-0.2189249386371596,0.9757303458074934,-0.0737032202901106,-0.016908625606604,10.142090750774628,0.016160584800857,-0.0002525425703015,0.119851445057858,7.033305951573396,-0.0475756336387736,3.5837953453465383,1114.4022477447536,1135.4918751524156,1121.0200229220825,1146.8509303543647,752.5143321640614,-105.90851007245001,262.732767639138,-627.3477373163106,156.0760533270261
45.755,0.1858300271262143,-2.418400512371696,1.0532626290591511,0.028828955072509,-0.0634252342860366,0.0344318611784319,-0.0028518100736754,-0.0037021100567996,-0.2189145180724965,0.9757324092567816,-0.0629340397407145,-0.0010689825319935,10.131255778105613,0.0162348396283525,-0.0003191949912903,0.1207053460918105,7.033339263880664,-0.0475921325418191,3.5840942898077675,1116.262477445651,1135.2120759144,1121.8857350412184,1145.3568639516131,745.5606944740161,-138.66895516777913,460.6863960930158,-624.5960738693599,156.0794364654531
45.7575,0.1556223206696989,-2.1589585930783626,0.5637608760434574,0.0279887920103902,-0.0689341743789236,0.0392472173517943,-0.0028414831490959,-0.0038137475621829,-0.2189045939628478,0.97573419400542,-0.0509595636860372,0.0149105286643863,10.120192083027224,0.0163444129617167,-0.0003337315289456,0.1215229224478716,7.033373782933041,-0.0476069660793432,3.584401375207426,1118.1300512171256,1134.7985303765763,1123.3234549025487,1143.7279499850163,588.2324711940221,-167.51880670268977,561.3887221673953,-580.2803085394137,156.08352876121305
45.76,0.1491783755317067,-1.9584538101528095,0.0786443824992486,0.0275428156757925,-0.0730236088496354,0.0400410151394996,-0.0028339063687916,-0.0039565713178853,-0.2188977452987849,0.9757351243268952,-0.0379086257192621,0.0308713163626571,10.108903824321748,0.0164898295424125,-0.0002994848723428,0.1223001835739573,7.033409842671044,-0.0476201252858226,3.584715415098544,1119.2036398016185,1134.3744818808873,1124.6926786520528,1142.4554624089187,306.14924463345943,-184.26120427875168,526.4786722822045,-511.01356649766103,156.08696758765487
45.7625,0.1423962267972781,-1.7703965767485776,-0.3721120657406941,0.0278142070665308,-0.0772314883673069,0.0372222052226912,-0.002819838097398,-0.0041227148442797,-0.2188950856341678,0.9757350009516632,-0.0240665258840108,0.046785494628675,10.097401682886044,0.0166697072652392,-0.0002180128813059,0.1230343379413336,7.033447389380821,-0.0476318951982097,3.5850340957765248,1119.6607974402937,1133.8772243551823,1125.9558482639611,1141.1728821525267,79.3814391244317,-206.3641537250841,440.55040632611247,-530.9839202154775,156.09043748070508
45.765,0.1144625200581159,-1.582839361092641,-0.7225508518966288,0.0285203326127224,-0.0817376736412327,0.0325935357592674,-0.0027933702961645,-0.0043033169559664,-0.2188966657751714,0.9757338629971276,-0.0097282186587101,0.0625634914118848,10.08569836060776,0.0168825712080629,-9.112823204096148e-05,0.1237241415375209,7.033486504453076,-0.0476439461925277,3.585355019551019,1119.6005469972408,1133.342661112261,1126.8954306836845,1139.8005428078402,-134.87742062405675,-215.4572240106204,249.12368521681776,-586.7325920247247,156.09393390683007
45.7675,0.0380527065360032,-1.3861879811787203,-0.9084776515054548,0.0293264515143252,-0.0861317458336163,0.027800720278242,-0.002759196762115,-0.0044899829511196,-0.2189007644633015,0.9757321155893192,0.0048631831030383,0.0779185103857349,10.073806050561823,0.0171277498506703,7.74919756656004e-05,0.1243700421682639,7.0335268986888,-0.0476582987608529,3.585675291447606,1118.986410337174,1132.79993823513,1127.201466690044,1138.2392191924057,-369.34796905424474,-232.25689322141017,-48.114444533096446,-741.3028257751492,156.09746291167
45.77,-0.1290723504415212,-1.141102330490756,-0.9446990448606144,0.0300254594187766,-0.0904193394760551,0.0233472537689205,-0.0027227861495136,-0.0046872364063379,-0.2189069878040214,0.9757298090543992,0.0197178456707546,0.0926170203407523,10.0617307855046,0.0174081016579986,0.0002853076860807,0.124973723315616,7.033567475191105,-0.0476748725794129,3.5859950040606487,1117.7538071519687,1132.1813766461537,1126.6548584610189,1136.0940286789623,-510.29802829140226,-218.0296126946608,-353.105537562716,-830.3816347666113,156.10173570011156
45.7725,-0.3361872908832646,-0.9404868745996122,-0.8517066317461859,0.030179328246439,-0.0928299466939512,0.0209634976647254,-0.0026900390095976,-0.004906990121093,-0.2189153232425065,0.975726878172647,0.0349882478247825,0.1064613925337567,10.049470743693783,0.0177288634797677,0.000530386576431,0.1255379665013642,7.033606666916783,-0.0476923684107248,3.586315595819033,1116.4349201957157,1131.7097901716563,1125.4359390022296,1134.0873110185703,-557.8631538955123,-180.83311034613948,-613.8630393562961,-836.4924269456301,156.1053280435413
45.775,-0.6083485714843885,-0.761018521515874,-0.6836952740966562,0.029653637798668,-0.0940895469834032,0.0197456921490729,-0.0026721721162163,-0.0051466249557508,-0.2189256484391646,0.9757233365730532,0.0505612220085754,0.1190982942173896,10.0370240437272,0.0180924828239639,0.0008086659959562,0.1260671457329283,7.033643243802949,-0.047709109326176,3.586636418433707,1114.9644913824936,1131.2772110944238,1123.58554326424,1131.9115665442382,-645.2491679873101,-189.88735906240723,-890.9893765989171,-974.6116114991324,156.10895326608605
45.7775,-0.9902437518733488,-0.5816767295858936,-0.4526890251323911,0.0279602912644688,-0.095092996731677,0.0191803316864218,-0.0026743971546244,-0.0053912798524604,-0.2189339028286382,0.9757201568534122,0.0660564532778971,0.1302505703032795,10.024389575248367,0.0184981415285058,0.0011164663560432,0.1265670876583352,7.0336774607746575,-0.0477246554715561,3.5869545346667007,1113.2086743557775,1130.7603533763438,1120.9809921192327,1129.2142529610724,-614.3177558817611,-198.6589871249528,-959.6810604721304,-985.1315399472658,156.1133415025837
45.78,-1.3323193874822277,-0.4601352487884489,-0.2669471634961792,0.0255235572244887,-0.0960589922153295,0.0191484562520212,-0.0026982780406971,-0.0056309045647461,-0.2189363616201774,0.9757182239959944,0.0811729734811201,0.1397479628600034,10.011558880478056,0.018945549242305,0.0014508652888757,0.1270440434420255,7.033709504852508,-0.0477402344898359,3.5872669998875706,1111.8929026030833,1130.2839161587983,1118.787137961877,1126.9859088444991,-462.53694102030073,-211.9484839103388,-818.0187468820513,-865.4448117147836,156.11702994452392
45.7825,-1.6661862364736368,-0.3563222713077743,-0.1108411070913057,0.0220434155875855,-0.0972510893390197,0.0193065640277006,-0.0027343216772057,-0.0058520568389636,-0.2189393612998499,0.9757162122863327,0.0954963695843663,0.1476409745125645,9.998520467691636,0.0194319743068177,0.0018112751533776,0.1275041985589333,7.033739013679566,-0.0477567050749178,3.5875725455421086,1110.895989650678,1129.700610956793,1116.890898384826,1124.8870289025024,-332.23136106681807,-291.28044125107965,-715.1197799968465,-870.0440253222138,156.1207510338744
45.785,-2.0148203868318806,-0.2386263407783956,0.0312110438563624,0.0166508681264545,-0.0985868562817982,0.0195465468456242,-0.0027688260781608,-0.0060525774467697,-0.2189488489347997,0.9757128289136628,0.1088192235085838,0.1541279009251623,9.985252596802665,0.0199558121348105,0.0021979145628027,0.1279519487898146,7.033766648833235,-0.0477735401328218,3.587872736438425,1110.2317457977483,1128.8275139525424,1115.211539061891,1122.635688717886,-140.0995220932793,-351.6287552761716,-500.84449222601353,-765.5448210523623,156.12525384388275
45.7875,-2.2307940133551902,-0.1408792559222174,0.1100078827949147,0.0110366824677523,-0.0993775075504888,0.0197413747638731,-0.0027982589632626,-0.0062425728344513,-0.2189610495626517,0.9757088565950816,0.1212265900639378,0.1592749860950427,9.971724032093729,0.0205173019810892,0.0026075745782246,0.1283886432318649,7.033794359203082,-0.0477896324160552,3.5881703212596325,1110.195492040211,1127.9424671804113,1114.3866759236948,1121.0593047972386,93.648971819806,-384.2921721184524,-216.61164877211067,-553.101681877709,156.12903718865775
45.79,-2.337848546709535,-0.0432598406477797,0.148118424479075,0.00451331757344,-0.0997130086943049,0.0199377657929406,-0.0028199780024904,-0.0064369112685101,-0.2189717425760784,0.9757051546038472,0.1329091226041961,0.1631700875288036,9.957900817351412,0.0211158478329867,0.0030356534986114,0.1288121239593361,7.033824996802896,-0.0478047934484351,3.588469951846762,1110.6999906568467,1126.906053091952,1114.1284808180314,1119.8701803085,277.02648605103985,-435.083994652273,-27.97925847542889,-403.9512633260281,156.1328523124929
45.7925,-2.340955211804808,0.0513731559110013,0.1523151344486217,-0.0022114588522223,-0.0996572035712025,0.0201681654966631,-0.0028257865823884,-0.0066502247374599,-0.2189790653541124,0.9757020764290012,0.1440391452573188,0.1660285132145296,9.943752555240705,0.0217483595086278,0.0034776723589392,0.1292167383992547,7.033861650739226,-0.0478184774798809,3.58877663545288,1111.5806244704672,1125.7670472071488,1114.2467796313176,1119.0395484806074,407.8225748892879,-473.83904702608874,107.27294414918074,-244.22829302108093,156.1366934004002
45.795,-2.218829422978372,0.1383743505185194,0.1135007368775015,-0.0085948098943118,-0.0991559327694141,0.020485960308623,-0.0028103715338617,-0.006880282487372,-0.2189832948107716,0.9756995882058372,0.1544872893644482,0.1679570630820488,9.9292678488592,0.0224058389646477,0.0039265149614029,0.1295945685067425,7.033906523292828,-0.0478301238419222,3.5890930437305513,1112.7391035312944,1124.5368578568202,1114.6648455387776,1118.649038843394,512.474648501177,-554.7074632474548,215.43422179376236,-80.39727414318838,156.14056520272229
45.7975,-1.9478020896928965,0.2321681497537345,0.0133117014992136,-0.01536253508828,-0.0981437904518448,0.0209958357042983,-0.0027864490704049,-0.007117302576035,-0.2189773648190878,0.9756992897380686,0.1640740220367458,0.1686969409576738,9.914451931221649,0.0230772848548552,0.0043691937637022,0.1299361822326942,7.033961262582705,-0.0478405606512338,3.589419381095784,1114.1429977129708,1122.993509890914,1115.3239507402855,1118.6375621098919,468.1656838530095,-572.3951224864121,247.65666251933968,55.15663920170389,156.1452459270958
45.8,-1.6443451884515394,0.3048983779315294,-0.1158757565562085,-0.0200945360407334,-0.0971405456907758,0.0214882588973187,-0.0027708788517983,-0.0073517338675188,-0.21895740363581,0.9757020535473327,0.1726581937365391,0.1679335199374306,9.899321521479004,0.0237517234431878,0.004791837788612,0.1302317084276995,7.034025591879534,-0.0478504257992188,3.589754592783944,1115.0799319505606,1121.6748822443867,1115.9031288513747,1118.9248220394027,275.3134163880487,-529.2700226681993,224.63568277946584,147.9121011767045,156.14917449908577
45.8025,-1.3003296108331392,0.3824846420045764,-0.2865144294530107,-0.0236073685985836,-0.0963402121788026,0.0218726803820008,-0.0027715868684861,-0.0075800512333518,-0.2189235391775468,0.975707840251752,0.180190973908216,0.165573566131873,9.883898841236995,0.0244199758544494,0.0051840346517183,0.1304718481864299,7.034098632328207,-0.0478588191840769,3.590096788622261,1115.5195647949115,1120.3471597775715,1116.4471291541831,1119.3771226157755,41.90007806136409,-580.7345453238493,225.76899358939568,200.16196080014208,156.1531309219946
45.805,-0.8915771108933259,0.4968696532495355,-0.5167516446882733,-0.0260399147699538,-0.0957479198729167,0.0217538181607436,-0.0027913261757532,-0.0078036692986515,-0.2188770152279107,0.9757163456438832,0.186709459229099,0.1616626703424638,9.868209934579568,0.0250756022974838,0.0055383264387484,0.1306489351816922,7.0341780509260365,-0.047865719808913,3.5904433931579773,1115.2894323408673,1118.77120951777,1117.031973819321,1119.9256318434025,-216.40659110486595,-571.4223299170238,200.95490541189156,178.2482428426449,156.15790920280529
45.8075,-0.587653489146263,0.6172614739928122,-0.7012341602108279,-0.0266151396826159,-0.0952445067110874,0.0206678111254068,-0.0028295707568601,-0.0080213948277818,-0.2188243160636017,0.9757261257881747,0.1921958458621945,0.1563147227584739,9.852287231949981,0.0257137680803293,0.0058500720590038,0.1307580636226479,7.034261191412819,-0.0478711125631686,3.5907931071741803,1114.4375318393884,1117.4900481279892,1117.451903681242,1120.268363829988,-457.79815992954576,-504.500094217534,148.81947319578674,93.93627637154819,156.16191521091002
45.81,-0.3464354869544719,0.7611347625471124,-0.8339506634244029,-0.0262430977423085,-0.0939908021162978,0.0181750269258543,-0.0028919061560344,-0.008231746053056,-0.2187681402858601,0.9757365797039388,0.1966618226781695,0.1495320884690412,9.83616377575363,0.0263328669375503,0.0061151509906292,0.1307974872320333,7.034345189623018,-0.0478758300213691,3.591144382700689,1113.0004415412184,1116.2487090466811,1117.7760711853002,1120.3953132252605,-714.852248061923,-543.7077024015199,109.99264312243952,-3.272052097098057,156.1659443713291
45.8125,-0.1300362480511954,0.945600970850047,-0.8855499328122922,-0.0257361943972309,-0.0910445823494083,0.0140239565090874,-0.0029791149494142,-0.0084301966739,-0.2187113296555564,0.9757471228982288,0.2000447050414511,0.1414024019176128,9.819870821929085,0.0269331895971428,0.00633293669317,0.1307690687276794,7.0344262193623806,-0.0478815430114496,3.591495112825015,1110.8632705990767,1114.7715096159802,1118.0018668968544,1120.2520035695027,-801.9489941973934,-552.1273367927298,46.7912848329859,-101.29301534407323,156.17080353399635
45.815,0.0061128468998511,1.0982762686799707,-0.8183493652853321,-0.0257958071910733,-0.0875668404603402,0.0104622608470248,-0.003077901279497,-0.0086026176801858,-0.2186610716091126,0.9757563089218177,0.2020395321983518,0.1322462113321746,9.803439498923694,0.027514293707758,0.0065083075015901,0.1306786614421921,7.034499150446823,-0.0478889841639042,3.591839812461136,1108.990696570235,1113.48807236272,1118.0100276094647,1119.8888481485403,-706.6757567327409,-547.1076440375257,-42.61884956001816,-190.3089252862564,156.1748705953335
45.8175,0.1252880545983626,1.2494369985939715,-0.6368281093956568,-0.0262856893423979,-0.0837684572098145,0.0075845887431867,-0.0031755926566561,-0.008743186058816,-0.2186171724525029,0.9757642726870308,0.2025061065222117,0.1224003047104599,9.786882880367871,0.028079693249086,0.0066476657101112,0.1305346169635433,7.0345620316256445,-0.0478976560975709,3.5921748146169405,1107.3298918154114,1112.0359713957912,1117.788772649054,1119.300458943071,-591.2275778911111,-627.5660829878207,-129.66949367467083,-267.67064506961964,156.17895254516088
45.82,0.2489877187744283,1.4119592974089556,-0.3774949222433974,-0.0266920695627337,-0.0804135128457606,0.0053899370840754,-0.0032585242147635,-0.0088438917629975,-0.2185808114538108,0.9757708759695336,0.2012581651264209,0.1122062193062327,9.770201497574412,0.0286326445514146,0.006758340937222,0.1303472405106778,7.034615873140797,-0.0479071437645383,3.5924991605278818,1106.034558680778,1110.3502419477793,1117.3616801410913,1118.5504949231915,-402.223225731452,-746.4617419137961,-219.24956814702384,-335.1231744256303,156.18304365309714
45.8225,0.3893941790946763,1.612207452324893,-0.0609358832363842,-0.0266029617932818,-0.0778990905916378,0.0042334851683751,-0.0033196473118848,-0.0089057891274024,-0.2185401286973148,0.9757788098486648,0.1983120833362997,0.1019026949148567,9.753372219349522,0.0291782034264684,0.0068456613451679,0.1301266906222582,7.0346644071373685,-0.0479167940336591,3.592814342190275,1105.318775686756,1108.3036626862256,1116.69252480832,1117.6248430709443,-174.37465125222107,-984.307120912896,-341.91595244224817,-448.93832897718994,156.1871412748193
45.825,0.5769233809059287,1.9169075622475065,0.3227096473889347,-0.0259136176753127,-0.0748250771180524,0.0046996618196111,-0.003353947956686,-0.0089432688993561,-0.2184812371044864,0.9757911181594308,0.1939462752671841,0.0917378925446059,9.73634551214349,0.0297227077250353,0.0069143693684916,0.1298812728437225,7.034713029390486,-0.0479259970463143,3.593124018532828,1105.1626854245164,1105.4287063432123,1115.6521003788791,1116.3058032783047,42.742821581192366,-1105.9964811200443,-409.8043832416529,-523.9729107413998,156.19205922127628
45.8275,0.7399836227890088,2.220366547729512,0.5959767678898618,-0.0250363506799693,-0.070999854865278,0.0068249466331891,-0.0033686703662483,-0.0089744184266997,-0.2183932656863534,0.9758101271701036,0.1885614550191345,0.0817373052724111,9.719053653549363,0.0302711976904239,0.0069655694705325,0.1296169473656034,7.034765579670026,-0.047934690889586,3.593431733237283,1105.532489794662,1102.7736802806223,1114.6435028921107,1115.004978517236,209.0003455966862,-1075.4408926133924,-415.1435227917456,-572.9028456934636,156.19615262106123
45.83,0.8888800889850563,2.5477120809466864,0.7715369640866573,-0.023682698285541,-0.0652861306096633,0.0103306727261001,-0.0033760378634132,-0.0090069428702988,-0.2182771547095126,0.9758356357816936,0.1823850474899398,0.0717892186519186,9.701424789825444,0.0308232740567716,0.0069984788259603,0.1293376803579369,7.034822884322232,-0.0479437788100783,3.5937396250924944,1106.2076871524987,1100.0515018801502,1113.5763827649223,1113.44128904984,301.7696488292861,-1155.4174453422547,-463.2861256953123,-760.8912832431287,156.20023354805372
45.8325,1.0132583909853277,2.92518354643463,0.8424110583554902,-0.0209214577857156,-0.0566136413400344,0.0148054281997929,-0.0033864075078695,-0.0090401359734595,-0.2181435764148396,0.9758653236635698,0.1754852020390179,0.0617827062781518,9.683385793233542,0.031373608803485,0.0070124658281519,0.129045296221674,7.034884803872536,-0.0479548288637631,3.5940494813536206,1107.0413380388093,1096.9965930539083,1112.3270722636328,1111.2005221010184,260.96092948455697,-1046.7495839627293,-443.5683491666628,-885.8610962075105,156.2051070309524
45.835,1.0399284293420603,3.2007241631470453,0.7910175981268721,-0.017572995786914,-0.0484065711345289,0.0178750436804316,-0.0034028658529662,-0.0090688121691434,-0.2180039686287961,0.975896569858506,0.1678272555435245,0.0517217616657475,9.664864733493324,0.0319133142913607,0.0070082702591231,0.1287395174108956,7.034952229724617,-0.0479682885525248,3.5943627937561518,1107.5124917999224,1094.817753960334,1111.3585410190879,1109.0119835688,95.18233465100383,-767.072089720311,-369.8628374059989,-933.9915279964624,156.20914197585725
45.8375,0.9566653529957068,3.4185480309770497,0.6563775187748633,-0.0135517164545122,-0.0396753886060377,0.019826705775885,-0.0034161147344935,-0.0090791275511597,-0.2178761718451155,0.9759254290450016,0.1591769672248798,0.0418070491815972,9.645799803539854,0.0324292069034279,0.0069894250868813,0.1284187586677652,7.035025168156055,-0.0479853683357687,3.594678515968159,1107.5172497120639,1093.1612326053103,1110.4777580766047,1106.5305644610403,-136.2274685064889,-605.0628356130889,-373.73539227900415,-1130.5216048734692,156.21314216903795
45.84,0.7215680366882726,3.6118657017927966,0.4491173205364318,-0.0089975882029048,-0.0291605143116701,0.0208998605002546,-0.0034227779221539,-0.0090618868053753,-0.2177723638487309,0.9759491954928796,0.1494305762681609,0.0321403145340241,9.626131287215884,0.032909154260983,0.0069575540825969,0.128079793472485,7.035103663533479,-0.0480072693411701,3.5949955702720926,1106.8313544573896,1091.792439782267,1109.4898640576919,1103.35937554443,-370.35913640215006,-415.37639290406,-359.4312037248963,-1161.847229483916,156.21789408007047
45.8425,0.4312006210870455,3.7238440664997055,0.2737579975806346,-0.0063965233891833,-0.0206471142222444,0.0210185235776693,-0.0034268237354807,-0.0090124322550069,-0.2176935259359301,0.9759676252231378,0.138616361154819,0.0226971101348211,9.605805756783603,0.0333430623769197,0.0069114010854683,0.127718118188942,7.035187847485973,-0.0480346420478176,3.595313112051881,1105.665454030052,1091.084350640789,1108.6806020579793,1100.7213283136175,-572.7038894343175,-227.61819014715692,-333.5824200999773,-1006.5915726705558,156.22180812095164
45.845,0.0892269956038812,3.795394626320244,0.1277590890325039,-0.0058432525483114,-0.0122135817358899,0.0206890615850421,-0.0034247363673158,-0.0089207039626296,-0.2176371845709245,0.9759813496750958,0.1266437871956921,0.0135700890393986,9.584789898456323,0.0337203857571152,0.0068501359863951,0.1273288572436592,7.035277813258044,-0.0480657723451295,3.5956290687495285,1103.9678350102204,1090.654348831532,1107.8219519571935,1098.3264176810817,-741.4081176512655,-154.1783759491075,-361.55996102861224,-882.7274265085211,156.22566819872966
45.8475,-0.2527789935220054,3.8369321935537832,0.0203414305213677,-0.0070262294852939,-0.0036300914598308,0.0201639599870161,-0.0034113355654385,-0.0087782669489532,-0.2176026673968677,0.9759906165024678,0.1134581908381258,0.0048922641309135,9.563068279132752,0.0340330460960109,0.006772401090945,0.1269063088163225,7.035372052745948,-0.0480967828999324,3.595941731471644,1101.958413441794,1090.3134587610427,1106.8728022528353,1096.3076911810729,-837.8526046543618,-142.76815032823805,-411.6846568637524,-685.6015446512305,156.22947905700678
45.85,-0.551142001430801,3.8388195147274606,-0.0347835362258525,-0.0096293147520581,0.0052261220343102,0.0195346599258581,-0.0033882475200362,-0.0085931720706736,-0.2175916774780866,0.9759949819016964,0.0993493174001062,-0.0032586988781034,9.54063624454228,0.034280203351171,0.0066751755532493,0.1264426763608555,7.035468494874303,-0.0481244811394501,3.596252310469911,1099.7785719869466,1089.9405080798906,1105.7635286728737,1094.8984099578236,-942.6816066692867,-191.25616627742716,-532.8493786988773,-463.8606183043647,156.2332254570833
45.8525,-0.8287921539792981,3.783463307641195,-0.0456664472548139,-0.0131637423448319,0.0162918577697067,0.0188129120386766,-0.0033685910665322,-0.0083927061549943,-0.2176062395832426,0.97599371443643,0.0850136149420656,-0.0109363959213927,9.517501665962438,0.0344693529413236,0.0065530985693715,0.1259276239043297,7.035564683675333,-0.0481477273016578,3.5965637532566657,1097.2450054084516,1089.3571779296567,1104.208555359343,1093.9883880895532,-879.6395815260487,-237.0872921098604,-607.4531285247833,-213.68406576751093,156.23764038588604
