t,ang_acc_x,ang_acc_y,ang_acc_z,a_vel_x,a_vel_y,a_vel_z,quat_x,quat_y,quat_z,quat_w,acc_x,acc_y,acc_z,l_vel_x,l_vel_y,l_vel_z,pos_x,pos_y,pos_z,mot_1,mot_2,mot_3,mot_4,dmot_1,dmot_2,dmot_3,dmot_4,vbat
47.705,1.5982474969206573,-0.2100912884889481,-0.4901642494582642,-0.0040364176813513,0.0133245181867042,-0.0126165924876097,0.0031746088401799,0.0005446336072251,0.0214585015919077,0.9997643873192292,-0.004665674746475,0.0016650140953888,9.717451475729252,-0.0048233824064582,0.0005943445177571,-0.0033737701783319,9.13911558464419,3.734526183284757,2.0980523135576368,1096.429541949207,1093.7024877899196,1103.1111299473807,1114.246131843349,-150.15020379838964,440.71521473374753,-601.806458173734,-22.091880134610232,158.40950327386642
47.7075,1.657563469138936,-0.5918438499386293,-0.1102689496807587,0.0028785121381877,0.0122931791972378,-0.014607375865009,0.0031617493327828,0.0005550238339537,0.0214498087262653,0.999764603478495,-0.0061149026468847,0.0026270221545786,9.71819233967058,-0.0048273778950771,0.0005158863869043,-0.0035804081787471,9.139101958664416,3.7345283060920313,2.098045790785241,1096.280825409328,1094.8122116886987,1101.3902787732652,1114.0667730180871,39.75951956602115,351.9183604856626,-630.3218053411415,-105.2558639846582,158.4086726914058
47.71,1.5715689121313154,-0.882812332718712,0.2410430047326811,0.0070567572609506,0.0097272171617466,-0.0150538681078326,0.0031457535107746,0.000567120599513,0.0214426742057189,0.99976479480384,-0.0075959610196719,0.0037046879207727,9.718999538920563,-0.0048328833252206,0.0004392141943628,-0.0037927063883366,9.139088393960115,3.734529313789484,2.0980390739873807,1096.6283395470373,1095.4620795923488,1099.9595209206734,1113.7198525234255,231.65105696460313,186.54962429735548,-536.5265484958277,-176.0813872450181,158.407889787233
47.7125,1.3938297113066995,-1.0892483927376142,0.5784914083345147,0.0097847383155427,0.0062106624519422,-0.0137606088503992,0.0031306701349549,0.0005845274927616,0.0214384859738921,0.9997649181801705,-0.0091568494566431,0.0049692691613362,9.719894723287663,-0.0048401045182088,0.0003659309182378,-0.0040118432798396,9.139074725161098,3.734528982182833,2.098032783913609,1097.43908069415,1095.7449598101844,1098.7076460307885,1113.186366081863,454.8154761834614,35.29174984185388,-478.34519637024727,-276.0035680674216,158.40701113611507
47.715,1.126259455520608,-1.1945993893545883,0.906813322860984,0.0124000688529047,0.0016536457555325,-0.0102595133827796,0.0031194105756687,0.0006140294861592,0.0214395831674761,0.9997649108274504,-0.0109064422136341,0.0064661681027272,9.7209011904365,-0.0048494497477523,0.0002976204127567,-0.0042385497065181,9.139060980011843,3.7345278216375144,2.0980273049042006,1098.9024169279555,1095.638538341558,1097.5677949388207,1112.3398346830877,610.1602194286504,-107.35950448623916,-345.0209426298042,-342.0228703145382,158.40584460752
47.7175,0.8843640245840779,-1.146585866067424,1.082409144162242,0.0142374999701106,-0.002149605960871,-0.0064079735271161,0.0031121490703634,0.000655040600273,0.0214439230616252,0.9997648145501734,-0.0128100956310999,0.0081793244765735,9.722043002842579,-0.0048616336789843,0.0002356894518878,-0.0044728475813705,9.139047224730435,3.734526763182649,2.0980214593690074,1100.4898817912947,1095.208162287753,1096.9825413176386,1111.4762517302895,698.3386584982312,-227.46437362955243,-156.3074606377598,-368.14915458828006,158.4047785655247
47.72,0.6421881664922806,-0.9543243300351872,1.1376454417567672,0.015499424344906,-0.0058418835238396,-0.002574529303264,0.0031121437461298,0.0007032230392256,0.021447655224723,0.9997647038186248,-0.0147574400648973,0.010146108027282,9.723342851863606,-0.0048776582103413,0.0001813095168822,-0.0047139794249822,9.139033861807984,3.7345260294414264,2.098014461703308,1102.3941102204435,1094.5012164734114,1096.7862576356329,1110.499088910148,799.9407541272831,-311.75812595217815,-20.596416220485857,-395.8319899947832,158.403615264644
47.7225,0.4070507829074683,-0.6535838629514463,1.0960393450572903,0.0164508866822598,-0.0091705409056915,0.0009318020318552,0.0031236181953544,0.0007515456661581,0.0214455539751276,0.9997646825530908,-0.0165839337738126,0.0124169740568726,9.724820705268163,-0.0048987691780842,0.0001354732629482,-0.0049604309348001,9.139021413700569,3.7345253291116856,2.0980061554242444,1104.4895855619332,1093.6493716579914,1096.879559236536,1109.4970917803143,859.6145704820323,-349.80542723874646,91.93796681192752,-386.0513519521036,158.402372105092
47.725,0.182792241032628,-0.2548373571502532,0.9565462463857768,0.0172479577330917,-0.0112840731512384,0.0039854014351049,0.0031439055054915,0.0007924930293036,0.0214330930417292,0.9997648606185447,-0.0181173020121845,0.0149042158927313,9.726493136598105,-0.0049263388471187,9.912719250518158e-05,-0.0052100514265472,9.139009564242318,3.7345241311705015,2.0979956933660415,1106.692183072856,1092.7521893372168,1097.2459474696927,1108.5688321503865,953.412467348929,-367.0542621475007,197.86585486435604,-368.6044340123032,158.4010343558483
47.7275,-0.0721668046295659,0.2714304038794116,0.7140788020876498,0.0175919678533718,-0.0116757280593133,0.0068812435913669,0.0031687466574131,0.0008216602037718,0.0214113659176082,0.9997652290127552,-0.0192454908565184,0.0174873033969639,9.728371410277488,-0.0049617088372097,7.315630476952617e-05,-0.0054602691768158,9.138998483362409,3.7345223432182406,2.0979826262849555,1109.2566478986737,1091.8141003472556,1097.868888510857,1107.6540696102547,894.2352906850801,-292.3199288940264,236.23569548851003,-293.64881487680105,158.39932287083224
47.73,-0.2697376851993296,0.692189454087423,0.4844888972361017,0.017070125789572,-0.0100922788395182,0.0081177581766138,0.0031974200168303,0.0008339818679409,0.0213825974776423,0.999765744794996,-0.0198421361687706,0.0201117183671285,9.730460099276435,-0.0050061060864001,5.8221064687628074e-05,-0.0057083107069879,9.13898845721606,3.734520325075964,2.0979673498509617,1111.1633595262836,1091.290589692746,1098.427125947136,1107.1005880760017,677.1469329091989,-126.28481779654882,204.41811438925924,-179.2202920693391,158.39781115208424
47.7325,-0.4479533640376171,1.027087953747765,0.2695677593866663,0.0156880111259496,-0.006848465229559,0.0077458161241395,0.0032287506484108,0.0008263217703898,0.0213518899631987,0.9997663048256594,-0.0198195052714989,0.0227133856686852,9.732756673991698,-0.0050604500878852,5.475277629976521e-05,-0.0059514869163793,9.138980220162864,3.734518109452284,2.097950643141397,1112.6423825632214,1091.1826762582723,1098.8909790828038,1106.7579681499076,517.8970216856377,68.81747390004313,159.55241812808669,-112.44360772080876,158.39621509925553
47.735,-0.6416304881956992,1.2687656883866558,0.0632038707027737,0.0135267470455508,-0.0018469468056358,0.0064212650930571,0.0032607036143331,0.0007999284708677,0.0213232726834617,0.9997668288273936,-0.0191780028542474,0.0252125339128112,9.735251071606884,-0.0051250761354779,6.287689409075967e-05,-0.0061873986078006,9.138974209813629,3.7345157027089666,2.0979333826099658,1113.7528446347096,1091.6346770622458,1099.2248880377756,1106.538370037398,282.30118783843966,263.492962019838,79.62633604179719,-55.749504773501606,158.39420811085864
47.7375,-0.7949544317928638,1.3102129161575535,-0.0599856049996663,0.011949055494295,0.0027872858013526,0.0055881016047786,0.0032939149034778,0.0007604498291078,0.0212965749617411,0.999767313878804,-0.0180068311231795,0.027583278609785,9.737925249892234,-0.0051994139473483,8.230001190315225e-05,-0.0064140006240271,9.138969360992206,3.7345135592249856,2.097916136047818,1114.0538885024143,1092.5001410683724,1099.289110763013,1106.47922062604,-10.01248948704812,429.7017826563281,-10.466105784320565,1.414429719488184,158.39246349664057
47.74,-0.9534865102517472,1.1789324603606612,-0.1452202237418859,0.0110294072201659,0.0075882529350865,0.0055467001061107,0.0033291985897573,0.0007178642708361,0.0212732192757036,0.9997677195619964,-0.0164850205527166,0.0298063762342259,9.740753846967122,-0.0052817203511902,0.0001123877517306,-0.0066295661340068,9.13896354249635,3.7345117215116272,2.097898968954688,1113.7027821872744,1093.7831859755283,1099.172557508854,1106.5454421859956,-283.4686660095335,618.3967285165803,-68.13276155227697,71.67226765961611,158.39064917589087
47.7425,-1.1517730056005275,0.8497746882394432,-0.2249430057514834,0.0097956880616341,0.0127105009647852,0.0060271992798165,0.0033679889805041,0.0006787750924248,0.0212531521170068,0.9997680381503264,-0.0147329748651213,0.0318755538935641,9.74370515229512,-0.005369135390612,0.0001521576896772,-0.006832514617731,9.138955420599592,3.7345100383255687,2.0978823865279748,1112.636545172368,1095.5921247109525,1098.948446955252,1106.8375819643377,-467.5711597143322,667.650389793214,-73.11297617263618,159.95336020615463,158.38839740469882
47.745,-1.3063211314564083,0.4787669099647522,-0.2805758742723126,0.007453470574397,0.0152758533612154,0.0060551108262227,0.0034083807918871,0.0006461381175206,0.0212318437714233,0.9997683700783182,-0.0128102645027174,0.0337211528217619,9.746742438382526,-0.0054578996023727,0.0002003392143413,-0.0070212845617043,9.13894425237859,3.7345088989480018,2.0978654483724846,1111.3649263887048,1097.1214379244916,1098.8069926279911,1107.3452089870257,-538.1525917554402,566.8121770295612,-21.39367004869015,279.41464098102443,158.3864631715017
47.7475,-1.4118179401086184,0.0855229699910994,-0.3220861053695227,0.0031925190643062,0.015058122120806,0.0050549492309353,0.0034455799800312,0.000624707624925,0.0212092725953106,0.9997687284612784,-0.0108216585241501,0.0352222991798568,9.749824629053672,-0.0055436461306615,0.0002555287250649,-0.0071943077012137,9.138929986710814,3.734508570139483,2.0978475646040833,1109.9457822135892,1098.4261855961015,1098.8414786050084,1108.2346551692435,-552.0396928844452,454.1804372604879,56.08986434701224,428.6053684165008,158.38447426677695
47.75,-1.4498837383910124,-0.2660790752103216,-0.3468892915347803,-0.0019419357220891,0.0128937830973917,0.0035948491829411,0.0034736327095124,0.0006166148023412,0.0211909943116493,0.9997690139530232,-0.0088304459931408,0.0362394403669929,9.752907433972275,-0.0056218813234497,0.0003162791178029,-0.0073499818618595,9.138913529962448,3.734508510644398,2.0978282626451006,1108.6047279242812,1099.3923401107952,1099.0874419497263,1109.4882358291093,-478.4942830958048,283.1910730110696,153.49414218199263,584.887206821927,158.3824439967876
47.7525,-1.3946256843365656,-0.5161683898357742,-0.3523314465958993,-0.0068510985692471,0.0095686045622237,0.002239662311071,0.0034827515874947,0.0006224559620075,0.0211826104978245,0.9997691391370032,-0.0068809600855386,0.0365630435964833,9.755945041636169,-0.0056883384327202,0.0003811503410932,-0.0074867962211956,9.138895740486385,3.734508364141367,2.097806879523115,1107.5533107981123,1099.8421409611556,1099.6089493159177,1111.1590912033505,-371.1309245260884,74.96554087770876,282.0221218865676,801.1684158175734,158.38036869196944
47.755,-1.2362740704418484,-0.6755556348955635,-0.3488435591597804,-0.0115706706772973,0.0055388333556429,0.0010996807066881,0.0034693531587869,0.0006446405807736,0.021184712047466,0.9997690987746763,-0.0050594485656806,0.0361111893072995,9.758889986731267,-0.0057391981540298,0.0004485129160956,-0.007603584204371,9.138876181474,3.7345086784249113,2.097782939629475,1106.7490733016496,1099.767167815184,1100.4975525591599,1113.4940779081992,-223.58664479881935,-114.95002047125612,351.3345135442272,872.6332484717286,158.3778324894103
47.7575,-1.0554827305887746,-0.704256659524434,-0.3510693257235806,-0.0140247604724298,0.002889759736952,0.0005688475214986,0.0034320999341345,0.0006826980702464,0.0211965199554755,0.9997689129001844,-0.0034025699376651,0.034851130425428,9.761695688635156,-0.0057713898651104,0.0005166502091917,-0.0076997632698393,9.138854407214586,3.734509065317852,2.0977570222229276,1106.4353775741179,1099.2673908587992,1101.3656218836395,1115.5222574457111,-80.94388285847428,-256.10781723199227,344.84079651442227,771.5596170190306,158.3756851421498
47.76,-0.86125774659294,-0.6649479034342815,-0.3730824276763694,-0.0150418832539313,0.001260932960986,0.0003268299212815,0.0033729980245975,0.0007314087680763,0.0212168879378248,0.9997686027368324,-0.0018585221782319,0.0328203392144147,9.764318288009155,-0.0057828991827097,0.0005837680825573,-0.0077756121715298,9.13883109423858,3.7345095259043135,2.0977295467206214,1106.3443538873576,1098.4866287290251,1102.2217565417304,1117.3518759932908,-37.94929181724788,-357.5680768867177,339.41509744759884,696.2756579751916,158.37350752139307
47.7625,-0.6396848264213073,-0.5961253035852075,-0.4294101093201367,-0.0156726605697342,0.0002885644924656,9.372136277460817e-05,0.0033001022271274,0.0007848989332295,0.0212455317089156,0.9997681529842968,-0.0003635773554028,0.0301812651189207,9.76671826603209,-0.0057729486864448,0.0006479629315547,-0.0078325528874009,9.138808587166723,3.734510070055237,2.0977019355980966,1106.2456311150315,1097.4795504743647,1103.0626973708784,1119.0036357355891,-67.89265023859281,-345.6291042359276,256.0692939222517,482.97084048711287,158.37086459005357
47.765,-0.4665977040419064,-0.5573304307478225,-0.4966925838437037,-0.0164916658364617,4.9552849396583575e-06,-0.0002906081100594,0.0032226002551168,0.0008346601715298,0.0212816314762471,0.9997675614832598,0.0011967315289887,0.0271245850572161,9.768863393004915,-0.0057420727670627,0.0007072685005626,-0.0078732264231609,9.138788010819638,3.734510466149656,2.0976750418363075,1106.0048906361646,1096.7584832078446,1103.5021030113423,1119.7667301957276,-153.07137932209395,-234.78863890758,105.07667541237886,165.32120242483444,158.3686408574099
47.7675,-0.2929345413280716,-0.566315432688516,-0.5673475192841735,-0.0178375841653848,-0.0001326750352837,-0.0011656425561738,0.0031536546730442,0.0008738084790457,0.0213190532984791,0.9997669276273068,0.0029075858156822,0.0239263381832667,9.770730160549354,-0.0056918832131036,0.0007595268402279,-0.007901484968721,9.138768950838584,3.734511033990735,2.0976500404075087,1105.4802742184215,1096.3056072798279,1103.58808074794,1119.8302417477123,-296.17949973215525,-129.06518679845013,-48.071766093083134,-115.54819345754822,158.36639892943816
47.77,-0.0685773130844705,-0.6411924721642602,-0.6238671560434843,-0.0193620232011074,-0.0005985368588724,-0.0030547151506115,0.0031069696596782,0.0008999908795356,0.0213483301260669,0.9997664197671589,0.0047690130437084,0.0208818309714923,9.772305750671123,-0.005624776742687,0.0008024519641178,-0.0079221970120182,9.138751315795519,3.734512397445117,2.097628265770387,1104.523993137503,1096.113157273852,1103.2617441808768,1119.1889892284396,-387.1063958904253,-24.154163698527928,-183.49364088676043,-325.2327910078903,158.36369172774803
47.7725,0.1336717325867395,-0.7476806587015055,-0.6221841813389302,-0.0199558244703133,-0.0015582345321897,-0.0053731017867932,0.0030889981421976,0.0009107711060213,0.0213602822466958,0.9997662223638584,0.0067848818948731,0.0181508684102462,9.773589881177031,-0.0055437797134395,0.0008338550389026,-0.0079407862921754,9.138735100735872,3.734515245879511,2.0976096431043114,1103.5447422389686,1096.1848364613352,1102.6706125435055,1118.2040777926723,-393.67697167785417,45.99202856229203,-282.3300195083287,-443.2799156224912,158.36142443210124
47.775,0.3416487238839719,-0.8745048903558478,-0.5480473365106566,-0.0195276042500322,-0.0034055753201785,-0.0081098683388627,0.0030947561597091,0.0009105923401931,0.0213535033586047,0.9997663736677762,0.0088269075688955,0.0156778491040569,9.77459514021842,-0.0054522205672229,0.0008519421309709,-0.0079628170661741,9.138720066185703,3.734519792793479,2.0975934872390942,1102.5556082791156,1096.3431174166633,1101.8500940833364,1116.9725896503292,-390.1572900982778,44.302846500500046,-382.18125584856807,-548.9261501113026,158.3591483518972
47.7775,0.5775940180839922,-1.0126775279469344,-0.3728162363820988,-0.017840626891448,-0.006690971256008,-0.0108100525625036,0.0031183087659979,0.0008993491214235,0.0213296900545393,0.999766851512102,0.0108629763298123,0.0133908491710017,9.775345040452356,-0.0053537398284311,0.0008553084417114,-0.0079934352992328,9.138706206151063,3.734525488434615,2.0975793617828646,1101.5939557884763,1096.4063506938376,1100.759706264262,1115.4594470421143,-285.093628146196,-29.500502262802367,-393.9495633140526,-532.287043162342,158.35640956911232
47.78,0.7491168230072808,-1.091585152051121,-0.1706043991576235,-0.0155826286111495,-0.0099545151339385,-0.0119762917295124,0.0031460910944918,0.0008734840956655,0.0212951584426667,0.9997675596431465,0.0129335715847994,0.0110703573416206,9.775873294176332,-0.0052521031487009,0.0008432480976674,-0.0080370166007063,9.138694034339087,3.734531261290776,2.097566469995728,1101.130140138384,1096.1956149053492,1099.8803462667652,1114.311154434516,-92.620453424836,-166.99322787450637,-322.91493337258805,-416.955769660778,158.35412239559778
47.7825,0.8866334955240033,-1.1141335187379975,0.0575448790481244,-0.0128792007485055,-0.0130826593208903,-0.012009576839929,0.003170448163327,0.0008310270507612,0.0212552144870953,0.9997684049663456,0.0150587381492389,0.0086149300566158,9.776220290317424,-0.0051509397375948,0.000815561311245,-0.0080969675023657,9.138684296705351,3.7345366844514007,2.09755505316051,1101.1308535213525,1095.571384554466,1099.1451315974005,1113.3746681938123,81.82525074185283,-327.893236666128,-259.34066709565207,-337.1853444347474,158.35183117254627
47.785,0.9989670355968568,-1.083998408281352,0.2799803543318685,-0.0104595163124622,-0.0160124209944093,-0.011301555160877,0.0031877195596926,0.0007766219649692,0.0212131038681371,0.9997693221108044,0.0171386360661933,0.0060046761801064,9.776431019761674,-0.0050533902471671,0.0007725585009208,-0.008175529262883,9.13867687371706,3.73454177197848,2.097545417959483,1101.5392663920932,1094.5561487220175,1098.5836429312862,1112.6252277123415,251.2553455609201,-494.7329636627471,-177.65891512585773,-262.7367190497827,158.34953684238667
47.7875,1.09126176176673,-0.9893011725890236,0.4657195516606771,-0.0087283001832987,-0.0187371393201802,-0.0097579728863259,0.0031947613054228,0.000719350750011,0.0211741954754842,0.9997701982035488,0.0189940230856718,0.0032309861129916,9.776552717552768,-0.0049618276790261,0.0007151072453812,-0.0082734821275622,9.13867052860824,3.734546241096624,2.097536581858374,1102.3871302491575,1093.097719736151,1098.2568370217707,1112.0609845985628,445.0274765390032,-713.5984601941924,-91.14289897346784,-221.8962370077151,158.3472384870162
47.79,1.1854195534393794,-0.8050647261997558,0.6175940968754406,-0.0064758170593332,-0.0215413654371524,-0.0069531173960256,0.0031929273370827,0.0006687928757521,0.0211424628864164,0.9997709371011584,0.0204437024089779,0.0003716436199559,9.776631488148094,-0.0048777171932106,0.0006444556789367,-0.0083898998800238,9.138663971430791,3.7345493896084183,2.0975269178368925,1103.7644037747864,1090.98815642105,1098.127928436419,1111.515746527304,537.3675772478216,-796.7457750943613,-7.496530706244615,-189.8358653500447,158.3444747186066
47.7925,1.2435349318622624,-0.5987328386332345,0.675999819736627,-0.0039362525633505,-0.023458807967507,-0.0044123710481701,0.0031866970151775,0.0006278970942074,0.0211204280577599,0.9997714691487825,0.0214420263404937,-0.0024399599306402,9.77670935983808,-0.0048016927926493,0.000562117534498,-0.0085220533636287,9.138657114716434,3.734550546041688,2.097514490099792,1105.0739681353982,1089.1139908606772,1098.2193543682395,1111.111805271812,526.3680819950457,-720.6275415418028,73.82188477887073,-161.47489963101103,158.34216548980666
47.795,1.2628078328743655,-0.3480824846266801,0.6700606472564204,-0.0006662635348122,-0.0247972941713436,-0.0023688066855766,0.0031818464334106,0.00059736126016,0.0211090882812144,0.99977175663953,0.0219911733350926,-0.0050495917301825,9.776821851955942,-0.0047335593657206,0.000469675948088,-0.0086656803309317,9.138649479051097,3.7345497419681584,2.097498216045017,1106.3962441847627,1087.3850187133392,1098.4970378603139,1110.7083720291484,560.6136275881096,-667.0533573168696,165.4588830351399,-181.47846436666572,158.33984798411302
47.7975,1.219734624484126,-0.0128418333806757,0.610951976776112,0.0038326659655221,-0.0253315346489702,-0.0006687143544271,0.0031853434861229,0.0005757166517266,0.0211056420647782,0.9997718395678488,0.0221381628135711,-0.007284767859836,9.776995869467918,-0.004672427604319,0.0003685100545834,-0.0088154305609562,9.138640419249802,3.734548128036717,2.0974775848682645,1107.8770362733362,1085.7787240740959,1099.0466487834144,1110.2044129499795,518.891900531442,-477.1743437569344,240.7056686394886,-184.38727662582667,158.3370551952264
47.8,1.12065943710134,0.2813569030575446,0.536919705292599,0.0075082512801527,-0.024811469034997,0.0002581608051893,0.003198675586514,0.0005556380381239,0.0211066734346463,0.9997717895035036,0.0220431864766178,-0.0090873399568329,9.777248648787928,-0.0046169829623427,0.0002597840251153,-0.0089654049932342,9.138629397978816,3.7345469371237026,2.0974521084483295,1108.9907036874215,1084.9991469945533,1099.700566203512,1109.7864356460188,425.25591891281766,-175.7280864937467,304.68889804099365,-154.43212471951767,158.33471664809977
47.8025,0.9603278080015476,0.5763248150806684,0.4544263528010324,0.0104354150662692,-0.0235243737839343,0.0009492538293664,0.0032247322812618,0.0005294771647436,0.0211093102446622,0.9997716620184997,0.0218733951501906,-0.0103770918828685,9.77758681021732,-0.0045656778147179,0.0001443488104628,-0.009109859553656,9.138616261759967,3.73454688328052,2.0974225387721,1110.0033158679012,1084.9000836416267,1100.57009327362,1109.4322523263816,436.7121800373176,107.80902436950583,425.1355896350789,-120.63838348101002,158.33236504455388
47.805,0.7160117970725649,0.9190619120168584,0.355867099810139,0.0127364466857829,-0.0214250989684055,0.0017858761378234,0.0032603334762449,0.0004951023510198,0.0211127305869797,0.999771484865998,0.0216850525595721,-0.0111957650231266,9.778007279256489,-0.0045169425807311,2.3039380445308246e-05,-0.0092438652807071,9.1386014882848,3.734547406585365,2.0973908906779486,1111.174264587606,1085.5381921164003,1101.8262441516852,1109.1832437286143,432.0754602417828,338.4456100277108,480.1891124789834,-47.71895768892424,158.32952674606787
47.8075,0.4854586081672461,1.187889675691696,0.276243059072148,0.0138898756746312,-0.0192197728949874,0.0025805212501832,0.0032975369706405,0.0004529449821537,0.0211161211127056,0.9997713000655472,0.0214815396699842,-0.0116829220115627,9.778498155683623,-0.0044695312279805,-0.0001031841828411,-0.0093637113772936,9.13858578426918,3.734548271637416,2.097358029993526,1112.1636931691114,1086.592311691766,1102.9710388360163,1109.1936575379368,402.64434702846614,490.6811877363216,447.5025660773538,59.41472481605759,158.3271471606367
47.81,0.242907248885949,1.4278572947381671,0.199802771317229,0.0143893048907276,-0.0163523053629664,0.0033508780881616,0.0033322735526127,0.0004053505523105,0.0211202828136919,0.9997711032311792,0.021229627447919,-0.0119076909053043,9.77903990678949,-0.0044227393241656,-0.000233253279467,-0.0094671189745015,9.138570485079981,3.734549155424952,2.097324884302275,1113.1874863227495,1087.9915980550832,1104.0637569820733,1109.4803173526948,409.2230165707035,583.9891341767125,400.6239585329246,159.3194874194153,158.32475216668269
47.8125,-0.0017116587588809,1.6319090213034195,0.1278325757065484,0.0142954687731342,-0.0128459141228129,0.0038406868780098,0.0033655435512968,0.0003589318292188,0.0211265377196078,0.9997708614145312,0.0208141993601318,-0.0118445481136454,9.779607541619152,-0.0043764099384469,-0.0003659534416938,-0.0095533226183562,9.138556946923416,3.7345498320668975,2.097292538500354,1114.209808251963,1089.512257362647,1104.974158628679,1109.9902549750332,390.3443955606148,601.5404637813857,289.1973506344486,243.96226391231167,158.32234423039748
47.815,-0.2450469990464539,1.775245207918854,0.0656386877703868,0.0136646792491424,-0.008554607822681,0.0038470770640504,0.0034004755425816,0.0003225266963508,0.0211351254011645,0.9997705590352348,0.0200773378211413,-0.0114317596191451,9.780173096349948,-0.0043308358320448,-0.0004998510572162,-0.009622960370007,9.138545245604968,3.7345504181507194,2.0972623768767944,1115.1392083005508,1090.9993003739871,1105.5097437352442,1110.7001286722552,355.0812140744713,611.8425038442691,123.8269268759544,327.50312540853497,158.31992069012142
47.8175,-0.5375248056805261,1.855855672310352,0.0064012285735354,0.0127294673382038,-0.0028012350974966,0.0034871137611541,0.0034405312039088,0.0003033271542329,0.0211438772976437,0.999770231089141,0.0188936923163619,-0.0106081197634812,9.78070798576899,-0.0042865912281222,-0.0006332475286684,-0.0096777733934839,9.138535156811455,3.7345508894312625,2.097235380903942,1115.9852143223363,1092.57146988187,1105.5932932630592,1111.6277706020767,241.36533582333345,525.9339378852056,-64.93579200379233,325.7610573701338,158.3169941881467
47.82,-0.7841307180599376,1.8361386625212643,-0.0313706133791272,0.0115675996810582,0.0021611557987968,0.0030538120626461,0.0034818111369629,0.0002995604525982,0.021150878074107,0.999769931835532,0.0173107960605926,-0.0094664970603265,9.781185542967732,-0.0042444325427507,-0.0007639831146496,-0.0097201384363821,9.138526167697101,3.734550728332696,2.0972109342525784,1116.346034979668,1093.6289700634147,1105.185064775225,1112.3289339591067,52.533068689128896,363.8298280094785,-244.7138643889,237.08292948075456,158.31453968001514
47.8225,-1.032054466689562,1.7219485572427544,-0.0651422154607599,0.0097813611727131,0.0071302975979681,0.0027806265185286,0.0035207568723432,0.000305558935263,0.0211559550824543,0.99976968014284,0.0154534278699991,-0.0081009181989038,9.781582703320188,-0.0042050329039393,-0.0008895938603419,-0.0097526668558124,9.138516930495289,3.734549319286784,2.0971880007266934,1116.2478796657815,1094.3906190219157,1104.3697239411158,1112.8131852494791,-155.194021025193,270.7925970172234,-410.6722562998302,145.12027073130264,158.31206767699297
47.825,-1.3207144719413155,1.4843687969485695,-0.1161400241973157,0.0073168766136294,0.0126231802577328,0.0029043477913679,0.0035537442455344,0.0003174318999729,0.0211592950614965,0.9997694889019187,0.0134127752983415,-0.0066116304084141,9.781881765006148,-0.0041688354564211,-0.0010074175321626,-0.0097779287984338,9.138506281078959,3.734546019124695,2.0971651565331966,1115.5700648745417,1094.9829330485015,1103.131703493725,1113.0545353127636,-333.8644767653588,172.07948012556082,-457.346769098506,33.99373071695743,158.3090791206537
47.8275,-1.5381280690158532,1.2193810558608476,-0.1771954536965251,0.0048596965045147,0.0162865732001504,0.0032788939978335,0.0035743201595692,0.000331059154866,0.0211638992764958,0.9997693194586996,0.0112847364597161,-0.0051592176942613,9.782071776546072,-0.0041362281831876,-0.0011147107188749,-0.0097983102263356,9.138494629063766,3.734540145450554,2.097140752410985,1114.578557281954,1095.251016422544,1102.082990095622,1112.9831539030642,-465.2371399492633,73.35727515276025,-371.9438571846894,-62.04678423215414,158.3065684001911
47.83,-1.6987955900456384,0.91442330363501,-0.2605992458462687,0.0011538432309642,0.0186102688203029,0.0034350723478731,0.0035843645258217,0.0003433843088422,0.0211677246799021,0.9997692065250996,0.0091494027877559,-0.0037445420796331,9.782148592042097,-0.0041076962130525,-0.0012092195070787,-0.0098160783936348,9.138482913270977,3.7345318699886927,2.097114894248277,1113.2438791747975,1095.349719424265,1101.2719842078031,1112.7443013916031,-638.4452213725043,18.38827920400004,-249.5983997500476,-95.74210578252509,158.30403405888867
47.8325,-1.7767494092310456,0.5387231158828374,-0.3755051359624818,-0.0048170060104182,0.0198106789110712,0.002826123602667,0.0035840686474657,0.0003542557513283,0.021169425408381,0.9997691765387746,0.0070309971654257,-0.0024027360236157,9.782116019372522,-0.00408390047129,-0.0012892598352676,-0.0098335970440402,9.138471650644854,3.7345221153560018,2.0970892223270527,1111.38633117509,1095.342957818564,1100.8349980968712,1112.5044433741512,-704.6571717585754,-15.34272623465892,-46.81042528402365,-40.82138310507347,158.30096198073787
47.835,-1.714732141912634,0.237521598370435,-0.4690950653392575,-0.0104005005733275,0.0199518543018879,0.0018049332897814,0.0035691178665614,0.0003660755012221,0.0211716711029797,0.9997691863809284,0.0049036636604972,-0.0012568280945538,9.781986193667613,-0.0040656885678444,-0.0013538957322266,-0.0098534074929674,9.138461568513074,3.7345115567988505,2.0970649527564316,1109.7205933160028,1095.2730057930917,1101.037932081383,1112.5401944760777,-672.3595152636084,-35.13570011490186,200.02188584021496,98.60523671181782,158.29837333712777
47.8375,-1.5023346061819711,-0.0405292109563535,-0.5413482519814813,-0.015860774552127,0.0197749071935973,0.0004875383657344,0.0035405442327553,0.0003821426318803,0.0211743322144592,0.9997692329823006,0.0027278497909982,-0.0003239175306021,9.781778624308496,-0.0040540073226308,-0.0014033428710065,-0.0098780698057267,9.138452949547924,3.7345008168606633,2.0970425918068374,1108.0245335987747,1095.1672793179896,1101.8351075260712,1112.99746955771,-672.7299114538905,-46.02727988074013,393.8183503019704,261.2849983402639,158.29575175315247
47.84,-1.1702121265262166,-0.2991035511240593,-0.5823605332626952,-0.0206955980846765,0.0193520488423591,-0.0010658168957794,0.0035040146958741,0.0004019695827151,0.0211744237835207,0.999769358394094,0.0005413689498583,0.0004706536668694,9.781519757796593,-0.0040498128962005,-0.0014390080219302,-0.0099098770944295,9.138445281386408,3.7344907850590174,2.0970218514381878,1106.3569437587316,1095.0428693936879,1103.0070238328935,1113.8466194677796,-648.8891928390194,-54.027313819524,504.6547595968296,418.4462565260352,158.29310070782137
47.8425,-0.7242512409259435,-0.5371850780714656,-0.5718520819703586,-0.0241186607211403,0.0184513181609264,-0.0029470008706998,0.0034661704255618,0.0004273415537448,0.0211719996646315,0.999769537504466,-0.0016609507745881,0.0012258398600251,9.781242372015182,-0.0040537953633431,-0.0014633141370566,-0.0099506388040743,9.138437670938233,3.734482338759423,2.097002619156119,1104.780087634578,1094.8971427488918,1104.3583813240568,1115.0897008403413,-658.1994261190705,-70.92685980271283,549.527364933146,590.9929113181905,158.2904119480062
47.845,-0.1236196555140698,-0.8020553205897198,-0.4892039875882609,-0.0258978502253397,0.01670166206303,-0.005441668979706,0.0034339159579332,0.0004561132468518,0.0211680992696893,0.9997697260959192,-0.0038067814833128,0.0020497785377264,9.780984623352381,-0.0040664116780259,-0.0014795172396858,-0.0100013863970946,9.138429643307699,3.734475805033477,2.0969840436087805,1103.0659466281393,1094.6882350946746,1105.7546606575568,1116.801584024368,-588.0354095581599,-84.88816574013276,415.0408266697164,619.7040469767684,158.28713954125124
47.8475,0.3714954445919893,-1.0056547933627522,-0.3635480302266239,-0.0249765511048805,0.0147930276421672,-0.0072878450358451,0.0034091140731475,0.0004805892501653,0.0211611186973072,0.9997699538192172,-0.0057175624490205,0.002956244938376,9.780789303241487,-0.0040879048397121,-0.001491345443297,-0.0100622141130945,9.138421650916168,3.7344720767582658,2.096964509060044,1101.839910586786,1094.4727019201907,1106.4335854574065,1118.1882210752267,-436.9604356999427,-99.09096147434344,123.79493057435899,494.2327710171157,158.284373009371
47.85,0.7915168959893547,-1.1885981168424316,-0.1943473305210772,-0.0214868052526426,0.0126970414309434,-0.0083133065337434,0.0033905702306641,0.000497789888378,0.0211515602436761,0.999770214262666,-0.0073091174021909,0.0039082259944585,9.780701998821128,-0.0041181226532513,-0.0015026250157209,-0.0101323692205343,9.138413286771977,3.7344716520161407,2.096942603992168,1100.8811444496384,1094.1927802873026,1106.373635310429,1119.2727478794548,-350.6929675129874,-143.25454194567396,-205.5306945721036,364.3246591153132,158.28156439982132
47.8525,1.1570888434649647,-1.3728575535458825,0.0287317598168269,-0.0157789320544412,0.0094997096609349,-0.0086385249415026,0.0033741819669024,0.0005065400104189,0.021142973569168,0.99977044733471,-0.0085353861202889,0.0048195725896759,9.780769675485459,-0.0041565941394118,-0.001516816557855,-0.0102104516334279,9.138403637108071,3.7344733614888215,2.0969179325573646,1100.0864457492223,1093.7564292104632,1105.405931984547,1120.0098443708016,-228.04190672229356,-179.1811190155833,-476.0294277292653,163.97965512079077,158.27814482265427
47.855,1.3403027797242935,-1.4820131950232127,0.2060714841223984,-0.0113511563166031,0.0057731852897569,-0.0079953057797661,0.0033526348420986,0.0005072773666066,0.0211402506226596,0.99977057433531,-0.0093856179279255,0.0055482747075202,9.78103938362732,-0.0042026240620031,-0.0015366118533204,-0.010294777827102,9.138392574558717,3.734475788748069,2.096890072077656,1099.7409349160264,1093.2968746922243,1103.9934881717816,1120.0926461550591,-69.99876835071575,-202.8265216155304,-623.9228974883181,-66.76997750042796,158.2752541192302
47.8575,1.422827330734446,-1.5266151201762255,0.3470770873454323,-0.0081917126195443,0.0012965498440408,-0.0062807842922127,0.0033263814119266,0.0004997970497508,0.0211447507476704,0.99977056431323,-0.0098366516113402,0.0061089463577493,9.781556159181097,-0.0042554781660975,-0.0015639593091344,-0.0103837477678064,9.138381975472189,3.734478192192872,2.096859863337332,1099.7364519074688,1092.742296602385,1102.2863174971037,1119.6759944832993,77.60347111395969,-258.09285725318483,-721.1777896385422,-261.4714710386684,158.27232129049278
47.86,1.4485761443821528,-1.4967650396832064,0.457453809224796,-0.0054874709106654,-0.0040620173144852,-0.0038857189509445,0.0033002803659033,0.0004864175947756,0.0211568393549227,0.9997703921406824,-0.0099169558609429,0.0066069721831876,9.782362195566234,-0.0043143537850967,-0.0015999046538836,-0.0104762518986251,9.138373442987204,3.734480299399338,2.096829173630623,1100.1289522715958,1092.0064104059595,1100.387599223592,1118.7852887998667,208.9835287299433,-271.03908138560433,-603.788325320293,-356.32945432498633,158.26875442402607
47.8625,1.4310191334248488,-1.4081979940712668,0.5027107565403282,-0.0034239520567065,-0.0079111949845144,-0.0022180788702135,0.0032783411884673,0.0004753131167827,0.0211767445557599,0.9997700362622058,-0.0097747290808971,0.0071354717645924,9.783496343981016,-0.0043781221234907,-0.0016444994506351,-0.0105718842917637,9.138366384266224,3.7344814999782896,2.0968003420040464,1100.781369551119,1091.3871011954564,1099.2673758705007,1117.8943472116734,323.3501247413352,-231.90284726935676,-294.9455553018961,-347.70997606165514,158.26574382038046
47.865,1.3777380472197684,-1.2705965700516697,0.5152265101730461,-0.000657163501606,-0.0105693668453107,-0.0011136321309404,0.003265556776355,0.0004756740271152,0.0212010506302718,0.9997695492579328,-0.0095833721689313,0.0078073637591654,9.784993304288145,-0.0044451568428996,-0.0016969581991906,-0.010670755167448,9.138359539693646,3.734481493329023,2.0967750214934084,1101.745702895303,1090.846896169612,1098.912871447082,1117.0467389195578,429.7178989252004,-188.70068628633695,3.058935302172412,-311.6806316764375,158.26269570043175
47.8675,1.285548767135362,-1.1047775634227472,0.5154353676426776,0.002794192625331,-0.0125597953193572,-0.0003966242722841,0.0032610087410814,0.0004919263368615,0.0212247329942029,0.999769038976617,-0.0094318702568254,0.0086165407152247,9.786883595064696,-0.0045133176925043,-0.0017556368302894,-0.0107730420344483,9.1383516625838,3.734480125912032,2.096752829282459,1102.929959045743,1090.4435977640255,1099.2826705470115,1116.3359440532927,512.1724827814086,-113.64533218091861,312.2244067586274,-244.0301814005695,158.2596184916014
47.87,1.1326800462769062,-0.909839655543712,0.5140516221377455,0.0064992679677138,-0.0146140451509702,9.351172989428928e-05,0.0032625830020448,0.0005216386066135,0.0212449738659684,0.9997685739486396,-0.0092821678768739,0.0095279044505807,9.78919210321067,-0.0045800640050705,-0.0018182624040754,-0.0108784326575297,9.138341257077215,3.7344775715117984,2.0967324683556794,1104.3065653092117,1090.2786695087073,1100.4739934808758,1115.8265880125543,626.3490639740645,-9.037372748020895,667.0683187944403,-190.23992771444043,158.25650916906105
47.8725,0.8726949551057867,-0.6375449743378782,0.5151499649389226,0.0103114155640421,-0.0171778050997607,0.0007905152277557,0.0032669576916306,0.0005585935566623,0.0212576122920902,0.9997682580779732,-0.0090294985809257,0.0104771632906619,9.791936754893134,-0.0046426338178279,-0.0018821271258535,-0.0109857352631587,9.138327744650356,3.734473624275552,2.096712457279552,1106.061704365615,1090.3984109002852,1102.6180121409855,1115.38474441472,642.1053246634002,91.56624926230648,855.1576341388273,-153.81656826003,158.25274535089778
47.875,0.5989099166755154,-0.3750057189199915,0.5119478827354716,0.0125543292560865,-0.018928334997363,0.0017164640433482,0.0032669857986766,0.0005909716517247,0.0212626383875123,0.9997681216567602,-0.0084674289196538,0.0113181911541476,9.795127592796728,-0.0046984905132394,-0.001944144830827,-0.0110926604249536,9.138312717739913,3.734467729129395,2.0966913698297045,1107.5170919325255,1090.7365007550184,1104.749781651566,1115.057505171255,560.6232476383508,164.8259302701852,859.4109639773792,-147.09886570417174,158.2495852637652
47.8775,0.2841940084072113,-0.0778850856210733,0.4889419387760193,0.0139865621378925,-0.0199499481366709,0.0031958107836034,0.003259469587666,0.0006096320841982,0.0212612035990309,0.9997681576650438,-0.0074462470378428,0.0119782731765342,9.798764459540688,-0.0047454657494795,-0.0020012637906543,-0.0111958804805885,9.138297105970839,3.734460335380344,2.096667710970795,1108.8648206038042,1091.2225405516356,1106.9150669608684,1114.6492500861996,551.2594562070169,216.54152461904067,895.5099268605829,-213.26415868782533,158.24640481133753
47.88,-0.1101979942025145,0.3050871592786786,0.4204312921954916,0.0147269014865132,-0.0201598386471472,0.0055237508683768,0.0032420151066099,0.0006140340868139,0.0212577018420178,0.9997682827736442,-0.0059894684273589,0.0123992368093804,9.802836149612183,-0.0047818001413987,-0.0020506104233091,-0.0112913329438162,9.138281166094835,3.7344517616669326,2.096640728225388,1110.2733892135623,1091.819208378114,1109.2273312858713,1113.9911843778152,474.7015359973675,200.88118233528527,768.1687010734257,-265.7573786429116,158.2425687269713
47.8825,-0.4246205191688277,0.6296452924501938,0.3241649270353743,0.0141798456933943,-0.0193776971151869,0.0074807811259213,0.0032095834607683,0.0006099130826079,0.0212596239484558,0.999768350245814,-0.0042489900105954,0.0124694477444448,9.807320393864728,-0.0048062566131688,-0.00208961310685,-0.0113746144884504,9.138265139543137,3.734441348485937,2.0966105771768317,1111.2383282837923,1092.2269464633123,1110.7559104662375,1113.3204631929843,340.5041367993731,132.17675336466726,512.9354030061339,-272.61882580080294,158.2393581007456
47.885,-0.6867391018211603,0.9338985105575716,0.1970578793924119,0.0123898327883567,-0.0174668764675924,0.0084962750605503,0.0031665164265594,0.0006017062028344,0.0212701709426155,0.999768272941334,-0.0023509328450969,0.0122573558297675,9.812182831617,-0.0048182854590672,-0.0021165610481816,-0.011441302105751,9.138249712751156,3.7344296008724087,2.0965782503325614,1111.9759098975576,1092.4800921449369,1111.7920083008996,1112.6280902488124,276.2335829569971,81.18188598069021,348.48688094203135,-270.4601815245477,158.23613530749995
47.8875,-0.9013051715487532,1.24259558488802,0.0353804606885072,0.0091604715455084,-0.0138600198574107,0.0082463689444449,0.0031214692916227,0.0005914384091265,0.0212931767611235,0.999767938900243,-0.0003744071419469,0.0119135262925604,9.817378075318468,-0.0048180092446551,-0.0021306673364383,-0.0114873316096553,9.138236511582448,3.7344173131779175,2.096544923387569,1112.619496198578,1092.632855893216,1112.4983448709484,1111.9681622853611,201.9745157771798,48.008359371918225,184.729776476248,-181.74365989557168,158.2322557494577
47.89,-0.9764491374455035,1.4317667885661012,-0.0883604038677525,0.005581199317886,-0.0100509673215317,0.0074218912142239,0.0030789555350669,0.000581996881824,0.0213307011448137,0.999767287562536,0.0015818897503251,0.0115078312086552,9.822851552839609,-0.0048059290778225,-0.0021320487708208,-0.0115092955745069,9.138225164411846,3.7344047531426554,2.0965110129242057,1112.985782476444,1092.7201339417963,1112.715657183281,1111.719371949334,120.00107325167846,57.96313950023247,32.45854939180614,-4.649135040658302,158.22901348587072
47.8925,-0.9374700580603273,1.5339104790880815,-0.1892257928013877,0.0015379901636598,-0.0059131669193368,0.0065804629754444,0.0030455481891077,0.0005780960517986,0.0213777052649514,0.99976640204966,0.003384188311952,0.0111533398633655,9.828540314336243,-0.0047826096653426,-0.0021219869105449,-0.0115045419651642,9.138214089304093,3.7343926627435464,2.0964768853309583,1113.2195015648358,1092.922671590717,1112.6606376179075,1111.9449166101579,77.25474491908838,125.628953417235,-51.43137252664116,182.57740069798027,158.2257620540508
47.895,-0.8181324231279241,1.559313122131804,-0.2707007125723923,-0.0017343108654251,-0.0016548879190776,0.0058642764507534,0.0030248470171301,0.0005804677985021,0.0214241295328171,0.9997654850340718,0.0049768737134666,0.0109068826153163,9.834375460069088,-0.004748668207298,-0.002102757394447,-0.0114712085208922,9.13820227933992,3.7343826493781527,2.096442034462448,1113.3720562010396,1093.348278708883,1112.458500320648,1112.6322589528245,46.31215204187716,247.62593890296623,-102.21077068508066,383.8613786627175,158.2225030275117
47.8975,-0.6407711379038376,1.4953550541197247,-0.3334444941351906,-0.0032275060657426,0.0023041379919851,0.0052623300205901,0.0030179859048269,0.0005888086329967,0.0214626465107703,0.9997646898953448,0.0063262974235839,0.0107816124226516,9.84028406496319,-0.0047047691713479,-0.0020773653807962,-0.0114083374871432,9.138188904622304,3.7343756617157657,2.0964059570424367,1113.4510623250453,1094.1608012852323,1112.1495837644818,1113.8642235034724,22.593951459314297,457.635796389202,-150.39606536679494,638.3359146631741,158.21923492347392
47.9,-0.4182682198483168,1.3277076326578117,-0.3931911997438488,-0.0033914191073401,0.006423062869292,0.0044506070234868,0.003017970795225,0.0006041229671384,0.0214930575033627,0.999764038496262,0.0073734426102275,0.0106374243776656,9.846191976588033,-0.0046517432220102,-0.0020490129188285,-0.0113160698350428,9.138174510995379,3.7343707450653927,2.096369630282892,1113.485025958336,1095.636457690827,1111.7065199938147,1115.8239385261375,6.414503119364228,614.9361315578553,-172.32037136136847,761.012442389594,158.2153035713093
47.9025,-0.2570588830541412,1.123845446135932,-0.4321904494145834,-0.0028907043839432,0.0093830367751928,0.0034544407806829,0.0030184245218753,0.0006253818230289,0.0215154705601868,0.9997635471447008,0.0081039180497372,0.0103520363421763,9.852025190750467,-0.0045908186076033,-0.0020209954548023,-0.0111956933051502,9.1381600076678,3.7343670772652966,2.0963343081198302,1113.483134840642,1097.2354819430232,1111.2879819076743,1117.6692857154223,-0.5666899258810019,686.7545821127021,-177.77373476583307,726.7066816697399,158.21202068989848
47.905,-0.1387873510583229,0.8676402918331154,-0.4609608662000395,-0.0024316547710024,0.011781408450139,0.0023285286093,0.0030194549946723,0.0006493996065115,0.0215305636802484,0.9997632030558076,0.0085537982819398,0.0099369101675742,9.857711387540538,-0.0045237071978903,-0.00199657996233,-0.0110495901098001,9.13814707374978,3.7343637467783175,2.0963014623264504,1113.4821925087067,1099.0702306013923,1110.817651319985,1119.457471934488,6.553665531015716,813.7006557093752,-216.5243207841436,710.7712192420976,158.2087330800317
47.9075,-0.0436287065832866,0.5167089918661305,-0.4854152538593416,-0.0022714362668262,0.0136785726818613,0.0011439037975993,0.0030236222430591,0.0006731706259295,0.0215389267581666,0.9997629905879916,0.0087625680190008,0.0094589075935299,9.863182266629998,-0.0044524475876111,-0.0019788032110851,-0.0108810529725782,9.138136657785616,3.734360253267893,2.09627238189347,1113.5159031682972,1101.3039852215663,1110.2053603037548,1121.2231418116296,18.882995750199715,786.954429581608,-226.71634052705707,549.2841113301811,158.20478611987537
47.91,0.0076578879531545,0.2001901546111298,-0.4980356825951248,-0.0024344051093016,0.0143747135224533,0.0002900925159914,0.0030353884911634,0.0006958260030638,0.0215406739611978,0.9997628988975568,0.0087346747979427,0.0090298042395338,9.86837515621121,-0.0043791001255559,-0.0019704466391253,-0.0106938926354176,9.13812778539701,3.7343571087163454,2.096247104826543,1113.5766074874575,1103.0050027493023,1109.6840696173492,1122.2038924911403,23.071419132508726,607.0289130878414,-199.66170811443376,271.7272312747783,158.20149878437476
47.9125,0.0447906330949697,-0.1290528291293444,-0.4995066631657348,-0.0026348183482304,0.0144366183586529,-0.0005960560028276,0.0030627847509858,0.0007156279135133,0.0215309084198396,0.9997630119963083,0.0084994985140701,0.0088370544990112,9.873233929245567,-0.0043055365622724,-0.0019740927917654,-0.010491897098425,9.138119050542295,3.734354786606072,2.0962253946702143,1113.6312602639598,1104.339129787007,1109.207051763182,1122.581777968004,2.002709337741183,469.2342619165349,-184.97356020842287,39.09159613903201,158.1982180830398
47.915,0.0862568100371246,-0.5264644779276751,-0.4783358897790037,-0.002792423682039,0.0138904585424154,-0.0019424906217169,0.0031046354668385,0.0007261925534629,0.0215052002347694,0.9997634305156412,0.0081808011665658,0.0088885498786843,9.877710875588493,-0.0042334244228816,-0.0019917178363511,-0.0102783755022604,9.138109451604095,3.7343537299297895,2.0962052886018916,1113.5866210341464,1105.3511740588829,1108.759201816308,1122.3993504718353,-53.975929018333446,261.4121198552793,-134.76847924769044,-144.17823043715444,158.19429533787036
47.9175,0.1239982426547955,-0.8481045079706995,-0.4317739530419104,-0.002807382236815,0.0126248040537641,-0.0034005076494712,0.0031560374164348,0.0007249613811557,0.0214653653890933,0.9997641291535788,0.0078319151755736,0.00912229122043,9.881766285345375,-0.004164134660162,-0.0020246124261149,-0.01005590088694,9.138098699769916,3.734354176767988,2.0961852527582256,1113.361380618868,1105.6461903862844,1108.5332093669433,1121.860886815818,-149.94159011781963,6.37086534724987,-55.39478479446993,-247.9771708815956,158.1910429671029
47.92,0.1673742187639167,-1.140553605707335,-0.3461936803998895,-0.0023874300688421,0.0103282406716633,-0.0050694912810329,0.0032107258549205,0.0007130391664032,0.0214180599512692,0.9997649811177024,0.0074394282914527,0.0094510816677971,9.885368063102156,-0.0040989130984287,-0.0020732344481536,-0.0098262451308678,9.138086836765217,3.734355740660989,2.0961638050513054,1112.8369130835567,1105.3830283856191,1108.4822278923355,1121.1594646174267,-268.0223177396947,-185.84415779149444,6.0751735266477,-271.16735681467725,158.18781324537792
47.9225,0.2157089525909962,-1.3914610894213286,-0.2282259149185092,-0.0015463036261571,0.0072744961731083,-0.0065025854435854,0.0032631612897433,0.0006893448668761,0.0213710771607595,0.999765836567467,0.0070390819167859,0.0097993088446976,9.88849121826276,-0.0040391642675479,-0.0021370749379284,-0.0095905084636016,9.13807523718093,3.7343575381945064,2.0961399720446567,1112.0212690301707,1104.7169695973275,1108.5635852345763,1120.505050031746,-392.31141709254126,-340.99065745522984,54.37941930424078,-217.0355512671703,158.18460606604938
47.925,0.2737402200825121,-1.5709312830467572,-0.0822024721557908,-0.0007338832438755,0.0034328166559055,-0.007139554015476,0.0033090554768625,0.0006553470626635,0.021331180074133,0.999766564306224,0.0066218585314815,0.0101133781471495,9.891117418257062,-0.0039864158932447,-0.0022145679722276,-0.0093495124998034,9.138065716098295,3.734358753448809,2.096114691849076,1110.8753559980933,1103.678075098342,1108.7541249888568,1120.0742868610903,-551.0214731013002,-510.2054248241648,90.30563621686197,-119.90412432213138,158.1814302685237
47.9275,0.3651547109476044,-1.679816254938574,0.1019298277920743,-0.0002631751105268,-0.0018510725781543,-0.006983566725946,0.0033443217013939,0.0006147497026561,0.0213021964978887,0.9997670960119136,0.0061390214251805,0.0103389229715325,9.893234739554558,-0.003942186200348,-0.0023030925330442,-0.0091041622456197,9.138058002309117,3.734358601196986,2.0960893358695607,1109.2661616646628,1102.1659424732056,1109.015113415661,1119.9055294101347,-589.4608815437455,-574.7223711159447,86.77710118348547,-12.496265509810195,158.17766058627552
47.93,0.466116316137996,-1.670025646840692,0.2444189872682086,-0.0001123605242952,-0.0064839055196745,-0.0062344811654161,0.003368228546112,0.0005756407687732,0.0212875213486316,0.9997673602985891,0.0054602530712557,0.0104824101075964,9.894837020169517,-0.0039077237066996,-0.0023991418754292,-0.0088556519546916,9.138051107976787,3.7343562426170234,2.096065350606749,1107.9280515903772,1100.8044632427648,1109.1880104947738,1120.0118055335413,-472.14398582526377,-539.9850882200064,47.216257558669376,62.17744571860296,158.174556925695
47.9325,0.5906833607605846,-1.5514477843442187,0.3575486525447815,0.0001711313058318,-0.0110042226178867,-0.0049881077010113,0.0033836825022148,0.0005470053341767,0.0212853972523147,0.9997673813818164,0.0044416829402191,0.010614055303441,9.895923569858637,-0.0038838776777447,-0.0024986055827236,-0.0086054243530027,9.138044887490404,3.734351004375612,2.096044193429848,1106.9054417355353,1099.4660170321042,1109.2511947034543,1120.216416638728,-302.75502667089285,-561.2485954413697,-1.8116173922398784,67.14626332487772,158.17149609224083
47.935,0.7459453008917672,-1.2920286293403496,0.4476656973699508,0.001124833720309,-0.0157177723889205,-0.0031772787119662,0.0033939963663133,0.0005280217677001,0.0212884344746935,0.9997673033098452,0.0031353837904514,0.0107985732215404,9.8964993596114,-0.0038711779492449,-0.0025970531644343,-0.0083549039197142,9.138038786946026,3.734343131882236,2.096024688914483,1106.414276457022,1097.9982202655567,1109.1789524078126,1120.3475368501659,-16.650074550231373,-505.67665488684327,-46.27771277941636,4.071325152612254,158.16787647842727
47.9375,0.8518579587688146,-0.99305944974323,0.4836787170751982,0.0027339967664743,-0.0186207041907589,-0.0017030605284232,0.0034020995300178,0.0005169206082658,0.0212907630180283,0.9997672408723844,0.0016129974817512,0.0110830336941026,9.896574822415108,-0.0038696708549782,-0.0026900495952341,-0.0081053454789246,9.138032107726513,3.734332799037108,2.0960059632174124,1106.8221913627842,1096.9376337576723,1109.0198061395577,1120.2367732644911,350.79317635727494,-386.8284619121703,-71.06935280578097,-98.65033579535398,158.16490737249293
47.94,0.8906651161030347,-0.6313125931197355,0.4854918298607248,0.0053908380623662,-0.0204045455258277,-0.0004662001022282,0.003408643700148,0.0005119839293917,0.0212918280170906,0.9997672042367088,-5.581911737559224e-05,0.0114602908593042,9.896165798270783,-0.0038789718434026,-0.0027734604672443,-0.0078577486840643,9.138024997064722,3.7343198993424775,2.0959875462315796,1108.1682423388067,1096.0640779559976,1108.823605643784,1119.8542851711895,782.2631341740451,-342.03453390728794,-75.82930994431747,-213.54031335461505,158.1619906780984
47.9425,0.8132584928302784,-0.151748644449468,0.4601943471728884,0.0095388370249316,-0.0214609237922325,0.000787258254056,0.003409176414288,0.0005098351737576,0.0212938006431542,0.9997671629058468,-0.0017719075610321,0.0118134888504168,9.895293645160992,-0.0038983634742907,-0.002843782778646,-0.0076128760131902,9.138017812646584,3.734304966716452,2.09596831436198,1110.7335070336565,1095.2274610881348,1108.6406595898359,1119.1690716977175,1049.4898831462795,-271.85628832380377,-45.51413675528637,-264.11025214051864,158.15855532989983
47.945,0.6255449898531925,0.267299852307496,0.424954245870994,0.0131916346887166,-0.0215506083363727,0.0017190150600371,0.0034026513166568,0.0005097951415958,0.0212970766492605,0.999767111736448,-0.0034903539765416,0.0120879442634656,9.893984073855929,-0.0039267583367252,-0.0028986294459955,-0.0073713714889265,9.138010558148252,3.73428902371184,2.095947791059394,1113.4156917545408,1094.704796514378,1108.5960349600075,1118.5337339104863,1103.4149069435475,-170.61442245228193,14.820892278307674,-235.34460750587215,158.15574955486187
47.9475,0.3139347795149008,0.6835242385389053,0.3835778538009625,0.0159422152740215,-0.0207779448163338,0.0025332692058064,0.0033917021838103,0.0005131365609765,0.0213017110009028,0.9997670409875616,-0.0052063659641045,0.0122982780507036,9.89226695499676,-0.0039627509301287,-0.0029369154125109,-0.0071339914564911,9.138002488424755,3.7342732164865424,2.0959262171977397,1116.2505815683692,1094.3743889758744,1108.7147640512271,1117.9923486601892,1180.95786340899,-96.7528566617562,92.17371560421103,-189.80316879300807,158.1530068331366
47.95,-0.1613663857471299,1.1470056155159982,0.3337504795969659,0.0170570472165794,-0.018573087392123,0.0031630975200229,0.0033813534450027,0.0005224428560296,0.0213074536363429,0.9997669403143452,-0.0069437284331404,0.0125048664393539,9.890176363746189,-0.0040046996769607,-0.0029588796015236,-0.0069018566551394,9.137992985601878,3.7342582348011257,2.095905188119568,1119.3204810715888,1094.2210322310689,1109.0569035380288,1117.5847180665207,1009.0496545150312,-14.581791812672051,153.26036026718955,-102.37596700639406,158.14979317561716
47.9525,-0.5946975485972584,1.4740398169700668,0.2937653104016414,0.0159503977098057,-0.0154065233442047,0.0033549104298996,0.0033788210234298,0.0005390422256102,0.0213118760139457,0.9997668386721233,-0.0087046192836128,0.0128110574285041,9.887750604257107,-0.0040508978980208,-0.0029659995556876,-0.006676544557508,9.13798233386642,3.7342448488558175,2.0958866841701544,1121.295829840947,1094.3014800168107,1109.4810658525637,1117.480468825157,626.087793421335,70.99139714898318,185.7701126044374,-0.0460738162474136,158.14718339448012
47.955,-1.0065898609872843,1.702537833387222,0.2499683271000172,0.0130525913678274,-0.0107437739691049,0.0035764397428063,0.0033840704791353,0.0005645579258959,0.0213105870380192,0.9997668280689688,-0.0105044590204094,0.0131793392206927,9.885033052772986,-0.0040997181187839,-0.0029606537267476,-0.0064600344512857,9.137970554895938,3.7342340696446064,2.09587063908587,1122.4509200386926,1094.5759892168135,1109.98575410105,1117.5844876974395,319.58826799274925,133.16353641146188,203.85623446726217,63.646207024261635,158.1446488600843
47.9575,-1.3628671081910015,1.8268064947992588,0.192705240366623,0.0092217564377649,-0.0051877238056487,0.0042130910935768,0.0033939524205384,0.0005961485759562,0.0213059469571601,0.999766867184706,-0.0122757379825901,0.0135134749340767,9.882071654831508,-0.0041498658817318,-0.0029457912255142,-0.0062543767688766,9.13795837652959,3.7342255133862734,2.0958565980753474,1122.8937711809115,1094.9672976988686,1110.5003470249003,1117.7986998602785,24.273773759147247,168.5068749903214,196.4034135955349,97.0004858126189,158.14217980326023
47.96,-1.621300089719076,1.8147185360376143,0.1045473304981386,0.0048067284293061,0.0005634896886966,0.0054606565770298,0.0034038828442197,0.000630208843418,0.0213006250144839,0.9997669149929134,-0.0139406318932336,0.0136948720364887,9.878918186278108,-0.0042003639393882,-0.0029246489252237,-0.0060614619329271,9.137946510603188,3.7342186199720127,2.095843447279533,1122.5722889074884,1095.4185235917655,1110.9677711690283,1118.0694901265028,-272.66080046635824,189.9554268385054,185.55889180600892,121.10625367865497,158.13979289708567
47.9625,-1.7965724961990415,1.6556638551824303,-0.0450965188790869,-0.0009446511090876,0.0067390206310011,0.0071181383873162,0.0034087092053592,0.0006608175121277,0.0212934809888075,0.9997670165118016,-0.015379907487196,0.0136001381966215,9.875627558756305,-0.0042505250522388,-0.0029004946856335,-0.0058828658829455,9.13793528933532,3.734213287173657,2.095830036115788,1121.5304671785807,1095.9170748330603,1111.4281414839295,1118.4042311286712,-452.3175630642032,162.93337098250808,150.0967181939955,125.16439381982272,158.13702700055075
47.965,-1.825101496700428,1.429040099678561,-0.1966777924549527,-0.0060430398505183,0.0107997077326486,0.00773136937971,0.0034036035939032,0.0006863730156503,0.0212812844805721,0.9997672584937954,-0.0165631634027608,0.013122294563508,9.872256491917684,-0.0042997851583222,-0.0028763870007453,-0.0057199036551225,9.137924939313395,3.7342088060907934,2.095817065686041,1120.3107010921663,1096.2331904466785,1111.7182547599987,1118.6953120956023,-517.3116107836986,99.5868038301014,98.2008608978456,129.31272906428353,158.13480607113488
47.9675,-1.737651683457517,1.1474144670930877,-0.3462905725507692,-0.010820921721935,0.0136415599432228,0.0067736447900104,0.0033873867242333,0.0007105541244298,0.0212652434716165,0.9997676179556316,-0.0175655384204951,0.012237314211674,9.86886195632812,-0.0043476086746577,-0.0028549912924062,-0.0055736514157908,9.137914636189274,3.7342041416561513,2.095805397502306,1118.943909124661,1096.415008852211,1111.9191457884192,1119.0507947739927,-595.9751396315332,54.412861412224096,71.0801756677675,188.4825233656452,158.1326741093635
47.97,-1.5191678963124904,0.7968943465309566,-0.482804268560351,-0.0155170393384687,0.0157314301948959,0.0044154205624764,0.0033627636791546,0.0007386274007958,0.0212477905411125,0.9997680338895965,-0.0184942935149316,0.0110069218730405,9.865500116876168,-0.0043934436292495,-0.002838558580675,-0.0054448503303944,9.13790308792964,3.734198645368625,2.0957952969977613,1117.3308253940113,1096.505254753739,1112.0736556383372,1119.6377247124296,-567.457184538426,22.869749487642487,43.2675783437168,251.39821546173025,158.1302199679868
47.9725,-1.2611374291012991,0.5260370355474554,-0.5399537869973694,-0.0185949677946662,0.0163765554658528,0.0022137402655722,0.0033365156259313,0.0007731680665236,0.0212295112220573,0.9997684726842052,-0.0194039710027014,0.0095799344432746,9.862225288742495,-0.004436814997681,-0.0028290179674216,-0.0053337074938595,9.137890499747364,3.734192276275581,2.095787204902816,1116.1066232019675,1096.5293575996493,1112.135483680138,1120.3077858513022,-452.6046053083477,17.492278296131335,7.8012575641383695,305.2137584143823,158.1282622136853
47.975,-0.9442193588445976,0.3020783691377254,-0.5300804282864608,-0.0209279972325067,0.0160068276815469,0.0002381516299975,0.0033106056680243,0.0008078635941757,0.0212133415371143,0.9997688719697676,-0.0201774345027591,0.0080137435328467,9.85908988260724,-0.0044775315834335,-0.002827964704017,-0.0052396702190281,9.137878788322617,3.7341851132344943,2.0957807800444463,1115.0678023674684,1096.59271614522,1112.112661926158,1121.1637935045023,-412.9910869871428,58.7527764455524,-39.737121338602925,398.5175351639996,158.12639522716722
47.9775,-0.5133670744411362,0.0921672721806848,-0.4489340317494284,-0.0230517420944506,0.0151000435683289,-0.0017089383354826,0.0032858005486559,0.0008351307030269,0.0212022766112794,0.9997691723508486,-0.0206743640085731,0.0063481225208673,9.856142191176,-0.0045155840486683,-0.0028368529969301,-0.0051612468485804,9.137868575800615,3.7341774483918706,2.095774715242564,1114.0416677670337,1096.8231214818768,1111.936798073445,1122.3003735271204,-345.25776247365303,121.19287018529742,-99.43116079961696,406.86256953196886,158.12425940622603
47.98,-0.1232357432772551,-0.0483496155118854,-0.3375797089609215,-0.0242811226863307,0.0148109430472017,-0.0028803230177242,0.0032588249407457,0.0008557355734237,0.0211950002853434,0.9997694077878276,-0.0209216672447339,0.0045519919043382,9.853424713645428,-0.0045508699571442,-0.0028571108294419,-0.0050960074769972,9.137858406911528,3.7341698701844113,2.0957671226653596,1113.3415135550993,1097.1986804961468,1111.6155061221596,1123.1981063521632,-258.7469726564945,190.16602092346423,-175.8308456610858,308.3156037564791,158.122566283572
47.9825,0.2823028539042699,-0.1837273613468813,-0.2029671045319788,-0.0246323270009776,0.0154478506381855,-0.0033388197207075,0.0032295740169458,0.0008666231793839,0.0211869630408194,0.9997696738775992,-0.0208699678145249,0.0026593346912938,9.850973074757968,-0.0045832133416811,-0.0028902283362473,-0.0050405632483537,9.137847554703841,3.73416338234249,2.0957562120892206,1112.7479329037503,1097.7739515864946,1111.0576438451392,1123.8419515459036,-227.67559677297655,254.70531125793488,-266.05221110009194,188.6984839895728,158.12096259487592
47.985,0.6818604043605215,-0.3349555364137211,-0.0661316820009959,-0.0238545974456861,0.0162357477463462,-0.0031403603273797,0.0032023187377744,0.0008670259262323,0.0211735173083047,0.9997700540795784,-0.0205129674017198,0.0007941473068773,9.848814883893768,-0.0046123358564434,-0.0029376381275578,-0.0049910037285353,9.137835612949365,3.7341588941577695,2.0957411959664825,1112.2031355712354,1098.4722070524351,1110.2852450666603,1124.1415987721102,-212.49446047352689,288.754903243887,-355.90772990854003,20.49945299530779,158.11943256200317
47.9875,1.0448345430976012,-0.5123656541735492,0.0581537374429508,-0.0214798991019693,0.016299808433144,-0.0024532366053413,0.003181298029509,0.0008621317041811,0.0211558167896001,0.9997705050637152,-0.0199609523085772,-0.0009162413227076,9.846969676976862,-0.0046379633174123,-0.0030003733865676,-0.0049435245183181,9.137822313450233,3.7341563308989536,2.0957229866153124,1111.6854606013824,1099.2177261027148,1109.2781051955956,1123.9444488108802,-225.03374396303423,306.6732806381219,-478.9550153145961,-193.7805975096044,158.11799065540103
47.99,1.4004528884135623,-0.7408677947231022,0.1851768066836674,-0.017063373248226,0.014930797591716,-0.0015941118779242,0.0031706766794957,0.0008584057486894,0.0211413656496734,0.9997708499360392,-0.0193483163656958,-0.0023457009207416,9.845449417682598,-0.0046600388684456,-0.0030787511760142,-0.0048949468110378,9.137807865644275,3.7341549999949306,2.095703075478869,1111.0779668514197,1100.0055734556267,1107.890469990086,1123.1726957845617,-220.70893025058527,247.86199433897116,-519.2561101041695,-346.23342691133644,158.11636126184183
47.9925,1.6099527732626244,-0.923449544655668,0.2748192517338849,-0.0124622307217412,0.0125848393432707,-0.0010347559503042,0.0031733816245084,0.0008571668106872,0.0211378312881211,0.9997709181351156,-0.0187074009698723,-0.003397015588712,9.844259553927538,-0.0046789011602741,-0.0031721569542831,-0.0048430460591012,9.137794072129934,3.734153538207501,2.0956839774815648,1110.5819159501305,1100.4570360744085,1106.681824645077,1122.213281676325,-195.01927056120647,115.76793186435212,-470.876523223874,-403.3698114531245,158.11508673062022
47.995,1.720093137037961,-1.073304630406159,0.3539715389604027,-0.0076555039813174,0.0095755439205079,-0.0006350023231746,0.003185678245712,0.0008542736577718,0.021147857554923,0.9997706692747856,-0.0179643779609226,-0.0041108113486507,9.843400262922849,-0.0046952672244423,-0.0032789276611356,-0.0047866880867931,9.13778201899685,3.734151022134732,2.095666074504268,1110.1028704986131,1100.5844131149488,1105.5360873739655,1121.155846727295,-203.18483367417292,-33.51645490864134,-470.0454989277529,-433.8919439945184,158.1138976763268
47.9975,1.745989270652045,-1.1970736933881136,0.4405991907570438,-0.0024640542410183,0.0058420728507292,-0.0001543268687486,0.0032040150462932,0.0008488114242067,0.0211678872265264,0.9997701906143815,-0.0171071291875618,-0.004528952496191,9.842866434295878,-0.00470998029714,-0.0033964847232792,-0.0047257642566988,9.137770845921471,3.7341469418102817,2.095649346793579,1109.565991781759,1100.2894537998652,1104.3315971504371,1120.0438219563512,-185.2528884968572,-184.19687831718343,-406.46141331808974,-354.1108125767588,158.112568623911
48.0,1.6922104316815128,-1.2472115053191504,0.5021616221317986,0.0013561954905825,0.0026421337912046,0.000451163446666,0.0032269316200973,0.0008397622630894,0.0211939106096295,0.9997695733817757,-0.0161187319890937,-0.0046596575030334,9.842648748300112,-0.0047238934502773,-0.003521459684881,-0.00466098044886,9.13776007461042,3.7341409426857504,2.095634429396892,1109.1766060561297,1099.6634287233635,1103.5037803073767,1119.3852926644129,-132.64438331419356,-319.3384775714724,-293.53016581102884,-198.13679319267803,158.1115421200217
48.0025,1.5749783335825212,-1.240456420621609,0.5394252956597752,0.0049943257794258,-0.0003700113893072,0.00153246953177,0.0032478817175705,0.0008258715413109,0.0212226637398535,0.9997689087527036,-0.0149779044018659,-0.0046198866317921,9.842735054671055,-0.0047377728238068,-0.0036498518799078,-0.0045936878909626,9.137749590281425,3.734131992632885,2.095621960045405,1108.9027698651887,1098.6927614120093,1102.8639463213833,1119.053137990389,-74.69869609695523,-482.72363174194504,-240.11169192487156,-89.21532481481319,158.110599539364
48.005,1.372572958482808,-1.1678997320532787,0.5336346887564488,0.009324011194121,-0.0036775044602914,0.003589991600511,0.0032669584713951,0.0008076063583577,0.0212495218910111,0.9997682941698152,-0.0136929289200904,-0.0044044582022008,9.843110003790247,-0.0047522161585042,-0.0037774871622054,-0.0045255069241236,9.137739501500777,3.734119989398829,2.095612607628417,1108.8031125756447,1097.2498105646528,1102.303221847752,1118.9392160403384,17.258651005604673,-553.0567505234911,-171.47903936457035,-21.660155349480025,158.10956571184593
48.0075,1.1598348025214185,-1.0540166587055666,0.4721971226030126,0.0125688634287302,-0.0064854471321593,0.0058961135349565,0.0032869549804216,0.0007881415839776,0.021272620704013,0.9997677583034832,-0.0123230408762454,-0.0039630987901507,9.84375553726096,-0.0047676358791714,-0.0039003334222814,-0.0044579626368237,9.137729663044684,3.7341057715739434,2.095605887437143,1108.9890631202168,1095.9274776593904,1102.00655112456,1118.9448372136414,144.75441620429115,-526.1162527502858,-81.03213618390421,-14.895085737557467,158.10878574100863
48.01,0.9125823685114852,-0.8851254109954044,0.3474626233403015,0.0150703364091473,-0.0093649841419901,0.0082919761872925,0.0033089336563094,0.0007692902995,0.0212972624562518,0.9997671821683126,-0.0109006316206139,-0.0032887648148035,9.844651286229855,-0.0047842967772204,-0.0040147695089725,-0.0043920767217689,9.137720186211613,3.734089833695432,2.0956007948489614,1109.5268846566655,1094.6192293009035,1101.8980611668328,1118.8647406116509,276.3323254362554,-501.7930754087663,-9.42333437601037,-70.82269538655979,158.10809138639164
48.0125,0.6467308127217882,-0.6751693396293311,0.1824226084500547,0.017132417310527,-0.0118152764123996,0.0099237227590279,0.0033375987670922,0.0007511365519649,0.0213249371006672,0.9997665164711615,-0.0094224138779375,-0.0023113759569724,9.845773742736258,-0.0048021898871925,-0.004117999535228,-0.0043280039570648,9.13771148929373,3.734072780232621,2.0955974362974086,1110.3707247473988,1093.418512282345,1101.95943445268,1118.5907237367085,400.8438686085578,-433.4918401196375,67.61173315827543,-172.67132936031237,158.1074690377085
48.015,0.3724082009830843,-0.4296397956329228,0.0013403621848688,0.0185836710132668,-0.013242258113061,0.0098468862995312,0.0033731916299984,0.0007336900374363,0.021352016218514,0.999765835661502,-0.0078860063115178,-0.0010552199365834,9.847096177545454,-0.0048209234573558,-0.004208171001952,-0.0042648794055324,9.137702976088883,3.7340552964940392,2.095594525540564,1111.531103999709,1092.4517701003044,1102.2361198326244,1118.0013839648489,553.385214094354,-346.56610840006266,169.59075261408506,-328.9561604826567,158.10693503675265
48.0175,0.0557660937297128,-0.1181864640484311,-0.1872429650841077,0.0190946122663344,-0.0139070016903172,0.0080980221668778,0.0034147931203139,0.0007199311522871,0.0213756291220905,0.9997652012128084,-0.006349061049083,0.000429196228981,9.848587683198986,-0.0048396883550299,-0.0042844339436123,-0.0042006981336867,9.13769343941367,3.734037800538907,2.0955905283544918,1113.137650817868,1091.6856817403464,1102.8073882157496,1116.9459429342967,595.3616234552693,-200.4395813784297,243.68969241192,-424.316362628598,158.1063981524306
48.02,-0.1800800292509795,0.1374001181260987,-0.2967149549521926,0.0184990921522184,-0.0136104295717641,0.0061587474107528,0.0034591896711114,0.000708498606349,0.021393949642859,0.9997646652941398,-0.0047862894916695,0.0020415826168966,9.850213064856295,-0.004857385424243,-0.0043469223983237,-0.0041323430645075,9.137682197303608,3.734021117735896,2.095583242781705,1114.5079121169872,1091.4495721934115,1103.4545682946843,1115.8798021517048,520.5678689679709,-3.101596876557101,283.08937926775866,-424.7703875859871,158.10603803537708
48.0225,-0.3705102625883758,0.3708040959122801,-0.3502747720587005,0.0172774460813253,-0.012549460681209,0.004680089221461,0.0035002570734905,0.0006951498061431,0.0214045260939513,0.9997643069328735,-0.0031188615846644,0.00362214331149,9.851932687753106,-0.0048727849436454,-0.0043966650828674,-0.0040559718832385,9.13766920298997,3.7340059299528265,2.0955711284381375,1115.7404901627092,1091.6701737559636,1104.2228351120891,1114.8220909963657,483.86202243962896,191.29008354461007,349.12856847695286,-412.01546628827776,158.1057684747025
48.025,-0.5381743145954737,0.6119551589050481,-0.364109488263406,0.0153199487980981,-0.0108240655945868,0.0037226989347228,0.0035349789679341,0.0006798211470419,0.0214058588070642,0.9997641709106712,-0.00135114777539,0.0050748704601926,9.853702094677287,-0.0048847236392402,-0.0044354072248387,-0.0039676625777992,9.137654847893776,3.733993307466069,2.095554260008196,1116.9272222291831,1092.406022611134,1105.2002111370675,1113.8197248202653,379.9114484830955,324.8799735990972,354.8852252212331,-293.55279913400847,158.10554854676823
48.0275,-0.6286899838442994,0.7755473992067823,-0.3484133606799098,0.0135638186992926,-0.0088846352354664,0.0032848656092059,0.0035642014375861,0.0006625245854699,0.0214037371123521,0.9997641300444006,0.0005104717882496,0.0063822996900397,9.855472904463433,-0.0048924029562057,-0.0044652292008702,-0.0038641018026093,9.137640420841953,3.7339824956939913,2.095534535002164,1117.6400474051256,1093.29457362396,1105.997261238196,1113.3543270006949,233.91260392606313,371.5854407590005,302.91385413436694,-93.08977279865545,158.10545000049845
48.03,-0.6775338516780902,0.899050702766977,-0.3180843054818826,0.0120141088237135,-0.006557890433949,0.0026263224337436,0.0035905400532988,0.0006400193326568,0.0213998130379582,0.9997641416310542,0.0025221107718336,0.0075640395370891,9.857194420810092,-0.004895394781996,-0.0044883096452099,-0.0037431709980395,9.137627192316051,3.733972409870288,2.0955143989983664,1118.096785248814,1094.26394981493,1106.7147804077404,1113.3542759562715,156.9023781387904,394.5638076414476,290.03649550817505,98.67598419932497,158.10543668017112
48.0325,-0.7025463639100044,1.0057772826482572,-0.2748838921323145,0.0103385772467308,-0.0039145510699198,0.0016553329092594,0.0036169086929081,0.0006139659807839,0.0213922863998371,0.9997642324431356,0.0046411380097254,0.0086522433119252,9.858815434254838,-0.0048934917077786,-0.0045066989831449,-0.0036043303678847,9.137615737138898,3.7339626476839936,2.095496125299942,1118.4245592958189,1095.2673926621655,1107.4474437157355,1113.847706921691,92.35965386260254,313.0374379312561,246.81858569243664,240.4124798247856,158.10551499023748
48.035,-0.7041222862065815,1.0653167285015908,-0.240391360416926,0.0091166055918848,-0.0018128414662739,0.0009709447131467,0.0036402562536003,0.000592759279315,0.0213823948997254,0.9997643800896964,0.0066876194435095,0.0095695524761921,9.860286994357427,-0.004886547168413,-0.0045221210175889,-0.0034486493201399,9.137605322728595,3.7339527512284074,2.0954806001254065,1118.5585835181273,1095.8291370045868,1107.9488733362032,1114.5563383553963,26.977834388921856,154.67324931147505,180.80427253284896,305.64646106265906,158.10565503209295
48.0375,-0.6901656178667955,1.0968411295606355,-0.2174459175838664,0.0079362499874798,0.0005372432446506,0.0005468152781999,0.0036564758617527,0.000585706673356,0.0213729898945558,0.9997645327122264,0.0084612249967455,0.0102236947002676,9.861564153244244,-0.0048743299043266,-0.0045360095245602,-0.0032784406171248,9.137593879214254,3.733942437893872,2.0954668980517686,1118.5594484677636,1096.040758908723,1108.3514650784005,1115.3759392270051,-26.909418492347783,34.550247476849606,147.14954487890023,314.50174677180667,158.10586754615727
48.04,-0.6607526903660208,1.1032157916902616,-0.2113480943563856,0.0064446301755645,0.003120146848227,0.0003286719776543,0.0036628419468261,0.0005959998850845,0.0213646793178168,0.9997646856719056,0.0098809348665963,0.0105527815934267,9.862607550699904,-0.0048565387617284,-0.0045495963691691,-0.003096879816855,9.137580869250616,3.733931331921101,2.0954553705368006,1118.4240364256657,1096.001888241971,1108.684621060597,1116.128847089254,-98.45892072266416,-50.02281414133164,118.674254502351,254.80928464740524,158.10613615983013
48.0425,-0.605140257603971,1.0748386151733735,-0.2312418987748278,0.0045768060951844,0.0058172731431084,0.0002758390657273,0.0036607578490324,0.0006182450907999,0.0213543997950188,0.9997649007793056,0.0110351476623821,0.0105785649847966,9.86338450525627,-0.0048329664531568,-0.004564014036112,-0.0029076947929882,9.137567213408472,3.733919489776493,2.095446258997234,1118.06715386415,1095.7906448380163,1108.9448363509125,1116.6499856502428,-222.61948295788423,-93.03106701013137,100.32671124817495,157.30706337186484,158.10646757091249
48.045,-0.5012368172729535,0.9957061511860144,-0.2847913689391993,0.0024782567064949,0.0090517344677197,0.0002417707381257,0.0036542650736362,0.0006433509181125,0.0213427116490911,0.9997651549932096,0.0120851787065554,0.010378928987502,9.863870182893889,-0.0048036787361526,-0.0045803100430553,-0.0027149416953104,9.137554476195223,3.7339068757144735,2.0954397201178736,1117.3109390108757,1095.53673290692,1109.186254616838,1116.9153824061136,-337.2483946251007,-70.12404726585385,79.18365636763082,40.34453202397376,158.10693158540496
48.0475,-0.3841859789844048,0.8908940557508301,-0.346438213392018,0.0011768414144369,0.0114345062670127,8.8548084743973e-05,0.0036453210459777,0.0006652788558414,0.0213308811544435,0.9997654174759903,0.0131302777089297,0.0099973706609384,9.864048719342298,-0.004768941840687,-0.0045995535537174,-0.0025228012142746,9.137543272362922,3.733893825056212,2.09543567272653,1116.380911891026,1095.4400246016876,1109.3407546327503,1116.8517083103625,-429.62841680055885,-3.6995637441104177,53.96088258637032,-65.97715705144118,158.10736894252008
48.05,-0.2416309933679223,0.7470881607554511,-0.4067499185950156,0.000405450012879,0.0132280071936779,-0.0004020708551194,0.0036340054996988,0.0006830772682729,0.0213193141718719,0.9997656803681088,0.0141677604342743,0.0094475838616968,9.86391331387367,-0.0047290589020415,-0.0046229379879843,-0.0023352875269122,9.137532815080547,3.7338810144453514,2.0954332515668046,1115.1627969268718,1095.5182350881996,1109.45605902977,1116.5854966208562,-581.2699353476755,64.99545219777559,38.04378031161705,-132.74607733890238,158.1078534152425
48.0525,-0.0510891590236182,0.5308494807389478,-0.4450268928988259,-5.144997178199681e-05,0.015230467289394,-0.0016238485669274,0.0036217017129396,0.0006973852895902,0.0213063544807824,0.9997659753943527,0.0151635054942811,0.0087742885052458,9.86346544832001,-0.004684233226932,-0.0046518167776359,-0.0021559318809512,9.137522745022137,3.733869093946173,2.0954328163868268,1113.474562214286,1095.7650018626766,1109.5309735343085,1116.1879779236676,-632.4667825205165,97.75783643876616,8.413140677256173,-135.59243542675685,158.10848286971984
48.055,0.1161485488857619,0.3152341383813338,-0.421805296042849,-0.0001916408075212,0.0168295582245738,-0.0032863647921867,0.0036067797204794,0.00071020547056,0.0212917653686402,0.9997663156034722,0.0160549875349853,0.0079672903995361,9.862714408356755,-0.0046345233059635,-0.0046875630506329,-0.0019876038826544,9.137512619753895,3.733858122450093,2.095434143699131,1112.000463014272,1096.007024270393,1109.4981247331564,1115.907534443723,-570.0863501111411,78.37354052658695,-48.84493702340708,-79.45579243828915,158.10904282272824
48.0575,0.281022558101513,0.0698805203638498,-0.3147941025989688,-4.332296555164275e-05,0.0178087781238657,-0.0055366533116759,0.0035918052582292,0.0007244181248747,0.0212763621835895,0.9997666775665742,0.0167641568416979,0.0071026500598209,9.861675258911728,-0.0045798343595471,-0.0047314568206826,-0.0018322332306009,9.137501790197248,3.733848142404909,2.095436261069629,1110.6241304637288,1096.1568695653095,1109.286748849191,1115.790698961476,-548.3949461664374,20.798621522033773,-154.1008310723221,-0.315505183061598,158.10963405772645
48.06,0.4576609417431618,-0.2392903234635549,-0.0798794386090316,0.0010097691958165,0.0178851250715886,-0.0082440013187783,0.0035817522425102,0.0007410705606446,0.0212598679808331,0.9997670519627184,0.0172504155149552,0.0063053452902322,9.860367454773588,-0.0045199805948555,-0.0047845242302162,-0.0016906789476017,9.137489823491824,3.7338391164174207,2.095438103644191,1109.2584882834385,1096.1110173780032,1108.7276205777944,1115.9059569178075,-436.63979784367854,-61.65452994015291,-265.71273165942847,84.42901313650002,158.1103737508969
48.0625,0.5712842366407453,-0.4892327831845276,0.1894390818806731,0.00270648901796,0.0170129876899919,-0.0095097251369537,0.0035725800910171,0.0007562193508252,0.0212466790754461,0.9997673600090368,0.0175686067658141,0.0055214290961673,9.85881420826197,-0.00445489318087,-0.0048472856178445,-0.0015628375320813,9.137477039945498,3.7338300819150985,2.095438551612512,1108.4409314745124,1095.8485969156093,1107.9581851908952,1116.212844027158,-254.3631942979613,-145.28744925987235,-370.6749354949085,154.1877379500458,158.11101132363464
48.065,0.6351148870390512,-0.7054060573338915,0.4908144561618115,0.0049531860914196,0.0153601090124582,-0.0087621623466616,0.0035627792441834,0.0007688040154323,0.0212398530764269,0.9997675401757344,0.0177189192874124,0.0047479854589894,9.85703984358788,-0.0043846901797368,-0.0049197577212151,-0.0014477815678014,9.137464467451895,3.733821038772159,2.0954371712274646,1107.9866723119499,1095.3845801317043,1106.8742459003215,1116.6768956075573,-125.53252847326748,-204.67076366042863,-474.55099188362794,194.78673321267743,158.1116664637306
48.0675,0.6542451361132854,-0.8756365299178902,0.7757130161891637,0.0071836484400517,0.0131414151265959,-0.0064771181252982,0.0035544777271502,0.0007830635259975,0.0212368286987803,0.9997676325759448,0.0176002604176579,0.0040547968113511,9.85506831910167,-0.0043097034106699,-0.0050014552871187,-0.0013440439753627,9.137452391710058,3.7338118486073752,2.095434651672176,1107.813268832146,1094.8252430973066,1105.585430231476,1117.186777693222,-11.775373194580768,-223.24920739335943,-538.8823700629445,188.5656152384799,158.1123331779077
48.07,0.6264603086141536,-0.9729588455482792,0.9938975910082776,0.0089199470371724,0.0104474321598887,-0.0031776777571888,0.0035474707917278,0.0008051221548476,0.0212364181482209,0.9997676554091096,0.0170759226048489,0.0034637524231455,9.852922542475508,-0.0042305488034133,-0.0050913003951016,-0.0012499056878831,9.137440471097005,3.733802152237777,2.0954317797866167,1107.9277954459767,1094.2683340947372,1104.1798340500054,1117.61972368375,104.74967333912421,-216.44361584882648,-601.888628096869,137.79751653399927,158.11301057677287
48.0725,0.5561192167398153,-0.990996695229136,1.1378836526985738,0.010543474632374,0.0070880960395031,0.0012836750009667,0.0035439372970347,0.0008367691451626,0.0212418411281967,0.9997675282529828,0.0160988198060584,0.0030379565465294,9.850622948175662,-0.0041481632944603,-0.0051876364955346,-0.001163460861364,9.137428364245553,3.733791528975636,2.0954286049685993,1108.337017198841,1093.7430250180635,1102.5759870909944,1117.8757652758911,189.91919410026927,-155.8129009194657,-541.3589261949669,29.46069049651981,158.11383202201785
48.075,0.4803072168264058,-0.9195751911362088,1.1462981081260757,0.0114182722108694,0.004305265223022,0.0052394921452948,0.0035427542049836,0.0008756544053684,0.0212586555686534,0.9997671370478708,0.0147057244050793,0.0027689379364674,9.848187512670272,-0.0040638056905856,-0.0052883117374283,-0.0010827876930883,9.137416841334819,3.733779683297312,2.0954244061131466,1108.8773914164788,1093.4892695901394,1101.4730394190292,1117.7670271362329,254.40155382166893,-59.90317515076304,-360.6645525686391,-122.0384828228192,158.1145212519231
48.0775,0.3991904414831833,-0.761175665243178,1.0429206454259483,0.0116105886896755,0.0017827761687745,0.0090870121008913,0.0035437552669279,0.0009166734559795,0.0212889674677182,0.999766441602557,0.0129921329047355,0.0026606470978893,9.845631282233416,-0.0039789859483641,-0.0053908733186444,-0.0010060528946845,9.137406580955819,3.733766033369228,2.095419456874386,1109.60902496795,1093.4435091423095,1100.7726643281503,1117.2655728617767,361.79484303139526,19.77085897817212,-195.31678910024797,-303.1067064001064,158.11521280415843
48.08,0.2973828002431975,-0.4844485618820902,0.8202013680060407,0.0117061471070611,-0.0005864787795536,0.0126152097840903,0.0035467343989493,0.0009559614166788,0.0213289305301531,0.999765528301588,0.0110335807322066,0.002711125060216,9.842966738995736,-0.0038953296080368,-0.0054927774932244,-0.0009317048404298,9.137397829297969,3.7337508637255814,2.095414452408855,1110.686365631634,1093.58812388503,1100.4964554735288,1116.2514936042337,421.27982407492976,76.88060784371987,-6.242488128370031,-419.63266216763617,158.11604286066637
48.0825,0.1986348248903754,-0.1987829981992348,0.5883963701839316,0.012321963891009,-0.0018803124795753,0.0141411636335052,0.0035474275120695,0.0009879606198169,0.0213735951634209,0.9997645244497094,0.0089420776642784,0.0028319622444058,9.840204654931835,-0.0038144703211823,-0.0055915512570703,-0.0008586007556154,9.137390351421882,3.7337349412089416,2.095408671313597,1111.7154240883256,1093.8279121815283,1100.7414518875084,1115.1674095509377,424.0393577687532,109.98074521706998,184.4351286289532,-445.25992630483375,158.11673322315974
48.085,0.066923401016714,0.1159798879968133,0.355904566006694,0.0132205618081022,-0.0022627093423047,0.0144040515076966,0.0035439932411415,0.0010055157209377,0.0214179731696479,0.9997635516621848,0.0068670748750969,0.0029761571063813,9.837354315249021,-0.0037378982060771,-0.0056849449122619,-0.0007860447503054,9.13738319736252,3.7337184274509214,2.0954016849663635,1112.8065624204787,1094.1380276111158,1101.418631116674,1114.0251939727084,470.0494005258134,142.94982117129888,373.5868977175174,-465.79825135505934,158.1174207361671
48.0875,-0.1445789542231996,0.4869373057477316,0.1202380447318898,0.0138205627321582,-0.0013703214988605,0.0138299125412956,0.0035387734519537,0.0010086247112897,0.0214550204362709,0.9997627524547972,0.0048240589681636,0.0031769801585718,9.834424237017377,-0.0036668445114481,-0.0057710290643609,-0.0007139903018802,9.137375354540973,3.733701441020485,2.095394241570516,1114.0656710909527,1094.542661287384,1102.6093863760943,1112.8384182941645,433.41109846656417,148.02737747660717,479.4946548132705,-371.84264028313993,158.1182412272987
48.09,-0.3684381944877334,0.7589676238291575,-0.0210743018859441,0.0139598141829484,0.0004805613744649,0.0129339806224605,0.0035347989889196,0.0009974821295874,0.021476819959263,0.9997622868913248,0.0028299761542366,0.0034770871531225,9.831423416501162,-0.0036023632464073,-0.0058482260735213,-0.0006431609956877,9.137366449760524,3.7336839735851495,2.0953874877756484,1114.9736179128129,1094.8781644984992,1103.8161043907417,1112.1659807712915,312.0780346780288,127.90598004715144,502.928952784093,-178.0622718788889,158.11892059601166
48.0925,-0.6344326445327628,0.9585819235837396,-0.099934218052,0.0138752068461365,0.0033655462523739,0.011923583678097,0.0035342228021437,0.0009758663347968,0.0214833124782954,0.9997621465830748,0.0008359908145775,0.0039002328885403,9.828362370732682,-0.0035455712140905,-0.0059152901081251,-0.0005750984080826,9.137357662631258,3.7336655731943154,2.095382434898273,1115.6260612643437,1095.1821911876202,1105.124031140016,1111.9481069347696,210.76270276840728,121.07760899609372,571.1646986826701,13.962315425545931,158.11959505033374
48.095,-0.974203737973732,1.0879188107301268,-0.1360565265809989,0.0129649343216992,0.0077513080000122,0.0109312678062262,0.0035377211815211,0.0009499134016273,0.0214812050035562,0.9997621819303544,-0.001248839308197,0.0044405231817109,9.825253962061186,-0.0034977251351028,-0.0059714011843735,-0.0005120024608097,9.137350506638665,3.733645905119928,2.095380055742586,1116.027431426654,1095.4835525434792,1106.6719278841524,1112.2357923484194,79.30743967054275,97.38091188896323,544.9692611864916,184.17033743416724,158.12039870860613
48.0975,-1.237727569118812,1.0987359108866743,-0.1371695600182693,0.0107336069686619,0.0115936701838512,0.0103231355095243,0.0035429234122648,0.000931326206366,0.0214756510204449,0.9997622826257528,-0.0036216983012971,0.0050345482770072,9.822113968476934,-0.0034600420023413,-0.0060163643104663,-0.0004564687146551,9.137344199436836,3.7336252296052006,2.0953803516802587,1116.0225984626964,1095.6690957470653,1107.84887744595,1112.8689586219407,-65.87517597801065,58.83378287859787,429.437376411814,306.67334507909567,158.1210639047531
48.1,-1.4242273281713047,1.0230651256080712,-0.1385440507283535,0.0066050309901654,0.0146704084279657,0.009858137328644,0.0035531458258459,0.0009268164005895,0.0214672131464471,0.9997624215380508,-0.0063754156200533,0.005729965967613,9.818960677065443,-0.0034335373037212,-0.0060507811829014,-0.0004109302671478,9.137337721939303,3.7336044117874594,2.095383313914052,1115.6980555467635,1095.7777214578723,1108.8191147662124,1113.7691590738157,-169.8856898640496,29.49391680820508,346.51564315408586,380.4859406401924,158.12172471917762
48.1025,-1.507055024515191,0.8978413774842164,-0.1655569508938906,0.001421195195658,0.0168308442406348,0.0096915965064783,0.0035716938783486,0.0009328658275343,0.0214530687747982,0.9997626501881502,-0.0093988082272832,0.0065726794020432,9.815815540731142,-0.0034189952036777,-0.0060760899875495,-0.0003773118811805,9.137330858052067,3.733584895344936,2.0953879230399854,1115.173170013377,1095.816565331106,1109.5814556617188,1114.77138832514,-236.6591091564868,-3.1278398050728726,254.31069853503408,401.6018122910956,158.12238207364146
48.105,-1.4364459901363915,0.7427425748798657,-0.2535213532673457,-0.0040085185648468,0.0181754888727528,0.0102729400804702,0.0035957551464112,0.0009452328962655,0.0214350074669825,0.9997629424517404,-0.0125666139465204,0.007492461321945,9.812703185420519,-0.0034170921361584,-0.0060944044464738,-0.0003568641568053,9.137323515584974,3.733567201806028,2.095393221063018,1114.5147600009807,1095.7620822588467,1110.0906682588884,1115.777168135272,-294.0559931938738,-46.8610908419338,173.1745447731124,424.58817787925113,158.12303538206933
48.1075,-1.1730526211799064,0.5527565362957542,-0.4546942934337594,-0.0096804767391144,0.0192896471770482,0.0116186180482883,0.0036213356092992,0.0009540609655873,0.0214177322990698,0.999763220135019,-0.0156422891473013,0.0083990747107983,9.809650549136942,-0.0034284360810941,-0.006108295998712,-0.0003498976505459,9.137316174296629,3.7335509729123126,2.0953985513823485,1113.7028900474068,1095.5822598768964,1110.4473283855848,1116.8943292145375,-289.3786122404793,-83.47581788837803,97.338876957608,389.6420832471354,158.12381472754484
48.11,-0.8284087041467412,0.4050805616871027,-0.6988918997895908,-0.0130157117231573,0.0198851289691031,0.0124303755860227,0.0036397131834525,0.0009539158076542,0.0214089045978332,0.9997633550072158,-0.0184773450049167,0.0091177941724205,9.80668600898155,-0.003453570860873,-0.0061205435552836,-0.0003558449599134,9.137310110627457,3.733535234029633,2.0954028713400272,1113.0678669397796,1095.3447031694054,1110.577362643676,1117.725378551506,-245.01685060046128,-107.53707234493004,28.991562569157114,311.89445447628214,158.12446028534472
48.1125,-0.4028965025963343,0.2751011026491034,-0.984537398053388,-0.014404179584717,0.0202300463782916,0.0115516787503832,0.0036470171380103,0.0009476569826312,0.0214110469705077,0.9997633036879028,-0.0210842754993987,0.0095789689671165,9.803837191169752,-0.0034927682661853,-0.0061340370582618,-0.0003732576071825,9.137305538255832,3.7335198060207664,2.0954047061189316,1112.477805794404,1095.0445745151715,1110.5922861984307,1118.4538014869197,-265.68993121727596,-136.85726711048395,-8.282540003206433,296.8858791224948,158.12510164762975
48.115,0.1353356005710927,0.1365760745189067,-1.296764122974491,-0.0141041668137929,0.0204910752836753,0.0076822331132106,0.0036445198298402,0.0009432498293961,0.0214198935334172,0.9997631458078178,-0.0235748518743816,0.0098218800212211,9.80113015809955,-0.0035458099509237,-0.0061517080213949,-0.0004000460804768,9.137301338630877,3.7335055347046575,2.0954036361848636,1111.7394172836923,1094.6604168338527,1110.53594994366,1119.209807947119,-294.31944626457545,-138.1651226433752,-27.69003265955479,251.98490429743467,158.12586613165087
48.1175,0.5632385541893129,0.0284032693344293,-1.469738610183142,-0.0124502283762703,0.0206550371898796,0.0024451212581003,0.0036374892690985,0.000948904620361,0.0214306701777693,0.999762959283232,-0.026066148589734,0.0099696700660159,9.798589254583463,-0.003611917093802,-0.0061763659501529,-0.0004338568798733,9.137296353388274,3.733493066954404,2.095399915665327,1111.0062085630825,1094.3537489019552,1110.453836035133,1119.7137260084055,-338.9936334298539,-115.05866843511764,-39.975035113163834,158.36787717667983,158.12649866245448
48.12,0.9299691111190136,-0.0834991441323103,-1.4992534998801204,-0.0094373078144574,0.0207878337393858,-0.0035760109704255,0.0036377950059307,0.0009669246108706,0.0214365266110772,0.9997628438038716,-0.0285600785933797,0.0102766374383884,9.796237122703504,-0.0036897279327755,-0.0062104869756335,-0.0004724044120475,9.13729015202243,3.7334826961233687,2.0953945048217726,1110.0444491165424,1094.0851234916768,1110.336074768094,1120.0016473330031,-489.6395213407,-109.6116877641983,-68.98136094533693,47.85971859521221,158.12712636747264
48.1225,1.2750023731637623,-0.233367558969275,-1.3537766413803467,-0.0050734828161542,0.0208289695743605,-0.0099999794204979,0.0036492886246591,0.0009924835638618,0.0214340681152174,0.9997628572877676,-0.0309265840905273,0.0108402145383686,9.794096505838919,-0.0037774743067987,-0.0062558599433893,-0.0005139674437473,9.13728244775662,3.733473957977021,2.095387740628213,1108.5580109563775,1093.805690463134,1110.108929230406,1119.953024601382,-599.4950862231685,-99.08981647549724,-109.25563406841252,-102.38960576266652,158.1278742782207
48.125,1.4810430299013884,-0.3750926813807731,-1.1018146930820212,-0.001395668867689,0.0206167544026636,-0.0137639086554728,0.0036736344900217,0.0010176491484772,0.0214232275893628,0.9997629993803812,-0.0329809856717708,0.0117154157742802,9.79218976238788,-0.0038731458508166,-0.0063132909968516,-0.000557568090287,9.137273029340381,3.733466083665344,2.095380349881422,1107.0469736854293,1093.5896744092995,1109.7897965977525,1119.4896993041903,-647.410034613083,-89.75410440215433,-171.84992789013617,-281.55911132924444,158.1284935254128
48.1275,1.611557632451015,-0.5313115473798886,-0.7608482155728397,0.0022036750739242,0.0198792045083806,-0.0157936133289607,0.0037078893529897,0.0010378739508088,0.0214058520587152,0.9997632442649732,-0.0346128203671585,0.0128683125486513,9.790538981781465,-0.0039746626944863,-0.0063823986409676,-0.0006031776919,9.137262599252953,3.733457664771094,2.095373589108908,1105.3209607833153,1093.3569199411236,1109.2496795909562,1118.5452290447367,-708.6312032764921,-100.51725533148188,-265.8247552979451,-448.6786263267255,158.1291094278747
48.13,1.688505267087843,-0.6918667474484878,-0.3856587388336219,0.0058204584444966,0.0186239938860831,-0.016853504417706,0.0037437143263442,0.0010525269475695,0.0213836736418002,0.9997635844488124,-0.0357970166992469,0.0141588275193985,9.789166347816929,-0.0040800136808543,-0.0064615805271257,-0.0006517271862066,9.137251703062656,3.733447055727257,2.0953676986227423,1103.503817669045,1093.087088132642,1108.460672821262,1117.2463061725555,-721.3146355151315,-119.00930615141355,-388.6107267218735,-576.4122874153379,158.12972339182787
48.1325,1.7087023678330635,-0.8441211330978674,-0.013335563375987,0.009518130868168,0.0170733998674708,-0.0169190251179354,0.0037774013981791,0.0010640666928428,0.0213572784751383,0.9997640174849574,-0.0365737542520626,0.0155347317013916,9.788093324897133,-0.0041873336689411,-0.0065482028171058,-0.000704854411959,9.137240594130937,3.733433701224563,2.0953629026971154,1101.7143876057376,1092.7618734103662,1107.306625957346,1115.6631676076588,-739.597959898028,-152.1814396900956,-600.4584580534815,-710.9018216884676,158.13033629660683
48.135,1.6708092538953228,-0.9950674043403984,0.3803678380698217,0.0140938441641772,0.0147281281058145,-0.0157025384906469,0.0038068504324268,0.0010773789146894,0.0213288311768798,0.9997645010239594,-0.0370367492265431,0.0169707237663873,9.787340925182695,-0.0042949609231441,-0.0066389089012718,-0.0007647437404614,9.137230245652507,3.7334173200590905,2.0953610625134536,1099.8058278695582,1092.3261809341923,1105.4583805309971,1113.6917970641164,-627.8645526272584,-159.6445970675724,-751.7755697594813,-695.0524606064928,158.1310725473869
48.1375,1.5858849614385768,-1.0743008862596883,0.6346078201687331,0.0179485002460124,0.0118612657672981,-0.0136860161388962,0.0038309236817144,0.0011006110728535,0.0213026470217258,0.999764941326578,-0.0373497863980087,0.0184549809398747,9.786929228375172,-0.0044013759340503,-0.0067300221378509,-0.000833785185679,9.137221089386294,3.7333978565835215,2.095363744570841,1098.5750648425999,1091.963650425028,1103.5477481085463,1112.1879053046243,-381.7258157294284,-130.6530421187076,-824.0952045054077,-534.350987421339,158.1316884198477
48.14,1.4414496577030815,-1.0826533563201877,0.7887001324747575,0.0216133478407844,0.0080080229251307,-0.0107618588848506,0.0038513283366124,0.0011395909396281,0.0212793678145176,0.9997653144307068,-0.0376368331688774,0.0200225366875675,9.786876757165494,-0.0045049814782874,-0.0068180295463536,-0.0009139091314476,9.137212261660958,3.7333760092371526,2.095371329392987,1097.89719879091,1091.6729157235984,1101.3379045084682,1111.0200421270083,-140.15083321586658,-91.45827909964414,-1004.8546566701178,-415.12335631679446,158.13230901344747
48.1425,1.1947002405045346,-1.0023298565543397,0.8520295056068591,0.0254348538365053,0.0032680137010961,-0.0069492964406416,0.003869145032565,0.0011893153949452,0.0212577173642229,0.99976564803301,-0.0378166674741128,0.0216837358473846,9.78720031675548,-0.004604020659782,-0.0068999349123281,-0.0010058382017185,9.137202566574219,3.7333532066536574,2.095381406378764,1097.8743106765212,1091.50635902953,1098.5234748252003,1110.1122885230425,132.59261022387855,-17.19203438637153,-1023.058560021786,-253.85840301419847,158.13306220891408
48.145,0.92514260620443,-0.873260397810681,0.8162688222987424,0.0280199218035139,0.0001014894122155,-0.0043380496322121,0.003885811025239,0.0012402661547958,0.0212411617422417,0.9997658722185409,-0.0377253223461365,0.0234468530744953,9.787912581326923,-0.0046966674160774,-0.0069734184117348,-0.0011085399290983,9.13719192547428,3.7333303362262886,2.0953920235403465,1098.5601618420299,1091.5869555516665,1096.2226117083567,1109.7507501119367,412.5731567385792,88.65979410938972,-862.4014891298564,-85.57727480292839,158.13369938003007
48.1475,0.5863751823097597,-0.7151462662941012,0.7190225471789649,0.0299253090665156,-0.0015802374752424,-0.0027144718046662,0.0039038649456756,0.0012827412805199,0.0212319558782772,0.9997659405436304,-0.0372001763608308,0.0253346506219637,9.789019712262176,-0.0047810354829464,-0.0070369412336815,-0.0012189754740977,9.137180199282032,3.7333081612700214,2.0954010458430643,1099.9371764602151,1091.9496580000773,1094.211467379549,1109.6844021490276,732.0636390462206,227.88949999656128,-764.3368145814422,-2.650666694446637,158.13434960219055
48.15,0.0982230398009441,-0.5402940450222256,0.5707847341973576,0.0313763275667508,-0.0018467076107972,-0.0016187021118478,0.0039214134465272,0.0013089234064018,0.0212298828524518,0.9997658753040268,-0.0361220176921582,0.0272776970842457,9.790520146215597,-0.0048552846107464,-0.0070896680383641,-0.00133226866841,9.137166627572473,3.7332871338811056,2.0954045334915605,1102.2204800372576,1092.7264030516483,1092.4009276354527,1109.7374967784644,904.9829554107793,336.82107900495845,-533.9247461733518,8.576721006234198,158.13514898758945
48.1525,-0.3742181596014431,-0.431879793211794,0.443894425048697,0.0318312079328434,-0.0013385497257071,-0.0010069671725213,0.0039346397478041,0.0013173220551256,0.0212323716651279,0.9997657480576988,-0.0345000543470889,0.0291662967376133,9.792402641765191,-0.0049177932374786,-0.0071313089156698,-0.0014422346379873,9.13715118614184,3.733267082745374,2.095400276274312,1104.4620912372711,1093.6337633951027,1091.5418436486807,1109.7272857540588,914.762984166678,401.5577235415768,-192.81294664391817,-48.43981477544981,158.13583423712439
48.155,-0.902754815201124,-0.3670527996621611,0.3302914568601641,0.0312721216000874,-0.0010680547619808,-0.0005353772725199,0.003944583619335,0.0013114387464376,0.0212368545207983,0.9997656041323107,-0.0324418257443107,0.0309839218312323,9.794644973205532,-0.0049674209132983,-0.0071619347256429,-0.0015422126370689,9.137134552662712,3.733247803290829,2.095388711332226,1106.7942949580931,1094.7341916693572,1091.4368629022329,1109.495297704587,909.7926054128579,453.2549138494717,77.87803568856168,-143.83453708805413,158.13654334030315
48.1575,-1.458174563626317,-0.3235679538141114,0.2334911933086806,0.0295346574531795,-0.001494186842049,-0.0001970134032364,0.0039516804304022,0.0012962711153629,0.0212447483245281,0.9997654055351944,-0.0300856044850229,0.0327001931349257,9.797215326292488,-0.0050037625876208,-0.0071817751802568,-0.0016261972193912,9.13711778901999,3.7332287875178,2.095371500571695,1109.0110542643315,1095.9000379643483,1091.9312338271232,1109.0081130686192,821.6548993429914,452.3720410360471,316.60507656949625,-256.73507828610633,158.13727540627465
48.16,-2.0071160385944484,-0.2757594002690887,0.1579432936715223,0.0258372644077609,-0.0026945682121401,1.114555966017176e-05,0.0039585996561022,0.0012746555112958,0.021255348223357,0.999765155487053,-0.0275267203751737,0.034325659227856,9.800073348477316,-0.0050271394231727,-0.0071911942342752,-0.001689696980083,9.137102462129848,3.733210171331815,2.095351981850865,1110.9025694548104,1096.9960518745384,1093.0198882850812,1108.2116223131559,726.0913149573677,426.90138936069144,566.4428301684724,-402.1690046756464,158.1380390424206
48.1625,-2.594391455427429,-0.1766375115536613,0.0875221182980213,0.0186044986181443,-0.0044397018999743,0.0001811790235308,0.0039661089970435,0.0012489374135816,0.0212649027697887,0.9997649316434728,-0.0248508571533928,0.0358325368938847,9.80317239379997,-0.0050384661529117,-0.0071906291949762,-0.0017303725968446,9.13708925649779,3.733191987417464,2.0953338113014865,1112.6415108391202,1098.0345449111528,1094.7634479779672,1106.99726804524,539.6330787740131,312.8985638862222,671.3171529942623,-463.88184877438454,158.1389967460159
48.165,-2.9779489514394153,-0.0422803692838634,0.0397635577587532,0.0103897534570859,-0.0057753233247717,0.0003066138115854,0.0039742331592848,0.0012270096884989,0.0212719529224775,0.9997647588429516,-0.022250481242896,0.0371811978824869,9.806461189185777,-0.0050390484140289,-0.0071804909952345,-0.0017481343873396,9.137077468855086,3.7331737194057775,2.095319888893747,1113.600734848678,1098.5605446939683,1096.3764740500494,1105.892213069286,283.8062896119394,130.2916803160558,634.991530964492,-427.230191890894,158.13983266991792
48.1675,-3.2144425958010374,0.1495741693158887,-0.0051815190592521,0.0010805830919628,-0.0065130424256699,0.0004519167168928,0.0039878513252271,0.0012146714049837,0.0212731808826919,0.999764682742374,-0.0198721938657896,0.0384275626285591,9.809885872181937,-0.0050302939044742,-0.0071612143894818,-0.0017445573233893,9.137066137979303,3.733154625297329,2.0953118744141097,1114.0605422871806,1098.6860033127334,1097.9384056327913,1104.8611170857844,99.51091941365488,-24.658801244946638,641.9787483578956,-398.13770095240767,158.14071173363536
48.17,-3.3217233521740286,0.4302197618125639,-0.0648646857693248,-0.009668973838059,-0.0063642191006707,0.000638774781669,0.0040083535430944,0.0012059304393548,0.0212659931758867,0.999764757896324,-0.0176289506213807,0.0395566103676993,9.813393890872307,-0.005013639642175,-0.007133267962278,-0.001722157162667,9.137054891386793,3.7331348220729095,2.095308785575149,1114.0982894457463,1098.4372506877435,1099.5863677918403,1103.901524564523,-59.33897437563186,-135.64025172230288,556.7086236551011,-282.2446801856879,158.1418207409033
48.1725,-3.28064422323057,0.68431305534726,-0.123490915098429,-0.017723349587832,-0.0054098005851578,0.0007448237408392,0.0040366589742104,0.001194003756872,0.0212497066097128,0.9997650023351176,-0.0154137019801176,0.040547118386225,9.81693451582466,-0.0049904860685098,-0.0070972547061033,-0.0016836512036599,9.137043533853696,3.7331152414894055,2.0953090331439044,1113.7638474153027,1098.0078020541223,1100.7219487510642,1103.4498936848572,-192.4746872381472,-184.32906736156505,409.96636873857767,-89.87026085424027,158.14279297472285
48.175,-3.13492094545139,0.9259772452487846,-0.1915209176332914,-0.0248746347942692,-0.0034977377151883,0.000644404659775,0.004065138545238,0.0011787556645011,0.0212302034330949,0.999765318693598,-0.0132480680313627,0.0412172315180546,9.820461173294621,-0.0049622353017478,-0.0070538875292564,-0.0016315232023198,9.137032501257066,3.7330958180977616,2.0953105725235903,1113.135916009555,1097.5156053509352,1101.6361996355345,1103.4521732602516,-319.89388688591134,-193.42912436840487,372.81164428881334,113.62951791323763,158.14381843052664
48.1775,-2.8715856785039446,1.1590658864959844,-0.2779408050030764,-0.032585294831492,0.0001649244388935,-1.0026534982540068e-05,0.0040781538284664,0.0011613817937194,0.0212147372043291,0.9997656101887612,-0.0111782118692045,0.0412333433137351,9.823932713030114,-0.0049302238067918,-0.0070040507920129,-0.0015676280192253,9.137021857488206,3.733076021030455,2.095310578619036,1112.1643779808724,1097.04065643228,1102.5860069725093,1104.0180412744237,-371.60035631047464,-132.89524677146156,344.21130849390846,297.98379111689246,158.14511413621875
48.18,-2.593401829612468,1.2786314008823472,-0.3474168108394697,-0.0387758258329402,0.004074455094568,-0.0011642305816055,0.0040661209201522,0.0011435782215873,0.0212075346406822,0.9997658200615144,-0.009253143165092,0.0403867964938186,9.827311693156533,-0.0048956292563815,-0.0069489303900293,-0.0014929966735559,9.137011360242795,3.7330557235509287,2.0953086274102204,1111.2779142280046,1096.8511291170785,1103.3572561780024,1104.9420922158347,-343.5995306515513,-16.153928647955503,326.0117528570996,450.1065268550036,158.14625067410995
48.1825,-2.2628364828160943,1.3014401328739627,-0.4098023063362274,-0.0450641729899469,0.0082273342384214,-0.002597166633623,0.0040250621597049,0.0011324992917452,0.0212094099529307,0.9997659361738788,-0.0076226246485044,0.0385884259814492,9.830564600019304,-0.0048594287563074,-0.0068900943044893,-0.0014081411897292,9.1370007974928,3.7330352173102623,2.0953055126146176,1110.4463803276135,1096.95988678904,1104.2160657367956,1106.2685739086999,-304.47070459734164,97.31727536590849,367.2996956658548,581.932132582208,158.14744891707812
48.185,-1.8957435142479937,1.2425887440596135,-0.4688244794178024,-0.0509024170252451,0.0121380127282431,-0.0037809736890957,0.0039549949438521,0.0011336596287527,0.0212203019093386,0.9997659545712712,-0.0063985054112687,0.035835131408807,9.833662765539728,-0.0048224677775224,-0.0068295332431445,-0.0013132821295601,9.136989988960787,3.733014691973045,2.0953010163676304,1109.7555607050172,1097.3377154939083,1105.1937546563327,1107.8517528787472,-224.1174246835036,210.54891352733696,419.41291437530657,674.3027620912692,158.14870024377456
48.1875,-1.5030083506991867,1.098065722590188,-0.531790397829817,-0.0552239974785813,0.0151790072235038,-0.0046885305888404,0.0038613556335585,0.0011502895837988,0.0212365945783906,0.999765930983604,-0.0056419037070363,0.0322385344336241,9.836582580003837,-0.0047854641996041,-0.0067697252314149,-0.0012085694662396,9.136978761370186,3.7329945740758577,2.0952951444214505,1109.3257932041972,1098.012631356676,1106.3131303086702,1109.6400877191531,-115.3411648669274,345.28988305223294,512.798471747931,811.7997067730464,158.15001770921145
48.19,-1.0364372692765655,0.8523104851793925,-0.6202522800022149,-0.0581941022625336,0.0177703579472275,-0.0057645650566881,0.0037524071282588,0.0011828590770998,0.021250509688173,0.999766004354767,-0.0053551661089241,0.0279745350611145,9.839306477064657,-0.0047490656271216,-0.0067136141492605,-0.0010943677141703,9.136966971805224,3.7329755368262414,2.0952880469654853,1109.178854880683,1099.0641649091679,1107.75774701507,1111.9107514126088,7.4713209008184975,402.35941096668614,533.9567623948366,844.5064105590745,158.15167762994653
48.1925,-0.6749889544805395,0.6072254223144073,-0.7055269031827907,-0.0587684588183688,0.0192867240810058,-0.0065634779671447,0.0036435612172843,0.0012255336322351,0.0212586228971707,0.9997662018191696,-0.0054100228342889,0.0233672990893661,9.841823123880888,-0.0047140449375422,-0.0066644404910342,-0.0009714004950334,9.136955222305543,3.7329576996363416,2.095280848315564,1109.363149808701,1100.0244284115104,1108.9829141206455,1113.8626197719507,123.78960845188008,366.54231535730446,482.94514787837966,793.3893938946345,158.15312833997575
48.195,-0.3527810038949119,0.3404111030899814,-0.7934585416105759,-0.0581288942408139,0.0201981000926661,-0.0075900423342499,0.0035470726715265,0.0012714874585731,0.0212599733280303,0.999766512318974,-0.0056570884264069,0.0186886906736205,9.844129347377422,-0.0046812840061179,-0.0066255834425127,-0.0008410772288952,9.136944693755884,3.73294114336028,2.0952748846506686,1109.7978029229428,1100.896876485955,1110.1724727544631,1115.877698382084,217.5859173598088,322.1365314024498,512.0074682245213,909.0552535989982,158.15465078830775
48.1975,0.0105354556186952,0.0136655062497615,-0.8752594051624561,-0.0578677074353368,0.0206123479162566,-0.0100185185824697,0.0034615365487078,0.0013173474533898,0.0212519274993124,0.9997670025763418,-0.0060186584595803,0.0139528286062229,9.846231369205293,-0.0046516135924818,-0.0066004119344249,-0.0007056418224346,9.136936072679944,3.732926327158239,2.0952704715348287,1110.4510793954992,1101.6351110685212,1111.542951461766,1118.4078960399415,231.0135095762417,195.00280234591656,496.7327256904087,948.3277667313511,158.15656232849253
48.2,0.3271671205979297,-0.2524919272575708,-0.8990047921047747,-0.0587232070318074,0.0203875594724863,-0.0130742982633139,0.0033830396357925,0.0013614009156222,0.0212333262523784,0.9997677187685012,-0.0064493800903708,0.0091338754408453,9.84814315013903,-0.0046256399447887,-0.0065920775742186,-0.0005678409456689,9.136929018252722,3.7329129307064255,2.0952685417954235,1110.9528704708243,1101.8718904976852,1112.6561363829164,1120.6193372157431,153.2129382485107,0.7699430763291883,444.7603733730828,892.6198986450324,158.1582266004905
48.2025,0.6930454032695427,-0.4988681241400937,-0.8553369506353656,-0.0594725162675768,0.0194966563170732,-0.0162746257631713,0.0033088292613351,0.0014040357878969,0.0212049992266395,0.9997686617979612,-0.0069442406313659,0.004237285333639,9.849885650040227,-0.0046035082187017,-0.0066033040834929,-0.0004306168480353,9.136922309422935,3.732900223942969,2.09526942296492,1111.2171440867423,1101.6389607839028,1113.7667533286326,1122.8709955331688,25.674007172552297,-208.02629687223816,486.2848382879168,957.9714853071055,158.15996524243553
48.205,1.1959635159818909,-0.7555182330801815,-0.7216214302443663,-0.0585646872744235,0.0175298076593925,-0.0193430005558885,0.0032361068450281,0.0014459804006433,0.0211684930997458,0.9997698192006038,-0.0075053264832566,-0.0007261993436473,9.851486405460829,-0.0045847561277748,-0.0066362423111196,-0.0002967729305206,9.136914690316944,3.732887623453675,2.0952721966670635,1111.0812405066872,1100.8317590133252,1115.0875605743538,1125.4091946422743,-136.9832408334086,-368.15469230345377,471.7810511081867,857.3958007793569,158.1621371434507
48.2075,1.6489852769145468,-0.9258630608657196,-0.5523619846299641,-0.0559643560271042,0.0151288928815852,-0.0211295756701876,0.0031666367913554,0.0014864544755686,0.0211263903575773,0.99977114273836,-0.0081042311941043,-0.0056523502271726,9.852978268892569,-0.0045683619861675,-0.006692392737161,-0.0001685923160804,9.136905619089076,3.7328748331474166,2.095276413485669,1110.5322278825747,1099.7981873223844,1116.1256585841747,1127.157974537068,-300.81495393135884,-456.6289066835844,380.32517615514377,562.1652425594982,158.1640174456267
48.21,2.0957242435151575,-1.0424590649188703,-0.3424723333865115,-0.0514003961317928,0.0122251038859764,-0.022142897837324,0.0031050498004816,0.0015218721302028,0.0210826674644362,0.999772545528908,-0.0086578182591398,-0.0103794378448652,9.854398464084138,-0.004552921603538,-0.006772574857477,-4.762961763619343e-05,9.13689539294691,3.7328617723533433,2.0952819153156965,1109.5771657370296,1098.548614479906,1116.9891864551305,1128.2200208550732,-425.0550531874752,-505.60475966549853,298.37517654341207,272.56461027020356,158.1659690657196
48.2125,2.501371856389905,-1.113967467301664,-0.1149191025572009,-0.0453396458123418,0.0093135554339702,-0.0225072548796916,0.0030590633132527,0.0015488031790572,0.0210404904713312,0.9997739392496158,-0.0090868532803212,-0.0146848888923828,9.855787011143613,-0.0045368282920794,-0.0068769340606013,6.542901499885592e-05,9.13688356896529,3.732849292520185,2.095287999987213,1108.4069526166395,1097.2701635240592,1117.6175344668904,1128.5207975884175,-474.8230715729122,-479.8329296213343,179.92824626589825,-84.3350362373281,158.16797801679647
48.215,2.819217721465664,-1.1370906070272353,0.1163910001530313,-0.0380386117883197,0.0065873804873635,-0.0222118601210463,0.0030360169988881,0.0015648056069377,0.0209992637643587,0.999775294816488,-0.0093338597933076,-0.0183555724306587,9.857185173287053,-0.0045184636550188,-0.0070048909718615,0.0001708063317001,9.136869673314065,3.732838134918013,2.095293971941128,1107.2030503791639,1096.149449831798,1117.8888276864604,1127.7983456738864,-472.29731513669714,-412.3143960045746,34.7385704909179,-535.6352594088081,158.17005328359224
48.2175,3.065230370520628,-1.1199780296961999,0.3804037739832819,-0.0287265643032598,0.0033964634649083,-0.0213729002674177,0.0030291043655683,0.0015681146688593,0.0209594411674806,0.9997765729406412,-0.0093624624113464,-0.0214616986461516,9.85863408871165,-0.0044965393656828,-0.0071549282592259,0.0002694191240592,9.136854184280644,3.732827457547229,2.0952982644487577,1106.0454660409548,1095.2085915440355,1117.7912273193451,1125.8426212913723,-335.035294085933,-254.1585894581696,-95.48734352606104,-851.0150601784525,158.17261583917767
48.22,3.144287652903502,-1.0764856380356482,0.5786885913648001,-0.020725633483924,0.0009059994985059,-0.0203208595094184,0.0030313787223074,0.0015592915668586,0.0209215664142652,0.9997777016452242,-0.009183651202829,-0.0240824858351164,9.860172042254938,-0.004470356238206,-0.0073244286243993,0.0003628688822413,9.136838090479582,3.732815986628857,2.095300304242232,1105.5278739087355,1094.8786568845085,1117.4113909688303,1123.543270372998,-84.65039661587286,-24.091942087112734,-191.4450549710112,-973.8741427619992,158.17480780017493
48.2225,3.088134347405492,-1.0109730889545727,0.7423014276907026,-0.0125313183322218,-0.0014179194185006,-0.0187792698678019,0.0030394021835951,0.0015400446624202,0.0208870634061786,0.999778544973142,-0.0088305008395275,-0.0262367593111508,9.86183292426646,-0.0044399829982342,-0.0075096373047241,0.0004531857292153,9.136823049502512,3.7328019351562234,2.095300650957487,1105.6222140578752,1095.0881318335998,1116.8340020444896,1120.9732505775598,183.24842979372707,213.59467424511408,-271.46612759579267,-1085.5503123629107,158.17705364259345
48.225,2.87373179671249,-0.9135284780064764,0.8833310172759292,-0.0031762944350429,-0.0041668953282193,-0.0161842134797006,0.003050556573752,0.0015138839209244,0.0208603039753358,0.9997789406740892,-0.0083716452800969,-0.0279373557796495,9.863645128321851,-0.0044062751223933,-0.0077058463395761,0.000542462810795,9.136810168039071,3.7327838738090255,2.0953003044753222,1106.4441160577048,1095.9466302557344,1116.0540603308507,1118.1155188111807,397.8051832960298,402.53554807905186,-284.8907409441698,-943.2604780624781,158.17980503973925
48.2275,2.5894783049147256,-0.8203403466730959,0.9448104733435548,0.0035386192217505,-0.0063637458488679,-0.0134327235088936,0.0030648612935338,0.0014858005566987,0.020844693533115,0.9997789152713776,-0.0079035363384041,-0.0291566008142866,9.86563057310823,-0.0043706260602998,-0.0079078543672904,0.0006326863166352,9.136799148368125,3.7327619611705023,2.0953009496778097,1107.6112399743536,1097.1008095739933,1115.40954833977,1116.2569481872515,523.1261712030171,527.5654219829023,-249.12051756019525,-585.2882661557221,158.18214029156078
48.23,2.222834322739236,-0.7200826466132225,0.942825912979028,0.0089005215781739,-0.0081943996809517,-0.0104874252240956,0.0030779631021761,0.0014567409870623,0.0208396127875822,0.9997785967719616,-0.007443729529146,-0.0299674258966621,9.867804358746946,-0.0043346484796295,-0.0081105183384472,0.0007256587895146,9.136789853534639,3.732737222563921,2.0953030825067005,1109.0597469137213,1098.5844573656505,1114.8084577430493,1115.1890774804003,643.8449970497348,694.3978207745744,-260.35302863233807,-276.37155624069646,158.18451380831587
48.2325,1.7173496144052052,-0.5991956792602644,0.8742084431708903,0.0140025710576861,-0.0101631961806812,-0.0072207692192489,0.0030859207645971,0.0014267510009367,0.0208432460196635,0.9997781058592332,-0.0069907233057224,-0.0304476668026276,9.870174035323599,-0.0042999719625502,-0.0083091647663261,0.0008231755987246,9.13678176074056,3.732710753465396,2.0953060921530913,1110.830464959604,1100.572798677868,1114.1077831966077,1114.8750904060475,617.3777553651847,738.7271945695726,-264.41079375469087,25.245088784800146,158.18739916271275
48.235,1.2576418621275711,-0.5040300407488705,0.7757259872963201,0.017198165441035,-0.0117674181283947,-0.0050137457537728,0.0030892960777526,0.0013955603687169,0.0208506693369826,0.99977758677084,-0.0065337386807567,-0.0305984271626163,9.872739256212569,-0.0042680170301063,-0.0084998791089001,0.0009272291685917,9.136774036627864,3.732683848629627,2.095309432922127,1112.1466356905444,1102.2780933384947,1113.486403774277,1115.3153029243244,465.40369317280073,665.6167782872905,-270.75559583217694,274.289253616185,158.18982910488728
48.2375,0.7700945493375888,-0.4246742733048948,0.657453517281612,0.0194966951983952,-0.0128235477435212,-0.003457654676332,0.0030845133945849,0.0013638130509899,0.0208593762175161,0.9997771243348156,-0.006081040608909,-0.0305129134956062,9.875491897603824,-0.0042399854085797,-0.0086795802273451,0.0010399077063703,9.13676619896686,3.732656657081384,2.0953120123008846,1113.157483425469,1103.900882569306,1112.754005217446,1116.2465366741292,348.8470314227049,619.1649089721084,-318.59154111977733,412.2154725860293,158.19227862889153
48.24,0.2652384404808736,-0.3676721376763376,0.5408108347284765,0.02121649018366,-0.01322959152483,-0.0024291388281951,0.0030697553865486,0.0013327197923808,0.0208709306851223,0.9997766981460235,-0.0056512135980781,-0.0302587002838259,9.878416154888916,-0.0042168689239415,-0.0088459974900415,0.0011634211489505,9.136759015507568,3.732629336666392,2.095313137663967,1113.8908708476588,1105.373917883357,1111.8934460686771,1117.3763802872556,238.98935372325377,538.5523538023231,-375.5683168080628,454.5691021146509,158.19473899795105
48.2425,-0.2506763849872478,-0.3444409028609057,0.4437334437981476,0.0220093899958423,-0.0134038879071944,-0.0019497982744425,0.0030502157085846,0.0013032262667329,0.0208840204429387,0.9997763165648028,-0.0052549181642195,-0.0297724626351646,9.881488921979239,-0.0041992822921288,-0.0089976739119038,0.0013000127704462,9.136753306528052,3.7326025712948327,2.095313416663138,1114.3524301940843,1106.5936443383152,1110.8761636334075,1118.5193821847004,170.9614957470911,466.7561405836181,-472.35942356186047,463.542501741121,158.19720558768407
48.245,-0.8570706012266914,-0.3524596922469374,0.3616165318104812,0.0214083748291067,-0.0138258610945172,-0.0015682315943522,0.0030328957148763,0.0012810725009596,0.0208970963610383,0.9997759771402326,-0.0049978685079024,-0.0289585410432713,9.884680475592711,-0.0041873758387071,-0.0091338501709898,0.001451623737713,9.136748787265805,3.7325771167625854,2.0953136200146565,1114.7456783263947,1107.7076985862764,1109.5316489508668,1119.6940927959624,141.89336422784453,347.1207726994678,-497.49690324940286,380.285882902932,158.2001633920871
48.2475,-1.3215443952422519,-0.3788456589871576,0.3211071329189986,0.0193110449358042,-0.0143768481565198,-0.0011251420116717,0.0030222912925606,0.0012737415737101,0.0209105617879254,0.9997756400125845,-0.0050233150629408,-0.0277733863521757,9.887955626398643,-0.0041806920787256,-0.0092542696492647,0.0016197112861261,9.136744444562298,3.732552859688963,2.0953143283105327,1115.0618970152238,1108.3292482018135,1108.3886791171592,1120.420811599216,145.95141955300815,185.34363354332103,-436.81709892488175,231.7645945865768,158.20261937279056
48.25,-1.6968583946463127,-0.4071193707459243,0.3002573005954463,0.0153633132210908,-0.0155124642863622,-0.0005476749051959,0.0030137500418162,0.0012832808962139,0.0209245414526952,0.9997753013511598,-0.0053735535683483,-0.0263580116004254,9.891275292863636,-0.0041780126437171,-0.009358999511199,0.0018051311470494,9.136738839190576,3.73252895230266,2.0953149859632063,1115.475435424159,1108.634416753992,1107.3475634562444,1120.8529157688943,213.56024846596807,63.62055103665045,-404.3350784582838,128.2795765255544,158.2050572929973
48.2525,-1.988484468760524,-0.4206455821031455,0.2815337312511909,0.008722520492104,-0.017568342520973,0.0003028134510844,0.0030048731132009,0.0013058805238655,0.0209375647366813,0.999774992141746,-0.00597728827352,-0.0248109958933785,9.894597623028538,-0.0041774104741379,-0.0094482504284255,0.0020083132118007,9.13673060206321,3.732504569363957,2.09531587005854,1116.1296982575527,1108.6473509569964,1106.3670037248696,1121.0622094818432,261.4832427946139,-52.23379308278765,-296.35929491735925,35.02404848457472,158.20795111996503
48.255,-2.068571840438239,-0.4051125802756436,0.2581944686574664,0.0021282997004684,-0.0191617515596668,0.001198257362428,0.0029908974090808,0.0013349689310183,0.0209483564257992,0.999774754245355,-0.0067130652639401,-0.023276712576756,9.897879533574516,-0.0041765767624365,-0.0095223370652638,0.0022290999155394,9.136719332391277,3.7324787465363976,2.0953170255962448,1116.7828516381328,1108.373247788578,1105.8657669816569,1121.0280360113172,267.66966707468725,-166.7852953630756,-121.45965631851293,-44.3546615687183,158.21032802068896
48.2575,-1.9669996402479464,-0.3613274528105002,0.2136539969673031,-0.0044788144363775,-0.0201103719624489,0.0023157578349461,0.0029662041446038,0.0013598268074266,0.0209586583402109,0.999774577975466,-0.0073812385489814,-0.0219143700083142,9.90107824416916,-0.0041732751891518,-0.0095817507766406,0.0024667368342064,9.136706321496638,3.732450682201364,2.0953180836111267,1117.4680465929268,1107.8134244801806,1105.7597054432767,1120.8404361739995,284.58146609185366,-309.9370599717167,48.091618297119645,-107.42791010371312,158.2126587920752
