t,ang_acc_x,ang_acc_y,ang_acc_z,a_vel_x,a_vel_y,a_vel_z,quat_x,quat_y,quat_z,quat_w,acc_x,acc_y,acc_z,l_vel_x,l_vel_y,l_vel_z,pos_x,pos_y,pos_z,mot_1,mot_2,mot_3,mot_4,dmot_1,dmot_2,dmot_3,dmot_4,vbat
7.782499999999998,-0.7742272311185285,0.4526350908529308,0.2695464096194076,0.0589953982227435,0.0432153515153224,0.004053710261225,-0.0030254382483918,0.0044390783315555,0.0264674175639824,0.9996347466849986,0.0183631264178412,0.0198235935994023,9.832566783580356,-0.0329288528385915,0.0296427377476757,-0.0109797557174357,8.47283287603918,0.0057035450663442,2.0856585672371946,1121.9677772423074,1132.5079339693334,1114.7890129181208,1134.9507400492068,-245.1234221056036,-44.33465476454425,-256.5593092491381,416.0201988420429,158.54685387548875
7.785,-0.3816759997129102,0.1661518397600891,0.3866348583417962,0.0570582483802677,0.0446658857660643,0.0055690720898358,-0.0029786455824144,0.0044889844123922,0.0265029238580621,0.9996337223501498,0.0186672993633318,0.0198767372421402,9.833001964959719,-0.0328873996421009,0.0299518813495625,-0.0108582861354611,8.472750024888503,0.005773696576352,2.0856253794564745,1121.3645128937203,1132.3084830606078,1114.1362979109797,1135.7720942094732,-250.2796971978177,-124.9455683817164,-248.9856768953425,242.33199208952857,158.54664449363796
7.7875,0.0360544140676734,-0.1437915736654238,0.4359837350726929,0.0562140584137676,0.0447401384019217,0.0073597678804606,-0.002928989358962,0.0045401608005405,0.0265386906951821,0.999632670130482,0.0188666763144712,0.0198516570482704,9.833099256424129,-0.0328469504460176,0.0302550286857375,-0.0107341775358764,8.472669143115283,0.0058439279818332,2.085594611748588,1120.716378756318,1131.8832061274247,1113.544084533644,1136.1624000096547,-281.75066021863734,-230.92959095288768,-212.48159578922687,48.348870808468874,158.54644121223032
7.79,0.4500668585161767,-0.4331403107438747,0.3887398103476124,0.0567701525774576,0.0430420414024117,0.0091515898168128,-0.0028855632281697,0.0046034507328771,0.0265707435811049,0.9996316238983952,0.0187482041505352,0.0195853577374866,9.832880852024125,-0.0328081083036126,0.0305534004954925,-0.0106118650486666,8.472588868599447,0.0059142609304518,2.0855673118456046,1119.9557595926271,1131.1538351058434,1113.0738899320336,1136.0138385635155,-364.5720291569965,-380.0689702781792,-180.0780197121678,-177.27179891149183,158.54624308691712
7.7925,0.8945985501141915,-0.7042468685132819,0.2170053388732444,0.0589276895636702,0.0394509616747076,0.0114971567401317,-0.0028513650132874,0.0046816597569592,0.0266017489412862,0.999630489199538,0.0182634330081356,0.0190285914189132,9.832380351516168,-0.0327704236394855,0.0308483662274247,-0.0104959647665997,8.472506695325547,0.0059847204643114,2.0855429652709945,1118.8935186105332,1129.9828612760339,1112.6436944350833,1135.2760410150972,-406.3099370407231,-457.647067806293,-144.564934979829,-342.9007875614007,158.54600872661644
7.795,1.1872308563558023,-0.8470955902665342,-0.0101321509448026,0.0620793688807028,0.0361081776547077,0.0134237050909831,-0.0028198224874988,0.0047730937864927,0.0266311950039329,0.9996293045550874,0.0174582094468117,0.0183150756550081,9.83164119577022,-0.0327330148921473,0.0311406443479353,-0.0103913086867745,8.472421580134823,0.0060559004249359,2.0855215968588956,1117.9242099074238,1128.865599766812,1112.3510652571345,1134.2993346257083,-383.74142950029545,-440.98742167935626,-118.43613313681342,-431.04256277129946,158.54581457205504
7.7975,1.3657068439145017,-0.9066528360728702,-0.2864313257854603,0.0665537993417196,0.0333553899985834,0.0144559662626856,-0.0027733798760803,0.0048648727770833,0.0266567580938466,0.9996282340967502,0.0166045606185991,0.0177857887339326,9.830716641999988,-0.0326949817623303,0.031430351354421,-0.0103021983965545,8.472333688433771,0.0061283919125364,2.0855026406279955,1116.9748114630315,1127.7779241676371,1112.0515137693992,1133.1208282012408,-380.3809670887485,-427.9488526128807,-148.9752707420425,-521.2782591692869,158.54561980476626
7.8,1.4312541199811208,-0.9078284291890284,-0.5988033412655529,0.0721250956533157,0.0309505547635898,0.0133003134802221,-0.0027025064586182,0.0049429401993102,0.0266771517948091,0.9996273987058616,0.0159940834892444,0.0176208542753069,9.829669067886154,-0.0326554328299774,0.0317176307522951,-0.0102315770505624,8.472244485369618,0.0062021324089641,2.0854849546176935,1116.02230507198,1126.7258555037477,1111.6061889034243,1131.692943329862,-294.6252090450861,-317.42749562632287,-184.8484541676083,-498.7746757360689,158.54538330851165
7.8025,1.3688705436324924,-0.8725312076941582,-0.7770207219241319,0.0757806051996201,0.0294763208941219,0.0100009309506903,-0.0026065867004451,0.0049979491434604,0.0266932473874399,0.9996268207019836,0.0158218049991185,0.0178255894356242,9.828566815678732,-0.032613602405102,0.0320028177960974,-0.0101811048912651,8.472155527773873,0.0062765955693035,2.0854673553247367,1115.5016854178064,1126.1907866895056,1111.1272714985612,1130.6269548225605,-129.35785659658703,-126.469819442744,-217.07124981936676,-381.70726438687274,158.5451822743435
7.805,1.2065034665733312,-0.8191051592373805,-0.8044309590560135,0.0781540445327541,0.028137809171652,0.0053689876039221,-0.0024905509235287,0.0050269004203653,0.0267087470464993,0.9996264069308752,0.0161559583300442,0.018298138201528,9.827480818740803,-0.0325688871056389,0.0322864442358444,-0.0101513758822956,8.472066806771887,0.006350922817638,2.0854489599625903,1115.375515788997,1126.0935064065338,1110.5208326543273,1129.7844070079275,50.23187847205116,54.906789276175274,-293.84360689687753,-317.89015517338834,158.54497499318802
7.8075,0.916895545422258,-0.7426909420985846,-0.6332457901129334,0.0803133426759836,0.0262941917163837,6.7253948236123485e-06,-0.0023674194723731,0.0050410828678714,0.0267243562185202,0.9996260445038276,0.0167798123744895,0.0187838190519193,9.826480817226,-0.0325210554352355,0.0325688492245867,-0.0101423211787597,8.471978291125657,0.0064254484592742,2.0854308372091883,1115.7528448101666,1126.4653206358864,1109.6580534640768,1129.0375040466936,228.77470187104825,201.20661831816025,-333.58169407438965,-241.940057673815,158.54471631527275
7.81,0.6015532746369446,-0.6679614298598637,-0.3372585069029881,0.0819629705220527,0.0244981171687195,-0.0034418719670718,-0.0022459787057231,0.0050447169818823,0.0267447672982941,0.999625561129927,0.0176193287196625,0.0191071058732684,9.825634608898849,-0.0324702094822898,0.0328503102488468,-0.0101525742210422,8.471890673107296,0.0065007107920894,2.085413834548111,1116.5193892983523,1127.0995394981246,1108.852924183955,1128.5747067195584,393.1492274132863,290.4766317288766,-329.97193350089015,-177.57793968512863,158.5444903303695
7.8125,0.2072941395499775,-0.5788851342015148,0.056343925254637,0.0837042482593631,0.0227450398715135,-0.0048818257632541,-0.0021360860883872,0.00503836067092,0.0267721267832067,0.9996248822177136,0.0186723492146294,0.0190692513737108,9.825005351191821,-0.0324170570493394,0.0331306782092084,-0.0101792919517065,8.471804301349215,0.0065766030333582,2.085397320240367,1117.7185909472328,1127.9177037945308,1108.0081937965724,1128.149614348268,538.2033678453014,332.696848132089,-334.76871615030893,-186.9927655291616,158.5442508006741
7.815,-0.2510259966370805,-0.4779905794141205,0.4628123994138924,0.0850978078446856,0.0213157825288938,-0.0039055400684513,-0.0020386023210813,0.0050171012638749,0.0268044262772384,0.9996241059489815,0.0200491662015535,0.0186455237915715,9.824647819084374,-0.0323629190867768,0.0334090543798072,-0.0102185993627356,8.471719400246396,0.0066528632318289,2.085379125970412,1119.2104061375787,1128.763023738785,1107.1790806032038,1127.6397428919126,642.0096317889737,319.50756370361654,-314.7764467397859,-250.40089441936823,158.54399786642412
7.8175,-0.7685541337990839,-0.3661276995729082,0.7972931947479469,0.0849335921198519,0.020367883162208,-5.169611670973849e-05,-0.0019462756809128,0.0049832385004975,0.0268391147728386,0.9996233442857478,0.0217235328263998,0.0179751951008386,9.824604161369912,-0.032309052597623,0.0336840068026648,-0.0102664919205268,8.471635326945798,0.0067302116859153,2.0853578803357657,1120.9286391061776,1129.5152416130488,1106.4343115628735,1126.8976098761711,767.2606379829793,290.07164282985,-292.76521773395586,-401.0373651360254,158.5437260061561
7.82,-1.4109594404054326,-0.2242802155034208,1.0314431716451349,0.0819549960769057,0.0196966977632829,0.0061086164277451,-0.001853150706611,0.0049416858892126,0.0268717097086591,0.9996227710948988,0.0236175497772387,0.0171746659661535,9.824904330782163,-0.0322566819102492,0.0339536825094124,-0.0103182735631879,8.471551104721703,0.0068095884345838,2.0853320270712383,1123.0467093274935,1130.2133819529342,1105.715254514534,1125.6345560662323,754.8713728018063,218.31958183675408,-227.06486381890076,-525.6933223154305,158.54337462644622
7.822499999999998,-1.9212780009424604,-0.1020669795740823,1.0630506646559532,0.0770600677016375,0.0194171509974127,0.010876030094725,-0.0017510179720891,0.0048969621528078,0.0268936049700075,0.9996226765924916,0.0256618062268254,0.0164058488831601,9.825565095287518,-0.0322071478525877,0.034215729075765,-0.0103691569594488,8.47146723997834,0.0068916253346048,2.0853011403737245,1124.7029959701867,1130.6068395222323,1105.298987243779,1124.269143264594,609.1366766635149,124.96606574427724,-126.67999476621203,-592.5184931758521,158.5430592032149
7.825,-2.3618991720740623,0.0237908094938878,0.9398484235720956,0.0704374740671749,0.0193303246066783,0.0142957007070987,-0.0016460919565207,0.0048531263666052,0.0269014857911497,0.9996230715810808,0.0277887473358842,0.0155491493188447,9.826591903555764,-0.0321612243767525,0.034468487489286,-0.0104138239103094,8.471384213902532,0.0069758733854965,2.0852673932705907,1126.092392710811,1130.8382122816556,1105.081854540703,1122.6719636003531,528.6530795951049,81.60781195646084,-56.114306106374315,-717.0236674839332,158.54271942720956
7.8275,-2.7849461847476253,0.1796363632544998,0.6650976128954043,0.0618276348041055,0.0194286477994297,0.0165962527125536,-0.0015481222340637,0.0048156514017159,0.026895162221671,0.9996238549366296,0.029900360065853,0.014417993400961,9.827977446515021,-0.0321191141026526,0.0347108918296169,-0.0104478103088487,8.471302855970201,0.0070619477869078,2.085233187929771,1127.3462613681627,1131.0148785820147,1105.0184157132471,1120.6840249271738,386.50334188201583,62.96516026527704,1.903637378563912,-707.6716335264942,158.54228388664419
7.83,-3.0486655695515306,0.3127814189370044,0.3754725860754367,0.0546638209817484,0.019737777909042,0.0172327755001199,-0.0014692494625245,0.0047973359554452,0.0268774472493438,0.9996248247140967,0.0317515763974726,0.012783999315216,9.829701570919081,-0.0320801397835573,0.0349426308392128,-0.0104682019808365,8.471222831583262,0.0071488042655177,2.085201205837538,1128.024909420221,1131.153038082982,1105.0913727275959,1119.1336054327207,201.14402592876533,68.70830043994975,48.55219618080004,-560.8097272482729,158.54189892379287
7.8325,-3.22991709525054,0.4448927714220634,0.070839924587843,0.0474383831901834,0.0204261607499548,0.016965683970146,-0.0014164886651885,0.00480094855395,0.0268572350624062,0.9996256813816232,0.0332946725407986,0.0105151348765635,9.831734084938692,-0.0320426938116922,0.0351642811400371,-0.010472875964367,8.471142643801137,0.0072353727764172,2.085171680258219,1128.3519814978065,1131.3584200842147,1105.2611766941511,1117.8799762909323,78.177139092715,114.65207624956082,98.79201545604911,-448.1033407559248,158.54149358019305
7.835,-3.362949625637017,0.5919606129745327,-0.2714097932597253,0.0385171233955665,0.0218874014696534,0.0159212961208385,-0.0013900890469191,0.0048263402707329,0.0268407450600327,0.9996262351515792,0.0345380992069558,0.0076110041373602,9.834034995827432,-0.0320046364948046,0.0353766558488681,-0.0104607648227847,8.471061072133017,0.0073215055805844,2.085144645882848,1128.4157951156847,1131.7262984642296,1105.585332804876,1116.8930887289412,-17.48287885820938,153.9029690978201,147.92743237021884,-258.54655560420366,158.54098783543336
7.8375,-3.406254389497983,0.695706430563784,-0.5175193116469424,0.0309397118533976,0.0237130612846579,0.0146915010634221,-0.001381942357971,0.0048660749807422,0.0268331828586475,0.9996263813483862,0.0356328295742055,0.0042318013688299,9.836556705314589,-0.0319634078941324,0.0355807507473877,-0.0104313291121114,8.470977514182467,0.007406863698454,2.0851187557803885,1128.2645671035154,1132.1279349297035,1106.000813856002,1116.5872435129115,-86.62484047345245,171.40597535954296,213.02602917267447,-6.642432870967382,158.5405542373973
7.84,-3.375011314469444,0.7712606307789309,-0.7076750548672416,0.0231715128652112,0.0260145819184855,0.0128657092823966,-0.0013826897450737,0.0049131059854666,0.0268358174179624,0.999626131673508,0.0367169427807863,0.0005625781287279,9.839245675794409,-0.0319163384966949,0.0357775367949319,-0.0103843221847445,8.47089245239767,0.0074913012228855,2.0850930979216047,1127.9826709133174,1132.5833283410275,1106.6504629507394,1116.8598765645863,-124.55330082143784,181.1497011927752,310.6915936446124,203.15315833959608,158.54011351765016
7.8425,-3.273344373928572,0.8220937188163607,-0.8440703056624081,0.0151306721508111,0.0283545151765524,0.0104112960311118,-0.0013870123482448,0.004966731202675,0.0268474033844449,0.999625536326976,0.03779583039924,-0.0032875122025604,9.842043992444195,-0.0318607071548136,0.0359679655149262,-0.0103197038560905,8.470806619730922,0.0075747971074772,2.085067394823399,1127.6418005994083,1133.0336834356676,1107.5542718242252,1117.6030093046095,-144.23211735470738,165.9478036377585,429.70231446757685,401.404503102603,158.53967125392379
7.844999999999998,-3.074770805868357,0.848825765723429,-0.9140152303518392,0.0069435386697663,0.0303530130638251,0.007674130108319,-0.001397373360194,0.0050236293639592,0.0268691184562707,0.9996245884924174,0.0389173632851216,-0.0073632834247695,9.844892457396105,-0.031793789011333,0.0361531458505957,-0.0102367890962867,8.470719730534375,0.0076567488254101,2.0850402067293428,1127.2615103265439,1133.4130673592163,1108.7989745230773,1118.8668990800995,-177.73651468051335,133.98842583515315,619.4929074975921,658.1452455550474,158.5392326202093
7.8475,-2.716742181323772,0.8641483492596558,-0.9310536679019802,-0.0023546273329251,0.0322158229962082,0.004788309767159,-0.0014162364076222,0.0050822309501841,0.0268998313176275,0.9996233414940296,0.04009002863246,-0.0117078837597413,9.847730821394615,-0.0317132929976871,0.0363336268173456,-0.0101352324914236,8.470631279341678,0.0077377511481442,2.085010529536435,1126.7531180260055,1133.7036255648432,1110.6517363617131,1120.8937355323847,-202.31161143489336,67.5779160634087,721.8042019381081,810.8108039315636,158.53871782489517
7.85,-2.323273668479066,0.8675407888415977,-0.902488244251676,-0.0091454517101461,0.0336220744687029,0.0029980562909383,-0.0014366331491248,0.0051462762389314,0.0269352921211905,0.999621916315889,0.0412187787023436,-0.01617448486719,9.850498441034558,-0.031617589268981,0.0365089341915631,-0.0100162345018362,8.470541143881212,0.0078194641380133,2.0849803526353807,1126.2499522693693,1133.7509569395331,1112.4079955327684,1122.920953099758,-229.9958135617593,-32.39956017891996,714.4942532009889,855.8676478868801,158.53830404060852
7.8525,-1.849688858304109,0.8569255244602675,-0.8432081958215336,-0.0144202287912186,0.0352910107242484,0.0016748991760029,-0.0014616924188801,0.005224329288224,0.026969742793519,0.99962042717779,0.0421056291628297,-0.02081019609092,9.853137622022643,-0.0315058721057719,0.0366779956882141,-0.0098813485254217,8.470450282394703,0.0079027002576104,2.084952517522616,1125.6031389581967,1133.5416277639488,1114.224207627718,1125.1730737718187,-328.97577271861127,-154.8662495165023,770.0501547831827,1009.0668522156408,158.53791293337855
7.855,-1.2216090482282238,0.8119970389341434,-0.7402970937953361,-0.0186713520353024,0.037547229185356,-4.13687915860126e-05,-0.0014884729432162,0.0053166906064201,0.0269999792656738,0.999618966046896,0.0427178293255252,-0.0255439789809145,9.855595496399225,-0.0313783339681095,0.036839183776251,-0.009732687279433,8.470359530137573,0.0079879058630723,2.084928174689405,1124.6050734057762,1132.9766256919509,1116.2582463066842,1127.966287360836,-404.03453931631657,-252.4270294995457,693.7055075387127,1012.7119687960871,158.53747811314335
7.8575,-0.673832181264616,0.7325222948617726,-0.6221173948320372,-0.0206064007429148,0.0395096009361231,-0.0019143721427656,-0.0015204112835485,0.0054206950413953,0.0270237693379622,0.9996176065389608,0.0430783432626751,-0.0304285634087776,9.857825461785902,-0.03123624076431,0.0369906527127715,-0.0095720287633629,8.470269987368393,0.0080749570478155,2.084906626892607,1123.5829662616154,1132.279492616451,1117.6927351654115,1130.2366336157993,-437.5688148517477,-305.4025544266162,498.6386440713083,864.2347745137797,158.53715073058697
7.86,-0.1267050802829935,0.5913681047820118,-0.4612663437661408,-0.0212482123226159,0.0418005816617268,-0.0041449630685248,-0.0015530984317798,0.0055226774746955,0.0270349319770107,0.999616601062664,0.0434329544715989,-0.0353642109734233,9.859788504489126,-0.0310823648442742,0.0371299887023245,-0.0094009409668901,8.470183474589161,0.0081641801542154,2.0848856842623955,1122.4172293315175,1131.4496129198178,1118.7514395270407,1132.2874612334049,-518.480347171737,-360.80377293111127,375.01023962064096,818.1327265826612,158.53686679854735
7.8625,0.5055970775694005,0.3387293649936313,-0.2209729145591112,-0.0208899961709718,0.044705198634124,-0.00665595683493,-0.0015813210579966,0.0056107907513591,0.0270293979104673,0.9996161503137276,0.0439956557043219,-0.0402304424125733,9.861453118455678,-0.0309199811301301,0.0372549669152801,-0.0092209138043128,8.470101535693347,0.0082556746593959,2.084864305447805,1120.9905645257568,1130.4754737517956,1119.5677863635146,1134.3272972487125,-501.1162416682616,-325.07237832974863,233.08160479719436,659.5775733555142,158.53658352868547
7.865,0.9958236764452104,0.0645104669507163,0.0013866916828811,-0.0196160676048531,0.0464370351539399,-0.0077891152017238,-0.001606779065027,0.0056808348802803,0.0270104647413143,0.9996162184167486,0.0448304237576399,-0.0450353555416077,9.862795446890082,-0.0307518512573434,0.0373642640571556,-0.0090331894948449,8.470022994911131,0.0083491778466228,2.0848419049561167,1119.9116481231763,1129.824251028169,1119.9168475510266,1135.5853491001824,-377.3846993675171,-196.43712598232585,90.12052462256588,402.1241703753557,158.53639975526775
7.8675,1.4231321090860087,-0.2478799355670193,0.208311898376206,-0.0168090887033425,0.0466611634559612,-0.0071513838033542,-0.0016338586659693,0.0057367917730455,0.0269837123375844,0.999616661417681,0.0458426997163064,-0.0498326442394619,9.863799459372034,-0.0305800669030152,0.0374572920731819,-0.0088392480871566,8.469946019623363,0.0084440278783673,2.084818776035655,1119.103641028919,1129.4932881218836,1120.0183889866275,1136.3379181005896,-261.47386040416325,-63.374771415511965,14.04615457699977,221.40269606480177,158.53627450170285
7.87,1.7757387112862997,-0.5599407560486379,0.3698699831880614,-0.0125847174387449,0.045416244417649,-0.0053709081845087,-0.0016664598096087,0.0057938013395152,0.026956722692057,0.9996171676824436,0.0467222363654089,-0.0546581965725486,9.864457035029272,-0.0304057039707391,0.0375342979215383,-0.0086413975305584,8.469869001972327,0.0085386466780756,2.084795779280668,1118.6042788211555,1129.5073771710915,1119.9870783239116,1136.6923625805064,-119.21957255886154,94.61331958919091,-32.794287110846895,62.82437911595613,158.5362001937312
7.8725,2.0134129794893942,-0.8318368218281662,0.4482367694476147,-0.0071052144544748,0.0425764660119098,-0.0031525261272487,-0.0017060133437231,0.0058658767482553,0.0269372013948264,0.9996174325980656,0.0471860643097641,-0.0594983206660281,9.864769709259251,-0.0302291285991015,0.0375962532304098,-0.0084422595154378,8.469791007326224,0.0086316979407092,2.0847728617564627,1118.5075431661246,1129.9663547198295,1119.8544175510733,1136.6520399961692,37.928440263522944,291.98015643156106,-75.99166381383091,-79.66239929755999,158.53618932687587
7.875,2.1475850240839165,-1.0757312365057823,0.4322894584955946,0.0001174324100755,0.0381680497381303,-0.0006847475051799,-0.0017525860827719,0.0059642484749126,0.0269306875620704,0.9996172382456656,0.0470101949646238,-0.0643131449068799,9.864748994365247,-0.0300503343997568,0.0376445819985228,-0.0082446506428198,8.469711820901622,0.0087223849512875,2.084750978266875,1118.7939210224731,1130.967277953249,1119.6071200048425,1136.2940505840184,150.74700458090183,418.9486472600127,-106.46521843523487,-162.38972462888688,158.5362510564998
7.8775,2.1340056189235432,-1.202074260843692,0.3328638144686265,0.0061646629584357,0.0344320666266564,0.0010399441515511,-0.0017928407794822,0.0060807106654185,0.0269345291478736,0.9996167077184772,0.0463641094995264,-0.0688085941872943,9.864418526795603,-0.0298698918009132,0.0376803235097153,-0.0080514382004986,8.469632468041658,0.0088112694310419,2.0847305225373267,1119.261278189029,1132.0610979561295,1119.3220914588971,1135.8400913730247,202.58163341177783,452.7583314105056,-134.9856089930228,-195.93640826310963,158.536365009118
7.88,2.0072867410860464,-1.259113211898029,0.1655454368951896,0.0116717060647304,0.0311371896799012,0.0023345341722076,-0.0018107818223636,0.0062017786981626,0.0269423662949223,0.99961610174236,0.045525519625246,-0.072641484545745,9.863812419622704,-0.0296885277436363,0.0377042806357042,-0.0078655407708822,8.469553910074819,0.0088991729045851,2.0847124332340083,1119.806829189532,1133.2310696103018,1118.9321919598774,1135.314368542703,225.4044111638498,482.470709148912,-201.7693570676372,-236.26267852355844,158.5365431826022
7.8825,1.7599766519007367,-1.2742286812153771,-0.0728017553369711,0.0174315760818229,0.0276260728143588,0.0031303733378681,-0.0017989391960517,0.0063104526200582,0.0269486682466019,0.9996156656756616,0.0448390411219266,-0.0756397710784238,9.862974013630367,-0.0295068006242757,0.0377172382271652,-0.0076890083623452,8.469475758932628,0.0089871909114072,2.0846961602784795,1120.3883002448483,1134.4734515018743,1118.3132446735588,1134.6587779804072,185.38819056689528,394.391592253359,-254.99841114738587,-239.54410741849244,158.536829597155
7.884999999999998,1.5065940672037488,-1.263662226524383,-0.263954946262024,0.0214002645684774,0.024906896608134,0.0027834506187692,-0.00175441599913,0.0063911356226727,0.026948782336483,0.9996155981445212,0.0446206250019148,-0.077722337983883,9.861954325443872,-0.0293250167971502,0.0377198083077732,-0.0075233830046992,8.469397744939634,0.0090764015879244,2.0846810856514035,1120.7337701423664,1135.2030275715683,1117.6571999041405,1134.1166480056106,100.6017826591254,195.95266005049288,-291.18124797810816,-209.49662062862888,158.5371271003562
7.8875,1.2451665956076268,-1.2508423120280507,-0.3963340387247095,0.024545649696063,0.0223824812219656,0.0010989905168358,-0.0016846917054456,0.0064416204059145,0.0269410746878116,0.9996158909717036,0.0449175590238516,-0.0790072909804359,9.860809004980512,-0.0291429173935331,0.0377127057448427,-0.0073698225329931,8.469319914711393,0.0091670028447756,2.084666746900106,1120.891309158144,1135.4532148021267,1116.8573384336685,1133.611294877264,29.89036426001336,7.224411684954938,-339.4374303768852,-188.5160667580454,158.53748308642852
7.89,1.0074296990864755,-1.247622703997923,-0.4465264694287269,0.0269809755353523,0.0199836796119434,-0.0015371366965595,-0.001599036256945,0.0064615360726227,0.0269306334125365,0.9996163215871374,0.0457403894541057,-0.0796490437829046,9.85959859677436,-0.0289596345343621,0.0376969983525895,-0.0072289249307868,8.469241585218397,0.0092581735012006,2.084653085492448,1120.8832219636663,1135.239149629993,1115.9600127522558,1133.1740676718202,-44.20607814258896,-193.47741547076524,-371.16847726388977,-146.72867018275923,158.53788522027943
7.8925,0.8320003922950244,-1.2618657538224927,-0.3763436852884913,0.0285163000159049,0.0174739499140472,-0.0047746097631845,-0.0015084328782852,0.0064528282312298,0.0269220778842785,0.9996166769435268,0.0470534695686917,-0.0798366877813191,9.858387064292447,-0.028774328194486,0.0376738226174934,-0.0071007016928685,8.469162271818405,0.0093491901839464,2.084640916132352,1120.670278767431,1134.485827724773,1115.001496047349,1132.8776515263503,-143.57360771932997,-419.3628781165533,-414.59118004860073,-85.08249284609701,158.5383396406074
7.895,0.7278226419437228,-1.296570561457699,-0.1642470331269653,0.0295959470437803,0.0140315406567683,-0.0082894991248909,-0.0014183078302709,0.006418519375697,0.0269181460322567,0.9996169112615076,0.0488032877697474,-0.0796516315463908,9.857240837022704,-0.0285864794539611,0.0376442529807058,-0.006984947252205,8.469082930362593,0.0094396018385475,2.0846287715678287,1120.16535392507,1133.1423352394106,1113.8870568520128,1132.7486552075895,-229.372482329068,-519.4069009634513,-384.4872913558529,-6.551989841909884,158.53894038672547
7.8975,0.7435897952437814,-1.3336822061068667,0.0788323160652615,0.0302311544065854,0.0108796499428799,-0.0096666041364552,-0.0013310598781691,0.0063641070947715,0.0269185081565875,0.9996170657988468,0.0508896259458102,-0.0791170723517076,9.85622692205197,-0.0283960922932313,0.0376092436926758,-0.0068811039058315,8.469004890796576,0.009529561062073,2.0846147330788916,1119.5234163557857,1131.8887932199557,1113.0790595905698,1132.8448915771407,-304.40871553492536,-464.9762621546969,-277.4846064493945,72.71101307287763,158.5394830839703
7.9,0.8653702872024129,-1.3702958211265663,0.313536717961544,0.0310990597559326,0.0077358228673825,-0.0080979929524295,-0.001246979209452,0.0062994423201041,0.0269228124825671,0.9996171424861332,0.0531280046604554,-0.0782155574116124,9.855411099850652,-0.0282034199392029,0.0375697581006822,-0.0067884754329414,8.468928767396458,0.0096195005533011,2.0845983568134194,1118.6433103473953,1130.8174539286372,1112.499633819766,1133.112210272954,-436.63992604179856,-368.93251163752086,-184.49874789148845,131.94814227495323,158.5400641446678
7.9025,1.110850041106073,-1.4025601240917327,0.4946791235321371,0.0329479102083954,0.0038926057235223,-0.0034216186856259,-0.0011626013661269,0.0062349681492687,0.0269336423687001,0.9996170537480676,0.0553245693547586,-0.0768590401833344,9.854856891888906,-0.0280086432774961,0.0375268773982725,-0.0067064499806584,8.468853892397139,0.0097092506997782,2.0845806777734115,1117.3402167255767,1130.044130661768,1112.1565658511124,1133.5046322885155,-505.6166913646047,-178.09600448281725,-60.48027837137071,129.02936429932473,158.54079967248785
7.905,1.3682830144285256,-1.4103653893692807,0.5240762058048354,0.0354093482873013,0.0006729360812833,0.0008010463672607,-0.0010687771082241,0.006182464008043,0.0269483240925732,0.9996168411816688,0.0572626180004598,-0.0748505963487694,9.8546241101239,-0.0278123206918458,0.0374813006747876,-0.0066349771098257,8.468779335655729,0.0097990760925477,2.0845633649855007,1116.1152268905723,1129.926973906223,1112.197232427909,1133.7573570944508,-490.13515300358586,50.153030798083975,84.71484869869708,50.2605569083709,158.54144025982245
7.907499999999998,1.6344964185587327,-1.3852973528877517,0.4321855291373243,0.038952865884677,-0.0025833252456994,0.0032902108396388,-0.0009628134590197,0.0061469233020348,0.026961769025856,0.9996166360667212,0.0588558584157999,-0.0721283581649837,9.854767462617165,-0.0276152334047504,0.0374336811242469,-0.0065733236060338,8.468704423247791,0.0098893463729875,2.0845464016472404,1114.8895409605589,1130.2948958157583,1112.580140094606,1133.7559350730571,-494.49235905532214,218.44330703070693,242.40130316343829,-93.19628929738627,158.54210476113963
7.91,1.9054581444448444,-1.2999226870255236,0.2330399442502295,0.0449004600791785,-0.0066320606301761,0.0040014937274328,-0.000853508774821,0.0061381973542075,0.0269690992096222,0.9996165079065866,0.059915885664066,-0.0688590271233697,9.85533414562448,-0.0274180910590276,0.0373848864324718,-0.0065203695957706,8.46862950853168,0.0099801998470798,2.0845302841020814,1113.6427650952955,1131.0191904413766,1113.4092389437262,1133.2913756479638,-385.48629855343614,256.35226366398996,361.01768366378377,-259.871917544165,158.5429245919393
7.9125,2.0528290157844173,-1.1707171908051819,0.0384015706782455,0.0512083241429264,-0.0098938721300001,0.0034140347066241,-0.0007459769295408,0.0061568949609306,0.0269713206628718,0.9996164184705648,0.0604375800635635,-0.0651471312999223,9.856364588673348,-0.0272213653159947,0.0373362038534729,-0.0064748378332433,8.468556130892026,0.010071278561557,2.0845158664518633,1112.9621094677912,1131.5766571340787,1114.385228512925,1132.4565754853363,-163.0694629737298,146.97956783907415,446.8038596799129,-421.7408050767607,158.54362288547495
7.915,2.093143574813073,-0.970755930489365,-0.1418237290679715,0.0580208110869186,-0.0124996033423324,0.0024242449341281,-0.0006428816659268,0.0062028374932572,0.0269748078675079,0.9996161898161124,0.0604316417327036,-0.0610553918279289,9.857890375966727,-0.0270251748179523,0.0372893834846327,-0.0064355127109169,8.468484564097903,0.0101621161654996,2.0845040713425838,1112.8274177804271,1131.754088280572,1115.6432582421255,1131.18267162258,53.64045944079522,-27.87045043087405,550.7567612264328,-563.7729872068242,158.54433282471553
7.9175,2.047069942954312,-0.7066690390424524,-0.2883632215985059,0.0643317809272322,-0.014630250489716,0.0013925732202662,-0.0005385278812501,0.006264257038372,0.0269827443909613,0.9996157993339844,0.0601404626067429,-0.0564940864058921,9.859933867833629,-0.0268299117272652,0.0372461068248803,-0.0064007724639029,8.468414141467907,0.0102526323602935,2.0844945261193804,1113.2303117649951,1131.4373048819243,1117.1390123190572,1129.6377105493023,296.35715904674447,-260.63301102022353,657.4924341146609,-648.1375381659428,158.54504960312528
7.92,1.9239091123942755,-0.3601563855541365,-0.3785478342900648,0.0692136962447803,-0.016586338154169,0.0003645696392851,-0.0004329569116106,0.006327914026157,0.0269980330603216,0.9996152369398632,0.0598308526122854,-0.0514939348140864,9.862505781493597,-0.0266357562489658,0.0372082882968107,-0.0063678087213955,8.468344256293506,0.0103425913000204,2.084485525990684,1114.3092035756608,1130.450923225471,1118.9307204126987,1127.9419839317504,616.1810576088689,-567.9831655192295,853.5369466916289,-730.1469821186103,158.5457715371735
7.9225,1.7353029600063818,0.1489999291487494,-0.4082732758375213,0.0736227143226474,-0.0182268204899864,-0.0010019459653225,-0.000328300476336,0.0063848567736984,0.0270177891251625,0.9996146212621408,0.0596819070284945,-0.0461313174493824,9.86560381364976,-0.026442953083249,0.0371776835955364,-0.0063330398207951,8.46827503242844,0.0104324808004084,2.0844746954394413,1116.3112170530396,1128.5973890543282,1121.4066970525153,1125.9869756387093,825.3493576468093,-751.8570718110528,951.1738281037399,-670.1260966053867,158.54664048963647
7.925,1.575525357639301,0.6368332647564721,-0.3607343117930754,0.0765486096549145,-0.018342469829289,-0.0023829397136289,-0.0002236275120445,0.0064314205288605,0.0270386399471979,0.9996140472896596,0.059767299634847,-0.0404265591946712,9.869211553166867,-0.0262513775605751,0.0371560843139974,-0.0062926388768358,8.468206582810978,0.0105226860661294,2.084460911495291,1118.4359503638948,1126.6916378664157,1123.6865895532176,1124.5913534487236,899.1203029520611,-772.5129798347263,930.77925811169,-482.699148524954,158.5473649300774
7.9275,1.435839593590894,1.1561229680008909,-0.2352660396633504,0.0791713649297252,-0.0165894062007075,-0.0040422187769889,-0.0001253242039217,0.0064771161629874,0.0270614942930495,0.9996133851890492,0.0598934411938332,-0.0345447567121319,9.873297273357277,-0.0260600561191655,0.0371457088149622,-0.0062425306307721,8.468138080793697,0.0106129333700303,2.0844457188550995,1120.8068185677998,1124.7348241551547,1126.0605933430736,1123.5734798960843,1043.8297136101214,-791.9149150872398,1022.6598477113604,-352.44340637508634,158.5480881064034
7.93,1.296931249979356,1.7607586753001598,-0.0062510747428865,0.0824254644200278,-0.0120191961539119,-0.0059679946819272,-3.660293735303009e-05,0.0065251304049211,0.0270870993970298,0.9996125292560488,0.0599891326115659,-0.028598972093533,9.877815219205631,-0.025867764067408,0.037148864690922,-0.0061784076988156,8.468069107044332,0.0107029680433326,2.0844308618187175,1123.6550989319462,1122.7320632909789,1128.7998887917752,1122.8291364168479,1012.666363884067,-624.472627615855,951.2933259294845,-204.08960326840753,158.5489534334475
7.9325,1.1985832588010623,2.2084448589030203,0.2255014557215627,0.0851515067815089,-0.0063572711065869,-0.0067845731614694,3.0922313724977535e-05,0.006572126098755,0.0271159220214288,0.9996114282945628,0.0601031906259264,-0.0228785941799663,9.882706252080874,-0.0256731403744447,0.0371680627607553,-0.0060950103553206,8.46799959778587,0.0107917492977031,2.0844166778128774,1125.87015038722,1121.6124610170755,1130.8170599727207,1122.5530318797423,833.5206006610128,-288.5878265177841,715.0454496417449,-66.94474955748007,158.54967226306633
7.935,1.10380741513565,2.5602832358694823,0.4509127085626497,0.0874338300444851,0.0005260802513764,-0.0057435049573683,7.54707900256671e-05,0.0066149316763825,0.0271491083402122,0.9996101112847148,0.0602821769661208,-0.0174851710503928,9.8878972266001,-0.0254746714932515,0.0372057199944283,-0.0059878159971096,8.46793037125939,0.0108783449666433,2.0844013707913756,1127.8227019352512,1121.28912415839,1132.3751160399838,1122.4944126690605,798.315156254165,66.44716040109557,549.9165121004925,-15.436424448990111,158.55038912158523
7.9375,0.9697214838387804,2.850644272280155,0.6490023666180824,0.089763547352539,0.0095597768340172,-0.0024082284180485,0.0001102479041202,0.0066540540764178,0.0271866440841541,0.999608626426501,0.0605036866434152,-0.0122271022164446,9.89330089973229,-0.0252708837467937,0.0372637527605768,-0.0058536825924918,8.46786198003979,0.0109629936394472,2.0843845666432843,1129.8617261684908,1121.9446968190807,1133.566642533223,1122.4758497574976,705.2038562160001,412.78840636769894,312.6562518448803,-23.06316851536443,158.55124832477875
7.94,0.8161016265090849,2.983020190414169,0.7181596525208496,0.0918715301784139,0.0172144811736804,0.0012049113835926,0.0001519030983829,0.0066878457948845,0.0272245176308217,0.9996071321751576,0.0607854396349719,-0.0068489659821581,9.89881831800155,-0.0250606425472303,0.0373432740095528,-0.0056899220076092,8.467794304407203,0.011046864793573,2.0843667481535606,1131.3487212163311,1123.3530661902284,1133.938397299208,1122.3790968264836,560.5866808027378,718.6887283272125,18.78730132466484,-70.65100806426167,158.5519648647992
7.9425,0.5844205132192912,3.0167175203672647,0.6743991509180758,0.0943629781492683,0.0243285633841177,0.0046142876334828,0.0002130123987501,0.0067136897225906,0.0272594113859892,0.999605766987832,0.0611586488426839,-0.0011782820469547,9.904341512783002,-0.0248427683973501,0.0374446992239175,-0.0054940599559984,8.467726847775834,0.0111310505749393,2.0843482465810297,1132.6646595725044,1125.5381404607167,1133.6605790398467,1122.1225947171763,500.46229982614176,971.0392353769955,-211.0091005792173,-125.75624872065688,158.55268398178887
7.945,0.266540551814112,2.984486062112431,0.5505839863903736,0.0968933185029814,0.0309058340792827,0.0073061673077199,0.0002971108868482,0.0067309762759149,0.0272902563704535,0.9996045877732184,0.0616073233839206,0.0047789829980969,9.909756749973878,-0.0246159021229531,0.0375677978849461,-0.0052638376485645,8.467658980873303,0.0112163337568156,2.0843284608921,1133.8510327154615,1128.208262367113,1132.883351796312,1121.7503155828804,438.31658600271135,1134.53435313029,-413.65639475166944,-157.07166420984657,158.5534069048548
7.947499999999998,-0.1636850831492166,2.8872343702172047,0.3688819689067484,0.0988486295686867,0.0372400016517906,0.0082853187823844,0.0004052338472889,0.0067388110147088,0.0273173983500248,0.999603607783644,0.0621181272662826,0.0109680459780043,9.914947639443128,-0.0243786907116826,0.0377116323345165,-0.0049978209074319,8.467589561703077,0.0113030131702021,2.0843061532404974,1134.856242502518,1131.2108122263683,1131.5922970660883,1121.337236396127,387.01170138175166,1327.8159674973094,-657.0703366948377,-157.2340234290129,158.55413661226882
7.95,-0.7876842813957124,2.701765738163477,0.1427360476904004,0.0993194017972132,0.0450497915862937,0.0071501533888281,0.0005267969162471,0.006748586687203,0.0273400719671993,0.9996027721234084,0.0624271067110846,0.0171128910795886,9.919799088344638,-0.0241300853104669,0.0378746511983439,-0.0046957230251898,8.46751809494746,0.0113911123671644,2.084282399517325,1135.7860912223705,1134.8473422045995,1129.598000112838,1120.964145465735,284.4573904595119,1292.4227517166653,-780.8870605406044,-95.09036125085336,158.5550231591327
7.9525,-1.3574261385489408,2.4887295286582507,-0.0215073469032106,0.0974026240678484,0.051778750748009,0.005183846656701,0.0006540734494293,0.0067701689631482,0.027354048456677,0.9996021232187744,0.0623021978283459,0.0229971964405772,9.92420076315941,-0.0238700123804755,0.0380546021613843,-0.0043591244382779,8.467445379770721,0.0114810762362589,2.0842592679555416,1136.2785294548155,1137.6729259849524,1127.6878617633847,1120.8617845898727,130.35790466083475,1046.891553721593,-785.597075750655,14.593059378285345,158.5557734134231
7.955,-1.913624090599808,2.2165161780665272,-0.1547807086208501,0.0930592854099603,0.0582690890019472,0.0037688802138882,0.0007756420862648,0.0068164454124086,0.0273561263859395,0.9996016556770572,0.0614517107694018,0.0283380381324148,9.9280512473521,-0.0235993123860236,0.0382490075907906,-0.0039913646357673,8.467373328760372,0.0115728323984264,2.0842400890973387,1136.4378807456746,1140.0817999732076,1125.6700147340848,1121.0371107626268,-9.056804378860953,941.4712028634513,-879.7941404626459,136.5244316112723,158.55653859287673
7.9575,-2.487794366644118,1.8380231125740611,-0.306807080222107,0.0856743923857955,0.0648490005855244,0.003471156144475,0.0008825132750823,0.0068903680198726,0.0273484923691851,0.9996012796796186,0.0597874282850182,0.032901360488725,9.931261588212301,-0.0233196326937309,0.0384555095645387,-0.0035971421612265,8.467303874780418,0.0116658137784702,2.0842259906979868,1136.2332454329214,1142.3802819992695,1123.2888910610716,1121.544406747929,-140.0843050428223,745.2917166996643,-845.0146489875985,223.33011556452692,158.55747778834242
7.96,-2.840898990052588,1.5025069972333147,-0.4534749610658712,0.0781210279147545,0.068797159918939,0.0041444174464125,0.0009692704734143,0.006990627709427,0.0273353306381009,0.9996008811261934,0.0573143021367309,0.0365291343669105,9.933757419595487,-0.023033472752855,0.0386718343899754,-0.003182393147063,8.467237292667246,0.0117595275562902,2.0842166278500125,1135.7374592204603,1143.8082585567058,1121.444941489147,1122.1537613404491,-265.05962100209774,487.5700492568389,-687.4837440679731,265.6587303143226,158.55828065340654
7.9625,-3.025009895124104,1.1784489387132413,-0.6367557164922139,0.0695957606791308,0.0710973739615821,0.004952578581087,0.0010400348964909,0.0071077696994889,0.0273210665194398,0.99960038769016,0.0542121311107486,0.0392568929738259,9.935480482418681,-0.0227440223822362,0.0388957380857667,-0.0027539988836737,8.467173539851183,0.0118533300686421,2.0842109573849554,1134.9079473279107,1144.818132245554,1119.8514723407316,1122.8727003995007,-442.59713404504544,377.6160287657229,-625.5055180863698,327.0674635552111,158.55910709917853
7.965,-3.034513605688144,0.8304389732914605,-0.8787423836252035,0.0588746640230403,0.0723395030912751,0.0044969287855817,0.0011030697331387,0.0072323994774346,0.0273062369992741,0.9995998338294756,0.0506699590040744,0.041212069824994,9.93639041415744,-0.0224550796933479,0.039124842141616,-0.0023193134062061,8.467112854834214,0.0119469648371756,2.0842082263866617,1133.5244735502351,1145.6963387005344,1118.3174138987151,1123.7890986582252,-571.3225134119177,286.34223437180174,-491.1206099689584,339.95118701028144,158.56012779934883
7.9675,-2.876998228956676,0.5789652496392373,-1.0587829606265284,0.0503898331288816,0.0727379152229746,0.0018992662324481,0.0011654569369178,0.0073597558555594,0.0272896182164854,0.9995992770984012,0.046792978517062,0.0425110329911175,9.936466154971798,-0.0221705334235759,0.0393566765428917,-0.0018856062884649,8.467055203430068,0.0120410882143933,2.0842085677823023,1132.0513347608514,1146.2498434174129,1117.395869290887,1124.572456334552,-650.2834600286999,198.24815832139817,-289.952304317382,318.15969572290436,158.5610028417505
7.969999999999998,-2.586366960904855,0.3504732444528294,-1.1592173451403944,0.0434414001419548,0.0732330217601089,-0.0026855220216973,0.0012311391301102,0.0074852035326429,0.027271410452662,0.9995987456165139,0.0426914596623717,0.0432178352706315,9.935706896112489,-0.0218938041753457,0.0395887454717595,-0.0014593837002023,8.466999726905955,0.0121360315272773,2.084211223463368,1130.273056250092,1146.6875794921411,1116.8676523771283,1125.3798971368399,-752.0267296427097,156.88014009497573,-146.79663104516607,330.9223099176122,158.56190255849563
7.9725,-2.2264766755929686,0.1159110783782745,-1.1637177902435856,0.0378890407408448,0.0741143743304647,-0.0076198194712411,0.0013018611182351,0.0076053029521227,0.0272509118380613,0.9995982923297394,0.0384591993512722,0.0433637679026814,9.93413120148307,-0.0216277534449123,0.0398183941794945,-0.0010462725517821,8.466944694366795,0.0122321040725332,2.084214596300268,1128.291201112638,1147.0342441178875,1116.6618861356612,1126.22706788414,-820.6814212484995,109.17086011480136,-11.24390490485718,353.7658959090451,158.56282138167595
7.975,-1.8345298519702384,-0.1583658855239828,-1.0469040837047177,0.0338402921616378,0.0754245964858509,-0.0117671429127136,0.0013805011031498,0.0077169964994181,0.0272284249158558,0.9995979403746852,0.0341909986755847,0.0430130840552526,9.931775215258249,-0.0213744374103348,0.0400429266569654,-0.0006511671718225,8.466889357547126,0.0123293020792381,2.0842178511414695,1126.1696491438488,1147.2334337927155,1116.811432852604,1127.1487266163851,-927.1109162255667,40.658325292816656,130.89481032089049,425.9794489828073,158.56376060457137
7.9775,-1.3831422559415596,-0.5572865123036443,-0.794281427591402,0.0305112526790496,0.0767734259311123,-0.0152896742685074,0.0014590573935655,0.0078278643733563,0.0272044254703661,0.9995976304623964,0.029771350392403,0.0420299918571061,9.928691588809928,-0.0211352353702931,0.0402596502881651,-0.0002778125092113,8.46683416182451,0.0124273581296867,2.0842222756003737,1123.6556465315102,1147.2375357443518,1117.3163601872657,1128.356965129054,-882.9115704219209,-43.66541874033012,221.36130918525407,458.0019379770972,158.56490657735915
7.98,-1.0507845170439731,-0.9415064164539612,-0.526156963946447,0.0286574827478804,0.0766731386656968,-0.0168290694787401,0.0015324913103416,0.0079444862927141,0.0271804537163196,0.9995972767910392,0.0251121585040321,0.0403471607370019,9.924946006513732,-0.0209108985530099,0.0404659474166758,7.059834650889125e-05,8.466779445750577,0.0125261621096984,2.084228683318865,1121.7550912917393,1147.0151066990138,1117.9182393985302,1129.4387363062708,-679.6074775393353,-133.89148746432795,252.94376338620708,439.94851711901026,158.5658731699506
7.9825,-0.7793112138436946,-1.3415309901076116,-0.2465926810670831,0.0272361599981854,0.0743334108133706,-0.0168683374596288,0.0015930569375215,0.0080683412020822,0.0271603951096286,0.9995967746144712,0.0202298502930703,0.0378506509329136,9.920616377938195,-0.0207014945081756,0.0406593735847418,0.0003921320736177,8.466724530957634,0.0126254628355264,2.0842374878675467,1120.2576091438136,1146.56807830703,1118.5810790041967,1130.556707714649,-528.0841849142346,-234.32738190327245,275.8942945579351,485.72958151468026,158.5668468594679
7.985,-0.52285758067811,-1.7741471617270543,0.0559228570121166,0.0256397698129041,0.0691388577552757,-0.0156212377722657,0.0016419627922136,0.0081883174086852,0.027147260923945,0.9995961216375218,0.0153980454641265,0.0346067447642346,9.915789611846675,-0.0205066946641226,0.0408375554549418,0.0006856752697129,8.466669821706207,0.0127253480633623,2.084248208099112,1119.114670367168,1145.8434697894975,1119.2977108713199,1131.867384213844,-293.94883053092315,-282.5434504669889,229.8725151281409,465.2044539359948,158.5680183930254
7.9875,-0.3595976435803995,-2.048516331335304,0.2618795144520706,0.0244268254358884,0.0632003692818295,-0.0141796296818624,0.001681572430846,0.0082919359669676,0.0271419220145201,0.9995953850208554,0.0109187224976086,0.0307122389992408,9.910558914070858,-0.0203259539158571,0.0409981660858367,0.0009512227181233,8.466614863340595,0.0128258491081044,2.084259139396952,1118.787864991159,1145.1553610546953,1119.7304415798371,1132.8827299843288,1.6159328287813313,-277.42508514775767,118.66988720903716,382.780390188972,158.56899402267547
7.99,-0.239577156570944,-2.1949162842970598,0.4174016974619303,0.0236172252889561,0.0561754252513616,-0.0130795865784499,0.0017147516679996,0.0083667259579434,0.0271384818567183,0.9995948185326086,0.0070926642036323,0.0262810194811343,9.905021010965283,-0.0201589861062806,0.0411387760446403,0.001189897865573,8.466559661432091,0.0129276002817426,2.084268428045409,1119.122750031312,1144.4563443637587,1119.891060307365,1133.7812861647888,282.04167259841734,-301.1906849255395,-11.791500692468592,367.87037607504016,158.5699656859034
7.9925,-0.1377353256085967,-2.213326867298472,0.5569910775305699,0.0231113842458234,0.0476977567117105,-0.0120171300841525,0.0017409956973303,0.0084055485574698,0.0271317913359156,0.9995946212687709,0.0041118338896817,0.0213690783423224,9.899273075018598,-0.0200052696723488,0.0412572386370979,0.001403828783781,8.466504411513922,0.0130307614934782,2.0842741847613326,1120.1980733541511,1143.6494076300671,1119.671484076375,1134.7220818647045,481.4697510950385,-290.91783024542275,-160.6562004216846,326.15684435755395,158.57112398753424
7.995,-0.0830275095200218,-2.117156836417665,0.6421966635933894,0.0228685882680651,0.0414641966780657,-0.0110159672793441,0.001759296345923,0.0084178354545008,0.0271210224763254,0.9995947427071804,0.001838108846543,0.0160363130849347,9.89340746273236,-0.0198638734086643,0.0413519661838169,0.0015949877034155,8.466449004626813,0.0131345423452846,2.084276794782925,1121.5300987867872,1143.0017552125316,1119.0877793052566,1135.4120703865767,584.1551707956694,-259.7532424476013,-324.78452512146544,264.23452854861006,158.57208102643148
7.9975,-0.0533724526108214,-1.9522896512445365,0.698700039608317,0.0226549637961685,0.036755357426232,-0.0096664278934669,0.0017696772693149,0.0084197941076858,0.0271038134710832,0.9995951183757812,-3.0359537388779945e-06,0.0103700914468613,9.887511350145866,-0.0197339965225606,0.04142180239599,0.0017649276108742,8.466393088854598,0.0132385851964654,2.0842776512360586,1123.1188492081296,1142.3506414178291,1118.0475614507675,1136.0432545074475,645.5643756087876,-266.42802980746296,-490.65590335491055,248.26130421616273,158.5730279420618
8.0,-0.0400580513684097,-1.7722484611377691,0.7296668299796026,0.0225028084001762,0.0331826895917337,-0.0080038070745681,0.0017658659221732,0.008434053980481,0.0270811232941979,0.9995955456569589,-0.0018195898989596,0.0043388125620382,9.881666275287603,-0.0196146711000693,0.0414662221616666,0.001914970244705,8.466336724847501,0.0133423651375512,2.084279118708972,1124.757920664831,1141.6696150634943,1116.634499788482,1136.6533769076575,629.1205063341182,-284.0030842531288,-640.4874973060852,241.92439715398257,158.57396564144503
8.002499999999998,-0.0418792608207469,-1.6167825061158605,0.7254638273451123,0.0223519803924265,0.0305078631553222,-0.0059947276821742,0.0017431312614823,0.0084708568225226,0.0270566399980283,0.9995958435555063,-0.0037781914549752,-0.0020646303743959,9.875949900128905,-0.0195048224661471,0.0414853023637919,0.0020461960679675,8.466281689577086,0.0134453749892126,2.084283216426332,1126.2644517397996,1140.930625996564,1114.845123964238,1137.2528764932172,588.5770022041913,-339.23635937525586,-836.0083414857002,257.8043830511485,158.57489136204936
8.005,-0.0566388398560551,-1.4915474136357108,0.6766968627748359,0.0221790256453226,0.027620376683352,-0.0035136480902043,0.0016996238124625,0.0085316133445439,0.0270330149916866,0.9995959313809912,-0.0058756331276082,-0.0087963170468912,9.870434590271769,-0.0194035495935374,0.0414794936142171,0.002159349410046,8.466228918211462,0.0135480406257079,2.084291291154748,1127.7008056758525,1139.9734332666178,1112.4544580810527,1137.9423988229134,440.06917586336783,-359.342644001925,-876.9261265125344,240.1401302352576,158.57598697544523
8.0075,-0.0764950145810884,-1.4436662546449728,0.6020379541689347,0.0221861869091374,0.0249387002051141,-0.0017073993431639,0.0016424783094766,0.0086042153484392,0.0270131596060197,0.9995958187756206,-0.0078445036123554,-0.0156451212179413,9.865187639043704,-0.0193097880595621,0.04144960990521,0.0022549397274157,8.466177716395718,0.0136507218442943,2.084301518716112,1128.4647976191168,1139.133912776554,1110.4604933316743,1138.4535771443936,196.14223439033856,-336.7642486736474,-741.4482422602416,178.28435653022007,158.5768859924766
8.009999999999998,-0.0996178903038036,-1.4431942903560189,0.5005082177088467,0.0223123969762815,0.021629190087633,-0.0003573853839577,0.0015841935141272,0.0086750102464215,0.0269971141273043,0.999595604280518,-0.0093929229928757,-0.0222998181164123,9.860268947329411,-0.0192223864350917,0.0413966597669473,0.0023334435840265,8.466127809960446,0.0137537639087143,2.0843123966896093,1128.681516847804,1138.28961202325,1108.7472168697525,1138.8338206055644,-41.03852830345111,-361.3908030776011,-623.9414586288937,122.61357337854572,158.57776863623016
8.012499999999998,-0.1206215208660362,-1.4744536820241128,0.3607191488551378,0.0222268177709008,0.017263232677979,0.0008052503663982,0.0015376335255502,0.0087355760198248,0.0269830943442459,0.9995954010210628,-0.0103414368334718,-0.0284456282554946,9.855729293360056,-0.0191398725929598,0.041321887925436,0.0023956406954527,8.466078815120694,0.0138570845021633,2.084322694993604,1128.2596049775996,1137.3269587611665,1107.3407860385307,1139.0666450112863,-266.36962644279646,-337.32484383703377,-368.684461475356,42.388555232303325,158.5788063331488
8.015,-0.121047542617435,-1.510663074182049,0.2387102489856307,0.0217623644304342,0.0136994366242114,0.0014828310604217,0.0015143348268889,0.0087781474729131,0.0269683082656753,0.9995953540638056,-0.0105342476962693,-0.033801253409617,9.851610511558473,-0.0190602350173498,0.0412268578049514,0.0024429411836403,8.466030128497664,0.0139611745352897,2.0843320191983694,1127.3496687155898,1136.6029878040645,1106.9037945623754,1139.045763381726,-465.26281876110266,-269.1808707219513,4.9896987721232495,-51.37193050190142,158.57965105639295
8.0175,-0.0898690473839781,-1.539624170801486,0.1212596003756263,0.021140400603365,0.0101588111050216,0.0018695205331611,0.0015153002153508,0.0088078821534168,0.026952957646837,0.999595428026828,-0.0100862131463409,-0.0382944959984908,9.847942073883997,-0.0189806010965063,0.0411136540101399,0.0024775332278385,8.465981013819217,0.0140656547047792,2.084341442017037,1125.9332908837937,1135.9810544075565,1107.3657345323911,1138.8097853587767,-707.6745367439387,-254.0753791776802,410.9512489102052,-142.4902814974586,158.5804721333928
8.019999999999998,-0.0054644867375466,-1.5446681211103739,-0.0034120138121371,0.0205909765695643,0.0056671094852852,0.001841125336258,0.0015415033403679,0.008828324413059,0.026938877531834,0.9995955686919168,-0.0090912258774118,-0.0418639370164417,9.844743254755752,-0.0188973112933675,0.0409849829488383,0.0025020296924818,8.465930722275534,0.0141691921723865,2.0843508098096986,1123.8112960318708,1135.3326109081763,1108.958550806926,1138.3333119742388,-816.1443556308858,-230.69884114621377,734.27963691954,-195.6787391550428,158.58142644726607
8.0225,0.1067161746319376,-1.5083911062966706,-0.0870662326020771,0.0204565126613588,0.0017980471353651,0.0014532227983519,0.0015905381210043,0.0088446499561133,0.0269292883543009,0.9995956725821064,-0.0076880798120241,-0.0445240356276499,9.842022350698066,-0.0188061202027318,0.0408441403333014,0.0025195761169625,8.465878455560924,0.0142704362714616,2.0843598797630527,1121.8525691056386,1134.8275602018252,1111.0371327169896,1137.831391663001,-778.9251844298324,-210.3758000863889,936.8382562752131,-209.38985541926195,158.5821933244246
8.025,0.2607478312420913,-1.4138461583133035,-0.1454998870971417,0.0207576567908981,-0.0021064004357031,0.0009638226654584,0.0016594456800006,0.008854893232195,0.0269253284926772,0.9995956916346668,-0.0058859683377437,-0.0463148335257996,9.839778693994935,-0.0187027162422757,0.0406947255684088,0.0025339223085198,8.465824044622536,0.0143695891209867,2.084368552809458,1119.916670109721,1134.2807319077442,1113.6427420883028,1137.2863626971423,-737.2892089524713,-236.46269315108995,1080.695743321336,-217.81133885778917,158.58292812831945
8.0275,0.4458325431945289,-1.2627617542011487,-0.1829787872886536,0.0214403626797212,-0.006106005949427,0.0005066285761889,0.0017469299224535,0.0088535951111986,0.026925891581072,0.9995956631342116,-0.0036342978585755,-0.0472566760386907,9.83800231723372,-0.0185831030442168,0.0405404099459806,0.0025490162841695,8.465768039415229,0.0144676075674062,2.084376085616975,1118.1661230608768,1133.64524673607,1116.4406114335952,1136.7423349687126,-619.822889603152,-280.4220125050609,1103.6936942367824,-213.25033636194044,158.58363476273857
8.029999999999998,0.6617529744512372,-1.0429756097838565,-0.1971704177185009,0.0225165050429851,-0.0100401953104144,0.0001092725269141,0.001847702112647,0.0088348040304372,0.0269301479166676,0.9995956446801384,-0.0008834053740116,-0.0474596514857867,9.8366741814672,-0.0184437444025169,0.0403848247146665,0.0025691855623991,8.465711071841577,0.0145647304027354,2.0843811335217937,1116.817555661706,1132.8786218452192,1119.1612105594857,1136.2201110153328,-466.1521026544232,-357.80637333504137,1109.5135545316307,-225.48883089813103,158.58430598204203
8.0325,0.9439415927133336,-0.7190026290164256,-0.1897140670289337,0.0242391726465578,-0.0137475592726018,-0.0003477536566815,0.0019483044460776,0.0087942951938161,0.0269397559660092,0.9995956404195387,0.0023714092888125,-0.0472039656801346,9.835767011754626,-0.018281652828865,0.0402315095648388,0.0025990682868182,8.46565354025571,0.0146603198913449,2.084382178495299,1115.8353625476043,1131.8562148693943,1121.9881792062542,1135.6148908142216,-240.77357242550409,-373.8379287756613,926.539833593816,-221.8111750840416,158.58506921015652
8.035,1.1839394486292063,-0.4283301255477142,-0.1638231970556258,0.0262884860587983,-0.0153342997177504,-0.0007579344378978,0.0020363190717037,0.0087419585114787,0.0269570522355357,0.9995955276070936,0.0058535632139383,-0.0467515071176752,9.835244724281388,-0.0180947787317766,0.0400837519052885,0.0026419047224488,8.465595567470185,0.0147534047466754,2.0843800434211226,1115.6136877995782,1131.0094322013404,1123.7939097274555,1135.1110551399124,35.24768539096632,-309.07580969280167,584.1397937844047,-206.26082115072236,158.58566950784282
8.037499999999998,1.4039530844090629,-0.1611385823018147,-0.1174973577639448,0.0292462230947586,-0.0152846923840195,-0.0012088777892753,0.002109752121496,0.0086911146886391,0.0269801656695366,0.9995952528686712,0.0092231169414272,-0.0461659139255235,9.835066852042718,-0.0178824930600762,0.0399442203840464,0.0026987009143249,8.465537275775734,0.0148444229384269,2.0843767780306286,1116.011600974559,1130.3108358209308,1124.9088781751757,1134.5835867084684,298.5116738333988,-243.0254067280277,328.63388383024676,-240.9840046003488,158.58623257716883
8.040000000000001,1.6095068718648835,0.085943155701578,-0.0393272022792713,0.0338353264291226,-0.0136961919515352,-0.001677865604457,0.0021670371136068,0.0086575918074211,0.0270041438292079,0.9995948248921348,0.012092384728366,-0.0455080238999494,9.835190932588658,-0.017645632177012,0.0398146900325466,0.0027687619230553,8.46547973013187,0.0149347107681641,2.084376051773396,1117.1062461687454,1129.7943051677003,1125.4370791466067,1133.9061351169105,478.89911047524737,-123.78022843065877,72.14040314119083,-255.19778432763465,158.5868656620253
8.0425,1.7067585486794197,0.2116522031327886,0.0416273260890107,0.0384455282956102,-0.0114688596246896,-0.0018069173624107,0.0022140268409679,0.0086451393979108,0.0270267888151743,0.9995942597459472,0.0143190932198729,-0.0447043105456313,9.835576944602227,-0.0173859916046906,0.0396961406962954,0.0028497932170007,8.465424299812883,0.0150256439859769,2.0843802413973185,1118.406096526936,1129.6919346787774,1125.2695801908817,1133.30759778683,563.0020266005187,23.94744008857309,-162.96676273017115,-240.0679973473893,158.58735845782667
8.045,1.7044736618288103,0.2590720072006028,0.1326868220256124,0.0436639474579032,-0.0093698702722477,-0.0015914783877985,0.0022537763171859,0.0086548673042,0.0270471802700484,0.9995935667956988,0.0158182314342899,-0.0437410435636488,9.83618711068032,-0.0171063943944308,0.0395886728791085,0.0029388491856216,8.46537120035746,0.0151179808396097,2.0843895126327223,1119.9212563017475,1129.914042368143,1124.6222453329563,1132.7057951301736,613.6103604928251,128.00854377249195,-308.5516377225008,-231.75974679329616,158.58781649556687
8.047499999999998,1.613682334897008,0.2669490801689585,0.2265876356027898,0.0489212735040955,-0.0083129786891344,-0.0012548044453623,0.0022963043715079,0.0086750168020562,0.027064040256323,0.9995928542816934,0.0167710847916074,-0.0424760080416219,9.836988733005729,-0.0168105243612687,0.039491684896631,0.0030326276335207,8.465320367734419,0.0152117788757444,2.0844023356350343,1121.4741483293994,1130.3319773976395,1123.7268220022695,1132.1487990528635,602.3192536661068,189.0637506064354,-377.7196553843033,-196.67777805858913,158.58824706114322
8.05,1.4272009739327087,0.272293656047671,0.3164730601856998,0.053291968232765,-0.0088044356719577,-0.0008648606159701,0.0023504004296091,0.0086932970669592,0.0270783164002933,0.9995921814574144,0.017380497593564,-0.0407914257433181,9.837952899273304,-0.0165025499763817,0.0394041488197761,0.0031282543509234,8.4652715838422,0.0153066384614474,2.0844166239832207,1122.9328525700785,1130.8593611211754,1122.7336470560344,1131.7224062398807,596.4212276250214,226.6976996983076,-411.04065890406616,-138.2831817295266,158.58864655932723
8.0525,1.126213628420489,0.3251041233095297,0.4064277289090559,0.0568466282124961,-0.0102941748190004,-0.0002634983851363,0.0024199892079189,0.0086996734524946,0.0270895241700165,0.999591644981984,0.0178159870892828,-0.0386625650375548,9.839054483941583,-0.0161872033591342,0.0393246796144922,0.0032238100759125,8.465225157331941,0.0154026658780058,2.0844302092106815,1124.456254467525,1131.4654658961315,1121.6716187077488,1131.457383144216,512.3451328898337,202.1899189493472,-341.4226087974154,-46.75977167517905,158.58909324213087
8.054999999999998,0.8399695260090512,0.4218806329292075,0.4522920742433544,0.0584894253957317,-0.011115682107979,0.0004943027244853,0.002506071720459,0.0086867564378674,0.027098476320997,0.9995912943154792,0.0182082148474793,-0.0361182562776982,9.840272073942035,-0.0158693265353071,0.0392518246376567,0.0033182073211815,8.465181578553688,0.0154994570700873,2.084441905083604,1125.4945782345271,1131.870310715922,1121.0265340120477,1131.4886073815048,364.7383159476133,132.36306213145983,-193.60949598064207,66.50140401769801,158.58944093823948
8.057500000000001,0.5442818293735558,0.5595544571352598,0.4457759921527683,0.0590791265320634,-0.0104299041997499,0.0017268952943483,0.0025986295050377,0.0086608514245639,0.0271050079115181,0.9995911043427184,0.0184278752691195,-0.0333934623934311,9.841586104733683,-0.0155538491414705,0.0391840783794401,0.003411257659595,8.465140771083377,0.0155962692286728,2.0844523541005806,1126.2799460472631,1132.127281206789,1120.7035712278455,1131.7898901643043,289.10046777077724,78.85281393126793,-73.05903906366204,183.09535435525368,158.58976686866555
8.06,0.1916939909827845,0.7329057564324652,0.3507231359967172,0.0594808989580397,-0.0079293680386676,0.0038937335136119,0.0026868162714117,0.0086325005970387,0.0271082367158112,0.9995910370905178,0.0182770437827527,-0.0307333209049485,9.842979776686212,-0.0152454026871641,0.0391200236443009,0.0035029847207023,8.465101637401421,0.0156927365229988,2.0844627900388697,1126.9400805733812,1132.2645747855784,1120.661238816729,1132.4040841532812,198.09413834890924,26.49365776852009,26.26730052589277,249.16162794338968,158.59013766456923
8.0625,-0.101799249070895,0.8560356293438675,0.1863895874036873,0.0598917573683617,-0.0052605262447744,0.0061561058597539,0.0027576140549169,0.0086166803435345,0.0271086018977295,0.999590986326116,0.0174838977324943,-0.0284191878413004,9.844438300281059,-0.0149479615028398,0.0390583706319906,0.0035936151071129,8.465062663541657,0.0157883627266175,2.084474649671216,1127.2704167390075,1132.2597494956315,1120.8349077304747,1133.0356983040213,91.70407338771844,-16.973594856248123,85.96529459561572,245.65087493997797,158.59043341200697
8.064999999999998,-0.3990366211832623,0.9348481494172504,-0.0606329545766668,0.0601494798253366,-0.0027711894530751,0.008239475919104,0.0028074286593507,0.0086178507938284,0.0271077113925696,0.9995908738397212,0.0160021041579618,-0.0265482598301405,9.845949904386377,-0.0146647067208724,0.0389979682190003,0.003683230050416,8.465023704406628,0.0158835348352762,2.0844885423165023,1127.3986009403195,1132.1797068112971,1121.091065289707,1133.632338527981,17.894036937693205,-36.94898891853304,97.3205706136771,210.7482296286105,158.5907195491897
8.0675,-0.7527429309144872,0.9642865678225132,-0.4088203883243869,0.0594662897781325,-0.0001040354320933,0.0090471602366266,0.0028396714079042,0.0086358044504027,0.0271048334647658,0.999590708430638,0.0138931149139576,-0.0250779669106255,9.84750385007178,-0.0143984268196811,0.0389376338214966,0.0037719572790191,8.464984908962878,0.0159793508529586,2.0845046020346487,1127.359886923696,1132.0750045510388,1121.3215105835432,1134.0894394521645,-39.113557841022406,-26.189684391597893,48.10779577923471,95.64718646855323,158.59105611715577
8.07,-1.0276650423165867,0.9264189576516584,-0.6876342445065763,0.0574277695616319,0.0020721446020594,0.0075095318265247,0.0028659633187381,0.0086592251885412,0.0270987611262761,0.9995905838113373,0.0114518763022716,-0.0238058230989613,9.849090625976412,-0.0141514153652205,0.0388762688337238,0.0038603182377361,8.464946132479932,0.0160763581712276,2.0845205238487328,1127.2030331511144,1132.0487583893391,1121.3316042686035,1134.1105744603235,-80.17651239153341,18.566898744806224,-56.02933633100498,-86.58519536940634,158.59133374258604
8.072499999999998,-1.2539380099339235,0.8129027323949726,-0.8816198652070323,0.0540320835811372,0.0044957493205391,0.0039822966263238,0.0028991086847743,0.0086757610454057,0.0270866688516237,0.9995906482629572,0.0090027937282503,-0.0225026896572895,9.850699951255491,-0.0139257099261522,0.0388129323737183,0.0039495410153852,8.464908484569232,0.0161746947699311,2.0845344864147304,1126.9590043617386,1132.1678390447628,1121.0413639018884,1133.6565134753175,-107.09736969267708,80.54464239245827,-176.01466480545105,-259.0545669324062,158.5916113777776
8.074999999999998,-1.4220789374256595,0.6298658400558702,-0.9615181375512488,0.050177750065913,0.0071475389227666,-0.0004036607837618,0.0029470877268186,0.0086796772156392,0.0270680226788244,0.9995909493692716,0.0067434374576924,-0.0210274565983244,9.852319168094295,-0.0137228357042359,0.0387470998157186,0.004041618521102,8.464872969088242,0.0162735333564767,2.0845454261510223,1126.667546302651,1132.451481601301,1120.4515309445765,1132.815301625662,-124.04367347233227,153.91686831714972,-311.0196634408081,-403.8214624656853,158.59189094052115
8.0775,-1.508420759208434,0.3643731581020004,-0.8798533428150809,0.0461988821935852,0.0095666650361797,-0.0050187380690516,0.0030156492233424,0.0086718318480593,0.0270442458198871,0.9995914349783764,0.0047437716606558,-0.0192765786197715,9.853932721646784,-0.013543657235369,0.0386788071393698,0.0041387205879356,8.46484063881738,0.0163721252655172,2.084552778704541,1126.3387859943768,1132.9374233863487,1119.486265584684,1131.6374061629888,-148.7794782579153,244.48773714207888,-502.71131916016526,-534.9220555941502,158.59217479034172
8.08,-1.5133837762676752,-0.0263812547247928,-0.609318814974596,0.0411874469318033,0.0111162663972949,-0.0096774156164787,0.0030970751041905,0.0086635461977766,0.0270194972211033,0.999591919468352,0.0028611107116971,-0.0174039708529891,9.85552208253132,-0.0133880546958256,0.038608591416613,0.0042434373350214,8.464810214820572,0.0164695874741832,2.084557841547016,1125.9236489113616,1133.673920287012,1117.9379743487752,1130.1406913476908,-150.5929431745089,272.6634468882909,-617.7385141322567,-507.27698241772566,158.59252241047076
8.082499999999998,-1.4396001148176232,-0.380268950003856,-0.2823118612590672,0.0369986204829134,0.0108427125543459,-0.0117680119493826,0.0031745744933864,0.0086604087789481,0.0269980801585512,0.9995922882089638,0.0010587300467126,-0.0157438032624947,9.85706926171841,-0.0132547025545275,0.0385373411514589,0.0043584369926932,8.46477955004667,0.0165652718247216,2.084561561263792,1125.5858212785045,1134.3007406207898,1116.3975730140235,1129.1010212509007,-122.96059095245153,220.11542293567996,-642.299647053496,-311.83786462965725,158.59281885596167
8.085,-1.3001178167132954,-0.716759017326668,0.0741774045693517,0.0334467529271638,0.0089813733204517,-0.0113138754921022,0.0032311198919089,0.008670466104009,0.0269815814690293,0.999592481845714,-0.0007535438451263,-0.0146325480267911,9.858555608469128,-0.0131412915391703,0.038466093586987,0.0044852320196547,8.464747335621414,0.0166590048484067,2.084566421010876,1125.3088459565993,1134.7744974016905,1114.7264761135073,1128.5815020245423,-90.87626339349697,140.34149371698356,-730.034265085555,-66.83415600417767,158.59312232837496
8.0875,-1.0842112625782843,-1.0498774258852304,0.4448765821232321,0.0301941132103326,0.0054395135787794,-0.0084086208722427,0.0032605758313324,0.0086953485379992,0.0269718776497786,0.9995924536447786,-0.002541087339382,-0.0141943787167443,9.859963719385824,-0.0130443878302717,0.0383959704808605,0.0046235328729086,8.46471343149451,0.0167509853087852,2.0845742878486706,1125.131439961537,1135.0024480893749,1112.7474016885951,1128.7668504708795,-27.714202982047997,15.023365230902789,-694.9056627055616,204.19640331255744,158.59349307325357
8.09,-0.8848797222938792,-1.2412149944453488,0.6572187469583486,0.0281596704533313,0.0017511909993047,-0.0051092517414992,0.0032650857390257,0.0087327781184708,0.026967377950511,0.999592259800475,-0.0041974930988672,-0.0143912319422328,9.861278028633944,-0.0129600323672552,0.0383278295905116,0.0047716308305728,8.464678482890193,0.0168416923535231,2.0845865496970246,1125.170274941689,1134.8496142278448,1111.25194779998,1129.6024840411048,59.79001252927726,-126.56474218709052,-537.3129545984443,442.75166947763586,158.59380534629625
8.092499999999998,-0.6864169902893748,-1.3256024255666183,0.7429854462508173,0.0265685868886544,-0.0023486093634442,-0.0019268391635668,0.0032575190249656,0.0087686191267926,0.0269669637486218,0.9995920047444844,-0.0053882379277216,-0.0149782469133539,9.862487249915166,-0.0128836200347977,0.0382622133749037,0.0049269229132527,8.464642450246739,0.0169315576863312,2.084602177408048,1125.4303900241832,1134.3696243784395,1110.0608369156034,1130.9806088182675,154.7023361990554,-255.9747923216546,-425.75755086325154,661.52478212142,158.59411725617048
8.095,-0.4673778325425053,-1.3042045428612952,0.7059924918589682,0.0250607971059482,-0.007401838471507,0.0013423948364571,0.0032474745718427,0.0087907684711752,0.0269693833987795,0.9995917912017198,-0.0058331962523447,-0.0157718450869819,9.863583132458142,-0.0128103125834241,0.0381990815847146,0.0050870849028901,8.464605150741898,0.0170209838107537,2.084618964021711,1125.9437866226845,1133.5697402662363,1109.1231600456636,1132.9101079517125,201.98753301825968,-297.8180723130652,-246.2286304414717,692.9878330437358,158.59448515807765
8.0975,-0.3113441952196987,-1.199552976566709,0.5806711314196826,0.0242009045200149,-0.0112053468756801,0.0035118030244915,0.0032433359671404,0.0087902663652825,0.0269699483151622,0.9995917974767694,-0.005328218705891,-0.0166082400189161,9.864560312534044,-0.0127355272781008,0.0381376893352811,0.0052501629835401,8.464566557059173,0.0171108334954671,2.084635070963827,1126.4403276892747,1132.880534016874,1108.8296937633959,1134.4455479834867,181.1223100898038,-241.45300151826888,-5.323139689472704,532.0547114732257,158.5947810342005
8.099999999999998,-0.1937255004100398,-1.038570747884494,0.3967679711198682,0.0239737865617791,-0.0137467713356447,0.0048445038081486,0.003251090270439,0.0087644853118056,0.0269663741346535,0.9995920934812432,-0.0038088558223336,-0.0173642535546817,9.86541568615838,-0.0126547589350433,0.0380767598083776,0.0054145652943383,8.464526655393543,0.0172016522357341,2.0846494388299113,1126.8493981731333,1132.3624752586454,1109.096544347216,1135.570381509078,126.46309984704953,-159.63527333585495,199.20530428841244,345.5922180105887,158.59505826957403
8.102500000000001,-0.1135413926006438,-0.8610066045026175,0.1990690393419416,0.0242219169868093,-0.0150881288964245,0.0051007324236931,0.0032684294455181,0.0087227511890706,0.0269561570520876,0.9995926747115644,-0.0014640850029086,-0.0180703334121408,9.86614753300422,-0.012564080119174,0.0380144852628222,0.0055791457612378,8.464485858180899,0.0172939374143997,2.084663988111327,1127.07264318851,1132.0823576501944,1109.825720284838,1136.17350907354,28.593649426188755,-52.638883996351936,389.29250998460975,97.43560583009024,158.59531431887936
8.105,-0.0779150123663325,-0.6918087127282578,0.0243062556889152,0.0245508293368085,-0.0155667330411922,0.004161185332314,0.0032881543032355,0.0086766499126473,0.0269411993106937,0.9995934174919712,0.0014574902016121,-0.0188481912645221,9.866757349198124,-0.0124598784228867,0.0379488810064764,0.0057430597265856,8.464444707895993,0.0173875891207018,2.084680105040126,1126.9923664202643,1132.0992808386636,1111.0430068971395,1136.0575595382284,-103.13466507597929,50.43528631837128,613.9254577917511,-204.73085167126993,158.5955391285416
8.1075,-0.0747322557633375,-0.5121523683205684,-0.1249830926732862,0.0244205305384312,-0.0163508283736422,0.0025987228067455,0.0032995817144505,0.008638566753374,0.0269254117485117,0.9995941472074028,0.0046784691148297,-0.0198839638631834,9.867249935587946,-0.012339149638679,0.0378779708738121,0.005905745979229,8.464403615273548,0.0174822276281045,2.084698125533545,1126.5569698631302,1132.3345340817864,1112.8953475737962,1135.1498548151835,-198.52154121044208,89.34937844030131,710.8692687163107,-429.203986394299,158.59576743427377
8.109999999999998,-0.0920929021135465,-0.3768582999837907,-0.1909395194553551,0.0239028368727242,-0.0174605268167512,0.0014260710465643,0.0033017465493653,0.008604992148671,0.0269142859659406,0.9995947383407024,0.0082306089512494,-0.0211769243252084,9.867635442420285,-0.0121993764674737,0.0378001342741557,0.0060665498629885,8.464362774706698,0.0175773605731074,2.0847166607840295,1125.9997587142122,1132.546027730865,1114.5973532407204,1133.9115396062575,-231.40595588089144,46.58393426724796,670.9741035699468,-540.037157676904,158.59592067567368
8.1125,-0.1169724762554184,-0.2442639838878638,-0.203144455790273,0.0233814506188864,-0.0186000659552061,0.0006104693157857,0.0032987259487288,0.0085710406520145,0.0269115683208592,0.9995951094456414,0.0121677431502195,-0.0226245360282782,9.867926085890025,-0.0120389639021239,0.0377141198886183,0.0062247861775528,8.464322628104838,0.0176722017489551,2.0847347633646294,1125.3999400837256,1132.5674537531227,1116.2502180916465,1132.4496690267988,-237.6421580505022,-66.08618924364113,672.8945535852603,-625.0941325836196,158.5960342771154
8.115,-0.1463302325057794,-0.0786061319762235,-0.1757595069053194,0.0229313620044027,-0.0196143599117901,4.466329786808366e-05,0.0032970609769991,0.0085314505393656,0.0269152649447731,0.9995953347319668,0.0165466407585405,-0.0240734287308504,9.868135535491048,-0.0118575295538028,0.0376189742726018,0.0063798702059484,8.464283621798767,0.0177666627679576,2.084752650206215,1124.8115479239596,1132.2155967846468,1117.9618260086472,1130.7860689433387,-176.45461703904274,-195.8469023934348,560.6138697265329,-551.3072393830686,158.59612551687837
8.117499999999998,-0.1660045998047584,0.065775935200008,-0.1350564717936818,0.0225281322360677,-0.0200380240452576,-0.0001533404795496,0.0033050913977514,0.008483166185064,0.0269219887306222,0.9995955078378532,0.0213775717845995,-0.0253318028229129,9.868277935378131,-0.0116555258587952,0.0375141303315493,0.0065312177622157,8.464246392075474,0.0178606549738539,2.0847710778909354,1124.5176669985303,1131.5882192411557,1119.0532874402786,1129.693132829884,-71.82243730475207,-301.3887243189385,356.282119702372,-342.4755209956776,158.59616595361925
8.120000000000001,-0.1762598532324278,0.2105849006638058,-0.0947556178346471,0.0219756665768202,-0.0199393226914541,-0.0001658317529213,0.0033263879482546,0.0084276562908556,0.0269281043586602,0.9995957121110391,0.0265768292105363,-0.0262986708136701,9.86836736659682,-0.0114340493232365,0.0373993154487982,0.0066786381729445,8.464210722308188,0.017954463488527,2.084789286824616,1124.4524357374355,1130.7086531630518,1119.7432366071591,1129.0736913383603,11.615526183548356,-403.5642916093644,217.17839885665188,-151.49476849194247,158.5961734682697
8.1225,-0.1744158497325551,0.3709370570813109,-0.0642002602860159,0.0212975830969126,-0.0191317179819005,-6.067739347350273e-05,0.0033605561466535,0.0083711080826676,0.0269304828166781,0.9995959949403768,0.0319648685899928,-0.0269488970710561,9.868417406451178,-0.011194623807828,0.0372745547528559,0.0068222228158172,8.464176392712,0.0180482832237667,2.0848061363688073,1124.5757446294483,1129.5703977831083,1120.139179434562,1128.935658987424,62.55660941229842,-397.98030812192974,87.678112767998,41.97247417901888,158.59615062875676
8.125,-0.1607469977121071,0.4813028614466783,-0.0624562150397639,0.0208784204996451,-0.017842065286737,7.513955068806576e-05,0.0033982440036929,0.0083300237671238,0.0269291244005369,0.9995962528658376,0.037154483029347,-0.0274298650835646,9.868440379043724,-0.010938954811982,0.0371401624827703,0.0069624303182261,8.464143257260718,0.0181416187056791,2.084822242212831,1124.7652187844972,1128.7187516224424,1120.1816271709993,1129.283553709255,72.98118981949845,-289.39675385510174,-19.071578909510364,211.8972783481207,158.59610967112292
8.127499999999998,-0.1354317081254426,0.5553497922312616,-0.0912131434611213,0.0206730585218843,-0.0159834342198731,0.0002075166830613,0.0034351501561204,0.0083127278854512,0.0269239668595827,0.999596429590565,0.0419242302774942,-0.0277959547756337,9.868448963769348,-0.0106687913136401,0.036996843902238,0.0070993272993986,8.464111626694953,0.018234144849998,2.0848394010748463,1124.9406505785455,1128.123414013833,1120.0438215400145,1129.9951453791643,54.47220269046797,-183.29502913631447,-66.52800541782068,323.179789473756,158.5960510747852
8.13,-0.1004608299870905,0.5955685520468407,-0.1459022668104377,0.0205964477292994,-0.0139236017318595,0.0002907079738542,0.003467141554732,0.0083228576758077,0.0269151282958576,0.9995965037470336,0.0461477521340674,-0.0281040045278144,9.868455131801218,-0.0103858440778557,0.036845581084828,0.0072328435747328,8.464081581218473,0.0183256516058187,2.0848596227504816,1125.0375797979495,1127.8022764767609,1119.84898714391,1130.8994526566244,8.267049396953169,-60.78205723055321,-72.63466852690499,383.00442341700017,158.59598135824908
8.1325,-0.0511767043374361,0.6001670383740678,-0.227493366104115,0.0205427629234729,-0.0123296328871405,0.0002341677095257,0.0034956142192565,0.00834781251618,0.0269057840664881,0.9995964794659788,0.0500249446875629,-0.0283147472981712,9.868470351378916,-0.0100912667120661,0.0366876773926246,0.0073628635204251,8.46405340824593,0.0184164731756378,2.084882035567857,1124.9819858255305,1127.8195037276805,1119.68064819738,1131.9101674962499,-66.97265495519301,75.94196638475897,-50.78168572550668,441.5512687033211,158.59590209214477
8.134999999999998,0.0311448230145463,0.578755124319908,-0.3434929749462057,0.0204573625894779,-0.011434661440026,-0.0001404009956729,0.0035223103225955,0.0083750770358273,0.0268996474273322,0.9995963478744914,0.0537574664891406,-0.0283870895105277,9.868503149896332,-0.0097859310038817,0.0365245485449071,0.0074895222289285,8.464027218497414,0.0185065296142878,2.0849050148489225,1124.7027165231736,1128.1819863086844,1119.5950787152826,1133.1072090001403,-136.0646833130702,178.27425421395583,-5.102475339027584,418.709898649096,158.5958004329836
8.137499999999998,0.1244680354359535,0.545164162455052,-0.4403714102411387,0.0204962362697446,-0.0108760408657795,-0.0008347530362607,0.0035477390115324,0.0084012576062107,0.026900497728174,0.9995960297798419,0.0573696939596046,-0.0283050657859465,9.868557915664852,-0.0094704453909673,0.0363576145185301,0.0076132952252375,8.464002092370693,0.0185953147879959,2.0849275018526487,1124.3016624089653,1128.71087499875,1119.6551358206848,1134.0037169894947,-184.02411202843572,243.3866812974049,54.22865656004495,317.64489850756524,158.59571320057137
8.14,0.2484307816384606,0.4909811362212335,-0.5147847394344378,0.0207921849719318,-0.0094820914993195,-0.0020536167794425,0.0035767829001822,0.0084232482404459,0.0269071870034836,0.9995955654851408,0.0608860883886072,-0.0279719649905229,9.868635196180243,-0.009145284579866,0.0361881899147051,0.0077347767910133,8.463977365869406,0.018683194172154,2.0849493435667688,1123.782595963031,1129.3989197151718,1119.866221998083,1134.6954334926786,-233.78627930193016,321.2884385301502,126.44343336421868,233.83427208787887,158.5956264456429
8.1425,0.4353394066891447,0.3909710920165449,-0.550203070087488,0.0215161950274225,-0.0069204434348843,-0.0041082296430708,0.0036170040789946,0.0084346369803603,0.0269138188781441,0.9995951474308828,0.0644010867638473,-0.0272458397316522,9.868731607162536,-0.0088107320586359,0.0360173903460175,0.0078547558851469,8.463951888480919,0.0187713102212364,2.084970410282238,1123.1327310124555,1130.3173171914011,1120.287352987506,1135.1728883499345,-225.55383182798263,337.66549883487085,178.4450780169109,100.81798126504695,158.59552607648908
8.144999999999998,0.622358984282055,0.2791914536673857,-0.5180165684412282,0.0223985675758782,-0.0049259490933531,-0.0060543062071099,0.0036739452231423,0.0084286158221936,0.0269145275684556,0.9995949799792304,0.0680189524558471,-0.0260312203601368,9.868839434275847,-0.0084667360709694,0.0358461782286691,0.0079743258077421,8.463924702300309,0.0188604458090918,2.0849901389527634,1122.6548268038916,1131.0872472093458,1120.7584473881673,1135.1995233990035,-162.00355542093544,289.429528067649,204.6452469718268,-78.62464320499974,158.59544779278727
8.1475,0.836559200446308,0.1578283112661475,-0.4109259511908899,0.023657625793262,-0.004001924732685,-0.0077418954117859,0.0037405663105151,0.0084122368722932,0.0269062912094604,0.9995951044305352,0.0715667844571614,-0.0244804114171615,9.868946236928815,-0.008113261502522,0.0356753995202321,0.0080951594926472,8.463895221031516,0.0189506605638489,2.085008912059855,1122.3227132353506,1131.7644648317396,1121.3105792223653,1134.7797651339095,-104.55360787353312,253.48996881207896,246.26849189017565,-288.2237289349636,158.5953777518808
8.15,1.109983613769309,0.0408506010705755,-0.1965206507861631,0.0260483194318402,-0.0044103736317631,-0.0096348195115025,0.0038093861439429,0.0083927751868502,0.0268900055497768,0.999595454282532,0.0748701825788396,-0.0227614781804658,9.869035709624756,-0.0077504023734093,0.0355062015400717,0.0082187019945234,8.463864710220216,0.0190415043025334,2.0850273642434995,1122.132058764524,1132.3546970534064,1121.9897898476183,1133.7584047543287,-36.875586725416795,165.5482617254949,237.68625206739847,-450.1975968265911,158.595306357309
8.1525,1.3347201879224773,-0.0048595639708638,0.0432477157422846,0.0290107262045714,-0.0057440487867086,-0.0112627259200848,0.0038748537980301,0.0083759344814476,0.0268686835458171,0.9995959140215178,0.0777902867578402,-0.0210122667968959,9.869087966864573,-0.0073788394787908,0.0353402261176355,0.0083458948470783,8.46383518143488,0.019131775684639,2.085046953534268,1122.1383353017236,1132.592206140367,1122.499010482702,1132.5287771497767,28.902031376134182,33.62952647335747,173.63019931784763,-545.9951954937145,158.59525969639628
8.154999999999998,1.5340950025643179,0.0200511766745714,0.3151817490901377,0.0327548433399847,-0.0072065995544533,-0.0121065496042206,0.0039433839160875,0.0083579055308607,0.0268450782178321,0.9995964018812764,0.0803862143265593,-0.0191461156439769,9.86907958102778,-0.0070000015389642,0.0351797999027567,0.0084766092893597,8.463808504338816,0.019220329629287,2.0850681683345647,1122.2765689214043,1132.5228446857732,1122.8579408442074,1131.0284287768607,69.42789993394223,-77.05729098341794,106.37620227333328,-619.7997358981352,158.595229099759
8.1575,1.698101551489799,0.0982885007767426,0.573326047492253,0.0367236255686747,-0.0079226677677524,-0.0113354940972518,0.0040192629958205,0.0083334488411714,0.0268230213218065,0.9995968297742384,0.0827483453458439,-0.0171252666880749,9.868984281937363,-0.0066159786150736,0.035027602399395,0.0086106344020543,8.463786303574723,0.0193062991074863,2.0850905917198754,1122.4854748013931,1132.2069196854495,1123.0308914940688,1129.4297784702856,91.66951219934548,-174.04389744544468,14.810689545536164,-628.3098171726051,158.59521388120973
8.16,1.8052487677511984,0.2171290087932004,0.7546082430802508,0.0407345903152548,-0.0074030453808966,-0.0081714397955706,0.0041047036822543,0.0082995707822153,0.0268044364755937,0.9995971561630324,0.0849259573800448,-0.0149566050845313,9.8687734428144,-0.0062294092817233,0.0348863371988969,0.0087477634461296,8.463769114381414,0.0193895948128074,2.085112710578758,1122.734916482401,1131.6526251985458,1122.931994291935,1127.8868796909971,110.22011873299024,-275.4765365027745,-108.86297083945811,-623.6442637532822,158.5952197094653
8.162499999999998,1.8489221494470776,0.3704309207769923,0.8205543598814513,0.0458784223191744,-0.0057886790432956,-0.0024613583631031,0.0042023937797717,0.008252854786583,0.0267901334372999,0.999597373813742,0.0869810237549451,-0.0126415977804271,9.868416685006764,-0.0058428406799919,0.0347584165443477,0.0088876764143596,8.463755934116227,0.019470442218699,2.0851330146505167,1123.0365753950582,1130.829537002936,1122.4865766398716,1126.31155715152,107.09637715188508,-309.3692100320339,-212.45599375503247,-508.6887945512559,158.59525440768715
8.165000000000001,1.7987118324956957,0.486223913985243,0.7347032252637254,0.0504632874001736,-0.004066468334699,0.0022776118942169,0.0043050633092616,0.0082011662030891,0.026777301454988,0.9995975116039832,0.088751310528719,-0.0103739283790724,9.86788306151586,-0.0054586180460475,0.0346453850126415,0.0090303246548282,8.46374521970062,0.0195496183493836,2.0851518352940475,1123.2703983681608,1130.1057791483854,1121.8697143231595,1125.3434357182405,87.84564087521622,-278.06440052804845,-285.34899933988606,-302.7962027548692,158.59530914706383
8.1675,1.6409133375025495,0.5762193355190921,0.5334805025046283,0.0552649268389134,-0.0023793722857744,0.0050014373939623,0.0044058780528942,0.008151554000087,0.0267634841398963,0.9995975973143774,0.0900939026712525,-0.0083393445904193,9.867141495533824,-0.0050780563864892,0.0345478549817011,0.009175127361991,8.463735147809256,0.0196280166169932,2.0851702448567937,1123.4758035994344,1129.4392150002957,1121.059831643172,1124.7975761377454,82.66532150075187,-264.38466279442565,-383.7953526771652,-145.29520941703757,158.59539438364507
8.17,1.3165880244902723,0.6507335601519674,0.2370832135023754,0.060998960463131,-0.0005816977537491,0.0053520284401117,0.0044934862401274,0.00811321024221,0.0267494098830439,0.9995975804570844,0.0908235048518297,-0.0068099612106188,9.86616165792944,-0.0047012318671524,0.0344652776140083,0.0093211077303269,8.463723518770635,0.0197062387493907,2.0851908225891527,1123.6837249756643,1128.7838558344135,1119.9507375597743,1124.6169596711554,68.45434970856783,-208.38936121121657,-418.30829112931633,2.4940775819236887,158.59553675205115
8.172499999999998,0.9398381572349233,0.6853551211564946,0.0055148169838238,0.0650738277548057,0.0008400113736735,0.0040364977880748,0.0045670672685911,0.0080864024034612,0.0267346761732254,0.999597467731772,0.0909381353371317,-0.0058503054886447,9.864913230155986,-0.0043272588435808,0.0343961348437834,0.0094660738354384,8.463710320420034,0.0197850748401739,2.0852156177398022,1123.8180753479771,1128.3972681942398,1118.9682901875256,1124.810046525655,42.641137366211,-114.06710385565964,-396.32173677744674,131.6782466442213,158.5956926768706
8.175,0.481231102553398,0.6907784167117971,-0.1563879418478287,0.0675167102496136,0.0024090811881834,0.0021489179414946,0.0046270974364698,0.0080697974570777,0.0267201142578263,0.9995972553948564,0.0904692830019368,-0.0054936608174318,9.863366603311453,-0.0039546279188418,0.0343378814238339,0.0096075699412818,8.463696056940178,0.0198648582629031,2.0852455930320906,1123.8969306624956,1128.2135203151352,1117.9691288758868,1125.2753509043766,17.145996841824903,-26.360477943667743,-440.95739008955593,248.62389538589676,158.5958923575764
8.1775,-0.1082649395394018,0.6602700975496011,-0.242890041241281,0.0681400869591434,0.0045751352258714,-9.187054679503721e-05,0.0046806477968687,0.0080532639564973,0.026707041490321,0.9995969875146689,0.0896264859083271,-0.0056392133162241,9.861492575048691,-0.0035814591030167,0.0342872004093902,0.0097431947105756,8.463681027623018,0.0199460852225995,2.0852789320238525,1123.9038053321863,1128.2654658045215,1116.7635032370777,1126.0531660025847,-14.652169095782668,68.13478966943413,-445.0675134678908,310.79930668199086,158.5961889616322
8.179999999999998,-0.5856520539421977,0.6024228874347952,-0.226921232820911,0.0667328708381045,0.0064125654288532,-0.0016699639559994,0.0047330701113965,0.0080300896430338,0.026698143721079,0.9995966847403404,0.0885521530649112,-0.006207958031973,9.859262734453207,-0.0032059828511483,0.0342400799774034,0.0098715930121232,8.463664902976653,0.0200289978112039,2.0853126546194733,1123.8236698170167,1128.5541942634823,1115.7437913085475,1126.8293474377863,-48.60386118297506,164.9055053909448,-413.7069467382197,326.8801233571083,158.5964886420544
8.182500000000001,-0.9980797788650446,0.513258001496867,-0.1415997199114226,0.0636053446345277,0.0077843158004542,-0.0026374301635285,0.0047878348789181,0.0080005631245124,0.0266947593385448,0.9995963983713148,0.0872515516822009,-0.0071423063324839,9.856649122907156,-0.0028271007416717,0.0341920633389197,0.009992669524968,8.463646938281554,0.0201139331832728,2.085343847976595,1123.6607860262711,1129.0899933314763,1114.6949685033862,1127.6875666193705,-72.885084080724,247.02334487051988,-423.92126436068526,348.7774296586304,158.5968490045615
8.185,-1.329930329875846,0.402347050380676,-0.0252692478983084,0.0594876509077938,0.0087389782210719,-0.0027601449106759,0.004850528148888,0.0079699194343591,0.0266921840725845,0.9995962850432534,0.0856365701813289,-0.0083270292778208,9.853623656038152,-0.0024450104667756,0.03413862944017,0.0101071489376755,8.463627951722762,0.0202012673462922,2.085371106249956,1123.459244396613,1129.789310987835,1113.624184986744,1128.5732345860797,-76.20648003586818,299.1059429727242,-428.7076111954264,346.3481296131484,158.59726385103943
8.1875,-1.5517215277072527,0.2697349492301627,0.0932600895037149,0.0548517458207414,0.0097026171574012,-0.0018087030407032,0.0049148019388204,0.0079441540377881,0.0266871974241006,0.999596345025022,0.0836020866883719,-0.0098690077696211,9.850159385547338,-0.0020609457037497,0.0340753167494785,0.01021707087776,8.463609049715535,0.0202903707516028,2.085395326842807,1123.279753626092,1130.5855230463396,1112.5514304474095,1129.419307267436,-50.56268653462308,337.03522553944254,-462.83484311084175,337.7579913672197,158.597748330799
8.189999999999998,-1.698441583067761,0.0920005183232009,0.2029107376381483,0.0495044462289542,0.0110587779795209,-0.0001581828672857,0.0049726414439213,0.0079306058448527,0.0266769296368521,0.9995965677867076,0.0810212918348117,-0.0118945442103668,9.846229790744655,-0.0016774376411684,0.0339982429598519,0.0103245295560946,8.463592204430963,0.0203804016403926,2.0854180170240286,1123.20643096394,1131.474487115532,1111.3100107711903,1130.2620245429155,14.189267845629328,286.77643435439734,-440.8183619132835,260.4503702424201,158.59841381470983
8.1925,-1.739025043144562,-0.060586831161298,0.2547867539793496,0.0455135396682038,0.0117489292308836,0.0011164087731276,0.0050140498147341,0.0079406985626197,0.0266608336388196,0.9995969099514994,0.0776928214763203,-0.0145549696355839,9.841809258972061,-0.0012982019980133,0.0339043183450883,0.0104312976923586,8.463578911094432,0.0204702294168917,2.085441029871055,1123.3506999653202,1132.0194052181118,1110.3473386378428,1130.7215591186482,115.3566601186232,149.66057756562284,-364.56234850828633,114.81853332409652,158.59904004227369
8.195,-1.7197598757052752,-0.1935253160239404,0.2657609215785979,0.0420200665894892,0.0111392804648767,0.002122503702158,0.0050363217658794,0.0079724576138183,0.0266443185348538,0.9995972782032504,0.0736904012742858,-0.0178546873368447,9.836874213789354,-0.0009272337963769,0.0337914811980108,0.0105381190030007,8.463570332979717,0.0205583727533124,2.085463998287499,1123.7832142645332,1132.22279000336,1109.4871990286483,1130.836117209536,259.3536072929571,-5.42836645895585,-350.2240590554508,-37.65586987229493,158.5997412561988
8.197499999999998,-1.6485871531030192,-0.2988531223346252,0.2436971596882794,0.0378022217286897,0.0089202537531829,0.0032360159208728,0.0050460212120057,0.0080192970744598,0.0266298930768078,0.9995976545332232,0.0691910326087227,-0.021608235931113,9.83140457432539,-0.0005691057365822,0.033658580854447,0.0106444642746683,8.46356711795422,0.020644008376012,2.0854870133094705,1124.6474680017848,1131.992263385817,1108.5962183425659,1130.5332797692868,362.75916608704335,-162.16672669391795,-298.97612262640484,-179.50026794459453,158.60066851154488
8.199999999999998,-1.5565433752129072,-0.3295006897333543,0.2097171028329524,0.0340325836658172,0.0067036599988659,0.004052785254316,0.0050518506412793,0.0080665668275368,0.0266193521359037,0.9995979917939116,0.0645384431790239,-0.025584453651114,9.825386726405233,-0.0002281489720967,0.0335049445435007,0.0107489931352029,8.463568375375651,0.0207275075198126,2.085510339945847,1125.597010094968,1131.4119563698907,1107.9923184155168,1129.9386158698132,397.5956596613575,-297.03406861008165,-204.46086464736692,-291.1442752563743,158.60151101308733
8.2025,-1.434304150147861,-0.3094898039859744,0.1807822930425065,0.0303354029277751,0.0052650084647045,0.0044180300309457,0.005063785413546,0.0081000195912744,0.0266113681833913,0.9995983219303808,0.0600750510278209,-0.0295206918186719,9.818815295510259,9.179065764799529e-05,0.0333300489304023,0.0108495812914784,8.463572793377354,0.0208102726345681,2.085534218171388,1126.6354463000919,1130.5070930427664,1107.5739140193289,1129.0775583930047,399.5334934369851,-396.9151606266512,-127.33095812666588,-368.6599157451716,158.6024227127948
8.205,-1.2901212345309767,-0.2678974356502734,0.173245353250219,0.0269831877194115,0.0048001431054427,0.0044013903603637,0.0050929268460867,0.0081126601825792,0.0266021517425016,0.9995987106022028,0.0560059123526225,-0.0331241714961918,9.811694460417405,0.0003876879472156,0.0331333524726032,0.0109433690895573,8.463578723949942,0.0208938631168834,2.0855584163278604,1127.5946775621533,1129.4273805667572,1107.3556636248832,1128.095316291087,326.7711084874204,-448.59913945892737,-25.129782341587536,-393.37239856889573,158.603388624543
8.207499999999998,-1.12486652432516,-0.2283265524948505,0.2082784560625423,0.024117672201906,0.0052429812605926,0.0042397086843411,0.0051447608715021,0.0081037698305622,0.0265908695188919,0.9995991452650724,0.0524123419673667,-0.0362070415599837,9.8040396693456,0.0006579467873026,0.0329141914372735,0.0110272568990734,8.463585031130712,0.0209789677443805,2.085581548800031,1128.2693018425286,1128.2640973454722,1107.4482651076207,1127.1106964001604,195.4205265307486,-502.6096904073834,130.00067274981816,-395.12532312294934,158.6044152944725
8.21,-0.9099244235872128,-0.2060377541365913,0.3105012956158314,0.021287841826479,0.0059558736011519,0.0037890625410275,0.0052097346121295,0.0080851459759667,0.0265806663994127,0.999599485888668,0.0491226494905632,-0.0388691865240478,9.795878304310959,0.0009023518168368,0.0326717842266313,0.0110984486831973,8.463590668752046,0.0210653497992349,2.0856040738553494,1128.5717801948072,1126.9143321147199,1108.0056669886324,1126.119689675472,17.03950026830814,-472.9228582151051,286.6181957924261,-305.8109028919693,158.60571059956254
8.2125,-0.7221315089165187,-0.2099994621380077,0.4425912718725062,0.0194167671630567,0.0061047387834979,0.0030898580343767,0.0052776840914952,0.0080685641674284,0.0265761464939591,0.9995995665992164,0.0459636554289475,-0.0412229913704348,9.787251366018884,0.0011220713833093,0.032405817027318,0.0111533690178171,8.463594602654304,0.0211522875549466,2.085627303016077,1128.3544993438702,1125.8994830543963,1108.8813560865833,1125.5816418857005,-173.5331064241454,-374.6213079721037,432.2035152556005,-133.61668979976386,158.60683699901207
8.215,-0.5301714244413737,-0.2244053978067503,0.5982356384600783,0.0178854053200537,0.0055453483085085,0.0031625855084642,0.0053388047827208,0.0080675606760383,0.0265752419266918,0.9995993895983478,0.0427246675088806,-0.0433750564916991,9.778214326926808,0.0013188409256374,0.0321167362650384,0.011187589069199,8.463597367378771,0.0212394963199065,2.085653963424434,1127.7041146626866,1125.0412255748597,1110.16668456491,1125.4516062264731,-351.9436393240785,-338.9427491016014,632.6705916459454,43.51150332987301,158.6080044288181
8.217499999999998,-0.3003607930173636,-0.2323699582909679,0.7545871170511835,0.0163363766561568,0.0042923117259913,0.0058492275213744,0.0053899753861116,0.008086744871129,0.0265763096194541,0.9995989834624168,0.0393669091397382,-0.0453108294874487,9.768838835093316,0.001495401044934,0.0318060651365348,0.0111957011682579,8.463599862748017,0.0213265669549828,2.085685157553092,1126.59478114725,1124.2047693088887,1112.0447090448124,1125.7991994023498,-429.21580284949073,-274.3171701538839,708.0989476468205,200.66857549487892,158.6094427364582
8.22,-0.1158100228884895,-0.2194560806002205,0.8137182222082386,0.0154509842596348,0.0032268867436476,0.009777002807025,0.0054254806972745,0.0081240802724091,0.0265809322439158,0.9995983610682632,0.0359710546662884,-0.0470771881843259,9.759212702113889,0.0016554155510444,0.0314763165210111,0.0111724682728774,8.463602329165058,0.0214124397199575,2.085720252915104,1125.5580356484388,1123.66963972409,1113.7071793031448,1126.454949103948,-400.9843588976592,-180.47568766357375,629.8036142955805,309.05687928093073,158.61066444576718
8.2225,0.0481267288697344,-0.1808438912711805,0.7669671336950737,0.0153759236051847,0.0026137367390441,0.0136251054959385,0.0054475537900791,0.0081686555128072,0.0265937664125432,0.9995974813768264,0.0327837832353246,-0.0485796840713215,9.749439441662032,0.0018033962384432,0.0311312396153554,0.0111127572648492,8.46360490841871,0.0214957975312565,2.08575727098058,1124.5898593527616,1123.3023908705707,1115.1937271162908,1127.3444837987547,-381.4904866882293,-125.0015223585045,552.1055217822511,399.7931408920862,158.61189979470984
8.224999999999998,0.2015331294846089,-0.1054233013927954,0.5933191444380221,0.0162591117806471,0.0024451201172668,0.0168882841291477,0.0054613429443516,0.0082119710081928,0.0266214143663583,0.9995962212309548,0.0299933736174604,-0.0496770368750928,9.73963541454252,0.0019442634079117,0.0307755570919752,0.0110123433844418,8.463606832150393,0.0215754246773484,2.0857946007215022,1123.650583214998,1123.0446321122977,1116.4677069120555,1128.453914808408,-301.77303475856945,-69.4915764994567,352.3880656212345,380.8845741152568,158.61338582682444
8.227500000000001,0.2820090688511753,-0.0182744788090845,0.3756021791510475,0.0177116839703729,0.0025068855772085,0.0182651610871629,0.0054720538768701,0.0082475808443444,0.0266644211748463,0.9995946079718044,0.0277356333204227,-0.0502383387905004,9.729927469316225,0.0020827083776052,0.0304145975645419,0.0108683043877414,8.463607072511081,0.0216511275185844,2.0858307034286176,1123.0809941789685,1122.954932988073,1116.9556674443972,1129.2489066693313,-197.4547680539818,-22.480712410193643,68.44676118829578,261.5898404068094,158.6146188878498
8.23,0.3108705094390591,0.0977091037332147,0.1224149791244073,0.0195103282888768,0.0022611704344484,0.0184609392381915,0.0054889631863804,0.0082693308312534,0.0267162086933695,0.9995928319694845,0.0261305035600454,-0.0500667987526578,9.720450255067876,0.0022229347005957,0.0300539648431407,0.0106787588361204,8.463605705483564,0.0217237045586273,2.085864710439675,1122.663309374728,1122.9322285502467,1116.809940717997,1129.761864010442,-165.3033939400631,-10.788765486315569,-147.71289466905938,148.1499098657263,158.61583735058852
8.2325,0.3073257343234871,0.2399114585894413,-0.1307930395583651,0.020824004201718,0.0017782015672142,0.0180006669895102,0.005507886342575,0.008285617513902,0.0267743470650741,0.9995909070183964,0.0249953593670262,-0.0492333374862633,9.711340754980291,0.0023687016459464,0.0296987238158471,0.0104438032851893,8.463602558569793,0.021793109775451,2.0858974573514666,1122.2544772092683,1122.9009891606415,1116.217102971052,1129.9896562186595,-197.25484086370048,-29.62364521563948,-308.01827558181446,25.695884611428134,158.61703752045176
8.234999999999998,0.2895206304422694,0.4073336294611135,-0.3549331851972432,0.0211280818868645,0.0016035349954218,0.0169130977464517,0.0055243306570861,0.0083031654380585,0.0268346238028973,0.9995889110467876,0.0241693643409859,-0.047827958765337,9.702737283599792,0.0025230189594364,0.0293533699235122,0.0101644843564073,8.4635986952919,0.0218600195063654,2.0859294687851775,1121.6770351704097,1122.7841103241683,1115.2698493400883,1129.8903434334993,-333.18519325720695,-82.51792286476832,-444.775290411802,-99.89908710125094,158.61820887716576
8.2375,0.2841441845095808,0.6111781170042818,-0.562231156565415,0.0209579702335185,0.0023806635176884,0.0148850062666741,0.0055370973143017,0.0083285386915973,0.0268895729807295,0.9995870015560556,0.0234872835073128,-0.0458881169002778,9.69477591492794,0.0026878010662779,0.0290216377494344,0.009842533029685,8.463596199072617,0.0219257096968168,2.085961878720721,1120.588551242982,1122.4883995463179,1113.9932265189927,1129.4901607831534,-479.8658115000012,-133.2912442231437,-458.4856169416264,-174.59048817533585,158.61957339331573
8.24,0.3079377829683842,0.7535652805556698,-0.670731285745158,0.0210513867096848,0.0041123835085571,0.0126446262240488,0.0055507184188911,0.0083559856167587,0.0269377297375484,0.999585248728688,0.0230167610596407,-0.0433567730495927,9.687588865990422,0.002864620132527,0.0287063235669142,0.0094802579318826,8.463595840244789,0.0219906224757761,2.0859937291736297,1119.2777061129093,1122.1176541030527,1112.9774212553796,1129.0173909926225,-602.0252884021663,-161.66464896135528,-374.27040888595167,-197.4190816067159,158.62067120020208
8.242499999999998,0.36674946894126,0.8280206076247622,-0.7086787233829543,0.0215810010515742,0.0069468205300534,0.0100322432561715,0.0055714056583284,0.008380569921672,0.0269752987879293,0.999583784136248,0.0228038987842144,-0.040152631761554,9.681299057679748,0.0030541051451953,0.0284091942009411,0.0090809158853258,8.463598361646248,0.0220555475899297,2.086023881133733,1117.5784248009716,1121.6800763015112,1112.1218744745631,1128.50306537512,-803.0401849166192,-184.7054634996932,-338.73374208600734,-219.56311277727968,158.62172300301526
8.245000000000001,0.4749630404189502,0.8042580749417905,-0.6863802187527936,0.0226176157654456,0.010887988231885,0.0073827230852016,0.0056003268395385,0.0084033466710282,0.0270005176852484,0.9995826818713238,0.0227712703001294,-0.0362957366169145,9.676016143382196,0.0032563915863263,0.0281308877625099,0.0086490900756001,8.463602608106637,0.0221214188858362,2.086051082001189,1115.2625051883256,1121.194126785554,1111.2837525449495,1127.919575428736,-858.912204045739,-154.3483620692982,-289.15141231718763,-201.2725676044878,158.62292690068898
8.2475,0.5915040979976465,0.6809531962153091,-0.6318213872106285,0.0237566152258255,0.0137152084220762,0.0060525976587732,0.0056374484215794,0.0084252632956897,0.0270108199132796,0.9995820440667313,0.0228404465962482,-0.0318342246280717,9.671834567309242,0.003471357174793,0.0278711811896089,0.0081902359330787,8.463607362138259,0.0221892306905023,2.0860742999663584,1113.2838637807424,1120.9083344911646,1110.6761174129772,1127.4967025370975,-754.6931759016525,-74.12803984858894,-249.1210787600762,-151.80810786335607,158.62387853023074
8.25,0.7273565556455167,0.4590190252740037,-0.566787045456732,0.0250082316677234,0.015503421540765,0.0053901561779848,0.0056819667007138,0.0084466693587405,0.0270070939422002,0.999581812197298,0.0229432911969142,-0.0268346010977707,9.668831168228609,0.0036989791710507,0.027629274278167,0.0077103123841003,8.463611276538149,0.0222585575702319,2.086094751972506,1111.489039308818,1120.8234865863112,1110.0381471511491,1127.1605348894193,-699.4207871477583,18.355040811415176,-316.95298291157934,-127.85491162406105,158.6247736832671
8.252499999999998,0.8985732998020604,0.1045658957946091,-0.4971975333649735,0.0267629599407277,0.0166926208083642,0.0047901948111227,0.005729053329195,0.0084690815754969,0.026994179178495,0.9995818317499968,0.0229881847820909,-0.0214423837876148,9.667063078054625,0.0039392409141224,0.0274040782251368,0.0072156459136941,8.463613704068514,0.0223284404104611,2.086113572362757,1109.7867598450043,1121.0001096952217,1109.0913524984196,1126.8574279789773,-524.3181543813624,113.1338257362409,-391.81773308321925,-97.93092096618528,158.62578016408847
8.255,1.032052853646714,-0.2401344007868637,-0.4504498097173801,0.0286729264308078,0.0168948495370321,0.0041682556530899,0.0057730223167917,0.008498564622391,0.0269742937430503,0.9995820019618278,0.0227987494219724,-0.0158180429715698,9.66656563650448,0.0041915069418589,0.0271945862399633,0.0067126273929931,8.463615860240209,0.0223984022325096,2.0861332022740897,1108.8674485369108,1121.3891557149925,1108.0790584857327,1126.6708802845883,-252.18907113613264,203.42817120132625,-454.6133824230964,-69.16599693921681,158.62656134626764
8.2575,1.1297762442012422,-0.6022042057248153,-0.4095825228491507,0.0313301403456435,0.0158093877599873,0.0033067551733771,0.0058171478393125,0.0085298872753263,0.0269532001501387,0.9995821787417432,0.0224266246816863,-0.0099548851021917,9.667353039194925,0.0044548955592669,0.0270000911865331,0.0062071828024866,8.463619229235585,0.0224678712786744,2.0861532676834496,1108.5258144893235,1122.0172505512285,1106.8182855863035,1126.5115979942811,-47.134606663449006,284.4076460755443,-536.7311526129628,-67.88046260109226,158.6272821778219
8.259999999999998,1.1759972781330177,-0.9515202568095996,-0.3647409066541714,0.034698388450623,0.013492914843846,0.0022717179822068,0.0058690304639793,0.008554037631781,0.0269335899495217,0.9995823238464696,0.0220059007160696,-0.0037640654393527,9.66941642584618,0.0047277395806135,0.02682019409786,0.0057053064447038,8.463624941541244,0.0225365718196842,2.0861720695087813,1108.6317755035936,1122.81119394537,1105.3954027226687,1126.331477971583,124.92032639577458,341.5667736424664,-587.3498244379593,-89.96768217213656,158.6279530540915
8.262499999999998,1.1390372847807007,-1.2568762461587155,-0.3039282771339448,0.0386842446543136,0.0099983694791084,0.0012462813687493,0.005938537093189,0.0085652689872202,0.0269132928737306,0.9995825039064556,0.0216174112428104,0.0028898488900074,9.672722527723565,0.0050075636685075,0.0266547625942191,0.0052133436018772,8.463633837633996,0.0226047029115616,2.0861878399656457,1109.1504161213022,1123.7250844194405,1103.8815364641143,1126.0617595834203,275.22900469794206,398.72822003265486,-655.6953422917443,-157.21652575782443,158.62856439417754
8.265,0.9899766847264724,-1.5489874621141804,-0.2015690410606688,0.0432082852730826,0.0051481559400281,0.0002572120933543,0.0060272904842972,0.0085574938900686,0.0268935828250103,0.9995827497947845,0.0213540697493784,0.0099841044924756,9.677215640287171,0.0052918684519124,0.0265036918269317,0.00473838084402,8.46364441839484,0.0226722860005814,2.086197540487844,1110.0079205270836,1124.8048350455335,1102.1169260112094,1125.5453953427937,315.31579323509123,365.8486217953733,-618.5714569445223,-232.31338645060535,158.62923020416798
8.2675,0.7895487120598171,-1.7239972709129479,-0.0869698442958649,0.0459153112229259,0.0008834463415736,-0.0003257435669264,0.0061203755234462,0.0085397130273081,0.0268810399133213,0.9995828988028016,0.0210191712913657,0.0171851444155501,9.682817760988156,0.0055783254441447,0.026366790869908,0.0042883270213027,8.46365481534252,0.0227386456945818,2.086200785148096,1110.726995087478,1125.5543275284176,1100.7886791793915,1124.9001926511671,251.54458770094155,237.15876773481057,-488.6267192881013,-307.8672203837572,158.62972893778675
8.269999999999998,0.5380513943962701,-1.8292142807974725,0.0600779745213234,0.0471444426786228,-0.0035302851700462,-0.000656640325567,0.0062114885322068,0.0085245396064949,0.0268827483962809,0.9995826842844586,0.0203617472077683,0.0243289382018561,9.689429532092314,0.0058647134156877,0.0262439844432736,0.0038697702143671,8.4636636168216,0.022803537150286,2.0862000421150295,1111.265643465588,1125.9906288842071,1099.6737924147694,1124.0060592408752,176.06739949230337,93.7180070356443,-442.9889697273428,-442.8825266951425,158.63016935350993
8.2725,0.2120388516123049,-1.8819740142586967,0.2706848476472009,0.047217958962175,-0.0089967604215429,-0.0007139754272848,0.0062993731147899,0.0085234383170222,0.0268961819826893,0.9995820734707936,0.0191665213385311,0.0313499265646658,9.696933121657773,0.0061482157791786,0.0261352282851595,0.0034875458702359,8.463671439721384,0.0228678317636915,2.08619922957959,1111.6073320849396,1126.022917563596,1098.5737343307544,1122.6857800176913,80.65464844442988,-76.49408990640664,-374.5453917910123,-510.9923100784383,158.63062964765882
8.275,-0.0627440986659299,-1.8719426818432072,0.4669122159653438,0.046624987268033,-0.0134419396015664,-0.0003722878597461,0.0063914006562266,0.0085301506533961,0.0269130843629474,0.9995812631927828,0.0175769456121265,0.0383422218271547,9.705196610430816,0.0064254637504316,0.0260403900302187,0.0031442087537299,8.463680518937025,0.0229326086663982,2.0862009583139782,1111.6689167078102,1125.6081584346753,1097.801065455814,1121.4510976904824,8.57173278500511,-247.3780532671336,-296.71576018046375,-500.18975584858657,158.63095535794562
8.2775,-0.3343880313832562,-1.8152323480178336,0.6674657561074313,0.0456334014872577,-0.0176139317643895,0.0005893937837702,0.0064843012051125,0.0085299629570802,0.0269270188848629,0.9995805222195618,0.0159064317663677,0.0451909593323498,9.71407858941942,0.0066927212309918,0.0259590623958524,0.0028414057512549,8.463692397154823,0.0229985585204049,2.0862055454205137,1111.6501907488644,1124.7860272972605,1097.0901555298524,1120.1848312384489,27.643259254324263,-423.1821570616308,-314.53753135198787,-542.8707389122961,158.63121922638038
8.279999999999998,-0.6632410795441605,-1.7013005083043276,0.8835193981556883,0.0436437213758724,-0.0223559887419729,0.0027504561550759,0.0065656604404851,0.008512873376616,0.0269297460900381,0.9995801733038931,0.0143831693261822,0.0516074247524525,9.723429409534452,0.0069458002365032,0.0258907983529171,0.0025804410006733,8.463708158438623,0.0230661129179411,2.086211921925227,1111.8071330040818,1123.4922476493675,1096.2283777990544,1118.7367439959216,128.8729990002847,-492.1091818323161,-321.0045573733576,-510.26782342884167,158.63146162129289
8.2825,-0.9513532191066254,-1.5707008887357807,1.0181664133516757,0.04139381940093,-0.0260860948829528,0.0055102134461828,0.0066190197447821,0.0084737967186797,0.0269206792558201,0.999580333892268,0.0131480215236277,0.0572277108715264,9.73309342095553,0.0071809696790423,0.0258352254674614,0.0023624819355642,8.46372730695326,0.0231345792684049,2.0862178056380647,1112.294555743866,1122.3254813880983,1095.4851327429851,1117.6334921213042,304.85470242519807,-440.84695401995685,-295.24046184405887,-418.6829579078022,158.63159930240616
8.285,-1.2749002910069644,-1.4024435869155767,1.079837003818972,0.0390431436115427,-0.0294995281237973,0.0090417324887721,0.006629434697164,0.0084202200388922,0.0269064123186358,0.9995809133632712,0.0121065724166536,0.0617248372775426,9.742909109083074,0.0073953536343485,0.0257922187593521,0.002188600694409,8.46374845915325,0.0232020007065678,2.0862223276786356,1113.331406516208,1121.2880128792672,1094.752175489834,1116.6433292063823,514.0705347031712,-361.9898820587688,-279.26037686989827,-381.23465108881953,158.63166717834753
8.287499999999998,-1.6441000898219695,-1.2004751210882638,1.0708634378869728,0.0365633999147647,-0.0326485042099032,0.0126802828949036,0.0065920671779676,0.008359183560277,0.026895649385036,0.9995817139003687,0.0111838558692294,0.0649699011377364,9.752711765287087,0.0075870730122058,0.0257619545390974,0.0020591494312123,8.46377053312234,0.0232668476391665,2.086225164534196,1114.8649084173815,1120.515531977805,1094.088830858636,1115.7273188658603,716.8018973241731,-213.8402434906432,-230.63976090248647,-353.8429477883612,158.63167525287713
8.290000000000001,-2.07838606456754,-0.9541811830005476,0.9801241252752724,0.033218848979751,-0.0355092587015633,0.0158230163914313,0.006514537160028,0.0083011185883713,0.0268964555761988,0.9995824256902972,0.0102478246483084,0.067081409007604,9.762334403686927,0.0077552241103291,0.0257446826107306,0.0019735620421941,8.463792743758304,0.0233289523943869,2.086227998666766,1116.9154160028295,1120.218811661814,1093.5989766853213,1114.8741144674402,973.5651259474547,5.586075864493105,-155.4524771857116,-362.42762839018513,158.63160954666384
8.2925,-2.66716903611486,-0.6062550903311176,0.7978363074913948,0.0276209123748501,-0.0383573226021634,0.0185509186914972,0.0064188895253783,0.0082445662361055,0.0269074572613851,0.999582973392956,0.0094047431006194,0.0684572705694156,9.771612615421649,0.0078994998118265,0.0257404898603522,0.0019299650214522,8.463815780242227,0.023389422759098,2.0862312258358826,1119.7327340471195,1120.5434623571275,1093.3115684727074,1113.915180723909,1047.303874368553,238.48144397261615,-46.638722935822635,-336.56236664171377,158.63144408003728
8.295,-3.193804318233019,-0.2776544777350071,0.6060659070654413,0.0213150618897751,-0.0401239494146885,0.0199426131421781,0.0063290765138358,0.008180810255745,0.0269229576720502,0.999583439945818,0.0089005351921207,0.0695343951768166,9.780389530233178,0.0080204245191174,0.025748875976944,0.0019259228252883,8.463839918567478,0.0234496831980745,2.0862348462846865,1122.1519353746712,1121.4112188816769,1093.3657830706422,1113.191302634232,930.9115260219219,460.8905322963899,83.85649896146637,-264.4840062667825,158.6312336439125
8.297499999999998,-3.720220582034449,0.0753000896366803,0.3968258300320535,0.0130348546169541,-0.0409931680857116,0.0206337478221076,0.0062594182830964,0.0080991227167648,0.0269349830928762,0.9995840475196764,0.0090098369734157,0.0705663130671891,9.788520521425118,0.0081195113414544,0.0257685536275512,0.0019591641471053,8.46386520040449,0.0235110809513464,2.0862374844719263,1124.387291677228,1122.847915018609,1093.7308509675147,1112.5927606925757,897.80011350385,730.7621440848145,222.9264555358092,-222.97142648036396,158.63094818181293
8.3,-4.3016317476284005,0.4947724634822363,0.144928820599449,0.0008781371679347,-0.0401427071587929,0.0209368020265136,0.0062191305560487,0.0079909598264947,0.0269379985482089,0.9995849669107764,0.0099539110560154,0.0717139059019684,9.795874136138911,0.0081996173632637,0.0257974568079407,0.002027345170526,8.463891051591997,0.0235748501307654,2.0862372701104284,1126.6409359421912,1125.0650296021015,1094.4804153483215,1112.07644550183,738.2230104710497,859.5142885130848,314.52127591942,-149.99737327609563,158.63052010961786
8.3025,-4.711729316847598,0.8129836142437381,-0.0577469588036155,-0.0106243374205736,-0.0378004688140595,0.0208896344892352,0.0062017912434455,0.0078645735783317,0.0269317907162917,0.9995861682672688,0.0116061808706393,0.0728468447337618,9.802334642025277,0.0082651201971186,0.0258328945470887,0.0021285340576262,8.463916155790402,0.0236412346269805,2.0862345846069266,1128.078406729584,1127.145486461175,1095.303457347112,1111.842773826195,479.07581263089446,829.5479826575789,353.12387870206044,-51.228018868606526,158.63009356981618
8.304999999999998,-5.0174444170829195,1.072381918887752,-0.2482550694220521,-0.0228929006150598,-0.0345906572942692,0.0205768657140635,0.0061951697698498,0.0077309224365567,0.0269219033223464,0.9995874818250164,0.0137706378378302,0.0737282622523642,9.807805290855422,0.0083219654326874,0.0258719145315109,0.0022600860179866,8.463939018632207,0.0237095931069206,2.0862302395095367,1129.0363150053452,1129.2127695153883,1096.2460347418314,1111.820305407487,316.48247856814635,845.7674739880573,423.2556026136783,32.074573302310895,158.62959644977522
8.307500000000001,-5.247359183754532,1.303390014487892,-0.4584796195079574,-0.0382020512769238,-0.0305203856487413,0.0198045972952191,0.0061793690144355,0.0076093018181433,0.0269175113244906,0.9995886228441324,0.0160687697760349,0.073981130377728,9.812210585484518,0.0083772722504039,0.0259116478267638,0.002418478987491,8.463957651210137,0.0237785674122886,2.086226388347859,1129.6608191224248,1131.374323831116,1097.4197353601808,1112.0031466927067,147.21747989963177,700.6061162983129,426.3113545365984,90.91910901973677,158.6289196169591
8.31,-5.321012847357484,1.4303978557632142,-0.6132310280963811,-0.0512538087782251,-0.0270789802888402,0.0187084660214388,0.0061390781138827,0.0075137242517726,0.0269284470100696,0.9995893044861682,0.0182122833202057,0.0733212929050471,9.815498092427543,0.0084387286307344,0.0259495966015544,0.0025983295524315,8.463971010414767,0.0238465608966595,2.086225065444851,1129.7724024048434,1132.7158000968807,1098.3775915145147,1112.2749009525855,-35.91538135197685,408.58466969815646,371.13035887198856,115.01993877693636,158.62828882745202
8.3125,-5.2756951868290445,1.4972072103429983,-0.7375606977935285,-0.0641625825804946,-0.0236232866311325,0.0170262057194936,0.0060637978890666,0.0074571470139088,0.0269539787778969,0.9995895064684746,0.0199196329975279,0.0715641710215095,9.817639197543864,0.0085132564855136,0.0259838400281936,0.0027926032438538,8.46398007533368,0.0239133839846575,2.0862284833096916,1129.4812422156651,1133.4172471796064,1099.2753871545403,1112.5782463865912,-182.15809108923156,163.5573828026152,348.6544927637408,112.29288339452484,158.62758794880227
8.314999999999998,-5.139010221312283,1.5210042929909386,-0.82890567628462,-0.076705030641031,-0.0202132624583266,0.0149028586037259,0.0059535772138888,0.0074427033363624,0.0269900370774162,0.9995893072422484,0.0210937532469082,0.0687329621872785,9.818630132999962,0.0086066952077866,0.0260128446607136,0.0029926568341321,8.463986757603294,0.023979448305878,2.0862375743370407,1128.8616119493975,1133.5335870108936,1100.120863978333,1112.8363653695583,-325.43612259150365,-90.16401814272695,331.5678793538091,80.30253232426385,158.62682763637417
8.3175,-4.90389000947527,1.499496649861738,-0.8734461307679791,-0.0887148015392353,-0.0167558186752598,0.0125479419772075,0.0058071825125895,0.0074646488773973,0.0270323372117496,0.9995888691627336,0.0218001198898597,0.0648266392476136,9.818494860516559,0.008723410465574,0.0260352425497717,0.0031895631996558,8.463992385493762,0.0240449282662047,2.086251443521304,1127.8540616027071,1132.9664270888927,1100.9332265513096,1112.9797590482124,-525.2482092363696,-382.33314866482425,363.1680501103688,34.417676557672245,158.62599319855735
8.32,-4.524569286266127,1.4265392632394,-0.8694335481500929,-0.1022145744120868,-0.0124349061172506,0.0097040896420449,0.0056357591229858,0.0075040946935983,0.0270743957262604,0.9995884339767588,0.022360429902588,0.0600851495331112,9.817282088522434,0.0088659262360276,0.0260498690445686,0.0033740095675341,8.463998443829817,0.0241102912622096,2.086267688860005,1126.2353709032152,1131.6219212675692,1101.9367042288852,1113.0084537523467,-649.657475302358,-575.1990410188918,383.47170769451066,-2.317869279295798,158.624901904046
8.322499999999998,-4.140001279698248,1.3299986219556608,-0.8199268510371154,-0.1125629045897069,-0.0088574443841377,0.0073145184856581,0.0054548428615954,0.007544287363177,0.0271116598865241,0.9995881561551796,0.0230519386448127,0.0548398145941218,9.815063653735619,0.0090349422334461,0.0260556151441736,0.0035374313649404,8.46400605356714,0.024175829560535,2.0862852465005806,1124.6057742261962,1130.0904318837988,1102.8505850897818,1112.968169701816,-687.291015995152,-658.1736246319851,391.4577517863887,-0.9079258112253216,158.6239136454648
8.324999999999998,-3.699036742996445,1.2037430412169092,-0.7299342574478168,-0.1218995302429203,-0.0057616190130482,0.0050948898887927,0.005273229614888,0.0075740371266542,0.0271385437381863,0.9995882233218248,0.0240371541408774,0.0492956345064776,9.811934317460118,0.00922921776192,0.0260514005766851,0.0036728840317485,8.464015369447528,0.0242419484820312,2.086302652217515,1122.79891582324,1128.33105314441,1103.8939929878168,1113.0039141232903,-801.8487023362123,-780.2631149826683,492.16404057725913,79.48046442341942,158.622838560163
8.3275,-3.1219689388741823,1.030044567649336,-0.5915289555187588,-0.1320405509633186,-0.0030566313193739,0.0030321195638004,0.0050975834905706,0.0075844517434402,0.0271494873533048,0.9995888201037219,0.0254338245720779,0.0436191077034782,9.808008211133245,0.00944582394178,0.0260362240043499,0.003774783083504,8.464026917093646,0.0243092666055883,2.0863188037643625,1120.5965307145143,1126.1891163088849,1105.3114052926685,1113.3655720239333,-787.3904780863218,-760.0490071710914,542.7660690074906,219.95620301069007,158.62144290341627
8.33,-2.6162930741345733,0.8732876757149178,-0.4664516194435096,-0.1394227885664286,-0.0015005123907354,0.0020031927205029,0.0049232334239373,0.0075840410152679,0.0271458219632406,0.9995898542619824,0.0270175679905558,0.0377649675660619,9.803414571484248,0.0096806096198306,0.0260090717638077,0.0038395397663308,8.464041085956627,0.0243775263798936,2.086334610806293,1118.861963432808,1124.5308081085539,1106.6078233328547,1114.103695138344,-647.2390507964898,-608.2297231684452,530.1249960166988,415.63373976281673,158.6201887532246
8.332499999999998,-2.109597363701422,0.7022053299653241,-0.3489495031987422,-0.14490607267575,-9.309874201423176e-05,0.0015583619612306,0.0047470630735505,0.0075820139066818,0.0271294015958926,0.999591208917636,0.0285586533993604,0.0317192229477309,9.798293879769288,0.0099283093352102,0.0259692520401547,0.0038644844303297,8.464058896697614,0.0244465871396092,2.0863510569822084,1117.3603354605327,1123.1479676930433,1107.9620302727515,1115.4437407227467,-590.0044174747551,-523.2805900554104,589.7535471024627,736.8252464345672,158.61883705706543
8.335,-1.5328800079319027,0.4658857496319521,-0.2292655601178665,-0.1489513841304401,0.0018485419262477,0.0012212405116656,0.0045667664000387,0.00758466391873,0.0271028595532567,0.9995927718066464,0.0298943777697589,0.0254815615501141,9.79279443687738,0.0101829994732013,0.0259164985111445,0.0038478533172956,8.464081117203545,0.0245160195579846,2.0863692816339063,1115.9119413454337,1121.9144051582764,1109.5565910683674,1117.7878213705176,-470.41263677844574,-373.83190153371805,565.5259709093141,965.663294302598,158.61709975872532
