t,ang_acc_x,ang_acc_y,ang_acc_z,a_vel_x,a_vel_y,a_vel_z,quat_x,quat_y,quat_z,quat_w,acc_x,acc_y,acc_z,l_vel_x,l_vel_y,l_vel_z,pos_x,pos_y,pos_z,mot_1,mot_2,mot_3,mot_4,dmot_1,dmot_2,dmot_3,dmot_4,vbat
20.7025,-1.8614049394359535,1.1702319247038695,-1.0517404724550892,-0.0779220841497576,0.0257508652897562,-0.0561023132626277,-0.0133369486141854,0.0102113523282645,0.0936623546767436,0.9954622057329172,0.0117589512163989,-0.015792928105304,9.818841378062352,0.0874860470114719,0.0742820662718642,-0.0106228529971403,3.5111494776797327,5.057873603091321,2.047515900107092,1131.071970094532,1131.6529445829583,1124.4853670065622,1109.7808784468457,37.220741300215245,30.212847264540873,58.22809567491026,461.56518848696606,149.60400895573906
20.705,-1.7919602398118315,1.071430987526578,-0.7391790905611962,-0.0825568664578964,0.0272816461035749,-0.0592035620318879,-0.0134106581841703,0.0102211642870426,0.093604610222663,0.9954665194727021,0.0129883771475606,-0.012397587984824,9.824629290768877,0.0882680844927545,0.0750485946615957,-0.0104423344853631,3.5113285902179934,5.058104515032014,2.047482453762253,1131.2155428408291,1131.5767961350855,1124.673855607011,1111.1202727594855,71.02353688057113,-76.18430929398225,106.18271890123036,609.3626961881757,149.6040371571202
20.7075,-1.6391622843643736,0.9673149353382228,-0.3946840214088055,-0.0862936972680422,0.0294021986927332,-0.0601620653827766,-0.0134973092123227,0.0102420612968726,0.0935433264578313,0.9954708707880952,0.0137421551808193,-0.0093731856182095,9.830021761386062,0.0890541603061258,0.0758103193578583,-0.0102544805239246,3.511510234004763,5.058338976770695,2.0474525913759405,1131.4270877789347,1131.2720230364887,1125.0162806010683,1112.827691927786,78.64656997655148,-145.4743522228744,182.63555398638337,805.9266705555966,149.60409642649716
20.71,-1.3746883219677375,0.8007775107458422,-0.0185391190899945,-0.0896737782635588,0.0327831138131286,-0.0590228542741808,-0.0135965846636538,0.0102741524766379,0.0934813606345461,0.9954749946647404,0.0140071796715017,-0.0066843903728895,9.835049087965297,0.0898420486322808,0.0765645942479896,-0.0100660220541362,3.511694519353727,5.058575266145472,2.0474256474250208,1131.608775690712,1130.8494243739715,1125.5870333769428,1115.1499061122627,26.051100893696773,-136.21676466548104,221.48437069829504,870.3353855474783,149.60419592499605
20.7125,-1.0897203065847478,0.6043844335352194,0.2225013321087145,-0.0919216782407627,0.0359841666629408,-0.0569428599863967,-0.0137026294164686,0.010317222714084,0.0934203086845981,0.9954788221601572,0.0137933214878742,-0.0041829837196143,9.839756979183816,0.0906295691626013,0.0773101240844588,-0.009883574977843,3.511881382487504,5.058812448988426,2.0474007435476143,1131.5573432834035,1130.5909392131607,1126.1237024545603,1117.1793688555256,-94.28676077961485,-58.36847679335075,201.29095844253607,798.2110579198203,149.60429663376922
20.715,-0.7285740475733615,0.3393902432191838,0.3667008115560121,-0.0940736875646426,0.0388287260492665,-0.054851697963528,-0.0138102083268841,0.0103657070409368,0.0933600187196361,0.995482494390388,0.0132200354146359,-0.0017404042007962,9.844203473828642,0.0914145189355391,0.0780470820062157,-0.0097131417800982,3.512070717151236,5.059050586958365,2.0473762191063933,1131.137341886814,1130.5575819900048,1126.5934881691553,1119.1409614018607,-290.21139468637875,53.93971007734926,160.52390705011487,812.8191228712493,149.6044084135245
20.7175,-0.1892753243693639,-0.0341052093047699,0.4364315733575757,-0.096793191896261,0.0405638325303331,-0.0530484888777233,-0.0139160631902316,0.0104162072211453,0.093297335752405,0.9954863850115686,0.0123655989499876,0.0007367598196298,9.848456650240877,0.092194725252299,0.0787771446468184,-0.0095584925963617,3.512261982664252,5.059290239672937,2.047351533098076,1130.106286309972,1130.8606377635476,1126.9263219898107,1121.243464469881,-463.7979352231936,171.41462046541847,68.5285011447513,709.5836028044736,149.60454624110193
20.72,0.3532054483535644,-0.3543494080905931,0.4280420765625466,-0.0988766943495081,0.0399770799917118,-0.0521248535899574,-0.0140170182559872,0.0104672760982577,0.093232166265895,0.995490560130624,0.011276073412935,0.0033381483474236,9.852590385154423,0.0929690394399814,0.0795021910819394,-0.0094215124222012,3.5124547075108503,5.059532024407429,2.0473265201668966,1128.8183522106983,1131.4146550923317,1126.9361306748788,1122.6888794158826,-580.4907908160903,277.2290780654299,-53.73718574838836,500.7176051319307,149.6046571827122
20.7225,0.969856558655558,-0.6318634922657371,0.377378280501226,-0.0995836500616845,0.0375162089967489,-0.0514453842052806,-0.0141113089864342,0.0105144452804089,0.0931648835820699,0.9954950550882083,0.0100586226041168,0.0061126925003023,9.856679592336981,0.0937368404960243,0.080224753986685,-0.0093028759700343,3.512648599588943,5.059775668679197,2.047300737327548,1127.203832355892,1132.2467831538745,1126.6576360610688,1123.74705249554,-736.926618513176,408.18468794702346,-169.0009406233957,373.1987141700211,149.60475532543083
20.725,1.7222371199071747,-0.8698116422560807,0.2946523089191259,-0.0965627040541589,0.0336274077207188,-0.0507551472330938,-0.014198410065848,0.0105547507038524,0.0930979158088264,0.9954996807003564,0.0087928225907362,0.0090772547929146,9.8607966092697,0.0944983430482981,0.0809476696062641,-0.0092014120998964,3.5128431408212433,5.060020972688322,2.0472747042472417,1125.1337191181308,1133.4555785320679,1126.0911259717616,1124.5548729867337,-737.9050866246974,452.5005247929121,-218.797063913369,226.21680398578928,149.6048478204193
20.7275,2.2846517079523294,-0.9744833867506868,0.223510163044604,-0.0898888391360531,0.0303070841305216,-0.0503574251588237,-0.0142793043089362,0.0105892685268782,0.093033809854505,0.9955041731036272,0.0074787641820282,0.0122147473986482,9.865007497632627,0.0952542374881728,0.0816743927383846,-0.0091136898904643,3.5130384401415875,5.06026777552259,2.047248456330621,1123.5143069227693,1134.5092857778386,1125.5636507415022,1124.878136515469,-575.6615868083608,391.36936168341487,-180.15725870494808,75.56962142104251,149.6048963984671
20.73,2.7012510275708324,-0.9863400069386444,0.1653637860574697,-0.0805821560213036,0.0272623864267005,-0.0501585590185385,-0.0143544399991413,0.0106183292458608,0.0929726521273017,0.995508514636742,0.0061328973448668,0.0155050196865865,9.86936743302989,0.096005023436503,0.0824094130119415,-0.0090352654889866,3.5132346380690262,5.060515541401166,2.047221194529006,1122.2554111840896,1135.4124253404843,1125.190339678237,1124.9327210938388,-414.51469589648406,304.4319506922682,-91.02415940319479,-2.848652505916468,149.6049072851962
20.7325,2.970097480435374,-0.9362792245998544,0.1263552192012279,-0.0711783277295915,0.0246392257119723,-0.0500933048628059,-0.0144246239216488,0.0106424613506136,0.092914175942081,0.9955127141371468,0.0047679659164765,0.0189074838146492,9.873917792150685,0.0967512274601451,0.0831577608611532,-0.008960489094255,3.5134317817455494,5.060763624423301,2.047191942123064,1121.4417334432856,1136.0314455313007,1125.108529944486,1124.8638932529393,-199.32277833117368,147.43737383008215,69.3195070933281,-32.30219061147824,149.60488149278635
20.735,3.073111326828768,-0.8374337480938436,0.1163923835364365,-0.0627663834438453,0.0227476963653018,-0.0501292928732049,-0.0144911299107073,0.0106626039629525,0.0928581791535645,0.9955167638644968,0.003388246163163,0.0223591455219782,9.87868375189264,0.0974933473400717,0.0839247245000398,-0.0088826964555909,3.5136302773180907,5.061011526316812,2.047159825723883,1121.2587972924339,1136.1496122096348,1125.5369372137036,1124.7712101407815,65.91940015724906,-83.73188040902124,326.1252735866686,-22.20846479286125,149.60480567677888
20.7375,3.056485865379313,-0.6960986617959485,0.1397763907705122,-0.0542795674654213,0.0212241971604225,-0.0501949651840546,-0.0145535228866604,0.0106784444351659,0.0928051684273014,0.9955206280668032,0.0020261110064622,0.025814861480665,9.883672136435443,0.0982318275209162,0.0847153919774698,-0.0087952978530916,3.5138306194445574,5.061259073973887,2.047124549209064,1121.771330444072,1135.6127861292557,1126.739156312419,1124.752850928975,295.0141556907366,-304.43139790934646,549.1144748261751,15.462172539120097,149.60465035881387
20.74,2.9699607528915646,-0.5784177358119738,0.1852516042262818,-0.0482643124968227,0.0203888965848581,-0.0501842095725273,-0.0146127110962369,0.0106896061880073,0.0927554024290683,0.9955242749415618,0.0007124041731675,0.0291913954849164,9.888871350075844,0.0989668922447685,0.0855345234314575,-0.0086914857408214,3.5140339526437625,5.061506168415702,2.047086397956796,1122.7338680708883,1134.6274552200873,1128.2825095878359,1124.8485210034771,465.7205898228784,-475.4847925543836,695.9729438603993,54.01639262009832,149.60446326835367
20.7425,2.848512712555447,-0.4729077405326359,0.247544972941623,-0.042595143011822,0.0198288745934068,-0.0499809061385423,-0.0146699618392812,0.0106989790916458,0.0927057376829042,0.9955279487011198,-0.0005889807210286,0.0323963185137079,9.894251873620718,0.0996981367122042,0.0863867336504881,-0.0085642794249874,3.5142401655141318,5.061753254543431,2.0470463788083486,1124.099933393186,1133.2353621664843,1130.2190210317203,1125.0229328920755,653.1929059464736,-650.1567512328095,877.8590937731605,70.43542480566012,149.6042123406997
20.745,2.6838958161635014,-0.3597874584814718,0.3227680549406749,-0.0357299923058319,0.0192404382126467,-0.0493460044445347,-0.0147282172907708,0.0107119813910323,0.0926527607117413,0.9955318668954478,-0.0019680779195606,0.0353026009462658,9.89976757810926,0.1004251682037839,0.0872755050219562,-0.0084067712441491,3.514448507426777,5.06200128228327,2.0470057410833644,1125.99983260062,1131.376671463924,1132.6718050567008,1125.2006981275051,713.0883021164263,-667.5911424385922,865.9060457142817,37.097262431787485,149.60383390038388
20.7475,2.5316693671258954,-0.2679984629799488,0.368712892056966,-0.0298071015215195,0.0186707146402964,-0.0483789711823377,-0.0147892789459195,0.0107346779648567,0.0925944256760645,0.9955361297329872,-0.0035261276958522,0.0378036907229825,9.90535702232748,0.1011479639261831,0.0882024977756219,-0.008213221097268,3.5146587458010794,5.062251488326536,2.04696544657269,1127.665374903767,1129.897406454292,1134.5485512602909,1125.2084192042344,660.5960783135238,-531.3986143890509,656.1223650905445,-49.21178418500018,149.603452404964
20.75,2.35476860035993,-0.1625975942686764,0.3768814475993248,-0.0238276566283756,0.017940806581978,-0.0469146040436044,-0.0148496660324106,0.0107707157977548,0.0925306378774101,0.9955407586875465,-0.0053073280831128,0.0398936033003411,9.910945016904599,0.1018669945804458,0.0891671915610979,-0.0079805292621625,3.5148704280711613,5.062504028164357,2.0469255349303443,1129.302812992187,1128.7196783919792,1135.9524168821529,1124.9546392065804,701.906416576053,-416.3131206543456,462.55174094329936,-181.72408324685216,149.6030014769893
20.7525,2.1020412803339203,-0.0020651564421671,0.3270393865289374,-0.0169688499502683,0.0170220878162401,-0.0448273527549462,-0.0149053759905198,0.0108177347609078,0.0924607456200681,0.9955458985737516,-0.0072377572607028,0.0415718408262789,9.91644642146195,0.102582751925518,0.0901674286281012,-0.0077080427798841,3.5150828399155145,5.062759174701935,2.0468861151641335,1131.1749069866491,1127.8158408510192,1136.8613099650083,1124.2997987879996,670.1522579833152,-237.7083652413621,193.39662985570823,-290.5151947670798,149.60238075205612
20.755,1.8531202229478871,0.1678633562840742,0.2344876457823724,-0.01173148491833,0.0165391526322056,-0.0433301827632936,-0.014952407856921,0.0108707378054123,0.0923836830848627,0.9955517618892792,-0.009192519197335,0.0428434339564122,9.921770345248593,0.1032957962673196,0.0911993700934949,-0.0073968700012984,3.5152954020271503,5.063017773535217,2.0468464827701527,1132.653574282103,1127.5311365657726,1136.9194000314312,1123.5020632327453,578.5464037169972,-17.6024896722573,-105.5131701692272,-348.18562212287924,149.60179866608988
20.7575,1.5664712282484234,0.3743180751704542,0.1016647597331054,-0.0073895498602619,0.0167308783353832,-0.042765267905883,-0.0149879717403296,0.0109256130052904,0.0923004843769552,0.9955583389600364,-0.0110661743788177,0.0437045401466051,9.926824660287348,0.1040071624237373,0.0922570557232563,-0.007049040960668,3.515507545831509,5.063280759699013,2.0468071462178603,1134.0676390052336,1127.727828402658,1136.3337441141623,1122.5588706773856,557.8228864198866,155.01871236548396,-310.3564105619402,-380.2371954875399,149.60115236913475
20.76,1.2552196410988463,0.6031169109886217,-0.0484591733949059,-0.0040959151534143,0.017611656177135,-0.0429890627311535,-0.015013020036623,0.0109825393380221,0.0922133995137462,0.9955654036645432,-0.012844991251428,0.0441022695378948,9.931520741338344,0.1047180843544592,0.0933328034526441,-0.0066663826999753,3.5157189631146273,5.063548921894199,2.0467691827121848,1135.4426887142035,1128.3062301276004,1135.3676179786207,1121.6008772553066,540.3830574301703,321.5813310639718,-427.63582587189694,-365.20683313686266,149.60045604441467
20.7625,0.9237958523603732,0.8436924872962775,-0.20084358113814,-0.0020208819102845,0.0192660737302875,-0.0437083236998733,-0.0150310090513806,0.011039444706761,0.0921249070779185,0.9955726957982192,-0.0144756400854389,0.043950042670835,9.935776486687837,0.105429483458749,0.0944177448820637,-0.0062519409998493,3.5159301150413462,5.063822999372535,2.046733199781895,1136.769554292384,1129.3357350579774,1134.1955649848035,1120.7328365117016,565.8140398514877,559.3408420100535,-494.7003753597602,-345.3334548431717,149.59970441843183
20.765,0.5088910657914917,1.123281470489812,-0.3695325553229164,-0.0003584643010221,0.022041552113954,-0.0450011360406501,-0.0150437305247057,0.0110948542582253,0.0920362435091084,0.9955800896165838,-0.0159141925673223,0.043217417909468,9.93951927748688,0.1061415569233453,0.0955024935605957,-0.0058101530305164,3.516142248173064,5.064103507335837,2.0466993127820623,1138.2717589134606,1131.10293433765,1132.8941161018224,1119.874209981091,526.1445853888781,738.3723169048922,-416.6960634720141,-282.32574856237187,149.598746327714
20.7675,0.1475669055949775,1.331231463848651,-0.4916700833677287,0.0006183602327398,0.0249761883488701,-0.0464165999569612,-0.0150520560537111,0.0111480577724846,0.0919484099185744,0.995587487993644,-0.0171300796223946,0.0419159891828483,9.942689229401983,0.1068539080529517,0.0965774584577396,-0.0053464797922403,3.516356411405239,5.064390854365471,2.046667951117912,1139.4002772193298,1133.0275966425036,1132.1120846674423,1119.321207768889,409.75260504814247,859.0548751679651,-218.21816271235343,-192.888234430886,149.5979073103118
20.77,-0.2328079555722621,1.492386128217556,-0.593424215298602,0.0011146163174886,0.0284003106661357,-0.0478185669289889,-0.0150584208134319,0.0111978114168872,0.0918614406565958,0.9955948658353097,-0.0180851169780014,0.0400475443565677,9.945242103298797,0.1075654972115799,0.0976335900633606,-0.0048668963110852,3.5165731667811384,5.064685385992861,2.046639694170868,1140.3205219387007,1135.398208713489,1131.8030252882609,1118.9097688089369,334.76869682888105,1122.6319017910969,-23.769407846980535,-156.41114420326105,149.5970335696324
20.7725,-0.7062597307682068,1.6083367243980975,-0.6956734011872024,0.0009140214952574,0.0330371691305833,-0.0493604367718301,-0.0150660808865127,0.0112488638966191,0.0917720856452768,0.9956024196157957,-0.0188624212050115,0.0376296852693255,9.947151440317747,0.1082744901848909,0.0986634247916158,-0.0043764557623355,3.516792013328008,5.06498661375004,2.0466140055952944,1141.074120703474,1138.640756151458,1131.9932376282075,1118.539152047873,202.38987924275185,1222.270518437392,141.59529225855323,-117.07424354038643,149.5959535364138
20.775,-1.1000987680765675,1.6247533019463152,-0.7659049124684714,-0.0002076836170571,0.037412708309318,-0.0506740242749133,-0.0150762943364051,0.0113028604818217,0.0916768160766774,0.9956104358602024,-0.019479933682692,0.0347312492974388,9.948408462223684,0.1089789426767706,0.0996610175615347,-0.0038813837957258,3.5170123150633703,5.065292864118754,2.0465903722158725,1141.3324713349152,1141.5095613056792,1132.511001749554,1118.3243975912346,14.24815814416717,1126.7418496824544,233.57687000971157,-59.72402434810016,149.59503348630025
20.7775,-1.4592533858402348,1.5448466269310823,-0.8167896643646204,-0.0027742947326041,0.0420424755896509,-0.0522870200260198,-0.0150902274690178,0.011356748814599,0.0915762571823703,0.9956188724160284,-0.0198607386840557,0.0314264426443201,9.949022667460175,0.10967784159451,0.1006214267367707,-0.0033887963673305,3.5172341346312486,5.06560242273339,2.0465694733603144,1141.1453614941947,1144.274465399869,1133.1611219782556,1118.2405319261325,-184.07950974355143,1121.0867919069144,248.71863016005992,10.082897916347251,149.59410012089555
20.78,-1.795044103961388,1.3368006941138275,-0.8437925639234845,-0.0079613176272456,0.0470157219214527,-0.0547546815077936,-0.0151085930592193,0.0114073092057535,0.0914741229938395,0.9956274120830648,-0.0199234805780337,0.0278061449891267,9.949021589483632,0.1103710647295931,0.1015411172798113,-0.0029056792602086,3.5174579999539204,5.065914894516131,2.0465513321593876,1140.4120737861977,1147.1149952652127,1133.754594900354,1118.3748120808164,-339.1314182693115,916.1893954481459,142.6987281656977,101.3920799408626,149.59297334819263
20.7825,-1.9546539895436312,1.0802248997108044,-0.8279242113933525,-0.0139907796400959,0.0502916763284225,-0.0571353164098512,-0.0151312262161324,0.0114534445088658,0.0913747489122595,0.9956356704892833,-0.0196291812028099,0.0239863285435191,9.948449610131776,0.1110590010052849,0.1024185424903229,-0.002438269777729,3.51768467540323,5.066229765966935,2.046535888155151,1139.4497044028485,1148.8554123771091,1133.874615619084,1118.7474923258367,-425.66401013709134,529.530616419257,-59.655514327926575,211.94643330836368,149.59203507798688
20.785,-1.957519376451912,0.7583097220035699,-0.7641729639105986,-0.0209813198483465,0.0526236879543621,-0.059549777565352,-0.0151569310634052,0.0114956436062289,0.0912814641197983,0.9956433537479116,-0.0189722775739246,0.0201054837794851,9.947365924940064,0.1117423527487734,0.103254488658048,-0.0019919306645051,3.51791427761488,5.06654659380772,2.046523181994589,1138.2837537355126,1149.7626483473084,1133.4563173287145,1119.434544247358,-469.8266478429885,214.8779914912476,-255.6075363646016,324.25245384530865,149.59110505533732
20.7875,-1.830314559589865,0.401374338961922,-0.6602258096623991,-0.0279201489191635,0.0541515914923283,-0.0618409474679979,-0.015187744547545,0.0115363476483644,0.091194933525249,0.9956503408211697,-0.0179976100978826,0.0162363123931418,9.945842582463444,0.1124219637612503,0.1040523883141534,-0.0015698324702172,3.5181465136135195,5.066864515102568,2.0465132698121464,1137.1005711636324,1149.929802334566,1132.5965779372605,1120.368754595064,-442.9487072475666,-101.59995619262392,-420.15398101488415,416.592986762672,149.59018727073268
20.79,-1.5817030522412852,0.0273647208131216,-0.5155016830082371,-0.0335750000877917,0.0544762500876992,-0.0635973216557244,-0.0152267510193243,0.0115804999421075,0.0911136190155579,0.9956566682463472,-0.0168083529106099,0.0124252576178204,9.943960978959664,0.1130990649484738,0.104818023849048,-0.0011730271531388,3.518380916875803,5.067182165636332,2.0465058305890174,1136.0690101992752,1149.2546485663452,1131.3555474236405,1121.517509181171,-389.30393305453,-455.30262355964584,-568.7567454604272,519.1951985119555,149.58929012631216
20.7925,-1.2264244996911806,-0.4094692912913404,-0.3135114323916039,-0.0371218933177224,0.0535530123232348,-0.0646579794597164,-0.0152754898835878,0.0116337951900152,0.091037218408059,0.9956622749823522,-0.0155264244175194,0.0087355289119568,9.941807874078794,0.1137760676094525,0.1055584305083889,-0.0008011410618008,3.518616949926016,5.067498597869558,2.0464997567502285,1135.15405149836,1147.653289216768,1129.752794209959,1122.9647305876233,-276.1464373588703,-680.6724020497469,-552.1283817970374,510.7487525787407,149.5882440632226
20.795,-0.9522108462269712,-0.7437357632804606,-0.1370755604902592,-0.0372697310671378,0.0520525948236213,-0.0648513390377745,-0.0153329012619292,0.0116992021190322,0.0909680941739039,0.9956669274191392,-0.0142223266067851,0.0052580470762518,9.939471348137545,0.1144568530601838,0.1062811117444736,-0.0004532118192994,3.518853798614673,5.067812727247903,2.0464937206899774,1134.68827801248,1145.8512865560947,1128.5949055146539,1124.071252944066,-137.91639750086702,-766.3872546668404,-371.0831666107708,387.4373629629051,149.587401936369
20.7975,-0.7592297754506931,-1.02755953948065,0.0333525912864396,-0.0363553398508643,0.0499121424626878,-0.0646793237334572,-0.0153957522117997,0.0117742193787778,0.0909060197340444,0.9956707249599795,-0.0128646116925966,0.0020978263230367,9.93703699390764,0.1151455229892566,0.1069946687387175,-0.0001282323146812,3.5190904939444017,5.0681239312997,2.046486298672592,1134.464469510856,1143.8213529434347,1127.8973783769054,1124.9019174024374,-74.93240431919402,-888.7134577291766,-166.63454268367462,276.48554526009366,149.5865946917444
20.8,-0.6331280311975772,-1.2889043446733075,0.2209260948204301,-0.0362638152536242,0.0464173929709542,-0.0640282301267371,-0.0154603758275178,0.0118558853142419,0.0908486175065927,0.9956739761635764,-0.0114223714674535,-0.0006524365051677,9.934585146234225,0.1158462168025975,0.1077080416917763,0.0001760304265808,3.519326263777958,5.068432809875088,2.046476476824782,1134.3136159908843,1141.40771926745,1127.7617328012357,1125.453680670366,-61.0797760174279,-846.350988241851,66.35964665148337,124.21381145284624,149.5856701457096
20.8025,-0.5917978556352366,-1.426314021236224,0.3595128570961351,-0.0375579496474239,0.0426394703094751,-0.0633511602372012,-0.0155256172288387,0.0119411944730571,0.0907894080515713,0.995677326158894,-0.0098792750520807,-0.0029688659901005,9.932188304121405,0.1165622538012031,0.1084303527769863,0.0004634094293657,3.519560759330253,5.068740653474653,2.04646410004822,1134.1590706307686,1139.5895980022233,1128.2291766101628,1125.522986459702,-87.4916076010951,-657.8818786522278,279.23846236900414,-40.81548044833556,149.58493860051192
20.805,-0.5721921457791843,-1.4689165970950977,0.4773646567714754,-0.0398615080071117,0.0382996055457575,-0.0627876815820216,-0.0155916322218367,0.012026668240713,0.0907243887926842,0.9956811801202138,-0.0082194556941656,-0.0048743860130946,9.929908629577683,0.117297076262203,0.1091688962198404,0.0007384863845217,3.519794405720529,5.069048832793406,2.0464494680659624,1133.8761579528789,1138.1183098741894,1129.1579251130804,1125.2496032681245,-152.9878687432151,-552.6189242603058,461.61690095796166,-168.89350566078696,149.5842492009591
20.8075,-0.529960405332692,-1.412130633707156,0.5873834116791523,-0.0426840754578989,0.0333809247117191,-0.0617220067884119,-0.0156589941418528,0.0121122633917219,0.0906542409518722,0.9956854683053762,-0.0065008861321031,-0.0064126587392396,9.927796711226096,0.1180543234981956,0.1099282917452577,0.0010067532370006,3.5200275291566654,5.069358968355593,2.046433270740569,1133.3941312870527,1136.8265033809223,1130.5372611149523,1124.6785189313982,-183.11779736503928,-397.73291338213943,508.81436727319056,-222.4334138850724,149.58347190404547
20.81,-0.4610109662478563,-1.2868130623265874,0.6415131773947937,-0.0445644161239337,0.0299098494585903,-0.0599482560613766,-0.0157268606635095,0.0121932248001155,0.0905825666743432,0.9956899344374256,-0.0046895798023693,-0.0076229709268889,9.925889841626095,0.1188371077594885,0.1107108147618081,0.0012720423714942,3.5202609309876007,5.069672035082447,2.0464159992588735,1132.9605689660539,1136.1296453072791,1131.7019969494459,1124.137436198699,-147.7919340085758,-217.99881659230567,430.93223000241255,-198.57144402116631,149.58286638322696
20.8125,-0.349913182347811,-1.1021272172279508,0.6423892428778119,-0.0457525153711922,0.0270875947724842,-0.0573682180382456,-0.0157940279838036,0.0122625545188927,0.0905145546636069,0.9956942117252358,-0.0027083719428858,-0.0085527895337754,9.92421232632114,0.1196475180219944,0.1115167573735904,0.0015369907719615,3.5204962229106065,5.069988108268372,2.046398540610092,1132.65517161701,1135.7365092979608,1132.691922264964,1123.6856617112924,-77.62293191809142,-128.11267497511648,352.5880643193447,-148.2255809018776,149.58230502457224
20.815,-0.2047295425435577,-0.8859262936899642,0.5964155786818285,-0.0466171947595378,0.0247722097136956,-0.0548510020846892,-0.0158611200224624,0.0123160981933607,0.0904517632324056,0.9956982006934832,-0.0005405718960858,-0.0092862562682404,9.922776902263639,0.1204854006598806,0.1123457736406954,0.001804497666641,3.5207342877708294,5.070307403695009,2.046381068323616,1132.5724543064632,1135.4890819324032,1133.4649372710435,1123.3963082941896,35.4988783728984,-92.55545201069276,258.5347639196303,-66.76359411723261,149.581780274461
20.8175,-0.0229044963495095,-0.652412364254318,0.5061191768479784,-0.0473230447639012,0.0232209712570739,-0.0531075501299292,-0.0159277578880955,0.0123507723631895,0.0903944175302399,0.9957019272022952,0.0018139288356134,-0.009888602586624,9.921585533578128,0.1213489695897242,0.1131964695686532,0.0020765708876387,3.5209757821458068,5.070630631029115,2.0463636720129785,1132.8326660088744,1135.2737320379076,1133.9845960845619,1123.3518437407065,187.82953921221727,-118.12678258918444,190.2332354325532,32.11689822001701,149.58129933843583
20.82,0.2254630968257165,-0.3753190712693583,0.3757529874753716,-0.0475717586200196,0.0222616772191883,-0.0521000979618006,-0.0159925704513818,0.0123707084390295,0.0903408518942045,0.995705514966495,0.004219726508381,-0.0103916807835297,9.920631862456936,0.1222348938791874,0.1140666830755216,0.0023556396047569,3.5212204960407405,5.070958493413215,2.046346774767117,1133.511602002524,1134.8984480194574,1134.416103448206,1123.5568927852896,289.0519133460088,-168.3471532841898,145.85235385663324,102.57688241085116,149.58077204211435
20.8225,0.4424243014226318,-0.159014399083734,0.2716392629453313,-0.0470311879239871,0.0219673016378869,-0.0519450631020183,-0.0160548478371426,0.0123836886306097,0.0902875863734278,0.995709196823916,0.0064757890558558,-0.0108299260926328,9.919903012773394,0.1231385461761454,0.1149537279332686,0.0026441984477921,3.521467394867694,5.071291170147204,2.0463303905442327,1134.2779255756052,1134.4319962714862,1134.7138578538454,1123.864728152761,312.67738533676345,-213.29851688296608,124.47478741981034,123.4594748952777,149.58037326309113
20.825,0.6460467890616955,0.0344991261750539,0.1924025181767749,-0.0456744775237331,0.0220475437693419,-0.0520200274333068,-0.0161116660382225,0.012394824757684,0.0902365838955157,0.9957127793941708,0.008450151044434,-0.011195220630895,9.919380613498062,0.124055884654976,0.1158529349573732,0.0029426939822346,3.5217168007901516,5.071628494173913,2.0463147656696887,1135.0749889292076,1133.8319554350428,1135.0384773853048,1124.1741901597659,319.06067712158784,-267.3094240585747,154.6158749739641,102.73823447684887,149.58001525069707
20.8275,0.8455585861796863,0.2375417235322785,0.1364295107007421,-0.0429810141086792,0.0225842846279289,-0.0520920117060033,-0.0161584056847419,0.0124043140861555,0.0901891321231019,0.9957162182918198,0.0101223496890684,-0.0114466740860923,9.919042528338467,0.1249822393118811,0.1167594711801622,0.0032491414246385,3.521969771002635,5.07197130291954,2.0463004776611093,1135.8732289612128,1133.0954491511936,1135.486937228715,1124.3784193251452,248.5531693271789,-245.55280267569455,166.98453228710247,29.366830491820547,149.5796304978563
20.83,0.9564863691426186,0.3826789388101545,0.1224840172862823,-0.0399166259183639,0.0233225988831439,-0.0520388331096852,-0.0161936635007613,0.0124120255693737,0.0901445882489966,0.995719596442635,0.0114842890314984,-0.0115975569003477,9.918865776651488,0.1259122427758381,0.1176689822502107,0.0035614825322973,3.5222270917994027,5.0723202889763455,2.0462883225241444,1136.317754775844,1132.6041914216637,1135.8734000467407,1124.321024312225,129.4415703524267,-142.1157259342918,139.0821374653846,-75.99469357443614,149.57934501347364
20.8325,1.0002023689106043,0.504163955544428,0.1368046007648272,-0.0365098152942311,0.0242146234280578,-0.0517190234772035,-0.0162186000425727,0.0124170182184984,0.0901019733672393,0.9957229963020888,0.0125516606368354,-0.0117032357427589,9.918828063569007,0.1268405785572562,0.1185776123266939,0.0038775277553205,3.5224888741045906,5.0726749228460815,2.046278336290098,1136.5204368129748,1132.3848705215223,1136.1823479160419,1123.998445857273,54.2514432527804,-16.578256895448817,92.92482985599264,-188.47674047150687,149.57909258683156
20.835,0.9844919438260998,0.6221908715714667,0.1775403992001257,-0.0327966490848573,0.0251966212643541,-0.0512143938974768,-0.0162338186806879,0.0124217725893215,0.0900610319741896,0.9957264009720366,0.0132858224394205,-0.0117923826618924,9.918909405811679,0.1277626687790418,0.1194821208813852,0.0041953916140981,3.5227545580121533,5.073033098483311,2.0462699118829257,1136.589011992108,1132.5213001371865,1136.3380241960208,1123.3786406098675,22.276572766520506,114.54627724382186,5.444921412387828,-244.30630876041735,149.57882298586514
20.8375,0.9341558760545476,0.6920469298667825,0.2249269829702694,-0.0305110026265742,0.0260933727740264,-0.0508224375413105,-0.016244417138171,0.0124314661725392,0.0900209782562105,0.9957297333680672,0.0135974546922366,-0.0119680201402074,9.919093399568752,0.1286747286862486,0.1203803774974501,0.0045148814962067,3.523023003749212,5.073392089089166,2.046262826263369,1136.6318196768075,1132.9576019077415,1136.2095725231038,1122.7769143134703,46.98094965366206,223.23978400445307,-115.9637279975644,-227.08499113950865,149.5786218769823
20.84,0.8743809569226637,0.7159704740515016,0.2786744971540899,-0.0292159119821514,0.0277259090383774,-0.0504500687820177,-0.0162562186436496,0.0124479480785821,0.0899802463810961,0.9957330159112834,0.0134706357535872,-0.0123445223588726,9.919366413133407,0.1295739373671948,0.1212713693054566,0.0048352815440688,3.523293272424944,5.073751180429252,2.0462574260745834,1136.8239167403763,1133.6374990572083,1135.758205556033,1122.2432156541704,118.37979669110236,290.7477986876653,-234.55593052426713,-180.7574395006118,149.5784394749788
20.8425,0.8238080142843626,0.6846424771761371,0.330200937323331,-0.0283752075536468,0.0302701478887248,-0.0500001793778979,-0.0162729077321319,0.0124738351360221,0.0899375839394815,0.9957362681038032,0.012885518168701,-0.0129852647888681,9.919717844897667,0.130458704828346,0.1221546167311486,0.0051556668464594,3.5235645747648627,5.074110781611086,2.04625358029378,1137.2237186602629,1134.4113409011795,1135.0367928704827,1121.8731271159675,212.51779852700247,303.64049338037734,-345.08342341894195,-91.54615341091817,149.57826774602336
20.845,0.7896165052483515,0.5722352601786151,0.3662467073585745,-0.0274237689469697,0.0334193894906719,-0.0492901617596043,-0.0162954175360127,0.0125108903993195,0.0898910584523478,0.995739626873808,0.0118489622233611,-0.0138941369276213,9.920139347504858,0.1313283080659522,0.123030124018346,0.0054744712401016,3.523835792495471,5.074471578701836,2.0462514930138767,1137.886505733011,1135.15570152411,1134.0327884389387,1121.785484887116,330.39799398108903,290.6464976763014,-487.6266802569322,33.62670019578887,149.5781023788072
20.8475,0.7536909374556224,0.3504192957062265,0.3714684350313804,-0.0255507584966904,0.0364890584188677,-0.0479375939323379,-0.0163213004901682,0.0125581086709778,0.0898389209782165,0.9957433025492858,0.0104316813946483,-0.0150080596480662,9.920623645518951,0.1321828681199919,0.123897955925546,0.0057889775725014,3.524106601796157,5.074834893644492,2.0462519306280953,1138.875708630168,1135.8645733895607,1132.5986594691983,1122.0412606169464,364.28170084477193,217.21840234675057,-546.4982502298359,148.82695129209995,149.5779023842943
20.85,0.7091634080308493,0.1199282238574508,0.330253371286285,-0.0232506808100695,0.0374967345126679,-0.046342041840455,-0.0163488155736003,0.0126108968128931,0.0897803094516098,0.9957474589772972,0.0087753784279647,-0.0162806751485088,9.921163620725585,0.1330232099549523,0.1247579720517734,0.0060963986110228,3.5243774010907445,5.075201999815861,2.0462546160137105,1139.7079142372359,1136.2417935358444,1131.300297187788,1122.5296196435768,290.1036945571954,106.30685368202944,-518.7294586723177,237.6945495988384,149.57772809647224
20.8525,0.629399667806035,-0.1104583255249769,0.2335615507057148,-0.0205062813886018,0.0364525620062799,-0.0444742126491123,-0.0163789723604645,0.0126641194474213,0.0897159683901144,0.9957520771867588,0.0070273588550859,-0.0177188132978943,9.921751459078008,0.1338507474899253,0.1256097210765354,0.0063954072878132,3.524649040682472,5.075573062577776,2.0462582308991966,1140.3262271029537,1136.396107657971,1130.0050121758375,1123.2297333649403,176.53694028816847,30.14533407159124,-545.1331169326925,334.04056748592944,149.57753885903776
20.855,0.4875937547762895,-0.338211093746901,0.0644399736895573,-0.0175170709335308,0.0338951682884484,-0.0427761009004888,-0.0164120494756772,0.0127109038428336,0.0896488800404611,0.9957569704996218,0.0053689795160009,-0.0193172448954463,9.922376579994568,0.134667520084183,0.126452509322205,0.0066850482626817,3.524922851451993,5.07594749545758,2.046261453352349,1140.5905989386763,1136.3925202062023,1128.5746316031252,1124.199822481006,-3.396194423337956,-18.237186313208205,-488.3481872049063,360.19637420972447,149.5772870089595
20.8575,0.3434491529794296,-0.4705135497860086,-0.0967225526164133,-0.0159133651544466,0.0317899764723368,-0.0427045205401383,-0.0164471348146867,0.0127489097438199,0.0895800715824555,0.9957620901152854,0.0038896091338597,-0.0210378603649886,9.923024799397439,0.1354750839092315,0.1272866921969828,0.0069661048493323,3.5251995595232657,5.076324677166713,2.0462632364356863,1140.3092461308368,1136.3049217264047,1127.5632712398117,1125.0307152359899,-219.2976519223957,-35.9834785339516,-351.2403053878432,319.4950008383056,149.57705148700884
20.86,0.2019657705944247,-0.5460761359753494,-0.240644075554404,-0.0153657509115244,0.0303416119562396,-0.0442346911798177,-0.0164819051151763,0.0127799242247431,0.0895079408258686,0.9957675949200434,0.0025935864881867,-0.0228068591214947,9.923676735501896,0.136274448972884,0.1281139662237302,0.0072407590422631,3.5254791829394585,5.076704042268769,2.046263895893993,1139.4941106790648,1136.2126028135326,1126.8184300761864,1125.7972974851973,-456.4214302661638,-28.96803012322956,-251.44468327053343,307.82205223974165,149.57678390096936
20.8625,0.0750345229726694,-0.5891053448336128,-0.3597991981905546,-0.0156901792633746,0.0291091437851387,-0.0467870245543546,-0.01651290404307,0.0128048231560423,0.0894283032438848,0.9957739065883288,0.0014983627667215,-0.0245301164182198,9.924306010467207,0.1370662884609554,0.1289373860911509,0.0075111749435485,3.5257609018937432,5.077085206567821,2.046264378455173,1138.0271389795066,1136.1600815757888,1126.3060478234593,1126.5698254971883,-586.2243875436163,-6.354800461755463,-117.10713450746344,251.3020536277133,149.5764200890967
20.865,0.0293268504255296,-0.5975864179315956,-0.4076695775321411,-0.0166945258396503,0.0281570811331973,-0.0487123819523551,-0.0165381219765125,0.0128299215432262,0.08933863510769,0.9957812027930188,0.0005051772761204,-0.0261353504681987,9.92487943434532,0.1378520543687528,0.1297600798543538,0.0077816182369056,3.5260436152141206,5.077467227346928,2.046264510230132,1136.5629887413452,1136.1808288112238,1126.2328944036487,1127.0538077533363,-589.1306410732603,19.00706949141218,47.20428183055476,153.34076449765556,149.5760776506359
20.8675,0.0606683151211378,-0.585590629191676,-0.4143165476023904,-0.0178383839229066,0.0269795605725758,-0.0499197234608969,-0.0165605618027939,0.0128611877021536,0.0892381697571645,0.9957894242267544,-0.0004933687725839,-0.0276532259456153,9.925356179827038,0.1386340075814755,0.1305850150822382,0.0080579142126775,3.5263264773687113,5.077848596567267,2.0462638878033736,1135.081485774141,1136.2551169232459,1126.542069232612,1127.3365293196764,-562.8179389271492,33.9772202899507,185.0068195475528,74.68283343461401,149.5756904990415
20.87,0.1521013975657113,-0.5579794604449781,-0.4042371294061579,-0.0185685683671024,0.0255714030158942,-0.0505374263818022,-0.0165824362315589,0.0128977914339937,0.089129532260971,0.995798306625594,-0.0014749768599542,-0.0291146016052813,9.925686910973488,0.1394155565303754,0.1314143099257586,0.0083439987411461,3.526609436638848,5.078228903532255,2.046262252781851,1133.74889904671,1136.3507149126735,1127.1579285013863,1127.4272219205095,-468.5021851354145,39.01139858927175,313.3608811880718,-14.955003992011616,149.57526346880468
20.8725,0.2947539652994004,-0.5116401221631933,-0.3942313506591732,-0.0184127816311659,0.0241542903687945,-0.0509863564377121,-0.01660284610891,0.0129389568007175,0.0890156265697058,0.9958076125312412,-0.002419866076504,-0.0304906954175284,9.925815389064857,0.1402001018326606,0.1322496742279427,0.0086426973794027,3.526892708843773,5.078608573878595,2.046258720686545,1132.7389748484643,1136.450173916192,1128.108873638552,1127.2617542997164,-352.30644374185164,44.79856476478726,482.3542332008906,-132.9560230212147,149.57478507045468
20.875,0.4854114046864074,-0.4364086810142533,-0.3998711748105887,-0.0169505654051683,0.022824754900782,-0.051878176010551,-0.0166209015483122,0.0129831282633326,0.0888980426828306,0.9958172339803554,-0.0032997762764448,-0.0317547172965756,9.925680010907156,0.1409903151222092,0.1330923972504449,0.0089560581161255,3.527176567466056,5.078988372653124,2.0462533375859007,1131.987366828001,1136.5747077364974,1129.5696996673903,1126.7624418054036,-200.3100662863174,50.450088927592894,576.2251863227683,-227.5972440616642,149.57414750396148
20.8775,0.630916020595483,-0.3596335418344529,-0.4272248669387663,-0.0146894790046142,0.0219844620284865,-0.0527296232513806,-0.016637349458095,0.0130289823808903,0.0887811488753837,0.9958267855267846,-0.0040984811851808,-0.0329127442912735,9.925215965190175,0.1417889710142115,0.133941823643571,0.0092857087313496,3.527461608305869,5.079370159056592,2.0462475573181664,1131.737424517032,1136.7024243608303,1130.9899995701671,1126.1237680794075,-36.73197722533408,61.50327310380221,591.9433357530847,-287.5401278450344,149.57356039733563
20.88,0.7377422297033707,-0.2697519888053574,-0.4847954772055,-0.0117624468452733,0.0212217070872167,-0.0532554417080376,-0.016653140817891,0.0130793624078348,0.0886670525351947,0.9958360268392222,-0.0048875809237005,-0.0339651125118003,9.924358002110049,0.1425974112960634,0.134796616434049,0.009633209486256,3.5277483590530254,5.079755638585835,2.0462424606993275,1131.8037069418745,1136.8822241020164,1132.5294163461551,1125.3247411661787,75.29646849858771,93.45546130809491,679.1671442067569,-366.4269664115456,149.5729120366701
20.8825,0.8159989604918882,-0.1475464136502192,-0.5891393955151117,-0.0082451900541431,0.020437733297944,-0.0538450078743101,-0.0166699851719695,0.0131359647959765,0.0885568070478656,0.995844815929558,-0.0057206329104171,-0.0349259248112624,9.923042556469895,0.1434158976730924,0.1356545047164346,0.0099987734212128,3.528037652640024,5.080146180336248,2.04623904711138,1132.113906859525,1137.1697016673706,1134.3858352912005,1124.29163324735,130.74940303643095,113.82550915517272,660.4963459436281,-374.12239604522216,149.57205947465235
20.885,0.852407548035129,-0.0355829062152792,-0.6961955327297163,-0.0057671651502741,0.0199877574370535,-0.0546821576884899,-0.0166897658178377,0.0131954538596399,0.0884539269142717,0.9958528544305104,-0.0065527529540672,-0.0358186078418158,9.921210153184067,0.1442447491494354,0.1365115679103325,0.010380150099317,3.5283300855148836,5.080542607642969,2.0462381246070356,1132.4574539570567,1137.4513516477923,1135.8318980758747,1123.4541291859516,132.40185403845223,108.48906202870577,530.0748849245938,-311.74596075790595,149.5712843034702
20.8875,0.8872551937451802,0.0815683890845543,-0.8007385337485738,-0.0041967916467587,0.0198081286623687,-0.0559523485413781,-0.0167117854528882,0.0132552978921487,0.0883581540362408,0.9958602112851784,-0.0073520111984628,-0.0366080325039043,9.918808796445571,0.1450828043616722,0.1373644794071976,0.0107735285182779,3.528625009496998,5.080945131012696,2.0462396231660738,1132.7759161297172,1137.712146977514,1137.036209715823,1122.7329034435609,116.37017668820177,83.5242206775713,445.21274948687943,-273.72918114743686,149.57043922936077
20.89,0.9598608352759154,0.2170450420163624,-0.8835253852743893,-0.0031453296451848,0.0199658276294236,-0.0582901497942356,-0.0167301730439654,0.0133101437885604,0.088270168667894,0.99586699500778,-0.0080205831695027,-0.0371574390532375,9.915796149628413,0.1459290067501766,0.1382097230147729,0.0111720378752601,3.528921786379972,5.081353386593212,2.0462429963206623,1133.0393048404978,1137.8689727511803,1138.0579618233087,1122.0854832802147,70.57361142998188,7.742854270050562,288.2654943599281,-192.46014785639247,149.5693421429459
20.8925,1.0569135257637348,0.3142400252059664,-0.8836838546506277,-0.0023294203989964,0.0204690054944269,-0.0612246709432108,-0.0167410897138629,0.0133581258931885,0.0881909701848458,0.9958732051335448,-0.0085314476339677,-0.0373600857352126,9.912142847776826,0.1467822559105189,0.1390441272699374,0.0115697751697325,3.529220491973,5.0817665128472145,2.046247531864516,1133.1287841868673,1137.7508612488643,1138.4775371876233,1121.7706027042784,8.804703805619214,-124.7795378234762,68.09523102534958,-73.42849107273292,149.5683579563901
20.895,1.1807223501546196,0.378593803904582,-0.7790076400909423,-0.0004991680301049,0.0214297907819432,-0.0646936835236908,-0.0167417455351723,0.0134005169860297,0.0881205334579044,0.9958788736684512,-0.0089194478177361,-0.0371209280255393,9.907834349377069,0.1476411216033745,0.1398656937227761,0.0119615926139673,3.529521036093345,5.0821829358390245,2.0462533422055142,1133.083328359526,1137.245075062063,1138.3984379784356,1121.718340824851,-44.818777888903966,-328.1529848105236,-149.45748690477802,38.90891050019354,149.56730120197895
20.8975,1.3220956601232403,0.3987807360283261,-0.5177383721427323,0.0034320543831165,0.0230980267658052,-0.0683532895898875,-0.0167322230752352,0.0134408265874062,0.0880585747695563,0.9958839780548024,-0.0092658470379951,-0.0363959549023351,9.902872419836418,0.148504104833178,0.140673575204738,0.0123435266224709,3.5298241648520334,5.082600714280924,2.046260381416493,1132.9046902974228,1136.110096324812,1137.7302497530995,1121.9651472567791,-79.84463136659096,-501.5716119275274,-332.1983998054412,138.44552145617135,149.56595047467732
20.9,1.4023361314332523,0.3582294588177487,-0.1972722352717607,0.0077998648304412,0.0247313528582596,-0.0704881205013797,-0.016711831692318,0.0134822634438035,0.08800570657668,0.9958884345138802,-0.009641142506202,-0.0351268454850427,9.8972757842852,0.1493700882792645,0.1414677913957224,0.012711090606889,3.530130329365542,5.083018805899413,2.046268488049845,1132.6841052026928,1134.737217002424,1136.7374459794075,1122.4105684321323,-96.1648535992672,-617.3447142986197,-469.18448761580527,216.63447544478677,149.56475776435389
20.9025,1.4179283017546904,0.2562006712840678,0.1947916013407213,0.0123926028286844,0.0261422133047078,-0.0713447553760238,-0.0166793910928926,0.0135263679671078,0.0879612452046583,0.9958923054609692,-0.0100793059867947,-0.0332500262592311,9.891080530971701,0.1502378364849477,0.1422496389653614,0.0130590313045733,3.5304389620932035,5.0834365379656195,2.046277826698477,1132.4238660294263,1133.0233727533196,1135.3843273150208,1123.048319634003,-106.77610634022436,-716.4625851253793,-581.5546159966991,272.48644791585286,149.56349846172435
20.905,1.375453652839172,0.1105494062925188,0.6064488358752941,0.0164743254353131,0.0270217989705651,-0.0708835509437726,-0.0166333446531896,0.0135692879211972,0.087922372766474,0.9958959209293816,-0.0105051767185625,-0.0307070093934238,9.88433971178444,0.1511058917520259,0.1430216010321546,0.0133803829479427,3.530749326348777,5.083854530392164,2.046289401355902,1132.1502246709915,1131.154904076798,1133.8296728994246,1123.773000671711,-109.4139336905518,-746.2531149286981,-641.8433625501078,286.458508998942,149.56218695335843
20.9075,1.2724081348755716,-0.0705541159858793,0.983731035587841,0.0197332342772985,0.0270192091920223,-0.0684084506650764,-0.016572643100445,0.0136051497378896,0.0878881880200727,0.9958994598737468,-0.0108016225619103,-0.0274594709492413,9.877123112391146,0.1519736402823708,0.1437857551669623,0.0136677774331612,3.53106083764407,5.0842746864088895,2.0463034694038407,1131.876796360974,1129.2921071786768,1132.175110502271,1124.4806121789975,-117.20753116435448,-766.0174020118734,-712.9283225972868,271.0904578893945,149.56081688016206
20.91,1.0985065881089675,-0.3035814619879054,1.3241520623963998,0.0229549860720295,0.0260954313081865,-0.0631469306386085,-0.0165025312563266,0.0136324017482729,0.0878568521206752,0.9959030176941744,-0.0109458563279792,-0.0235926802848217,9.869517019417207,0.152840226032367,0.1445443225963332,0.013917270203469,3.5313728905412,5.084698545755742,2.046320138815973,1131.56418701517,1127.3248170667391,1130.265031286439,1125.128452961158,-110.77556983999573,-641.1809042137878,-664.5272630459442,178.2224898377533,149.5591109477262
20.9125,0.9259025818759132,-0.49502664878234,1.4766453229746448,0.025275032368537,0.0249141258919897,-0.0578982980188711,-0.0164287982883111,0.0136515018314684,0.0878278314315371,0.9959065382048226,-0.0109532996215146,-0.0192086632882389,9.861621970494003,0.1537051408029551,0.1452992206166126,0.0141262565444329,3.531686282130355,5.085126818904457,2.046339566321475,1131.3229185117737,1126.0862026576062,1128.8524741870397,1125.3717246281867,-92.77332690168832,-379.4128557243157,-512.7179113823896,12.076515384571978,149.55764188851526
20.915,0.7391895164925651,-0.6696718718227986,1.4779057521996473,0.0271527247747508,0.0236162451910731,-0.05300132914166,-0.0163544457271357,0.0136658638870458,0.0878011029424476,0.9959099259633544,-0.0108909283099481,-0.0143603588593207,9.853550220301527,0.1545679093995482,0.1460526448725725,0.0142930289907116,3.532001896450854,5.0855589833775365,2.0463610375313777,1131.1003203806615,1125.427752788118,1127.7014417295275,1125.1888355380809,-96.0751662627181,-137.14120013353747,-449.7608710194512,-190.34051071074973,149.55612819260477
20.9175,0.5135472998757316,-0.8451901573792157,1.3216161173074417,0.0286299610819931,0.0216175787813176,-0.0479479981811947,-0.0162819906653914,0.0136770951888402,0.0877732145895948,0.9959134208067124,-0.0107896164276383,-0.0091050784181749,9.845422464689964,0.1554270470921868,0.1468085223246093,0.0144164604377862,3.532319800041435,5.085993555809838,2.046383405658157,1130.84254268046,1125.4004966569387,1126.6036698319429,1124.4200220746332,-95.18542463233321,114.34819401891734,-372.1695358094991,-367.7576990527479,149.55426518097823
20.92,0.3324302256654093,-0.9505734080107456,1.087856349850848,0.0292141047463384,0.0191564026914641,-0.0444097957061996,-0.0162134536634264,0.0136838983942428,0.0877407701554101,0.9959173062969496,-0.0106221018076022,-0.0035087746485317,9.837364412445476,0.1562811689005291,0.1475715727677313,0.0144958427917893,3.532639832404588,5.086429406026873,2.046405492856011,1130.6243932574998,1125.999493758213,1125.840594050479,1123.350047042816,-89.11454459072911,346.759448223498,-306.3466814770136,-492.8280462940691,149.55267731648814
20.9225,0.1624090486256553,-1.000129780708308,0.7922672696850293,0.0293301354902425,0.015890116234375,-0.0417797668502578,-0.0161504705513202,0.0136860237252559,0.087700844545053,0.995921817241572,-0.0103812679869536,0.002357514754491,9.829503604210883,0.1571290717669502,0.1483471088583425,0.0145320516659462,3.5329619903398166,5.086866082829977,2.0464269278867064,1130.3969699575064,1127.1342938980558,1125.071936424558,1121.9558818431633,-99.28733861322303,581.5078541133308,-382.4186653567118,-642.1750199677631,149.55105664055367
20.925,-0.0336125569172403,-0.992828772439554,0.4297505901031294,0.0293018862882388,0.0118250653835381,-0.0404982650186896,-0.016096195392662,0.013686374626891,0.0876505122680209,0.9959271206604672,-0.0101253913590057,0.0083837793544377,9.821966198768434,0.1579695562617366,0.1491409472536441,0.0145287005053351,3.5332862858349743,5.087302933896235,2.0464480760511568,1130.1279565644338,1128.907033028779,1123.9285007236958,1120.139171942978,-92.39673512629273,684.286029459795,-481.4043419764668,-650.5811583090999,149.5490781125695
20.9275,-0.1982697159109198,-0.94316564577616,0.1677651855740589,0.0293165341242027,0.0090473821824324,-0.0412770979921891,-0.0160535770960321,0.0136866824787724,0.0875900797560165,0.995933118400706,-0.0098896884105995,0.0144462492144339,9.814872870547315,0.1588025333682074,0.1499581576737623,0.0144902770950433,3.533613603094003,5.087739672743861,2.0464686175479416,1129.934986281875,1130.5557240453563,1122.6649147146743,1118.702976051616,-61.29003861420952,657.4249914453446,-581.7064317116793,-514.7022594139459,149.54740418754116
20.93,-0.3730182929021795,-0.8749869304578825,-0.0129512349447442,0.0291281152322086,0.0072204507125121,-0.0431211823068329,-0.0160234622261062,0.013690231497393,0.0875231673874922,0.9959394331877178,-0.009736882109962,0.0204498752228151,9.8083354545507,0.1596290993205007,0.1508026987227561,0.0144222219258111,3.533944483602068,5.0881769138624415,2.046487398364514,1129.8215063713628,1132.1941579860052,1121.019968565138,1117.5656606459088,-25.656722052195267,630.8482329469716,-711.2083268160001,-382.41303957991806,149.54570773876296
20.9325,-0.557948371196812,-0.8128238071260908,-0.1183765284431094,0.0284652299294598,0.0059682525057711,-0.0448111690305026,-0.0160056367561979,0.0136980433246126,0.0874524548313233,0.99594581916612,-0.0096868484420841,0.0263045006778836,9.80245368929053,0.1604505150236776,0.151678391981424,0.0143299831550892,3.5342780003975465,5.088614864371677,2.0465038091484824,1129.806702671614,1133.7099652100908,1119.1088730805952,1116.7909108537167,20.922605934496985,555.7778216116473,-794.1823856955796,-212.7480144123606,149.5439954344674
20.935,-0.7504052837015291,-0.7756502230750388,-0.1499684740406561,0.0269671884466989,0.0047711917390279,-0.0456063889834221,-0.0159996253759459,0.0137087768320149,0.0873793481080287,0.9959521797444116,-0.0097170662576282,0.0319113735046256,9.797312845084305,0.1612682425029469,0.1525887087631092,0.0142189525427584,3.5346130604404475,5.089053453750825,2.04651754319876,1129.9261194010353,1134.9730470940628,1117.049056636661,1116.5019205738472,77.6794043211039,477.3674133478421,-877.869055387866,-27.163122807956768,149.54226762195856
20.9375,-0.9794891475882552,-0.7687373688500296,-0.1424790515398327,0.0241424034089901,0.0030260426431221,-0.0454341530792532,-0.016006676560829,0.0137232074056838,0.0873071032895559,0.9959581995459968,-0.0098526796343496,0.0371336325290658,9.79298263937794,0.1620848054495241,0.1535354257790535,0.0140960977967008,3.534948929304029,5.089492959268971,2.0465287467193685,1130.1950996932192,1136.0968022768295,1114.7195278036568,1116.6550952396772,108.17854416617516,337.2788618448433,-780.8695067340165,115.95600830322363,149.54018124335013
20.94,-1.1626873550856511,-0.7933587033175193,-0.1272538004068538,0.02120432136488,0.0014000489033623,-0.0447924170479404,-0.0160269839359846,0.0137411947006108,0.0872396340774388,0.9959635356990124,-0.0101033143505952,0.0418492185830557,9.789515295992071,0.1629034194580532,0.1545188278200481,0.0139678177431152,3.5352850894327568,5.089933265244369,2.046538039619268,1130.4670121218664,1136.659441403288,1113.1447091029888,1117.0817006153636,99.9081446180952,143.23742012596207,-501.5746049777224,196.65021384511692,149.5384355444176
20.9425,-1.336394868187005,-0.8432526457147659,-0.1247395783428933,0.0182967105466421,-0.0002469396207619,-0.0444413577591064,-0.0160548024930692,0.0137596082854863,0.0871805898655407,0.9959680042801832,-0.0104148292547556,0.0460466609697757,9.786943769636018,0.1637275858676744,0.1555378905991298,0.0138373622725311,3.535621313438973,5.090374695657784,2.046545564651188,1130.6946404163095,1136.8129893774592,1112.2116547787687,1117.6383463089023,68.42880630234956,-21.593851142920105,-220.3604294649251,235.86355976499507,149.53668728137495
20.945,-1.5351844310009346,-0.9193639900658082,-0.1449506733221441,0.0152859265381069,-0.0022495923477815,-0.0444155987309026,-0.0160835085450131,0.0137762368227619,0.0871299558560355,0.9959717439168048,-0.0107557257569462,0.0497383364917764,9.785283007929907,0.1645596491538861,0.1565910623285862,0.0137074091913067,3.535957919647501,5.0908187350364145,2.046551268193974,1130.809156153378,1136.5514721475731,1112.0429069556644,1118.2610184141884,4.588682709843323,-159.13575424006967,110.78814370229128,199.56385921567536,149.5345922239272
20.9475,-1.686609988729412,-0.9817271866106436,-0.1804536788278209,0.0126649135294386,-0.004141817771989,-0.0444497268733785,-0.0161089321782053,0.0137895237103299,0.0870822995304901,0.9959753187382858,-0.011118048456579,0.0528998348023019,9.784531305465046,0.1653999615714386,0.1576767159833177,0.0135809121675848,3.5362949583396737,5.091267206998644,2.0465556533427067,1130.7175838298588,1136.0173106062584,1112.7655954972804,1118.6361656049814,-79.3738064910643,-259.2938760985878,464.7074366025223,105.94953368724705,149.53285316074425
20.95,-1.7982205549751544,-1.0190763053900516,-0.2288487602963367,0.0088296702349757,-0.0067668750134241,-0.0447287715833845,-0.0161298917696143,0.013795263100361,0.08703072311683,0.9959794090012398,-0.0114510304831661,0.055456227888375,9.784671382968396,0.1662479827574864,0.1587920137980369,0.0134601476824666,3.536632419972978,5.091721849593766,2.0465591245277546,1130.4122871209229,1135.2550027670807,1114.3664441386763,1118.7907660826245,-176.00621113377974,-359.87457790700205,878.9084400974773,15.108557059150648,149.53112652393352
20.9525,-1.8413918064768673,-1.006200922941687,-0.2885242304481312,0.0024723851688169,-0.0108202501012314,-0.045642018619672,-0.0161474753299248,0.0137936752959491,0.0869705053615141,0.9959844053398897,-0.0117945432895828,0.057310010645867,9.785672372335661,0.1671031580628193,0.1599320724016066,0.0133485500029767,3.5369701183133433,5.092183437341242,2.0465624755799534,1129.8375527741903,1134.2179377167236,1117.160137697767,1118.7117083902772,-233.46544904376847,-379.0117348172196,1134.7797951258704,-65.00097488666455,149.52907498299527
20.955,-1.773522316581756,-0.9349020733944728,-0.3294815114675319,-0.0037516600466149,-0.0143352564933251,-0.0467820066906332,-0.0161618971062644,0.0137838058422898,0.0869000194251422,0.9959904582301292,-0.0121624073621125,0.0583951985013378,9.78749031657856,0.1679652768135909,0.1610902734228013,0.0132479643090391,3.5373086054867593,5.0926517536711104,2.046566541823508,1129.2449598757034,1133.3599440929936,1120.0403431143088,1118.4657612081908,-242.2653322929391,-317.89263755283133,1211.383231575987,-117.40624278302283,149.52738668090635
20.9575,-1.5881714475507955,-0.8038985374140764,-0.3539214196891059,-0.0097299951983148,-0.0171244373438297,-0.0479463977856367,-0.0161744331496375,0.0137659498927104,0.0868216865485395,0.9959973300346316,-0.0125906881056093,0.0586452640961991,9.790070508004435,0.1688346906754449,0.1622584352187292,0.013160190787259,3.5376490883721528,5.093125854124256,2.04657232188831,1128.6262261127258,1132.62847452896,1123.2170538556456,1118.124677176362,-237.2153925416132,-257.7806904348166,1272.132831708612,-135.40024824113027,149.52572549056572
20.96,-1.3224420899473388,-0.6380689806149207,-0.3638990670532062,-0.0145136711430955,-0.0190805520560575,-0.048919306239968,-0.0161858340788846,0.0137448598102506,0.0867369387382446,0.996004816035862,-0.0131984022077114,0.0580326456492426,9.793349025690464,0.1697106792601625,0.1634289874590609,0.0130876883300093,3.5379916809760528,5.093604840019862,2.046579214438769,1128.0588829129956,1132.0710406408195,1126.4010072728506,1117.7887599669855,-197.46434884458623,-173.6194807370815,1217.1003714239444,-113.80123316970274,149.52409040912252
20.9625,-1.0048842572512005,-0.45520699051341,-0.3589943760933309,-0.0172667871015739,-0.0201207877950723,-0.0496432791419967,-0.0161956339871148,0.0137237379322731,0.0866474608157283,0.9960127314352109,-0.0140669570784172,0.0565719186966821,9.797253611445647,0.170592070068474,0.1645949042746833,0.0130317487056155,3.538336500348141,5.094087735704741,2.0465860727523664,1127.6389043685024,1131.760377125274,1129.3025557127685,1117.5556710105132,-130.59223944763158,-86.13233012640087,1146.5610609951007,-59.48508353441231,149.5224910859797
20.965,-0.6329865862411702,-0.2474382021761691,-0.3386845755110766,-0.0182976176513218,-0.0205781283980367,-0.0503676829925913,-0.0162024452152051,0.0137020520248898,0.0865554852086,0.9960209109617844,-0.0151962641343728,0.0543099413659638,9.801704949181529,0.171477470594977,0.1657497684161111,0.012992044151938,3.5386832872578795,5.094573425272625,2.046592922639107,1127.4059217157576,1131.6403789901879,1132.1338125778248,1117.4913345493135,-28.2846919839414,-18.551705303847537,896.4017351961465,20.736075984454633,149.52061862481995
20.9675,-0.3735016670193498,-0.1019872881017575,-0.3091674078077871,-0.0176459808855121,-0.0204879909093573,-0.0509931852484245,-0.016207946605913,0.0136798647310838,0.0864623391801095,0.996029210802701,-0.016595304638695,0.051254934336711,9.806619076609005,0.1723647272827301,0.1668881848267549,0.0129694564009408,3.5390319889853608,5.095061101386237,2.046599990549188,1127.4974809085827,1131.6676185987549,1133.7845643887483,1117.6593513904356,103.33560982692016,6.97059961689913,495.6679180718388,115.62895246891028,149.5191009952933
20.97,-0.1923752928070916,0.0015003650116501,-0.2626994330243998,-0.0161415938123613,-0.0200650309616366,-0.0517657636755947,-0.0162173010551362,0.0136572474839409,0.0863709673622381,0.9960372904083764,-0.0182689889912006,0.0473647440016123,9.811908348764653,0.1732517952802537,0.1680047842067892,0.012966140079982,3.539383461217384,5.095550171540355,2.0466076065310594,1127.922599764892,1131.6752319882723,1134.6121521681837,1118.069479311658,257.7283508019321,-39.366111783382266,184.15502508532,228.89480998305777,149.51763199429016
20.9725,-0.0533848155358273,0.072953234849179,-0.1823070995894534,-0.014576307856768,-0.019282851648176,-0.0528409249226692,-0.0162316035765433,0.013634215268126,0.086284459610157,0.9960448638644056,-0.0202039825738343,0.042692997051261,9.817480655700596,0.1741363576583354,0.1690946710397126,0.0129828532202734,3.5397379571855407,5.096041596533789,2.046615830647289,1128.786122662592,1131.470788039838,1134.7053395141747,1118.8038254403507,357.8301259048192,-132.05629105011732,-89.02649390279286,297.1333810048535,149.51592975766405
20.975,0.0324901356969315,0.0930952791519049,-0.0943365743606757,-0.0144874909993159,-0.018483608244069,-0.0536515561509887,-0.0162468683713283,0.0136109038439796,0.0862016439460092,0.9960520956205804,-0.0223721437582401,0.0374089269447734,9.823240180366495,0.1750144494804815,0.170154798875651,0.0130186854955429,3.540095459898315,5.096536340912292,2.046623622887912,1129.711750394417,1131.0149505330214,1134.1670196986695,1119.5551462166827,377.3671315526668,-251.4001062358648,-293.6780011804915,307.1213467502432,149.5145644724888
20.9775,0.1436880198536255,0.0874027526095301,0.0090214254217426,-0.0158932473691021,-0.0177212468908585,-0.0539475779443854,-0.0162589618018938,0.0135841465777831,0.0861202021440059,0.9960592980131788,-0.0246702326628149,0.0316915496518202,9.829089081709784,0.1758817015860918,0.1711827608887513,0.0130717600105511,3.5404559846667136,5.097035683970911,2.0466303100503334,1130.672958320355,1130.2137875086587,1133.2369495082723,1120.3394321741016,379.41113035061153,-419.97207440494253,-432.5184550014407,320.36332381700964,149.51325728049747
20.98,0.3559893898969448,0.0801527395268016,0.1364119814478305,-0.0178202476251441,-0.0173114202643471,-0.0536682139721566,-0.0162654342304383,0.0135509585753833,0.0860401855124874,0.9960665495070204,-0.0269898697728627,0.0256955512166372,9.834928860446682,0.1767346846577047,0.1721756252738253,0.0131409235693299,3.54081953186226,5.097540369269432,2.0466355532817175,1131.6088060461695,1128.9150901609971,1132.0044274236627,1121.1569628357677,270.32113950440174,-510.70409548075327,-426.77034922886367,254.56022017356807,149.5117584699098
20.9825,0.6078745057034541,0.1001399794326261,0.233893651574001,-0.0184214290129183,-0.0177095783085424,-0.0531236479612334,-0.0162670927712546,0.0135118799579128,0.0859613495894649,0.996073852925814,-0.0292879859584121,0.0195239036458413,9.840661503770807,0.1775701716436183,0.1731311024394811,0.0132272710202156,3.541185440619284,5.0980504249648675,2.0466395039091756,1132.0245640178775,1127.6602670312539,1131.1030977621272,1121.61223327497,58.9111869104844,-504.751553680317,-299.9907402358218,110.16600931463844,149.51056917827472
20.985,0.9157715235106816,0.1747540102134122,0.3102414910050022,-0.0173547291117136,-0.0185268268792325,-0.0522451013175465,-0.0162644068637221,0.0134651375595472,0.085886278438017,0.9960810038102657,-0.0314664300322529,0.0132838668997651,9.846189376492253,0.1783865799407488,0.1740468912135862,0.013330751206093,3.5415533830760846,5.098565092688492,2.0466425024755344,1131.903361980722,1126.391332392596,1130.504473722484,1121.7077928823408,-145.90591463491535,-484.8401953795529,-183.74367797654503,-32.5924651983379,149.50944322684836
20.9875,1.237479134494112,0.3046926672165031,0.3620208898001878,-0.0148638150865875,-0.019190144818771,-0.05110384510257,-0.0162573651140207,0.0134151348796861,0.0858185152196137,0.9960876387290468,-0.0335409706945004,0.0071013155219746,9.851416704872173,0.1791833109466357,0.174921635818054,0.013452700800795,3.541923308103892,5.099083281539594,2.0466454882160137,1131.295034444703,1125.2360660543563,1130.1843793722446,1121.4492709489784,-346.78583135305865,-407.61332565272886,-80.24763887183768,-188.73963963573607,149.50837047726876
20.99,1.5301296414966707,0.4956693062075132,0.3799664551268819,-0.0109152694911533,-0.01921208278576,-0.0498218452670746,-0.0162447057447909,0.0133728601520922,0.0857577136640987,0.9960936599934224,-0.0356524328392514,0.0011346507983511,9.856250595852961,0.1799591145589224,0.1757569103197996,0.0135956400388737,3.5422943447737745,5.099603672640746,2.046649329961135,1130.169432823956,1124.3532657643311,1130.1032355281243,1120.7640946841616,-567.7874767193537,-297.3333345660331,-30.99445380094656,-381.69168494080947,149.5073624496868
20.9925,1.795289082475779,0.7669405875132473,0.3642178648860733,-0.0050721392578932,-0.0180522872080063,-0.0482554463055905,-0.0162266351113438,0.0133449586406114,0.0857023609454977,0.9960991051077503,-0.0378578921973871,-0.0045014782622232,9.860602056863856,0.1807132186684286,0.176556306935617,0.0137607575944799,3.5426666860381912,5.100125022942033,2.0466537694968654,1128.4560970611071,1123.7493993815267,1130.02940710324,1119.5408125242748,-640.7644608956072,-131.71946115192333,-68.37187686834564,-491.6260292510356,149.50622828870695
20.995,1.9170231413437953,0.9966116979546624,0.3270424305222954,0.000223936011608,-0.0158831175223937,-0.04705509991497,-0.0162059026258505,0.0133326562166428,0.0856522097351751,0.9961039342113054,-0.0401124889236485,-0.0097631781273855,9.864387288104787,0.1814461454583931,0.1773244261054655,0.0139479983389073,3.543041455302608,5.100646406317559,2.0466588068000804,1126.9656105194783,1123.6946684585719,1129.7613761437829,1118.305964537907,-549.7452841416091,77.49625138477946,-197.84445248123416,-504.8761098998152,149.5053464922954
20.9975,1.9178873631162103,1.1889754359356006,0.2797663296763851,0.0056177209130564,-0.0124841255515331,-0.0462756617345899,-0.0161877903092701,0.01333544417926,0.0856031521654988,0.9961084208684636,-0.0423460035166059,-0.0146718830623302,9.867529022175757,0.1821578086003022,0.1780684432958378,0.0141573023101019,3.543418780883453,5.101166619176806,2.046664415232219,1125.7073706403996,1124.1368806384503,1129.040184840834,1117.016431974776,-445.0189648754507,302.9206804608441,-450.9689267110831,-542.6647444701473,149.50453094085995
21.0,1.7764423776362217,1.3382245699519637,0.2329923975445162,0.0119073575475391,-0.0076752201768888,-0.046038391858122,-0.016175808014693,0.0133468146399756,0.0855524071815573,0.9961128322455418,-0.0443719617009774,-0.0192406102738234,9.869957255877678,0.1828495326200168,0.1787959014926242,0.0143855423947822,3.543798459739357,5.101685052978534,2.046671031498532,1124.7405156951015,1125.2092718608756,1127.506531510228,1115.5926408155567,-241.57693705425487,470.5975290293148,-669.8811220885757,-479.884041898622,149.50362941666475
21.0025,1.5493295343357076,1.3790163443145376,0.2155797199194811,0.0166626949213695,-0.0038112346171804,-0.0462783424566389,-0.0161696927025557,0.013361649570481,0.0854982518363393,0.9961173875080078,-0.0460318993587592,-0.0234230332897449,9.871610664994376,0.1835238626555763,0.1795142644664229,0.0146282089864658,3.5441793172380955,5.102201971438603,2.0466785231559315,1124.4994859551275,1126.4898682835983,1125.6907792303891,1114.6170117652819,22.55937483760584,570.0511303293067,-804.3186505660069,-331.240455707732,149.5029428132974
21.005,1.2332557632749988,1.328022930473399,0.226378575598214,0.0204053505074167,-0.0004425052445871,-0.0466171103809047,-0.0161684708459775,0.0133776804609422,0.0854389089384548,0.9961222850833436,-0.0472318137551103,-0.0271710477722782,9.87243791603928,0.1841840498020887,0.1802306794940345,0.0148811304845113,3.544560125553191,5.1027177615314026,2.0466869448631195,1124.8533125692895,1128.0595275125215,1123.4849382573987,1113.9364385370184,266.70269896577184,724.4445299083585,-995.5064792993815,-228.63209117676888,149.50232377531574
21.0075,0.7920900804555375,1.1630613110501007,0.2615394594930546,0.0233799428868515,0.0032601734511504,-0.046558008042934,-0.016171693465665,0.0133930714780668,0.0853735590455362,0.9961276281773824,-0.0478980995481502,-0.0304628790761631,9.8723984629105,0.1848342442994932,0.1809510913757699,0.015140205890853,3.544940079421686,5.10323318859948,2.046696721844457,1125.8329994499563,1130.1120909331391,1120.7132468338934,1113.4738513093982,419.9623303880014,752.386785388059,-982.3346482219198,-117.43850330361414,149.5016594982756
21.01,0.4063437882221863,0.94249641278926,0.2919233574944291,0.0244407420191333,0.0062635012728244,-0.045871759273005,-0.0161764212225904,0.0134049063774407,0.0853052006514312,0.9961332476459132,-0.047943003709253,-0.0332459311353256,9.87146300164408,0.1854802624923481,0.181678883076263,0.0153997943604658,3.545319356467675,5.103749536720342,2.0467083011010043,1126.9531242212308,1131.821461439464,1118.5732650162863,1113.3492460205,469.3382208450227,646.0550781247015,-760.046895834663,-10.983265782945091,149.501171560252
21.0125,0.0386895966124188,0.644337968112148,0.2984944115466428,0.0242407048869334,0.0090251566554329,-0.0446794871539154,-0.0161774262005725,0.0134134495147477,0.0852374799312963,0.996138913347444,-0.0473506589907064,-0.03543078514678,9.869614069451783,0.1861279868906862,0.1824158079283368,0.0156543564513848,3.5456985312663973,5.104267974562023,2.0467213916324694,1128.1796905541808,1133.3423663237622,1116.9130123547209,1113.4189349804835,481.5860198082695,549.486958601456,-550.3353164358217,45.32443372528169,149.50075152705725
21.015,-0.2931425612750524,0.2964789628446583,0.2695893900969608,0.0233812885295135,0.0111582732866645,-0.043327168579265,-0.0161712112548433,0.0134185054053393,0.0851727915849575,0.9961444812396532,-0.0461130692726453,-0.036973686950998,9.86684632341257,0.1867824428652019,0.1831625700852396,0.0158989548605142,3.546077968077873,5.104789936451689,2.046734898623773,1129.3610543202717,1134.5688962324707,1115.821588434108,1113.5758681891264,441.5185388790648,392.124329918151,-278.01320068942334,64.06494049107457,149.50038732818675
21.0175,-0.5662066569692525,-0.079500464194159,0.1877465810528742,0.0219717652082548,0.0123013966580206,-0.0417239572027527,-0.0161549357901823,0.0134185606140897,0.0851125957717681,0.9961498943000908,-0.044211029203846,-0.0378546705543334,9.863166462410472,0.1874477626081753,0.1839188839806311,0.0161286084798673,3.546458708721929,5.105316371616333,2.0467484041255615,1130.3872832485774,1135.302987973354,1115.522946351273,1113.739259682939,407.8319021932104,186.69767898876748,51.963350215702455,49.213967325077434,149.5000894980972
21.02,-0.814660230682638,-0.5038958672803117,0.0325849311307291,0.0197994125433053,0.0119503052523139,-0.0398913923461581,-0.0161277919897403,0.0134178176972482,0.085055129690348,0.9961552587718766,-0.0417547563841698,-0.0380898031428157,9.858593365162402,0.1881260883116989,0.1846845755718378,0.0163412264955248,3.546840567463825,5.1058476426899535,2.046761575821608,1131.4002138312371,1135.5023846274144,1116.0814051851864,1113.8219380257517,340.53805159758167,-45.408140279832814,339.82344039202354,-1.7971264122028452,149.4998071029063
21.0225,-0.9509609535266688,-0.7824659058533711,-0.1245928614690556,0.0176037303991065,0.0096512068969724,-0.0393370023262186,-0.0160927318239939,0.0134187066309691,0.0849990229115863,0.9961606097187412,-0.0388373764285366,-0.0377766723901033,9.853157700308637,0.1888190992796026,0.1854585997195579,0.0165356910556058,3.547223793594227,5.106384189961461,2.0467746638314286,1132.089973506565,1135.0759472719549,1117.2220635532328,1113.730274050878,257.8854734428705,-284.93167341124695,559.3515179168073,-75.5251525091876,149.4996326643
21.025,-1.0102358026287435,-0.9233847502245623,-0.2714504757352221,0.0150455955048151,0.0054851252716438,-0.0404968839933659,-0.0160538146824295,0.0134239065322431,0.0849440251768727,0.9961658656379604,-0.0355688131813593,-0.0370372399306912,9.846901577675217,0.1895283207686238,0.1862392692190627,0.0167114402063145,3.5476092989424552,5.106925956689921,2.046788886895616,1132.6896411984524,1134.0777262603572,1118.878162774772,1113.4443122632056,258.7438633875596,-543.4929891142646,792.7565728739622,-159.1310915672555,149.49951909524663
21.0275,-0.9913534262688544,-0.8946421319340986,-0.3906906156658939,0.0118263980800566,-0.0002274255539269,-0.0432499194550009,-0.0160124195855217,0.0134321740253753,0.08488913927129,0.996171104652962,-0.0319869489234584,-0.0359484112467122,9.839877717104882,0.1902547052275644,0.1870255221410631,0.016865532922494,3.547997264617791,5.10747134354369,2.046804582834622,1133.3836928235023,1132.358482326384,1121.1858464176019,1112.934618593042,255.3598186337748,-686.8072290534203,857.477553915976,-193.5766478317804,149.49945003750508
21.03,-0.9033070757665124,-0.7104476163701924,-0.4250778434493482,0.0091411845503818,-0.0044145785635402,-0.0456538350296572,-0.0159702143175046,0.0134405531676934,0.0848340614182961,0.996176364738708,-0.0281044134494085,-0.0345961332387047,9.832148868198706,0.1909992725097938,0.1878165882871911,0.0169947250752774,3.54838782639005,5.10801928030296,2.046821735276988,1133.9664402916208,1130.6436901150907,1123.1655505443507,1112.4764290240469,228.35412144791,-700.3853309734525,758.7390917588126,-154.7353080504161,149.49944621594622
21.0325,-0.7491242142520622,-0.4055618339732937,-0.3958214080760111,0.0067172271895769,-0.0067844793465215,-0.0473655560732572,-0.0159299184793356,0.0134489893897445,0.0847778499346193,0.9961816827706989,-0.0239994168602282,-0.0330814359355282,9.823787265006088,0.1917626460924506,0.1886125743059799,0.0170975555720012,3.5487806284796055,5.108569078882671,2.046839061623686,1134.5254634307419,1128.8565556715175,1124.9795418763952,1112.16094205279,219.21956952541947,-749.9594344750349,721.2441693361213,-63.435225116758254,149.49949579113655
21.035,-0.507053315599213,0.0124581667268789,-0.3142716502269008,0.0047609733568003,-0.0067531466146156,-0.0484199404553261,-0.0158957377010266,0.0134604439365506,0.0847202052579912,0.9961869769272462,-0.0198166635649806,-0.031528587480447,9.814873787141432,0.1925456431221558,0.189413931702394,0.0171746815534604,3.5491751109047844,5.109119498660017,2.046856251246856,1135.0625381392479,1126.8938929427163,1126.7717713910308,1112.1592528984631,153.29449255242596,-655.270963546201,576.2174528164686,84.57252886278405,149.49961480624148
21.0375,-0.2759886942401448,0.3367169916585688,-0.2327356638062686,0.0040449670667646,-0.0047148557619573,-0.0486232270404985,-0.015869862000307,0.0134776005687671,0.0846626230911245,0.9961920488725656,-0.0156950086508373,-0.0300220027481513,9.80549652296165,0.1933498527052705,0.190220957670365,0.0172263075083221,3.5495700780085726,5.109669741581201,2.0468741633664744,1135.2919358935044,1125.5802008537848,1127.8606291404787,1112.583804697104,21.665739633185456,-429.9042159257115,345.9880330214907,265.4770387810077,149.4997623390182
21.04,-0.0349994053028997,0.5737532350146443,-0.1633667820322866,0.0042718021159177,-0.001680170455225,-0.0485293564083632,-0.0158497668831291,0.0135020094269826,0.0846065729026281,0.9961967926592896,-0.0117452916922703,-0.0285539897301623,9.795749280244799,0.1941768623041019,0.1910342907711176,0.0172507682153667,3.5499654094010324,5.110219714321709,2.04689270669772,1135.1708668374135,1124.7443718630884,1128.501711556138,1113.486638092368,-119.69466412795208,-245.28412156774144,188.5547499458346,428.11604197199233,149.49995899554256
21.0425,0.2038004063331328,0.7141888243774587,-0.1173968480007503,0.0051450529953477,0.001590257986827,-0.048436719227174,-0.0158341708565202,0.0135339322566975,0.0845526703081516,0.9962011729103653,-0.008055929207132,-0.0271406761965323,9.785730511712622,0.1950276563913849,0.191854712496062,0.0172469659620979,3.5503615205287447,5.110769484524432,2.0469112876093303,1134.6934625728647,1124.3537802459464,1128.803402890208,1114.7243849069637,-282.63638718944185,-52.77866396319979,56.70051086410068,541.5694558076169,149.500195910695
21.045,0.4369492306790712,0.7365942863949779,-0.1082090123612954,0.006371624929296,0.004629856210536,-0.0482959904927782,-0.0158225179980798,0.0135704257833803,0.0844998975934923,0.9962053252489748,-0.0046532526771547,-0.0258138506855663,9.775541774768032,0.1959021245861985,0.1926831387189912,0.0172135040071832,3.5507588492526083,5.111320453477728,2.046929031495755,1133.7576849014658,1124.4804785432723,1128.7852141104584,1116.1944853714072,-511.92650150297777,150.85355094750685,-51.88608911354218,642.6438190911455,149.50048117926247
21.0475,0.7171638323925166,0.6539236011619503,-0.1426500903858617,0.008116175208574,0.0071473383858375,-0.0480630073381865,-0.0158146617585377,0.013609250186767,0.0844468199790722,0.9962094053669376,-0.0015750062525344,-0.0246078654661767,9.76528684981848,0.196799252350356,0.1935199095941358,0.0171498868282836,3.5511583680121297,5.111874477449257,2.04694530282471,1132.1338300653504,1125.1080480006835,1128.5439724446403,1117.9376040024188,-666.5598618979817,280.09172762900675,-102.41713830602968,593.4532880678306,149.50087962843955
21.05,0.9597950088971702,0.5255128624796654,-0.2050941206598667,0.0096386387855243,0.0077999869910122,-0.0479993181794313,-0.0158098326623082,0.0136493897691155,0.0843882950902697,0.9962138769004092,0.0011221925207866,-0.0235364218542532,9.75507063149622,0.1977157905211257,0.1943660870899673,0.0170561455474232,3.551560104906548,5.112431801981342,2.0469600473919645,1130.4248855919764,1125.880937181417,1128.2731284189283,1119.161751811746,-735.4412059511891,319.21449705884737,-100.05556442947064,403.332897308722,149.5012588550281
21.0525,1.2192531749144007,0.3702234243805061,-0.2896850673060976,0.0111501706347669,0.007415358160766,-0.0483633087708883,-0.0158078934664422,0.0136888587433348,0.0843220193694852,0.9962189659345264,0.0034077040696782,-0.0226225190354356,9.744997920821833,0.1986488926474406,0.1952209427881365,0.0169324009430641,3.5519638502651487,5.112992175952358,2.046973137048736,1128.4566240355923,1126.7041204859788,1128.0436946224927,1119.9542684889634,-894.341959302888,328.12252767073164,-75.68441597101497,226.9303977239812,149.50168762657415
21.055,1.542287956164526,0.1701616455897235,-0.3945309512628215,0.0139675592175401,0.0070410683313169,-0.0492639334306179,-0.0158087322291491,0.013730290476847,0.0842505337336812,0.9962244224872784,0.0051719370062627,-0.0218778151696375,9.735173164512297,0.1995968371010026,0.1960812416113106,0.0167804622644808,3.552370126372705,5.1135558461464345,2.0469847160086667,1125.953175795463,1127.5215498197704,1127.8947063390735,1120.2964038003656,-916.3785159699731,247.3268699267047,-32.27782540357754,24.80415015953024,149.50226008562095
21.0575,1.8010676468723703,-0.0122678952051996,-0.4663678602072079,0.0177685754879351,0.0073769772131895,-0.0503427633320133,-0.0158124763384424,0.0137723346055477,0.0841742287475849,0.9962302287722,0.006392463160239,-0.0213175978276696,9.725698556037889,0.2005566051240794,0.1969441597037216,0.0166006464076326,3.552779057111631,5.114123138578584,2.0469953355387505,1123.8747314557436,1127.940754835612,1127.8823054954748,1120.078289239761,-800.0913417034326,100.96667851600805,5.599744456823123,-174.1667492748439,149.50278588231828
21.06,2.015786014287252,-0.2231700785378364,-0.5002652348933473,0.0227836207819191,0.0081547509489757,-0.0517870406030717,-0.0158149131798443,0.0138089470046838,0.0840944326342761,0.9962364204701744,0.0071573559860903,-0.0208744592835373,9.716672723543498,0.201525252503774,0.1978063372588707,0.016389424694213,3.5531912233466314,5.114694875779983,2.047005289656581,1121.9527190869467,1128.0263832123503,1127.9227050613576,1119.4255700539916,-779.1397466470884,-33.256026799115055,-1.4265649595020586,-355.503886284421,149.50336282709367
21.0625,2.186899118510549,-0.5109286186995065,-0.4755400497731637,0.0296869129427867,0.0083250883555966,-0.0538993871847451,-0.0158108930334238,0.013837712260146,0.0840124684199695,0.9962429984403725,0.0074989224353867,-0.0204508630623219,9.708191205220697,0.2024994595561492,0.1986643464495195,0.0161438686533352,3.5536060938523706,5.115271913154893,2.047015273239485,1119.9790327225087,1127.7744747016163,1127.875172670677,1118.3007698083393,-650.3425294285845,-136.66727733959587,-63.17535139866273,-444.8904533918264,149.5041149133049
21.065,2.2396436933603385,-0.7661832274134895,-0.3908724663418549,0.0359044616779752,0.0071024348319323,-0.0557261695610891,-0.0157939881814281,0.0138554780461087,0.0839273858157049,0.9962501870003047,0.0074789211115614,-0.0199194894208516,9.70034490287785,0.2034749117499414,0.1995159732531562,0.0158599802535218,3.5540227218826947,5.115853620043473,2.0470257926930016,1118.701006439802,1127.343046825652,1127.606828304364,1117.2011177870313,-419.1401712118856,-195.2119305475596,-189.1618788461905,-449.46011129704704,149.50479188465343
21.0675,2.1920266997743707,-1.0106033365011973,-0.2396905990766585,0.0420357712258425,0.0047284906995286,-0.0570666247873766,-0.0157585516902065,0.0138565695310436,0.0838422859419704,0.9962578925508166,0.0072221839954551,-0.0191698109176046,9.693218817880565,0.2044489341432681,0.2003579423531912,0.0155330740771969,3.554441474716268,5.116438510430652,2.0470371891120784,1117.88333186645,1126.7984150488787,1126.9293632764463,1116.0534692518545,-242.47454054193716,-219.99347976588808,-355.9136389988706,-454.63110163964245,149.5055215268231
21.07,2.067221662673491,-1.225311006041842,-0.0420691343693675,0.0475571601657004,0.0018336228843719,-0.0578830599674151,-0.0157017637154818,0.0138372577268141,0.0837610683562421,0.9962658827658184,0.0068257574926092,-0.0181402514100298,9.686891393383679,0.2054191071228096,0.2011873791475951,0.0151605760447261,3.554863364802385,5.117026218742981,2.0470493760263824,1117.4886337370926,1126.2430794268228,1125.82726010937,1114.9279622788335,-49.68895818812784,-210.9256672299865,-544.5991995406472,-436.0925218885356,149.5062954281775
21.0725,1.8662395636739593,-1.3826779217974376,0.1928915061121066,0.0522507343464465,-0.001601526504156,-0.0582344380663535,-0.0156273716689386,0.0138013216457792,0.083683150894157,0.9962740906437948,0.0062434614052987,-0.0168805612999835,9.681433866555821,0.2063810627705779,0.2020039709715372,0.0147460774946359,3.5552884197726784,5.117616264481312,2.047062305914831,1117.6348870755091,1125.7437867127285,1124.206367278742,1113.8730066424107,192.4666678317336,-200.5886111767212,-805.162328272878,-441.9458293084032,149.50712402687367
21.075,1.5626900208883308,-1.4830882026892178,0.4841736344860798,0.0571458134304162,-0.0064684255297415,-0.0576482714445462,-0.0155398853924068,0.0137529588650644,0.08360627290935,0.996282573360079,0.0054326081594778,-0.0154540770912962,9.67690696442484,0.2073299605092644,0.2028090437446647,0.0142945057950701,3.555716315801668,5.118208570151896,2.0470761327206537,1118.4509670762511,1125.2401363709391,1121.8014484680064,1112.718233132292,403.4534697657257,-172.75177060627155,-918.9437800661843,-402.8681639749158,149.50818423197887
21.0775,1.2765780675998253,-1.483528353809361,0.7037848098750513,0.0605160062998978,-0.0110142991391614,-0.0557449250478469,-0.0154423437717807,0.0136979294803359,0.0835303952013349,0.9962912047277936,0.0043356111593424,-0.0138963121346909,9.67335876646059,0.2082622001355672,0.2036039675515954,0.0138118652869319,3.5561471572131382,5.118802858694951,2.0470895916254617,1119.6521544243371,1124.8800278596973,1119.611648378412,1111.8586658225363,577.6651524386808,-143.28091934637033,-854.5843282736489,-321.4827762521683,149.50912525014155
21.08,0.9778660715440016,-1.3997861658274615,0.8640660428719898,0.0627519324617274,-0.0153396751305276,-0.0527687177636726,-0.0153378000524489,0.0136388206424814,0.0834560537903726,0.996299855972253,0.0029665712215291,-0.0122521914878266,9.670822072826478,0.2091749816346479,0.2043907530209793,0.0133042777671373,3.556581229753819,5.11939831586374,2.0471013554382615,1121.339292838446,1124.5237317742071,1117.528526826636,1111.1108192510303,829.4226016938694,-170.43414129128655,-823.4494055371943,-303.8517035852841,149.5101298737241
21.0825,0.6250843180982806,-1.2243281794515308,0.963440457602547,0.0642775668423031,-0.0194887020633146,-0.0492267611570285,-0.0152301626969858,0.013578269761759,0.0833842233489876,0.996308350220564,0.0013456223621493,-0.0105883100909109,9.669312908059748,0.2100663215069009,0.205171942175486,0.0127795910941161,3.5570187868076664,5.11999440650739,2.047110446304875,1123.799267432806,1124.027857153241,1115.4944013507268,1110.3394073046104,947.5202771301219,-199.310420258456,-629.5723550146593,-264.6221791957104,149.51141448789124
21.085,0.3430947531682113,-1.040409221015617,0.9638848476319262,0.0648302329141109,-0.0219079821209912,-0.0465854774432324,-0.0151230546716852,0.0135234852075446,0.0833176232232558,0.9963163072307928,-0.0005881598468635,-0.008965121746635,9.668829263216049,0.2109356979701671,0.2059498379157265,0.0122484782595822,3.5574590670312687,5.120591060738739,2.047116229098328,1126.0768942240957,1123.527179672915,1114.3806650515635,1109.787708355052,918.4477595879192,-216.61240883406947,-299.98776919467787,-209.1197650758953,149.51255558052327
21.0875,0.0715856038291384,-0.846911280023477,0.882220743432748,0.0648487831690273,-0.0232897889801612,-0.0439771839067146,-0.015019831637065,0.0134795552945803,0.0832551397360168,0.9963237008268756,-0.002852344921168,-0.0074461389166249,9.669349050619017,0.2117820084138207,0.2067286250692924,0.0117216147368039,3.55790043310738,5.121187373779855,2.047118431685289,1128.3915062307478,1122.94479510907,1113.9944625047526,1109.2938084792304,977.937146119224,-261.05503909198626,-1.5475416192660656,-217.13717377410603,149.5137762428603
21.09,-0.2555627011261631,-0.6257977077568116,0.7013694655681366,0.0648519403247486,-0.0242411687924721,-0.0408761151902793,-0.0149212794744743,0.0134444171802207,0.0831977347376225,0.9963304672135816,-0.0053210053651631,-0.0060638668997297,9.670828819994137,0.2126060501260199,0.207511631865103,0.0112063216568804,3.55834237345607,5.121783009687201,2.0471169565209393,1130.9665799546908,1122.2219044774552,1114.3729273434672,1108.7020224861817,878.2962628722928,-252.9066911176008,263.7786096982906,-227.7292417104944,149.5153403550501
21.0925,-0.5406936532199594,-0.4541403934849224,0.4981796793340806,0.0648357690542884,-0.0249464006574046,-0.0389003168680805,-0.0148280654372325,0.0134135612231894,0.0831502423986682,0.9963362540654984,-0.0078211222443471,-0.0048592788019029,9.673204863113018,0.2134109844984355,0.2083000990087912,0.0107090477713455,3.5587853765675788,5.122378004375611,2.0471114851663286,1132.7829875451084,1121.6802616534824,1115.3133555532438,1108.155162270678,630.6775940400603,-182.5210348426844,476.8063346520233,-241.06486151522648,149.51673101518807
21.095,-0.8429681224986262,-0.2864640550924237,0.2702711765806176,0.0641298034562882,-0.025812839023372,-0.0382925354940594,-0.0147416923550238,0.0133837127325624,0.083112398925318,0.9963411051339152,-0.0102105786977125,-0.0038893252049665,9.676394800559239,0.2141983363464503,0.2090965778745944,0.0102368027278281,3.559229412097552,5.122972546733454,2.0471016959508304,1134.1199679248905,1121.309299303242,1116.7569590167268,1107.4966981786058,446.6548025983208,-105.97271914541415,636.0890036787524,-286.25470202083545,149.518216218038
21.0975,-1.1509463535811963,-0.1110929532238228,0.0460485105352987,0.0624388193954985,-0.0267861369472643,-0.0387001882942983,-0.0146623499810314,0.0133518823505558,0.0830836721266557,0.9963451037043788,-0.0123568300135627,-0.0031871508856996,9.680299140916965,0.2149698681768682,0.2099025472229642,0.0097953668676009,3.5596747968648166,5.123567953598894,2.0470883617712623,1135.0162615580996,1121.1503980577554,1118.4938005716367,1106.7238887605743,258.21263364960464,-1.7425684074614944,736.0683418460993,-333.8777269354179,149.5197818012707
21.1,-1.4433533727198895,0.0832050652751115,-0.1526698630313377,0.059269537371873,-0.0276552811008092,-0.0397175272617911,-0.0145881724450123,0.0133133273537348,0.0830619004606829,0.9963485245247796,-0.0140987967129367,-0.002748265044035,9.68480368794082,0.2157269355724848,0.2107187553724071,0.0093877132893952,3.5601218061776745,5.124166461462545,2.047072408626101,1135.4110310931392,1121.3005864612048,1120.4373007259592,1105.8273095439279,82.51441852891551,139.272301174406,867.1199371496093,-407.0211818776343,149.52144548241307
21.1025,-1.7421803435903251,0.337220504118059,-0.3509203547082409,0.0541823892421751,-0.0279425876370255,-0.0411204945949374,-0.0145157575454881,0.0132652760792731,0.083043142062107,0.9963517877862919,-0.0153213008041522,-0.0025321139973415,9.689783291544325,0.2164703378547778,0.2115452255163151,0.0090153799164498,3.560570134283381,5.12476874497902,2.0470545569441185,1135.428833650744,1121.8467595636273,1122.829400257384,1104.6887828511865,-45.40629139511105,252.45450532539073,861.9010646491811,-408.56725854368,149.52355525215992
21.105,-1.9264174968942605,0.5543062256743161,-0.4849016388305329,0.0493109047739186,-0.0272054201038283,-0.0420158631437694,-0.014447321411736,0.0132105653900001,0.0830252866370834,0.9963550018886904,-0.0160371707919196,-0.0025934675600228,9.69510675571828,0.2172017874361728,0.2123797483982942,0.0086830137593631,3.5610198554178703,5.1253755329146085,2.047035678838848,1135.1839996361637,1122.5628589878315,1124.7468060492042,1103.7844732512099,-126.08325590675038,320.2497352339104,721.9062291532225,-326.09678431487424,149.52540667631692
21.1075,-2.026016142279208,0.7540513923287923,-0.5931625849620819,0.0439045028873124,-0.0253344578518278,-0.042508050193079,-0.014384527306149,0.0131564905991726,0.0830082446454527,0.996358054851878,-0.0163565386873232,-0.0029632759247467,9.700640303801652,0.2179241144504189,0.2132181733153999,0.0083950735792368,3.561471259368199,5.1259879676520494,2.047016368490384,1134.79841737121,1123.4480082397977,1126.438931403152,1103.0582989296113,-185.7781060542408,400.1651794932855,661.3812506887776,-252.70614611541103,149.52735217211043
21.11,-2.040302374550788,0.9469646726848806,-0.6917570882681245,0.0370623318701546,-0.0221148542792494,-0.0434839779819006,-0.0143311018663033,0.0131132180062936,0.0829876226890666,0.996361124404011,-0.0164638232106421,-0.0036979285723424,9.70625211045237,0.2186386459863641,0.2140575594476926,0.0081564487823902,3.5619238886991087,5.12660610878218,2.0469972482240464,1134.2551091058926,1124.5636848852976,1128.0537123026475,1102.520942520633,-211.81632331399337,400.0011865303236,504.3737317788876,-130.9133004091824,149.52979081623445
21.1125,-1.9699424934084904,1.0558908896132733,-0.735827222997908,0.0316783776144912,-0.0190885160157733,-0.0451540292361357,-0.0142891270782815,0.0130857274283087,0.0829579096373891,0.9963645729249788,-0.0164553987817549,-0.0048208232145559,9.711815566432383,0.2193467067337933,0.2148953816419849,0.0079676433168363,3.562376705505288,5.127229331952782,2.046979008412721,1133.7393357546403,1125.448014172449,1128.960800062046,1102.4037324275655,-228.7696923905708,330.48759338650063,257.7511436440136,22.061994009789117,149.53190564575132
21.115,-1.832660042773572,1.1065864765233242,-0.7196418915802595,0.0272730189026752,-0.016205548075413,-0.0475568924183153,-0.0142583107375362,0.013074070687692,0.0829173268704779,0.9963685507605972,-0.0163416070722224,-0.0063092767771705,9.71721324203335,0.2200516577944808,0.2157278679574,0.0078246852081455,3.562829410288268,5.127856521655284,2.0469626176584153,1133.1112606439392,1126.216122852231,1129.342468020868,1102.631252490682,-318.1816882289873,305.22979442504646,43.02791349747113,166.54470851925583,149.5341008255859
21.1175,-1.6168482628134448,1.1047281057196368,-0.6131307079118244,0.0230940558673543,-0.0133808117325506,-0.0506893340016185,-0.0142360351482827,0.0130785984445866,0.0828660666555476,0.9963730745270732,-0.0161482347455996,-0.0080867066745331,9.722340858034572,0.2207579510539484,0.2165510836624707,0.0077214989394329,3.563281697945256,5.128486600803609,2.046948238395865,1132.1484273134956,1126.9741631445738,1129.175939629533,1103.2364559701616,-396.51123148336114,250.94640386451363,-158.049388520371,261.29161796462284,149.53682097445972
21.12,-1.4082535721417733,1.0543048251520084,-0.4507913254862645,0.0201454012374344,-0.0113121149010241,-0.0532201625937069,-0.0142192276696203,0.013098604957024,0.0828074600773259,0.9963779208435543,-0.0158921881881587,-0.0100624194598215,9.727110242982516,0.2214714145117031,0.2173605985776492,0.0076505701408168,3.563733265093703,5.129118637550232,2.046935785545209,1131.1287044865228,1127.4708548715532,1128.5522210782665,1103.9377105805047,-453.4480110746237,172.49278000002752,-330.62414467364965,298.6319833297014,149.53915384073184
21.1225,-1.1751998790464055,0.9504261549301584,-0.2297263816626826,0.017354634217404,-0.0087767431084963,-0.0552593227791449,-0.0142066613029968,0.0131294708138331,0.0827468080974595,0.9963827272720333,-0.0155289679692587,-0.0121819176433407,9.731451402411079,0.2221984690719654,0.2181520575327955,0.0076032002238545,3.564184546397912,5.129752299556366,2.0469243949354894,1129.8811872581227,1127.8366270445736,1127.5228189061654,1104.7296158868098,-527.3116369790528,124.94157550429676,-457.70344499951545,314.57648356078494,149.54154813476495
21.125,-0.9196375059218778,0.7974740683117906,0.0112555014805974,0.0144706504551349,-0.005893059125119,-0.0563109406910978,-0.014198045207005,0.0131678435929354,0.0826869298110253,0.996387307694443,-0.0150513417470938,-0.0144012598179252,9.735314138785672,0.2229438313148262,0.2189231235808669,0.0075714365672884,3.564635829714067,5.130387191789012,2.0469131454087535,1128.492146301628,1128.0955627490744,1126.2637038532691,1105.5105929983083,-567.1729129195965,76.19163565846715,-528.7824709917481,291.8766091753567,149.54398760349716
21.1275,-0.6351253514434831,0.5865151685218519,0.2265572069765664,0.0115317152906708,-0.0033774248201322,-0.05548400380772,-0.0141916493284161,0.0132083872542263,0.0826279582450346,0.9963917462923588,-0.0144203300962373,-0.0166482174876982,9.738668023079784,0.2237101720709763,0.2196735543434969,0.0075457682091207,3.565088034034216,5.1310233391165525,2.04690257134872,1127.0453226935235,1128.2175852228663,1124.878906551205,1106.1889989326871,-613.2077638862339,19.21245437375019,-599.6932651476355,259.22057680782626,149.54647405891967
21.13,-0.2731800800031369,0.2841228266693122,0.3902877136355206,0.0088320015818308,-0.0015290641693938,-0.0527239910188718,-0.0141861072831197,0.0132479546565863,0.082568271160494,0.9963962398019722,-0.0136462048010983,-0.018853050404501,9.741502548348066,0.2244982710909224,0.220404659376704,0.0075177924309298,3.5655421121381714,5.131661367383064,2.0468940562028246,1125.4261074821975,1128.191625020943,1123.2652375275316,1106.8066958823474,-547.9571177799425,-39.02453519986788,-559.2347376222482,189.346145792198,149.54950198423063
21.1325,0.019906019115858,0.013755461370557,0.4151414498798778,0.0082100755199815,-0.0011477667311923,-0.0497632178600264,-0.0141812523873894,0.0132874138397329,0.0825063248809047,0.9964009087598188,-0.0128220210376522,-0.0209646869567681,9.74382618345392,0.2253077286007168,0.2211183853365856,0.0074816349563003,3.5659982285050487,5.132301354232636,2.0468886982093952,1124.3055371046244,1128.022462546867,1122.0827328630946,1107.135729661648,-377.0602785808823,-96.41482003166472,-417.615373119329,95.66909562281232,149.55205467564346
21.135,0.2613167864231932,-0.2446296424800203,0.3149749759145323,0.0096478132718758,-0.0019497060806858,-0.0468926147196246,-0.0141794111202865,0.0133241127937702,0.0824428859811692,0.9964056935744394,-0.0119758931047015,-0.0229908752600668,9.745663796401663,0.2261380259723403,0.2218162823508859,0.0074319193456812,3.566456859244805,5.1329430248022705,2.0468871553490846,1123.540806089292,1127.7095509207847,1121.177160661934,1107.2850413604615,-242.66161051787373,-165.90084570064963,-320.17841300032165,34.152698474015295,149.55462930681517
21.1375,0.4498823320291933,-0.5101805490139708,0.0816904062920503,0.0128240800204966,-0.0040182211610648,-0.0444883897588799,-0.0141799227104335,0.0133524379381936,0.0823799877244663,0.9964105108329732,-0.0110705171919324,-0.0248923152599612,9.74705365791533,0.2269881705869688,0.2224999453773646,0.00736190028807,3.5669190268353295,5.133586232130953,2.0468878922187255,1123.0922290520352,1127.192958318364,1120.4818407980931,1107.306493154018,-90.45117906045539,-209.0787685081029,-186.1009616924009,-8.43921519504133,149.55773454362406
21.14,0.5127250770227612,-0.6813100771666653,-0.1591977877819015,0.015552233358857,-0.0062289039181673,-0.0442786575506605,-0.0141830428238357,0.0133722244002967,0.0823163209913554,0.9964154663763816,-0.0101716866197619,-0.0266447723452521,9.748045361001934,0.2278546962335765,0.2231729250069814,0.0072692862493167,3.5673846209265534,5.134230764682697,2.0468883776250255,1123.08855019399,1126.6641570782444,1120.2466558534722,1107.2428452844863,56.64083763355679,-229.53385688662897,-23.930426668754567,-28.32946023362098,149.5603284228924
21.1425,0.4940052847993521,-0.7983079496254374,-0.3766382014973254,0.0175251627531154,-0.0081743252458107,-0.0465570078736791,-0.0141884180487909,0.0133826431986537,0.0822500707155654,0.996420726408608,-0.0093239591295222,-0.0282215320657187,9.74869566906964,0.2287331837492354,0.2238393773513516,0.007153200978594,3.567853455838966,5.134876611514421,2.0468870481085593,1123.3754332402032,1126.0452890339302,1120.3621886647495,1107.16484585285,160.49495274922728,-294.14619548239386,127.21892978964009,-19.533417471988532,149.5629207091677
21.145,0.4208323535914441,-0.8838173033418211,-0.5416839461497472,0.0188048133246285,-0.0101261378267175,-0.0508952715735967,-0.0141917787733373,0.0133826875260583,0.0821809480206584,0.9964263889760776,-0.008552348774712,-0.0295299645223667,9.749064860925111,0.2296193994313006,0.2245030267879876,0.0070126897441211,3.56832593154018,5.135523744026704,2.046882676349254,1123.891024957736,1125.1934261008328,1120.8827505024203,1107.1451781971264,192.39209681785917,-332.70209810755,250.63151992240344,17.82890215604666,149.566020561954
21.1475,0.354567753466084,-0.9132189337323297,-0.5783860286990863,0.019092789380585,-0.0119246560798067,-0.054154240565545,-0.0141916771557072,0.0133771230836599,0.0821071041537315,0.9964325617719302,-0.0079884058784994,-0.0305321291036746,9.749214418084431,0.2305080492710758,0.2251683493179783,0.0068521723531186,3.5688023406635314,5.1361716441313074,2.046873801212822,1124.3373937242923,1124.3817785433928,1121.6153462643613,1107.2539903636302,158.26381920579567,-347.2019669232438,349.10393348818945,80.12129147637546,149.56858824606232
21.15,0.3211130717998189,-0.8974546054855401,-0.5227709377635403,0.0189074074542544,-0.0138998066648335,-0.0560206837648132,-0.0141884692755216,0.01336965742652,0.0820272366517489,0.9964392967340248,-0.0077344287313267,-0.031236681085072,9.749203391308512,0.2313940482874888,0.2258394825429499,0.0066776184451722,3.5692828155166123,5.136819842321503,2.046860245553872,1124.6823440537653,1123.4574162662157,1122.628270169862,1107.5457846545087,115.28909666378713,-428.98815760476634,498.3787334949821,171.56172708245097,149.5711322849356
21.1525,0.3461643502701157,-0.8186986566906772,-0.3896923978536394,0.0186949802112013,-0.0164020470293753,-0.0568669701585853,-0.0141826295662005,0.0133599144817525,0.0819417129064927,0.9964465616995524,-0.0078014089618903,-0.0316708365267183,9.74908575870218,0.2322733507769988,0.2265194908625845,0.0064938318173608,3.5697672943370806,5.13746849878228,2.0468429321248607,1124.913839207611,1122.2368377553692,1124.1072399318357,1108.1117989990423,55.4015255556461,-458.1978358872223,571.8451786801097,234.3993943972248,149.57414925806123
21.155,0.4275327523269987,-0.6963906494631216,-0.2541194267843238,0.0189694372856083,-0.0188120984631817,-0.0568761469647914,-0.0141710160310908,0.0133462266063732,0.0818488870864863,0.9964545589594594,-0.0081587119609773,-0.0318009039174372,9.748909088981303,0.2331415617353355,0.2272118189569219,0.0063032062967819,3.5702548468599327,5.138117776472737,2.0468222499074336,1124.9593516815435,1121.16642708678,1125.487496063262,1108.7177816264943,-2.037833334862121,-424.9617639409216,558.9204943912339,248.89001311453688,149.57662740012768
21.1575,0.5656629939532964,-0.5121853899436817,-0.1194685046503077,0.0198829843680353,-0.0212276001266174,-0.0566771039063445,-0.0141502946118488,0.0133231046504439,0.0817488448303641,0.996463401190945,-0.0086901039875715,-0.0316029635727252,9.748713765156912,0.2339958343804537,0.2279183019776624,0.006105821211229,3.5707448227346528,5.138768357021247,2.046799245254921,1124.9036500409368,1120.1120289356652,1126.9018424037913,1109.3562490646148,-27.320922773702456,-407.3509268049648,550.0499451351246,240.1192542919057,149.57906101793844
21.16,0.7404184110852257,-0.2839214502331792,0.0035444891847423,0.0212639486810396,-0.0231001265211671,-0.0562788256774537,-0.0141235163847317,0.0132871735909846,0.0816449069571408,0.9964728128089576,-0.0093202967682956,-0.0311801756719101,9.748533945484649,0.2348356100263646,0.2286382216015153,0.0059048737485108,3.5712368966402863,5.1394220577873115,2.0467754607480906,1124.8227470676748,1119.1296724527556,1128.2377457889372,1109.9183778979539,-21.684211957370096,-362.8284714725359,489.30305419682986,182.13798874994387,149.58145246078223
21.1625,0.9433846415933892,-0.0253124989218204,0.1084714228674636,0.0231206647230493,-0.0236299871781581,-0.0556864735961258,-0.0140913654620733,0.0132378715967608,0.081542046019289,0.9964823771306092,-0.0100163430181916,-0.0305892226099888,9.748397817105625,0.2356620274934523,0.2293691191271038,0.005702540661097,3.5717299687056734,5.140079500999953,2.046750875145512,1124.7952289811499,1118.2978865783016,1129.3483576747767,1110.2669390083647,23.92398604411504,-317.5730590500457,409.5938646722421,81.70297631910931,149.58378679194294
21.165,1.195895919972722,0.2811809512994657,0.217750356647063,0.0257920635918105,-0.0223305073068978,-0.0551951839813345,-0.0140550925658284,0.013176561488267,0.0814451841959757,0.9964916475095472,-0.0107770344959429,-0.0298963018326526,9.74832863518565,0.2364771167690583,0.2301077886627898,0.0055010063732721,3.572223374741983,5.140740999696516,2.046725930720322,1124.9423669978955,1117.5418071575057,1130.285715112298,1110.326892779549,101.7622752784721,-228.88768633033584,267.9106625074916,-43.80075274440021,149.58651399901737
21.1675,1.393115149161189,0.5092701784121118,0.3013585651036856,0.0284970163758072,-0.0199981772019515,-0.0552103767444991,-0.0140158336399486,0.013108501899326,0.0813574180018238,0.9965002751856192,-0.0116721030199065,-0.0291584468425452,9.748346100403609,0.2372828491574096,0.2308514237936372,0.0053030081475651,3.5727167634849555,5.141406355054851,2.046701645877351,1125.304040357542,1117.15344814665,1130.687910987314,1110.0479352446428,213.37765264182048,-98.04784458674008,86.0762377126335,-173.862158623526,149.5887192782691
21.17,1.5463997715329802,0.6987070071703017,0.3797641142815488,0.0320444687935306,-0.0172514459906043,-0.0553848663719923,-0.0139719967078411,0.0130419947990667,0.0812776416109049,0.9965082507465384,-0.0128235599862758,-0.0283717738320493,9.748467379045982,0.238079834527547,0.2315991047857061,0.0051102778854207,3.573209670960594,5.1420747225963135,2.0466778120314646,1126.0092552611052,1117.0515679345715,1130.7160963008614,1109.4575819864313,403.7068241523123,26.071654674938785,-50.72148063533049,-310.5587057729444,149.59084788424627
21.1725,1.6412628743910964,0.8975573715662044,0.4539105195332568,0.037426295010069,-0.0146228121866445,-0.05475957458419,-0.0139216093608598,0.0129852157699251,0.0812055524154506,0.9965155048721646,-0.0143475022835664,-0.0275227657058213,9.748708023059503,0.2388693391246198,0.2323496869570875,0.0049234925742971,3.573702001143539,5.142745156941644,2.046655451064925,1127.3225744783033,1117.2838064200248,1130.4343035841373,1108.4951417157783,560.2083014549612,145.1168792219339,-131.40890287302568,-373.3610762157074,149.5933061400823
21.175,1.6231376323219184,1.0624993821276911,0.4785012922061026,0.0425777218928605,-0.0135784477180729,-0.0529213535487651,-0.0138623493097152,0.0129421788405592,0.0811429827136199,0.9965218519065308,-0.0162761946885414,-0.026594591397479,9.749082475328423,0.2396535860205454,0.2331012954668297,0.0047407543430322,3.574194264842345,5.143416475006643,2.0466366153119746,1128.8102967683794,1117.7771523306812,1130.0590517864964,1107.590776605353,662.8596232493937,257.7847136889932,-150.6671059444809,-353.42373494531887,149.59526956749428
21.1775,1.4929737589295615,1.2458043662497285,0.4419253650736161,0.0477584183426707,-0.0130913089301726,-0.0502144162784262,-0.0137939854799491,0.0129120966023955,0.0810900442153657,0.9965272788363466,-0.0185512017273365,-0.0256131083428274,9.749604727614823,0.2404336149516743,0.2338531107883868,0.0045589397337531,3.574687850350448,5.144087999143473,2.0466211093651685,1130.636872594552,1118.5727299884704,1129.6809680544145,1106.728023041051,845.6462450792378,414.6227736335192,-145.85475988049612,-336.89026190497646,149.59713906873236
21.18,1.2228251807902315,1.4721218376744023,0.3253901834670688,0.0527952197281374,-0.0111914430309358,-0.047766141263848,-0.0137166132649409,0.0128939051501828,0.0810436988674201,0.9965320300282704,-0.021109262673371,-0.0246040819854646,9.750288775712946,0.2412083793087833,0.2346058341460646,0.0043753379480538,3.5751838521791335,5.1447591296055695,2.0466074942316705,1133.0385279937748,1119.8502661988484,1129.329777987094,1105.9063252958283,877.1935767578651,516.3880969402388,-108.19331063932955,-246.55105627603365,149.59926799427583
21.1825,0.931120734383512,1.6274373447110655,0.1854019733211474,0.0555715612123182,-0.0074906292656805,-0.0468647423242975,-0.0136311867441249,0.0128840823342572,0.0810004420054317,0.996536413082104,-0.0238401090603583,-0.0236071990039368,9.751148164506356,0.2419759421049461,0.2353600836027438,0.0041874054559679,3.575682837468527,5.145430384169752,2.04659439131987,1135.0228404783404,1121.154670473171,1129.140001501218,1105.4952677596712,736.4131447886494,561.8817996481747,-63.79738035153783,-95.4993927404038,149.60094278252583
21.185,0.6133584457235536,1.6886011107317132,0.0335223087074701,0.0568953697071137,-0.0015623846573505,-0.0469227528423602,-0.0135413834217554,0.0128826285844678,0.0809575747944262,0.9965405969730544,-0.0267054179277437,-0.0227026435108463,9.75219588999514,0.2427341412739874,0.2361153923416108,0.0039966245432546,3.5761848174012973,5.1461036595823275,2.0465803662555158,1136.7205937177173,1122.6596751970887,1129.0107910853365,1105.4288283321266,592.4115195756982,625.4945230024867,-55.28582092089172,29.94669234081498,149.60251024422956
21.1875,0.304720683413532,1.6381479380625024,-0.1035222356894664,0.057097848620103,0.0052066856246855,-0.047622082558924,-0.0134548679949007,0.0128896602421179,0.0809122918250427,0.9965447199210798,-0.0296751056811824,-0.0220401850476651,9.753443281292435,0.2434803365199316,0.2368704973263675,0.0038077197485222,3.576689540553448,5.146780845618171,2.046564562318797,1137.9848980762183,1124.2821430881827,1128.8635723966136,1105.6450012213752,366.1633261451644,662.1524706051582,-81.56186230053582,143.6327829285976,149.6039858601531
21.19,0.0335308368564868,1.4481545795907051,-0.1998535797943915,0.0563659275751216,0.0112225068202584,-0.0487382800176638,-0.0133774891997168,0.0129018954288597,0.0808641921000433,0.9965488182512748,-0.0326494499310012,-0.0217324771754594,9.754898476316173,0.2442128606531109,0.2376222467372905,0.0036240179579247,3.5771969925081986,5.147463395361088,2.046546376355949,1138.551410348444,1125.9704375501162,1128.6029817738336,1106.14699224677,70.43468698558664,735.6435633422377,-157.7534610593234,265.7649329278303,149.60534769704813
21.1925,-0.234489777703286,1.101929022405031,-0.2524825755781855,0.0549925848095603,0.0160438694901781,-0.0502125600405511,-0.0133073900492138,0.0129156475325642,0.0808150756446755,0.9965528921043876,-0.0355086438494239,-0.0217357401599378,9.756565413942575,0.2449312249045837,0.2383660129723168,0.0034454932160877,3.5777076841372377,5.148151707213486,2.0465253119564903,1138.337071511146,1127.9603609048932,1128.074805091317,1106.973825886014,-216.8163349828296,706.7696630791075,-232.34426065960247,324.64577628308774,149.6068472038864
21.195,-0.413816999873677,0.7695694403082229,-0.2422621714374742,0.0538489407690363,0.0177899133204636,-0.0514267123260557,-0.0132443058281006,0.0129281612112542,0.0807650322563425,0.9965570924324872,-0.0381555490087367,-0.0220276516240437,9.758443874353224,0.2456345108700218,0.2390980611143792,0.0032737968404144,3.578221444013512,5.148845464490345,2.046501439170488,1137.46732867353,1129.504285865511,1127.4412604705356,1107.770221128185,-453.3721866457608,575.5572614236155,-284.2172840532295,325.87125601545875,149.60798291133656
21.1975,-0.5627471877859322,0.4603721133330426,-0.1848515720830702,0.0528814360161579,0.0174561126588241,-0.0524578728998284,-0.0131883047128005,0.0129389828194055,0.0807120795607878,0.996561760721568,-0.0405415861147851,-0.0225817223508685,9.76052915547618,0.2463215239654676,0.2398162380836089,0.0031119106737175,3.578737479705012,5.1495440030902175,2.046475617310537,1136.0702105779162,1130.8381472120127,1126.6537186710502,1108.6031821660922,-672.2483901072765,523.6069408753469,-360.0647831847516,366.5626011771384,149.60899928023255
21.2,-0.7259353485102388,0.1715157161991226,-0.0837637667266832,0.0515522866262605,0.0154254136537587,-0.0531004476334058,-0.0131380332028543,0.0129495331938237,0.0806556648896342,0.9965670888885894,-0.0426559539514363,-0.0233365365484692,9.762812018912346,0.2469927390583208,0.2405186945902463,0.0029627748446492,3.579254684229901,5.150246060498302,2.0464475786913456,1134.1060867229944,1132.1223205698873,1125.6409365546124,1109.6030341340704,-717.1694936736975,414.5946760956492,-364.3147981663148,367.612999668318,149.6100806677266
21.2025,-0.8587201439290842,0.0100530137425096,0.0058135821666293,0.0500334566619735,0.013257633120537,-0.0529136637013108,-0.0130916600041945,0.0129600436272652,0.0805956907945513,0.9965729575546703,-0.0444692228864655,-0.0242205354289467,9.765279143877008,0.247649934550037,0.2412046761026258,0.0028281298830694,3.5797719164198045,5.150948974724344,2.0464173058709654,1132.4843631095484,1132.9111205924908,1124.832144680219,1110.4412471644334,-590.9410676605308,262.9258119689913,-297.1027556807102,344.1849528153456,149.61086707555492
21.205,-0.9931514472035832,-0.0966937786443005,0.0760095176965988,0.0480633565507292,0.0120446137389107,-0.0521316220347377,-0.0130469760363235,0.0129668605022806,0.080530822546166,0.9965793769680032,-0.0458826512438154,-0.025159659543157,9.767913954995539,0.2482952452849942,0.2418754532792748,0.0027070503856807,3.5802884868576954,5.1516511606947475,2.0463854918597217,1131.1513813846902,1133.436949629733,1124.155422776208,1111.323958898148,-474.45173512578896,187.52779777200067,-251.758175735954,410.33484198327614,149.61153572733593
21.2075,-1.1556697702705916,-0.2297770624541126,0.1190857019404072,0.0452817128490955,0.0127317269080311,-0.0510099103547298,-0.0130024412435591,0.0129711835361694,0.0804617429965679,0.9965861751635322,-0.0468999749733201,-0.0260870691665849,9.770698090004975,0.2489324509125066,0.242532448999587,0.0026002214053651,3.5808044066717484,5.152352435756309,2.046352573663754,1130.11210443392,1133.8487595813504,1123.5733538015395,1112.4929213743494,-270.34918027044034,129.73035664261113,-168.46983104199975,452.38575954954183,149.61220453670953
21.21,-1.288157772935009,-0.3954472213229431,0.1166506344964825,0.0427009222067693,0.0146199599676725,-0.0501693165837229,-0.0129581889675891,0.0129746783699417,0.0803876703987411,0.9965933153331462,-0.0475453067500488,-0.0269704531483356,9.77361255632297,0.2495649112078072,0.243178667544667,0.0025083219629332,3.581319526771044,5.153053049624081,2.0463199296495596,1129.7996354833383,1134.0856014129458,1123.3130736209982,1113.5858876958953,-8.34322756849843,88.3839431430263,-54.09052745419064,460.94527919393903,149.61265305837017
21.2125,-1.4083971174440864,-0.6483129036497456,0.0801192250057836,0.0395171467794696,0.0161168506755841,-0.0495744288231529,-0.0129155394210885,0.0129767989258569,0.0803078264314533,0.996600809600129,-0.0478100093329879,-0.0278088299621216,9.776638916518454,0.2501958955341045,0.2438176528848156,0.0024305312087169,3.5818348886317715,5.153753959652228,2.0462891405529535,1130.0703882960775,1134.290679297066,1123.3029011642684,1114.7976477703203,193.80907171702563,83.34263515009135,37.724031662226714,497.50112069601414,149.6129921339129
21.215,-1.5091907382247445,-0.9626400051770186,0.0254769714175388,0.035783655316311,0.0160279237506218,-0.0492661475805793,-0.0128774128910116,0.0129782334594317,0.0802208803285376,0.9966087039102852,-0.047720419339403,-0.028636224543426,9.779760521240105,0.2508280153761834,0.2444534885781216,0.0023665080767904,3.582351469431127,5.154455993217574,2.0462605789021953,1130.7686808419232,1134.5023145886962,1123.501693779309,1116.0733932993749,356.2697501043003,85.69252266499348,129.33878675092117,511.3175287493158,149.61324335207627
21.2175,-1.5768923000695687,-1.303761217356358,-0.0347026157349998,0.0320315277291739,0.0134712093236947,-0.0494492890984837,-0.012848687299493,0.0129790139009323,0.0801252237645315,0.9966170671564368,-0.0473008914809773,-0.0295324255180884,9.78296328620314,0.2514632012010752,0.2450905119108802,0.0023160521171177,3.58286979067421,5.1551589699960285,2.0462343721060483,1131.8517370465986,1134.7191419103908,1123.9495950980229,1117.3542354140664,518.2547952196395,85.10147292533347,253.7661036130025,542.06962711375,149.61339245810635
21.22,-1.6104379015676489,-1.6659560999302565,-0.0927524608935822,0.0279127593455065,0.0078783226917289,-0.0503756823130981,-0.0128323865494669,0.0129792249859497,0.0800236643297444,0.9966256459108735,-0.046579401475258,-0.0305491986932815,9.78623593035423,0.2521050083095429,0.2457307936204819,0.002277815292652,3.5833902384949727,5.1558620765959775,2.046211371147772,1133.3599548180207,1134.9278219533228,1124.770524297374,1118.783741434943,546.1637812155182,53.577513676702175,347.3057243257481,489.6146838023989,149.61345869451787
21.2225,-1.5894951662103491,-1.8781602451747132,-0.1199069798357878,0.024478048810427,0.0019278947477142,-0.0514446470229245,-0.0128242117593837,0.0129791529148602,0.0799206518722031,0.9966341497286028,-0.045581485480228,-0.0316021532723295,9.789569689321368,0.2527573294587877,0.2463752872944874,0.002246897947554,3.5839125470683735,5.15656410706768,2.0461910010121698,1134.5825559526756,1134.9870294787743,1125.6861237196513,1119.8023088330779,430.7083417386891,-19.92386261566825,412.0825870730352,354.97055488449433,149.61342418681147
21.225,-1.5006112614124447,-1.9615258080598983,-0.1258248505244287,0.0204598799415449,-0.0043619891737115,-0.0521250848867341,-0.0128197266042121,0.0129773371345842,0.079819868930673,0.9966423764677989,-0.0443028083120657,-0.0326123350818448,9.79295805733306,0.2534231594528431,0.2470247136694358,0.0022181727729334,3.584435723831972,5.157264940553947,2.0461724767643665,1135.5134965267155,1134.8282026402444,1126.8309372327403,1120.5585942093664,294.4659925645414,-140.030787397273,551.5288585573404,259.3818446384437,149.61330193141805
21.2275,-1.2953623744426794,-1.90729525336604,-0.1217308854218663,0.0149511600979946,-0.0113450269195399,-0.0521050993439287,-0.0128134558645258,0.0129706193955586,0.0797240520988551,0.9966502362404728,-0.0427071957047914,-0.0334873165906011,9.796395778204964,0.2541044094955771,0.2476792410613204,0.0021861591513445,3.5849593435291847,5.157966108617716,2.046154048187725,1136.054885915498,1134.286875541788,1128.4437680124374,1121.0992180562698,85.34884583693263,-265.9303489019823,624.8179823316028,132.7926622654823,149.61306043812402
21.23,-1.0388030155762769,-1.7500471614902449,-0.1191475119020194,0.0105876234523472,-0.0160319070951138,-0.0517110264539477,-0.0128010950167336,0.0129559167272012,0.0796363715756788,0.9966575881551692,-0.0407627763549368,-0.0341605613664851,9.7998777412052,0.2548024144619758,0.24833747297474,0.0021471756084598,3.5854843257059366,5.158669052480599,2.04613437325874,1135.9402407559,1133.4985508957348,1129.9550271443975,1121.2225575206935,-155.2197560864103,-388.6249679857259,627.7981829922254,-17.044076018546924,149.61278527557
21.2325,-0.7128006689941566,-1.5085960615316147,-0.1211113947057361,0.0078156006160908,-0.019389249820189,-0.0514387395443503,-0.0127808324751826,0.0129321762354726,0.0795593617600577,0.9966642822212376,-0.0384810745259863,-0.0346124185899534,9.80339776971627,0.2555173032741205,0.2489968818307964,0.0021009234430865,3.5860118792079847,5.159375208619668,2.046113250158987,1135.2787871350656,1132.3437507018584,1131.5827589274,1121.013997676177,-373.30599200648214,-588.5194189422498,725.4869335348836,-157.77923297885943,149.61243929064116
21.235,-0.2871166293007538,-1.1566480496435334,-0.1200577298244691,0.0070359696035684,-0.022381473968442,-0.0515897350498297,-0.0127529616268682,0.012896626994087,0.0794953524659891,0.9966701767774968,-0.0358417952298852,-0.0348671932043567,9.806947211823854,0.2562482929085673,0.2496537242923015,0.0020483673049425,3.586543356035268,5.160086677475504,2.0460898497854676,1134.073710795868,1130.555953801024,1133.5824618120714,1120.4336613557996,-463.8561206278623,-714.603600390234,726.2513155194109,-255.22148834980348,149.61194851063254
21.2375,0.0618681830374169,-0.8286489731863864,-0.1049161808274167,0.0081540020383623,-0.0244385484604409,-0.0521900220160091,-0.0127203407021233,0.0128553288669367,0.0794424949536617,0.9966753093297624,-0.0329998688919706,-0.0349834042851815,9.810514513662786,0.2569920241413198,0.2503053630189089,0.0019967039109774,3.5870787780365565,5.160804641576657,2.0460629113744795,1132.9595065319268,1128.770732699908,1135.2140155049965,1119.7378902344283,-412.0577128534644,-759.3982233864361,627.3949378547942,-305.6063267932842,149.61148069915953
21.24,0.3803095148642735,-0.4762572590139409,-0.0627864774873746,0.009916196476904,-0.026258710784393,-0.0531530429969115,-0.0126864852585722,0.0128135261365477,0.0793969106949199,0.996679879619018,-0.0300928974304896,-0.0350315763680689,9.814084215553697,0.2577440396175245,0.2509498082101916,0.0019534403667165,3.58761736456246,5.1615292265311785,2.046032249005931,1132.0134222315996,1126.75896268409,1136.7194365013468,1118.9056297218324,-318.21507795108994,-824.2903526954526,569.0612344502592,-344.72143941445705,149.61095631517253
21.2425,0.671679292699078,-0.1115104997000196,0.0042962719191551,0.0114764919023484,-0.0276540640198917,-0.0540990521382688,-0.0126550795367122,0.0127748203800019,0.0793555411796952,0.996684041217998,-0.0272232710088396,-0.0350868626019763,9.817636723328723,0.2585006186579115,0.2515849340726528,0.0019252434370344,3.5881582687150617,5.162259991086453,2.045998626267734,1131.3684311421716,1124.6492809364315,1138.0593216772472,1118.0142830373563,-166.60630820191403,-838.5696365503767,485.54392849565033,-361.5500906835032,149.61038800896537
21.245,0.9398473663864608,0.2515516190345757,0.0923852050420954,0.0129231783807902,-0.0280061324789549,-0.0544168328091186,-0.0126287000320566,0.0127474731255375,0.0793128143676108,0.996688101287067,-0.0245806135282736,-0.0351936932920356,9.821148987159706,0.2592574081400498,0.2522108296039874,0.0019197759832747,3.5887005736344375,5.162995485465092,2.0459635486041163,1131.1803906905902,1122.5661145013387,1139.1471561438248,1117.0978792684152,19.74388970407228,-868.4316939330438,414.71380998858933,-400.5479901146715,149.6097699208952
21.2475,1.2443936409488023,0.6522012538480272,0.1984911394493103,0.0152785542988109,-0.0267657454751632,-0.0537006628287065,-0.0126109632659482,0.0127383751206368,0.0792657220225074,0.9966921670063144,-0.0223263618640034,-0.0354199711737645,9.824594929902233,0.2600120746856274,0.2528277556975905,0.0019437057707672,3.589243686334548,5.163733631331564,2.0459286488532253,1131.467150590692,1120.3071224667672,1140.1328907271895,1116.0115430867831,172.446732088463,-758.9943321013524,309.16385808370035,-390.57439324668434,149.6089742227381
21.25,1.4827755421648483,0.9284618817139656,0.2685468795254351,0.0179312800525941,-0.0242628896599223,-0.0524701616643261,-0.0126012141420522,0.012745701622025,0.079215902337908,0.9966961386479452,-0.0204416658951909,-0.0357666299191191,9.827945578296033,0.2607653558900812,0.2534353633553552,0.0019961856781688,3.5897875724732646,5.164471708554904,2.045895386626819,1132.0426243510324,1118.771142840833,1140.6929754342427,1115.145007302182,268.72185303768566,-516.1656637433313,172.8647774187291,-331.589333330488,149.60826834938703
21.2525,1.6937504542110051,1.116038845938326,0.3051210763960148,0.0212581635238503,-0.0205554211057464,-0.0511156346874487,-0.0125911637022964,0.0127641267879015,0.0791658836912895,0.9966999863633964,-0.0188257928196628,-0.0360936787791413,9.831170358892546,0.261519071258417,0.2540345282722598,0.0020695380154176,3.5903326744960613,5.165207357077974,2.0458635672154144,1132.810759855881,1117.7262941480492,1140.9972146142838,1114.35359642013,345.72014517632454,-333.26941143402365,72.57724906372994,-322.9188138630167,149.60752022112632
21.255,1.8909242488168996,1.2249884937576259,0.3076722448645446,0.0263875445163044,-0.0155589048152249,-0.0496817978591081,-0.0125703597175587,0.0127849391606606,0.0791162764679988,0.996703905462994,-0.0173082716937541,-0.0362272809431744,9.834238463048992,0.2622744840215129,0.2546284152793564,0.0021524451446708,3.5908792635661926,5.165940041101422,2.0458337222104617,1133.7712250769137,1117.1047957836631,1141.0558616795615,1113.5304132328674,337.1587926488007,-126.50102067171036,-39.08782963054232,-275.78831229508097,149.6065755435635
