t,ang_acc_x,ang_acc_y,ang_acc_z,a_vel_x,a_vel_y,a_vel_z,quat_x,quat_y,quat_z,quat_w,acc_x,acc_y,acc_z,l_vel_x,l_vel_y,l_vel_z,pos_x,pos_y,pos_z,mot_1,mot_2,mot_3,mot_4,dmot_1,dmot_2,dmot_3,dmot_4,vbat
1.0825,-0.9270370290913712,-0.2994318015791874,0.1088316048787337,-0.0183256291791198,0.0143710975820252,0.0194411844851861,0.0120746214468348,-0.0014459623624813,-0.0308332824413425,0.9994504065674412,-0.0510216899962107,0.1035259065350775,10.184943790403052,0.0135387641745202,0.0055272278328073,0.1687957932892884,0.1276910528534545,-2.4432301726374135,1.0913425596095596,1146.4957592651783,1129.5095909756271,1130.8466916641223,1154.260019615322,318.9155835237284,43.901033162684165,-169.5303813337923,735.5430466017126,156.34222450648218
1.085,-0.6915813394781054,-0.3744502350060747,-0.0198187896235363,-0.0194351239481752,0.0123910415641884,0.020285259584972,0.0120508758081799,-0.0014611929976546,-0.0308361933584751,0.9994505903056712,-0.0573733682502004,0.1067797878054029,10.167330598586757,0.0131343946593628,0.0052110349940369,0.1697359622711992,0.1277194142560886,-2.44322838120206,1.0917697937475963,1147.247568800915,1129.6572373077008,1130.5847676301587,1155.984509266054,279.72550349699566,75.9819710106495,-78.67487812718353,636.6570683719456,156.34718635481408
1.0875,-0.5219593356169283,-0.3994610730749859,-0.1403446264364577,-0.0195667928426121,0.0097302322424026,0.0206547323536779,0.0120265046290258,-0.0014872392692383,-0.0308500672761967,0.999450421675106,-0.0627886753416716,0.1096688314476229,10.149800025587902,0.0127195622158644,0.0049090448922898,0.1706279806529079,0.1277440427531829,-2.443226304804855,1.0922025186411544,1147.894386782663,1129.8895008306804,1130.4533172734866,1157.443304957182,221.17194300480548,102.36189420229256,-47.36816214044556,489.0193467395307,156.35204704817832
1.09,-0.4280196909980326,-0.3753972442161375,-0.2311667623562034,-0.0198233936445924,0.0074714985462166,0.0199825324855235,0.0120026082276349,-0.0015289322101552,-0.0308681880524249,0.99945008919196,-0.0670991456205449,0.1121810165075013,10.132314283703003,0.0122981144010259,0.0046192808486551,0.1714707887535449,0.1277665776487142,-2.4432249448482484,1.0926389424526868,1148.3534285159387,1130.1690467787123,1130.3479268194565,1158.4296059997516,117.58365107093844,112.8272032732208,-53.85399178008016,233.38111358603368,156.356822121923
1.0925,-0.4344070040939291,-0.3060638643435415,-0.2560907095764021,-0.0204295970679096,0.0063915357391533,0.0181069283612733,0.011977216238706,-0.0015840004803443,-0.030887890674668,0.999449701344948,-0.0702851370996893,0.1142413450739283,10.114836101059902,0.0118703634254068,0.0043389557832421,0.1722646957628367,0.1277887299200939,-2.443224924779899,1.093076363714849,1148.482305038018,1130.4536368470465,1130.1840473145862,1158.610210525112,-41.915941871185154,110.35607481640236,-104.11098049221658,-140.1220126555502,156.3614920426711
1.095,-0.557715371826047,-0.2028168347533776,-0.187353420299077,-0.0214981717968424,0.0064113651185362,0.0151711855100966,0.0119489370282027,-0.00164481522829,-0.0309059413916126,0.9994493854965596,-0.0724416784693114,0.1157889092845903,10.097327369291223,0.0114336197350608,0.0040655639524201,0.1730113150383612,0.127812652624242,-2.443226405599813,1.0935128772163842,1148.143848806583,1130.7208271527943,1129.8273719169952,1157.728995936474,-217.88558955650396,75.35778526135051,-166.68270248569925,-506.24660004342496,156.36697213869297
1.0975,-0.7517101790804614,-0.1210686167158602,-0.0541730252022391,-0.0227769878619502,0.0072175255994855,0.012955641112409,0.0119173651035569,-0.0017039809296297,-0.0309167170326394,0.9994493320682256,-0.0736652419314999,0.1167894653307294,10.079749935779095,0.0109844018598618,0.0037969610917446,0.1737131492727354,0.1278405427417324,-2.4432285530715294,1.0939483376868444,1147.3928770902355,1130.8304257733532,1129.3506338021575,1156.0789775248948,-403.0631190193524,13.370334821319975,-233.8865979759194,-821.6837402699904,156.3714342172187
1.1,-1.0299204647205715,-0.0532993450499058,0.1181402948347996,-0.0244909080265048,0.0079906208003538,0.0122891416779975,0.0118832241670263,-0.0017536703132865,-0.0309160271940436,0.9994496756671172,-0.0740677420679554,0.1172367747116863,10.062065194291412,0.0105188094982283,0.0035314649022762,0.1743731784737188,0.1278729029583483,-2.443231405579552,1.0943821157771763,1146.1285332114862,1130.787678826901,1128.6579389271155,1153.6205772351238,-669.4010898972765,-53.84203637145095,-355.8582070830116,-1207.3481446649287,156.3757860465942
1.1025,-1.441651792680247,0.0236913898642182,0.296255145829131,-0.0271574990903419,0.0078789579780788,0.0140532358775172,0.011847203768324,-0.0017895653714686,-0.0309048708717584,0.9994503850222204,-0.0736976601564105,0.1171304328093205,10.044235707812314,0.0100347125327458,0.0032675839881531,0.1749943017974673,0.1279081558120357,-2.443234761423029,1.0948144850573784,1144.045871640749,1130.561215591496,1127.5713427667426,1150.04223680157,-847.9461808137056,-107.69476100995465,-438.6895256058872,-1361.7004382556224,156.38087935872187
1.105,-1.8272744263832597,0.099312109324725,0.3685230628959964,-0.0302240193414451,0.0071313779022725,0.0169882394608075,0.0118103337061192,-0.0018105192835256,-0.0308859616655904,0.999451367090571,-0.072549257257824,0.1164843459291449,10.026225672776196,0.0095324023728613,0.003004085918441,0.175578872357236,0.1279437169646907,-2.443238922828027,1.0952459297819144,1141.8888023074176,1130.2492050218511,1126.4644912990864,1146.8120750438459,-934.3574652545357,-143.5569696267097,-478.95575760418177,-1276.7558536512568,156.3850157690102
1.1075,-2.2176756597954483,0.1967334059860965,0.3258890079543638,-0.0347051371849697,0.0065242031139206,0.0199178229227693,0.0117707525239359,-0.0018193929509745,-0.0308600844544455,0.9994526148755044,-0.0705463104039002,0.1152637594172862,10.008002944716932,0.0090154015026973,0.0027388038968828,0.1761282907891966,0.1279781385782291,-2.443243739069475,1.095676741024294,1139.3740843144765,1129.8434307433624,1125.1765639787216,1143.658457533314,-1166.0851845710752,-195.0406663786408,-599.0557779694743,-1304.0412865135904,156.38903983949464
1.11,-2.633754636236806,0.3306890343533216,0.1452308398884543,-0.0421897342607844,0.0063331059333298,0.0223874661892892,0.0117243722973145,-0.0018179104786562,-0.0308328396570541,0.9994539997303484,-0.0676480130844831,0.113393792570133,9.98953876844649,0.0084887867890361,0.0024688976720102,0.1766427678575366,0.1280085177005149,-2.443249620743836,1.0961083119685686,1136.0583763845623,1129.274001689958,1123.4692124092387,1140.2918686112776,-1244.757610252253,-221.66031420164873,-644.3039384088785,-1131.5517815559551,156.39373921281248
1.1125,-2.894893180324948,0.4380266099159804,-0.0854070065663517,-0.0500067597342473,0.006944671097875,0.0232278082462302,0.0116698705723048,-0.0018101825746815,-0.0308104140652912,0.9994553376774162,-0.0637835295476424,0.1108629851594023,9.97080903295348,0.0079601839521482,0.0021925029494631,0.1771210576712353,0.1280324709963851,-2.443255978699951,1.0965423730577353,1133.150296263215,1128.735129172354,1121.955044286677,1138.000698625534,-1164.1291407927176,-230.54101737039252,-612.5022813054005,-792.2258571876852,156.397548092869
1.115,-3.0314044359764383,0.5096842555064947,-0.3473877662903049,-0.0587272829068959,0.0086878474605529,0.0226267518537868,0.0116073033338109,-0.0017971723583386,-0.0307951964274736,0.9994565516720296,-0.0589632341662777,0.1076931006358317,9.951794673232877,0.0074372649252236,0.0019080678150147,0.1775606153078793,0.1280501668443738,-2.44326305219002,1.096979504756871,1130.2377306805988,1128.121296603106,1120.406701002712,1136.3307393253394,-1142.128145575795,-260.53776369772646,-614.7546623000511,-568.2822268373577,156.40124687578535
1.1175,-3.0555610841076497,0.5296884178425822,-0.5917944642952858,-0.0675166863556585,0.011002933320409,0.0208689450222405,0.0115383921804147,-0.0017798853559458,-0.0307863179227071,0.9994576456600692,-0.0532159103458131,0.1039461848692837,9.932483945755644,0.0069281197064523,0.0016144736792646,0.1779577772789961,0.1280623969658781,-2.4432709769205747,1.0974202369588908,1127.4396555353362,1127.4324403538656,1118.8812709751771,1135.1592874913474,-1064.6782252332496,-297.58779249909134,-590.6479247203924,-368.08177474516975,156.404855610526
1.12,-2.9571219675026486,0.4732389445716164,-0.7679518680794511,-0.075579347239022,0.0130731912366107,0.0179125577495045,0.0114608506429585,-0.001763877944501,-0.0307864951238979,0.9994585503856572,-0.0464960164131121,0.0996124006875555,9.912875768904845,0.0064422381134486,0.0013091063772504,0.1783080663402537,0.1280704414634095,-2.4432800806298194,1.0978643932750656,1124.9143395544324,1126.6333576406105,1117.45346137911,1134.4903304516135,-1021.9063612639038,-381.10805902096246,-585.2583043435835,-216.30033192236124,156.40835763944858
1.1225,-2.7364084617113344,0.317714964880681,-0.8600382488164273,-0.0836663391131628,0.014775816474824,0.0134981403901113,0.0113698286037368,-0.0017538299059703,-0.030797016217555,0.9994592718482777,-0.0387923127961086,0.0946372109943392,9.892978300319434,0.0059880387152554,0.0009881505874691,0.1786066574518953,0.1280761925272676,-2.443289821173683,1.0983119258408152,1122.3301237290163,1125.5269000587607,1115.9549794534591,1134.0777858317356,-864.1687176946746,-430.6752910179604,-497.49046935950145,-118.52361106012064,156.41243941901968
1.125,-2.5011891934837807,0.1247310136657199,-0.8294428030314056,-0.0889732719966429,0.0156650239718699,0.0097800560575789,0.0112631211396512,-0.0017489070974595,-0.0308103556738495,0.9994600640190864,-0.0302214800076386,0.0890230326344431,9.872806845055598,0.0055708084402051,0.0006482937516674,0.1788488159068881,0.1280805475583541,-2.443299232666168,1.0987632499832094,1120.5934959659592,1124.4799811855207,1114.9660090323125,1133.8977123963127,-611.455220338816,-441.4072572343324,-323.09437212989684,-76.02541181863833,156.41574234761762
1.1275,-2.2443898073274076,-0.1159075665160857,-0.706735556086094,-0.0934047472023459,0.0157934539024211,0.007066932847576,0.0111412560823306,-0.001746786932668,-0.0308186354102351,0.9994611640389393,-0.0209457737511134,0.0828296691037582,9.85238450763293,0.0051940027957549,0.0002870199978747,0.1790302802014207,0.1280842914867583,-2.443307286335737,1.0992183062241403,1119.2728476273223,1123.319863772589,1114.3395075928097,1133.6976587726424,-504.9306812414554,-530.6022435376112,-175.93986945134523,-128.46372749613397,156.41894529705618
1.13,-1.9247911094738868,-0.4338403811403772,-0.5024985210326681,-0.098633749062412,0.0148606338368732,0.0055178677099323,0.0110092222658507,-0.0017449951792386,-0.030818659634235,0.9994626141765804,-0.0111448109817036,0.0762065192440367,9.831741275856858,0.0048597299869295,-9.64561523773173e-05,0.179147726036332,0.128089028686517,-2.4433131211357386,1.0996761383615767,1118.0688425597518,1121.8269699678326,1114.0863096850555,1133.2553937588323,-399.69583271194085,-560.741357010498,-5.27102706246284,-211.80967097843188,156.42267584666433
1.1325,-1.6456446502387287,-0.704197241271498,-0.3259795229154173,-0.1032094870412051,0.0134044675248076,0.005754095287491,0.0108681494201126,-0.0017359684352112,-0.0308093933967988,0.9994644410715968,-0.0011045527658982,0.0692250955986038,9.81091321001136,0.004567234495445,-0.000503860060369,0.1791992320766274,0.128095061547498,-2.4433164629970188,1.1001351928510967,1117.2743684637628,1120.5161569875363,1114.3131524574972,1132.6386104177502,-301.3703086629967,-536.4365175882655,175.49358077276713,-300.9473044119723,156.42569230371595
1.135,-1.3462517042226516,-0.9599241849677908,-0.1798749493284275,-0.1075067645785518,0.01140613450976,0.0071394177680632,0.0107170230924749,-0.0017133817833504,-0.0307931649712209,0.9994665910401376,0.0089097143010769,0.0619158338675737,9.789941233233519,0.004315412091617,-0.000936698791033,0.1791844567031177,0.1281008981221082,-2.443319037926383,1.1005940052456766,1116.5619910164369,1119.144787379891,1114.9637775889196,1131.7506572367724,-286.185254079334,-558.8341796452033,316.69075591913264,-388.9476216747054,156.42861499796692
1.1375,-1.0310175314291992,-1.1891739491667428,-0.0666419801456542,-0.1108019689102845,0.0089111808004084,0.0083837949699061,0.0105541064753602,-0.0016720779541825,-0.030773590052275,0.9994689797522504,0.0186539167425412,0.0542952681505533,9.768868547098489,0.004102947816458,-0.0013954115480479,0.1791046960494054,0.1281056308653947,-2.4433231016783656,1.101051033480749,1115.843442193366,1117.7219860893103,1115.896606237093,1130.6938723093767,-294.15469523304864,-583.4078756552436,414.58495837763576,-436.2327817152517,156.4314614036813
1.14,-0.7064868003046951,-1.3686955603814628,0.024250658109476,-0.1125325452929082,0.0058306645383517,0.0084598110466575,0.0103815232940532,-0.0016127223629786,-0.0307523939173949,0.9994715317299816,0.027995729167886,0.0464571265346389,9.74773834655667,0.0039299329247653,-0.0018776173697058,0.1789627274024973,0.1281089958553786,-2.4433302008474014,1.10150532245034,1115.0912175402716,1116.227748001615,1117.0367023808078,1129.569493328196,-327.30643834842493,-677.7813240158437,506.8381570202629,-466.6538509343701,156.43421747105742
1.1425,-0.3192709151078189,-1.5031959301005122,0.1444491856137434,-0.1135278092009697,0.0014515684374979,0.0074714273113668,0.010207769103503,-0.0015447262212855,-0.0307298007406601,0.9994741353602964,0.0369717260691094,0.038620336214657,9.726591900245856,0.0037987933069023,-0.0023773781914035,0.1787625223629339,0.1281114283962184,-2.4433408325385546,1.1019556294131472,1114.206910001624,1114.3330794692313,1118.4307970221944,1128.3606030547048,-303.08658215177013,-713.6437985497803,481.9874061476288,-390.2943832940392,156.43742228841595
1.145,-0.0028747113764599,-1.5321880085347264,0.2743179970805038,-0.1140830637217928,-0.0026607639408332,0.0063687527956866,0.0100413641332925,-0.0014816834087207,-0.0307052626489483,0.9994766980621776,0.0457038567003899,0.0310003757366534,9.705467407024528,0.0037126288209521,-0.0028878852530962,0.1785088221883627,0.1281135578309528,-2.443355587362592,1.1024006469235803,1113.5757846295128,1112.6595290088662,1119.446639411546,1127.618021411726,-206.4808209584088,-686.4354057289039,339.3337280740597,-220.05072182924337,156.44000889760753
1.1475,0.3038417816705563,-1.462087970888844,0.4371712923404273,-0.1146083122043991,-0.0071535356662306,0.0057670755334472,0.0098890983442966,-0.001436107496031,-0.0306815670553327,0.9994790460488928,0.0543011721427626,0.0237711757069887,9.684399198274685,0.0036733620693118,-0.0034025703600259,0.1782065341838151,0.1281163953454611,-2.443374983295232,1.1028397369530651,1113.174505896832,1110.9009024405868,1120.1274656625646,1127.2603494455586,-105.2011401090088,-779.4838263753537,192.77440311929703,-66.26036455267996,156.4425096484184
1.15,0.645889121180447,-1.2634018951776462,0.6408572596187893,-0.1142179060787255,-0.0124654237432522,0.006689445742758,0.0097539589444274,-0.0014117258629776,-0.0306610036347092,0.9994810715356924,0.062714717823713,0.0170212279490927,9.663418004100329,0.0036790696418359,-0.0039164626834136,0.1778600208966083,0.1281196003576561,-2.443398423885214,1.103274300422031,1113.0497789289675,1108.7621098769891,1120.4105114271424,1127.2867195889623,14.90306268442475,-771.430049362862,7.4362894701606015,72.74355131944334,156.44541271144675
1.1525,0.8858778588251786,-1.0170987330514805,0.7815337662092382,-0.1120341517964609,-0.0160617184889718,0.0091017356336183,0.0096372115679468,-0.0014070909858733,-0.0306460482088361,0.9994826872733094,0.070810265618129,0.0107971106710187,9.642552377518296,0.0037253806429303,-0.0044258797689192,0.1774724126016908,0.1281224611623127,-2.4434247349952516,1.103706320022155,1113.249021210254,1107.0437521937724,1120.1646471099154,1127.6240672021559,128.11712141097175,-648.5666863004237,-187.8313440041024,173.6216740153887,156.44775128840243
1.155,1.047282703317642,-0.7213920968821027,0.8509469489148189,-0.1082671582732288,-0.0181961516813999,0.012648025085933,0.0095353723056846,-0.0014207652349356,-0.0306380226226975,0.999483889191472,0.0784727813490678,0.0050496551982779,9.621830478021554,0.00380737999831,-0.0049298004057535,0.1770451252092574,0.1281249932871527,-2.443452528364347,1.1041373853048764,1113.6903645360223,1105.519276445487,1119.471354707122,1128.1548279590395,196.31438467068128,-559.3907047708063,-330.46587241370406,220.25699259507303,156.4500070266039
1.1575,1.1303734588147776,-0.4167401841252225,0.8445181660101052,-0.1041729162260367,-0.0190766318326867,0.0162197165793316,0.0094380670394929,-0.0014525998920021,-0.0306367939589748,0.999484782399756,0.0856338244353458,-0.0004042165875749,9.601281595210258,0.0039200435499064,-0.00543075034527,0.1765776863696349,0.1281280410948801,-2.443480716107562,1.1045693450747205,1114.2305931336075,1104.2467986699185,1118.5123177478467,1128.7253521651312,210.3675877219802,-432.87960690432567,-411.4883710403407,208.97338886893968,156.4521945619107
1.16,1.125193255880925,-0.1366767100980814,0.7499985683252612,-0.1004708042907254,-0.0186459786582396,0.0190274027541053,0.0093349451649323,-0.0014986648903217,-0.0306433796339777,0.9994854422612856,0.092171829029501,-0.0057492133569981,9.580937892698222,0.0040564106618588,-0.0059323408715235,0.1760679899046558,0.1281324430577141,-2.44350893593566,1.1050039017427693,1114.7422024746324,1103.3548784109655,1117.4139128519203,1129.199694903384,184.39179950796216,-299.18269695798915,-464.724203530239,155.0735773248071,156.45430024668363
1.1625,1.0487703829783075,0.1416345436432688,0.5622620345653768,-0.0968921858576768,-0.0170564009406995,0.0211046667803474,0.0092210263356604,-0.0015551401204969,-0.0306553331302793,0.9994859997319714,0.097984051823696,-0.011065782930625,9.56083620190054,0.0042089588890636,-0.006437230766694,0.1755127822509493,0.128139466963937,-2.4435374497754494,1.1054417534856535,1115.152552131147,1102.7508851851285,1116.1886967301955,1129.5007200517553,100.45125389928894,-151.7876331345598,-399.9886983755367,49.351375707918805,156.45673255017408
1.165,0.9595922924545408,0.3209540863728031,0.3714548289515858,-0.0948145384802308,-0.0153308193639616,0.0218001944159399,0.0090956059411864,-0.0016134740949811,-0.0306688283663138,0.9994865963483688,0.1028954111166751,-0.0163536500323493,9.541019680011969,0.0043682075694137,-0.0069473864955645,0.1749083400928848,0.1281496389643628,-2.443565808005201,1.1058819673560596,1115.244458744129,1102.5959402452927,1115.4139693600423,1129.4464517819235,-19.979818158526967,-9.699017903631308,-228.2730488171231,-94.70916135028547,156.4586803242996
1.1675,0.8835353947684768,0.46141006046418,0.17524001428093,-0.0936273727916589,-0.014042875711807,0.0217639571879072,0.0089599799550348,-0.0016612101827872,-0.0306846591958364,0.9994872210661851,0.1066773415838152,-0.0215741144659522,9.521538502904558,0.0045235457923826,-0.0074646272884132,0.1742510786990599,0.1281626201753193,-2.4435937667719685,1.1063225005661008,1115.0526530403547,1102.7023900956103,1115.04733148611,1129.0271742450038,-138.69410460261247,80.62745412116955,-49.322353655271534,-266.04688323237156,156.46054487811452
1.17,0.8390086717422665,0.6192150823063167,-0.0432046032822958,-0.0925728532163774,-0.0134372176178052,0.021336420099797,0.0088198743543475,-0.0016901090521202,-0.0307067269626776,0.9994877204684128,0.1092002109448487,-0.0265987348253718,9.502449240241102,0.0046664415478516,-0.0079894634413201,0.1735379750110964,0.1281772283438742,-2.443621245886586,1.1067622948581195,1114.5509882211159,1102.9990775158988,1115.167357591766,1128.116217365762,-213.91157944235104,120.37198005336624,136.37756443926858,-389.9361919407876,156.46268406289613
1.1725,0.8483399597449037,0.7632944318554701,-0.2025219759848674,-0.0913594042772057,-0.013053351676768,0.0208373687183358,0.0086833021155375,-0.0016943405419931,-0.0307296719982801,0.9994881995165388,0.110395118532324,-0.0312522605004488,9.48381391587486,0.0047898731528703,-0.0085217315320423,0.1727668028557951,0.1281926220816947,-2.4436482933345527,1.107200797021556,1113.9830951431427,1103.3042499958772,1115.7292193083065,1127.0774932852999,-238.9346769115436,117.93477975583936,303.49978122734893,-447.5823139788996,156.46438273724456
1.175,0.8981791827375134,0.9286100787929799,-0.334290884347324,-0.0891724208082975,-0.0119964900253549,0.0202167675680828,0.0085559249833995,-0.0016761297272751,-0.0307461265580664,0.9994888328246812,0.1103622685550161,-0.0353974555506299,9.465697684703143,0.004890558308293,-0.0090618355226043,0.1719361335079912,0.1282084043255691,-2.4436750142249335,1.1076381322132023,1113.356314836558,1103.588751414678,1116.6848564979027,1125.8783057958672,-249.96170548625363,97.86928699477566,424.97325465684287,-480.705166785093,156.46599107674356
1.1775,0.9708185905803518,1.1033181467704383,-0.4416265397466029,-0.0861857767173986,-0.0103028117571479,0.0194271658358524,0.0084442504300321,-0.0016470529814908,-0.0307537564045501,0.9994896184501304,0.1093913643873788,-0.0388737493380938,9.44816692037697,0.0049694861230608,-0.0096093016596425,0.1710454761754802,0.1282239480731608,-2.4437005607490367,1.1080741095704072,1112.7332866157117,1103.793596430851,1117.8540855815907,1124.6739674513744,-244.134574878404,42.39567096324298,484.3687767115729,-451.81687271798233,156.46752162276013
1.18,1.0645170837986022,1.2663767891159952,-0.5163579725297364,-0.0827020852543716,-0.0075949937950043,0.0183262692583858,0.0083574912194616,-0.0016233091793542,-0.0307490352395758,0.999490562658296,0.1078658472178831,-0.0414664909951745,9.431287674035747,0.0050300467810097,-0.0101619686051152,0.1700954721381479,0.1282390965494816,-2.443725758895324,1.1085075509100664,1112.135641962166,1103.800729769494,1119.1067003814608,1123.6192214322775,-263.68520140135234,-76.54470729562314,522.3066574081138,-400.4266175314477,156.46895428214725
1.1825,1.2111674334260947,1.411346036359256,-0.5625256216766171,-0.0789418223079768,-0.0027304080781657,0.0166104389102836,0.0082996736838256,-0.0016157930723151,-0.0307260900520581,0.9994917971053334,0.1060770776977271,-0.0430631810701076,9.415123381613936,0.0050745882630762,-0.0107185184253414,0.1690878782431564,0.1282542513814104,-2.4437514740378736,1.1089381536338663,1111.4148606087049,1103.4108728943727,1120.4656188686313,1122.6718343637172,-277.1830718906976,-235.6869286249039,440.98415169350005,-286.8218573589662,156.47055482361571
1.185,1.3796639331396783,1.4678755445736071,-0.5610184617476313,-0.0766368791681573,0.0021134966724332,0.0150297866753744,0.0082660402460552,-0.0016257044187157,-0.0306860627973061,0.999493323333546,0.1041445676213227,-0.043723973321548,9.399732035070311,0.0051031687117339,-0.0112794155857073,0.1680254696963993,0.128268139863183,-2.4437788729541574,1.1093658309247,1110.7497266027124,1102.6222951263696,1121.3116211399283,1122.1851121454827,-298.8696352691086,-435.2084139953242,246.33171580599608,-141.43701444909613,156.47178606994524
1.1875,1.6145880983348933,1.4505628000283644,-0.5165731186031401,-0.0747197091527772,0.0066957493738231,0.0137237928009369,0.008243772088193,-0.0016504144985767,-0.0306386355224979,0.9994949502180188,0.1021249659086083,-0.043665260425353,9.385163142458094,0.0051155500584504,-0.0118464726637579,0.1669119001069975,0.1282795493259117,-2.443809192357027,1.1097901705196604,1109.9205124323591,1101.2348308243963,1121.6972774476612,1121.9646492914717,-422.47681585819,-753.1424237957413,39.71462177869483,-66.56354865636018,156.47290707648878
1.19,1.9688839937285036,1.3625879828028615,-0.4145298417245748,-0.0713970109585728,0.0114207802846752,0.0123721043497032,0.0082209510303054,-0.0016880283582554,-0.0305906304519107,0.9994965667358696,0.1000875852377739,-0.0430904367835146,9.371456028327946,0.0051121240768359,-0.0124200129754157,0.1657517622990326,0.1282881442742171,-2.443843373863964,1.1102105267727873,1108.6373425234217,1098.856583007391,1121.5101942488216,1121.8522944022009,-524.7156199565202,-973.2253532552253,-182.2071067742812,-46.447902157432345,156.4741211263581
1.1925,2.298629221519626,1.2583347009325658,-0.2896251372094911,-0.0670008491684768,0.0144739067315111,0.0110173998303799,0.0081883915094444,-0.0017371291129389,-0.0305433317230126,0.999498209869704,0.098105541642179,-0.0421576071452095,9.358638223635012,0.0050933616774412,-0.0129986375154148,0.1645505189460476,0.1282951615597519,-2.443882384628819,1.1106268191340802,1107.2969343325767,1096.36870405812,1120.7862419137898,1121.7324097806843,-586.1813262066199,-1055.171091119085,-399.542062498076,-90.30566400915423,156.4750212930929
1.195,2.615192368388044,1.15581963036094,-0.1283283725768842,-0.0606242125667753,0.0165672431343485,0.0095835959547571,0.0081436805653487,-0.0017918649095864,-0.0304943814111346,0.9994999789618368,0.0961601114567503,-0.0409083096829096,9.346724668926033,0.0050579221373764,-0.013578433690521,0.1633145101139518,0.1283022244120926,-2.443926117252141,1.1110384424201991,1105.7064358923883,1093.5807275517955,1119.5124839363311,1121.400766082155,-663.5498754793075,-1119.0720441441283,-585.8996912989039,-189.31654583553103,156.475803549743
1.1975,2.882149173779629,1.074981588192634,0.0505965836464786,-0.0527395722687888,0.0182934514210112,0.0088498100837464,0.0080870169280951,-0.0018448392383563,-0.0304440763129801,0.9995018747042704,0.094197288799952,-0.0393447518517086,9.335716257996628,0.005003808445409,-0.014154831610712,0.162050630426319,0.1283110564496703,-2.443973857731799,1.1114444521763125,1103.9791849551802,1090.7733438373996,1117.8567434572951,1120.7858270515069,-700.0730129675197,-1069.864082189747,-730.2382978483522,-327.6845438088073,156.4764868182695
1.2,3.056304415069412,1.031667421099404,0.2240591204174426,-0.0440869196189123,0.0200598098757082,0.0096752685350288,0.0080214095179369,-0.0018867383079953,-0.0303957332285132,0.9995037879443234,0.0921191606515535,-0.03742672963241,9.325599634546,0.0049284873847136,-0.0147230300649474,0.1607660307235482,0.1283224682320505,-2.4440247110078555,1.1118435651407412,1102.206070827551,1088.2314071408468,1115.8612924470897,1119.762343363111,-759.4727222051284,-997.3655401036691,-924.2209760718893,-544.7591308857101,156.47704967701813
1.2025,3.1437687221701487,1.021395405030067,0.3914295076034027,-0.0346345951878586,0.0225152788119243,0.012115460184662,0.0079509165963174,-0.0019084940037693,-0.0303518579176912,0.9995056273296904,0.0898227089606736,-0.0351031704755496,9.316347431755752,0.0048298875450259,-0.0152789338955609,0.1594675970161571,0.1283364449540271,-2.4440770043711466,1.1122362239826415,1100.1818213441543,1085.7865161368811,1113.2356385769356,1118.0620313970783,-706.3914190177294,-771.7139816987404,-981.1376530522695,-691.407767679068,156.47758513770012
1.205,3.1189735309939146,1.0382165928240124,0.4845030959946325,-0.0277104815879824,0.0249629423430124,0.0143671750674151,0.0078819875339793,-0.0019011637579926,-0.0303110027636415,0.9995074032107744,0.0871944383596111,-0.0322865793559916,9.307919573070029,0.0047066574963224,-0.0158188942320869,0.1581614954896493,0.1283515503496264,-2.4441286239903905,1.1126240778380412,1098.6741137324623,1084.372837232353,1110.9556041818282,1116.3053045247157,-552.6258651825292,-435.8841267406753,-914.7749384869453,-751.0846889056371,156.47791459626836
1.2075,2.996034749224091,1.0667866938590387,0.5359205835702924,-0.020766701444886,0.0277031496554021,0.0159345044023981,0.0078177002207492,-0.0018573198570553,-0.0302729310692683,0.9995091131409378,0.0841390861816416,-0.028958592033215,9.300264657775056,0.0045591190438891,-0.01634133882644,0.1568526145259217,0.1283658574458797,-2.444178158989423,1.113008358703122,1097.418692018242,1083.6070955031776,1108.6617638845012,1114.30660795255,-491.5969643579606,-219.96600547845915,-1004.1579102800584,-901.6688338634333,156.47812324464053
1.21,2.729358671422027,1.0999926902590071,0.5733304245973785,-0.0119482818619057,0.0310545335199389,0.0168839557627495,0.0077633349088926,-0.0017804818672296,-0.0302391170178118,0.9995106612743818,0.0807503490635597,-0.0250599973735881,9.293322549342061,0.0043921998453451,-0.016844521257436,0.1555444967696116,0.1283775412788114,-2.444225401425673,1.1133894724145175,1096.2161289106723,1083.2730072049608,1105.934814630428,1111.7969603553984,-395.96344510167904,-63.65455606737522,-995.1890051463806,-911.857464344327,156.47823505516186
1.2125,2.4046409175483,1.1191243886841076,0.600212167773047,-0.0046018197377923,0.0338237761279462,0.0172702772893339,0.0077250030133684,-0.0016769023602553,-0.030210110064525,0.9995119692941162,0.0771570222223951,-0.0205202394596434,9.287027388078158,0.0042124674425678,-0.0173265884113856,0.1542393497302229,0.1283863537578163,-2.4442709436581764,1.113767630580505,1095.4388747927335,1083.288822722841,1103.6858188587692,1109.7473206308284,-275.6806843390159,17.926719883916615,-897.7812750012865,-781.8756457502151,156.47821399426587
1.215,1.9836562284380928,1.123011596508237,0.6284773787801878,0.0017506446977584,0.0364368093692381,0.0180446405018536,0.0077032345981366,-0.0015495530080673,-0.0301848682755209,0.999513058681591,0.0734145448969572,-0.0153791397376097,9.281310331300137,0.0040259177735213,-0.0177871657438895,0.1529379066396034,0.1283923469146963,-2.4443164374101487,1.114143821456708,1094.8377254889774,1083.3626408043804,1101.4459082554215,1107.8875821266474,-219.41512385315505,9.871600087353936,-896.56522620373,-696.3161335474673,156.4780763228331
1.2175,1.5049852919614584,1.1100007684890691,0.6511469297699825,0.0062685133808643,0.0389781760155476,0.0195124461901653,0.0076945348256124,-0.0014017786702097,-0.0301639765332051,0.9995139365570336,0.0695730382925813,-0.0097551819677289,9.276102595406904,0.003838838050233,-0.0182264790253139,0.1516395603327653,0.1283957310976648,-2.44436367089091,1.1145187044092977,1094.3417991734675,1083.3381807232777,1099.2029927277504,1106.2657399630912,-178.30882172925538,-50.73832535017681,-896.2622660416135,-580.7533710258336,156.4778437490912
1.22,0.9941430396483852,1.0701163252568247,0.653090197038448,0.0083558697889689,0.0417953018039991,0.0214642629005719,0.0076949707816064,-0.0012389893351712,-0.0301505286552711,0.99951453754366,0.0657076651718141,-0.003777511827194,9.27133841123781,0.0036579620812242,-0.0186441766454647,0.1503427157111158,0.1283967211636129,-2.444413305276247,1.1148922122761629,1093.9461813803312,1083.1089491776295,1096.9645969252135,1104.9838152715183,-151.00544482839135,-145.49387077463817,-973.7836800503127,-480.6753062874225,156.4774993198455
1.2225,0.3854081344567517,0.9840576215466424,0.617252401508626,0.0093522303613945,0.04541423046246,0.0238552952821074,0.0077066149692786,-0.0010760037085028,-0.0301428144869995,0.999514875880258,0.0620514390268594,0.0025382448605345,9.266957545851684,0.0034919785635875,-0.0190375532316646,0.1490452829379683,0.1283961783518013,-2.4444657497286872,1.115263500120882,1093.5867719493256,1082.6107113694045,1094.3340743274991,1103.862363431654,-109.66827092010791,-203.6455405601781,-943.3214164709859,-342.2170179524904,156.47696012724575
1.225,-0.0999254068219782,0.8808561872332437,0.5512586189935383,0.0097363945399465,0.0481582934166781,0.0257886159683817,0.0077304558902452,-0.0009201024959196,-0.0301389669865705,0.999514985462219,0.0586881276707223,0.0091496338639618,9.262906836039878,0.0033464156382424,-0.0194040908852887,0.1477447558033058,0.1283943759448885,-2.4445205927664624,1.1156318434611154,1093.3978400257306,1082.0907214748283,1092.2479898428585,1103.2727301817558,-48.82836827105053,-201.3015869823856,-797.086368177297,-167.47507686672702,156.47640795938992
1.2275,-0.5476926404614143,0.7543728492575125,0.4509796050745272,0.0094901842799608,0.0501605869641267,0.0274120573410965,0.0077613093678291,-0.0007738131662982,-0.0301389059155954,0.999514901040712,0.055609925938717,0.0158957477081562,9.259141569374831,0.0032245149230522,-0.0197431658522828,0.1464380967282402,0.1283909754345212,-2.4445780971381783,1.115997398960331,1093.3426301079703,1081.6042034344923,1090.3486424866123,1103.0249880473204,8.049938363001447,-171.94338627832988,-779.9040215663974,-36.34070169032461,156.4757507438651
1.23,-1.018638343170439,0.592377106278021,0.3049079158023558,0.007541685800576,0.0515230609586651,0.028637270056487,0.0077969154495903,-0.0006394314348162,-0.0301370124407774,0.9995148046748,0.0527984600446307,0.0226699163906804,9.255626304894705,0.0031280540914231,-0.020053606201903,0.1451221358554663,0.1283860424176184,-2.44463800468228,1.1163607859714435,1093.4380897175456,1081.2310045434367,1088.3484697350264,1103.0910266733042,59.10989745748464,-81.76194787174782,-684.3588092642822,78.17506140709321,156.47484165295424
1.2325,-1.33305919442249,0.4580738611993566,0.175732378042715,0.004199636140424,0.0519753966156902,0.0290066265272287,0.0078346461336412,-0.0005215053502567,-0.0301247787696662,0.9995149697357412,0.0502765003050166,0.0293616948519441,9.252335205135816,0.0030580086468072,-0.0203349143577315,0.143793564201704,0.1283798912941029,-2.444700458141357,1.1167223007195588,1093.638179595258,1081.1953936951338,1086.9268484402912,1103.415863354356,95.63489897300094,55.533158541037295,-523.6350986840414,174.98989253089854,156.47398385028544
1.235,-1.5418042509566947,0.3244744377279069,0.0545603386484593,-0.0005073926576978,0.0522924565462744,0.0288247463913136,0.0078710060778465,-0.0004197917479155,-0.0300981063745214,0.9995155482860532,0.047982063682712,0.0358453142402162,9.2492515083928,0.003012674855837,-0.0205876957946931,0.1424491441381706,0.1283733872556151,-2.444764742068071,1.1170820663941599,1093.9162642124106,1081.508670336142,1085.7302942416063,1103.9659761359587,112.62213018530667,182.92437779322913,-450.8863944803021,245.61032244027388,156.47302152555503
1.2375,-1.6552933199922395,0.1822771696149186,-0.0522625042424152,-0.0056883909457372,0.0528244980607082,0.0283830881597189,0.0078989580989964,-0.0003351994077955,-0.0300550548793221,0.9995166576485006,0.0458827722720798,0.0419357462248203,9.24636706231745,0.0029892714057831,-0.020814590050693,0.1410858038363197,0.1283680764419289,-2.4448299083641274,1.1174401322249787,1094.2012902461845,1082.1100155841,1084.6724164678897,1104.6439149665573,97.44215407186157,299.4393840409948,-403.70213359975367,281.3031319831285,156.4719716471005
1.24,-1.6643451003182215,0.0134240475358441,-0.1392371871932894,-0.0105674242520048,0.0537208367144416,0.0279680780531539,0.0079098774988372,-0.0002676179989154,-0.0299919061005518,0.9995184843314416,0.0439372476945395,0.0474260492892172,9.243680789071508,0.0029832217013987,-0.0210198231005776,0.1397009919461691,0.1283654160687162,-2.4448950556841345,1.1177971749959257,1094.40347498277,1083.005867256347,1083.7117835736076,1105.3724917958743,43.824115886446656,440.1039710270291,-415.1417640124325,298.0458980501744,156.47081446981187
1.2425,-1.5895084809793683,-0.2342249223278682,-0.2232125733453428,-0.0153249286076523,0.0548822938690955,0.0276504045506645,0.0079003971059823,-0.0002153249393052,-0.0299123160322062,0.9995209520038848,0.0420833287217184,0.0522151112044604,9.241196016398208,0.0029886515972143,-0.0212071979110186,0.1382932888834437,0.1283668505342558,-2.4449591651806895,1.1181529364446827,1094.4204108256167,1084.310535439235,1082.5967076478275,1106.134144456808,-48.98959969818748,497.56094447265,-407.017792191609,234.72319567872003,156.4692989698292
1.245,-1.488005948061887,-0.4748833626098256,-0.2780070242636286,-0.0185137716449148,0.0552699095196085,0.0272872126632191,0.0078692124618842,-0.0001715619443888,-0.0298281585859183,0.9995237226066332,0.0401781592536224,0.0562482706622007,9.23891804067585,0.0029980438328382,-0.0213808821333803,0.1368626340832153,0.1283718583607103,-2.4450224537081406,1.1185062347064831,1094.1585269842788,1085.4936719787104,1081.6766946126495,1106.546107774268,-176.2719646380406,470.1251635132285,-359.564053237037,96.98624891907232,156.4679281584764
1.2475,-1.3804192503366468,-0.7266509778139706,-0.3157342056593969,-0.0212045213586502,0.0542670919491498,0.0265364586626561,0.007816877626394,-0.0001346597321528,-0.0297522325349824,0.9995264153163774,0.0381859456751209,0.0595208059289444,9.236852126743337,0.0030052773799889,-0.0215452130580712,0.1354105114069555,0.1283792819576178,-2.4450846976665326,1.1188554526245489,1093.5390510024265,1086.6611612568013,1080.7988873816423,1106.6190757014035,-356.94009871413834,486.46181001796447,-353.36166661964694,-48.38409750864333,156.46644290986063
1.25,-1.2711983222701844,-0.9955896334907824,-0.337732899911654,-0.0240748658153607,0.0514640734624011,0.0252738744548324,0.0077514636918105,-0.0001073346891841,-0.0296882692275459,0.9995288552046844,0.0361618605837546,0.0621833933569288,9.235000385299372,0.0030053114122512,-0.0217030404849471,0.1339402362639416,0.1283883771906977,-2.4451453977383224,1.1191986692988412,1092.3738264907083,1087.9259810288,1079.9098862795513,1106.3041872867248,-486.68757557162405,428.20639908050913,-274.77839200678903,-167.24056112366625,156.46452565071576
1.2525,-1.2056665608219188,-1.157142607948349,-0.3362539607012836,-0.0262839990817242,0.0481145647054469,0.0242408563400049,0.0076814263508741,-8.4736889181162e-05,-0.0296340946999457,0.9995310381814078,0.0340350663449504,0.0644038957478155,9.233359708831353,0.0029914569265806,-0.0218575463663956,0.1324564823730524,0.1283984812488966,-2.4452047691912866,1.1195340853934332,1091.1056131245684,1088.8021932522036,1079.4249954216084,1105.7828728957852,-542.4986229961961,305.7193832280448,-111.55082943364248,-231.1521129410668,156.46281363796632
1.255,-1.1643140015013795,-1.2212294633080023,-0.3179164006122228,-0.0286080291749411,0.0440540521512088,0.0234679521318459,0.0076140965339999,-6.185807560216982e-05,-0.029589784813788,0.9995329046496532,0.0317451906166285,0.066342676161215,9.231920800748304,0.002958001889565,-0.0220122762066642,0.1309646947886401,0.1284090317717912,-2.4452630962511206,1.1198616887714876,1089.6613333757273,1089.4545779449404,1079.352132132383,1105.1484267220192,-633.8714717448364,236.42551383431416,88.49749874548047,-268.04341541286993,156.46098095093308
1.2575,-1.1267582479250087,-1.1689642250454975,-0.283010521719014,-0.0319934830334573,0.0390714195978967,0.0226906672992442,0.0075565514515888,-3.846918778110591e-05,-0.0295566096696089,0.9995343624748247,0.0293307694257502,0.0681702848932647,9.230667502150435,0.0029015555124233,-0.0221706327763501,0.1294704972193861,0.1284202627619117,-2.4453198936558804,1.1201826467528204,1087.936255765844,1089.9843208213751,1079.8674829153358,1104.4426558187208,-598.3902777522999,158.1016629307703,297.4785090564246,-230.7754608735244,156.45864005939524
1.26,-1.0910143995064427,-1.0234347433455129,-0.2474138096293542,-0.0352809647402043,0.0355657583007582,0.0221218268810573,0.0075073712486625,-1.946818982659964e-05,-0.0295322105965975,0.999535488020493,0.0269374242605292,0.0699140680540416,9.22957784071056,0.0028210092715011,-0.0223377579797434,0.1279787919840973,0.1284329162089003,-2.4453747384024167,1.1204984423343731,1086.6693819869658,1090.2450862595942,1080.8395246776652,1103.9945494176516,-437.710520148594,76.33270944302402,496.8161448742754,-143.59600447160426,156.45656984199468
1.2625,-1.039475132931446,-0.7969394936391758,-0.2089013741067191,-0.038453629835151,0.0330631671673728,0.0216520277767861,0.0074632905318243,-5.485518365522396e-06,-0.029512581183157,0.9995364205805412,0.0246378780379163,0.0715732492947156,9.228622959060317,0.0027152834963528,-0.0225184617200212,0.1264937414453506,0.1284466432322638,-2.4454273439307395,1.1208097434121098,1085.7477031651013,1090.3659843685905,1082.3515636397071,1103.7246757963628,-295.2070897921135,30.97378203269656,680.8064068401408,-84.41920727291094,156.45437424573143
1.265,-0.9745083486676032,-0.5298554917483482,-0.1699292615020611,-0.0412493691051349,0.031354277859018,0.0212903440215909,0.0074206139840509,7.4442592912753135e-06,-0.0294953853431792,0.9995372546512408,0.0224219082759497,0.0731415343846346,9.227767883952371,0.0025836282984145,-0.0227164463326664,0.1250186338746161,0.1284598938094541,-2.4454781840016175,1.1211167736344791,1085.1933465380052,1090.3999551697575,1084.243556711866,1103.5724533812872,-128.48924212716767,-4.8938054467724905,821.7531981885523,-45.52516799230838,156.45207405994097
1.2675,-0.9007167472772821,-0.2492839374968312,-0.1314903027321946,-0.0435319372570492,0.0306462508939855,0.0209760689452207,0.0073755407740067,2.2087173088843196e-05,-0.0294779760831637,0.9995380961206136,0.0202997833390906,0.0746128824759865,9.226973560888348,0.0024270877125874,-0.0229338347103331,0.1235557523595285,0.128471722142267,-2.4455284077706247,1.1214196015659215,1085.1052569544654,1090.3415153413566,1086.46032963065,1103.4970499564013,54.80129941993371,-49.56241846853224,1006.490314221786,-26.19434281082305,156.44964755817637
1.27,-0.8151764234664725,0.0587146246551719,-0.0861040517071855,-0.0453396624264642,0.0308933664196563,0.0205785594772431,0.007326521162877,3.776535538152141e-05,-0.0294555437560221,0.9995390984795982,0.018339237609485,0.0760226034503859,9.226198789930924,0.002248830173836,-0.0231703509005493,0.1221063837332436,0.1284819082069367,-2.4455790153901167,1.1217181429212972,1085.467353035105,1090.152143077415,1089.2760082829748,1103.4414816672331,187.89692691812377,-92.3808395234593,1022.470465183982,-12.105288954762983,156.44659015611705
1.2725,-0.7525335943452436,0.2636308806509159,-0.0492379956099748,-0.046186015093853,0.0318851881886201,0.0202955125486385,0.0072735501578389,5.568480554055956e-05,-0.0294249361765949,0.9995403557103516,0.0165647149684579,0.0774272603408693,9.225402151766737,0.0020528241342315,-0.0234234663247347,0.1206707185924131,0.1284897734101142,-2.4456311266845674,1.1220124926292308,1086.044741589056,1089.879611143739,1091.5726819565696,1103.4365235116275,252.33924667081155,-133.13553088287028,865.8627687380231,21.687302660438444,156.44392182560395
1.275,-0.6929353226727178,0.3905702104188296,-0.015398206310185,-0.0473327746657333,0.0334074352163382,0.0201128320051208,0.0072160275943754,7.848513410118422e-05,-0.0293876408285741,0.999541829943656,0.0149644570673878,0.0788615449144935,9.224544785380182,0.0018438904310517,-0.0236890165627341,0.1192476702706865,0.1284939091856309,-2.445686445478497,1.1223037287711777,1086.7290492684588,1089.4864654230007,1093.6053221266648,1103.549918180535,283.6746377580701,-193.04802413548268,790.5628781281665,101.28287444999609,156.4411300727221
1.2775,-0.6013100263681544,0.4388478477948522,0.0169133100409856,-0.0496557482211639,0.0352929915707324,0.0200136544859208,0.0071524134001443,0.0001137438454339,-0.0293461400420059,0.9995434603143272,0.013424471326976,0.0803273126296606,9.223592432701183,0.0016263648672135,-0.0239616297139986,0.1178348658053014,0.1284943199318392,-2.4457461720207214,1.1225926854563186,1087.4631147778464,1088.914371023062,1095.5254963472107,1103.9429378838774,230.22947612044428,-214.96903226030105,594.0744906906401,200.6280909050517,156.4376400296254
1.28,-0.4897323557968248,0.3913177500872893,0.0320120279249613,-0.0521467254450284,0.0367595810951541,0.0200201650271753,0.0070805523321029,0.0001630609024595,-0.0293013420411015,0.999545237200094,0.0119288689683926,0.081803475994757,9.222518692626835,0.0014061245964414,-0.0242350816486668,0.1164287836660792,0.1284908896430745,-2.445810116790436,1.122880999509775,1087.8801966490612,1088.4116202616992,1096.575694580118,1104.5530586350603,110.55127551544736,-187.46178949400417,289.40134253949213,305.8608929972317,156.4346176005113
1.2825,-0.3329203365711057,0.2600459997244308,0.0277883023827403,-0.0547089196589326,0.0382231070603759,0.0201022792498233,0.007002720560206,0.0002200231465209,-0.0292554180948136,0.999547083964827,0.010594498140054,0.0833384171982478,9.221306235535245,0.0011905991843637,-0.0245017028598881,0.1150253336274926,0.1284829732489407,-2.4458784309537744,1.1231685762954082,1088.0158711554236,1087.977062075592,1096.972503059908,1105.4722423488636,7.031248649355043,-146.01387385046422,46.70771410374172,408.118931369208,156.43148026392063
1.285,-0.1493422374573968,0.0719399686709834,0.0019369504702461,-0.0567705852915973,0.0393191880087445,0.0202317751636512,0.006925137337774,0.0002768218562411,-0.029212614249973,0.9995488365106032,0.0095498302372609,0.0850368020133481,9.219947334801667,0.0009866874642008,-0.0247532057685494,0.1136202835413343,0.1284711155656735,-2.445950707462901,1.123454488224369,1087.915352892308,1087.6815508924467,1096.8092331506368,1106.5936532919063,-86.29423220886366,-64.8494957847091,-196.12995129254617,469.23259689264165,156.42825026329615
1.2875,0.0303686451030827,-0.1593724220927252,-0.056022113751929,-0.0572474097963398,0.0391533296361289,0.0203876435986304,0.0068510770850904,0.000333709082309,-0.0291750542698711,0.9995504106767724,0.0087659523351499,0.0869285157453301,9.218444446749341,0.0007979398220314,-0.0249829363578772,0.1122092842453702,0.1284567374504918,-2.4460260127020073,1.1237378291043427,1087.5843999943793,1087.6528145966683,1095.9918533034452,1107.8184053333268,-177.05230485130005,69.13083859258063,-497.4417029653863,516.1031165014145,156.42491158638865
1.29,0.1784971994745456,-0.4490003353818645,-0.1672427096327159,-0.0554214587626985,0.0373468966372397,0.0205267274478741,0.0067819494582228,0.0003908364068522,-0.0291406304552664,0.9995518600300324,0.0082086051123218,0.0889947560079476,9.216810876935075,0.0006259790949206,-0.0251860110771089,0.1107881316046024,0.128442353927087,-2.4461030999272544,1.1240183217473987,1087.0300913680514,1088.0272050854098,1094.3220246358098,1109.1741688744137,-213.32550198945228,212.209650145046,-712.2690622549878,445.02528773242415,156.42078334954653
1.2925,0.2062185237497258,-0.6788202983065252,-0.2937259066184279,-0.052763260784834,0.035078233654405,0.020500484115743,0.006714335280819,0.0004515945983632,-0.0291105768953764,0.9995531720385848,0.0077801995993211,0.0911130424770579,9.21507028014904,0.0004700829478263,-0.0253602506204846,0.1093527571733955,0.1284305300930517,-2.4461808429192144,1.1242964356614495,1086.517772484432,1088.7138628473936,1092.4305079921703,1110.043531771989,-201.4444557743488,347.82009777805627,-834.6945491365836,264.7239293874065,156.41724431869798
1.295,0.1167835238859822,-0.8857878720345836,-0.4467264849786879,-0.0507491318965055,0.0324805100911515,0.0201367311601439,0.0066495332116768,0.0005137783430517,-0.0290840409726032,0.9995543654388676,0.0074800762668965,0.0932413016020081,9.213254730981763,0.000329047052641,-0.0255041216241539,0.1078998776629291,0.128422478423682,-2.446258465698626,1.1245735402556447,1086.0228690891795,1089.7663055743,1090.148551890127,1110.4977885213507,-206.83240070174608,526.2173555173708,-1049.9288959258804,89.71406148825528,156.4136058074816
1.2975,-0.1063378896944286,-1.1126780728856158,-0.6399852723983437,-0.049954156600914,0.0293844591332167,0.0190161592491393,0.0065908600958325,0.0005670442263466,-0.0290592193283894,0.9995554762156807,0.0074547920512217,0.0953723991137342,9.21140367706836,0.0002022409913335,-0.0256173153955264,0.1064271565472244,0.1284184791278343,-2.446334543645761,1.1248491919493506,1085.4836104809233,1091.3449496249805,1087.180863512541,1110.49210207943,-189.08700506535317,607.6717713843979,-1082.9768877063293,-90.44064753356696,156.40912808323503
1.3,-0.3585134614801564,-1.2939076341535842,-0.7873557396449791,-0.0505346625495992,0.0269840178381654,0.0172972718750836,0.0065380723091974,0.0006096564083056,-0.0290380781533173,0.999556447882826,0.0076940513423526,0.0974250731358762,9.209560776076488,8.689479804878428e-05,-0.0257018417648206,0.1049332299252325,0.1284182229835753,-2.4464083430350625,1.1251211856347452,1085.0774340638527,1092.804664431222,1084.7336674515952,1110.0455852836828,-158.6161980631948,580.196411958617,-912.0091859145043,-250.80668530236457,156.40530621705335
1.3025,-0.6387269451354733,-1.4767215012108643,-0.8918494313568585,-0.0521794561878631,0.0244951462148656,0.0146477507430692,0.006483813324692,0.0006478730398666,-0.0290245300201416,0.9995572068418682,0.0080453605960918,0.0991822534689242,9.20777227082859,-2.1107070483491917e-05,-0.0257623575961923,0.1034176686800157,0.1284203994697092,-2.44647957567218,1.1253881812653652,1084.690529490607,1094.2459316847735,1082.6208175829684,1109.2380686529184,-157.3030635724114,547.7136024149903,-742.4314525447402,-358.6793644882695,156.4013934166894
1.305,-0.9146175851855964,-1.6601969608197245,-0.943081338190278,-0.0544841691412237,0.0216326903087582,0.0114065331300403,0.0064250674844062,0.0006818699688409,-0.0290204317909916,0.9995577126450667,0.008468195953563,0.1005127511531044,9.206083849549705,-0.0001240327302836,-0.0258032292121159,0.1018815132234186,0.1284239206089678,-2.4465486330500688,1.1256501338629754,1084.290918745991,1095.543232443297,1081.0215101888716,1108.2521884612415,-169.84541080768912,456.8011166145774,-468.07220474914914,-401.69374770420274,156.39740737028163
1.3075,-1.1589055623442335,-1.8307081146980388,-0.921506036067022,-0.0573630200841049,0.0179243263751122,0.0080164397730678,0.006361085895895,0.0007097812292708,-0.0290249148251486,0.9995579925806723,0.0089611427514665,0.1013332459844315,9.204537947245203,-0.0002229126590648,-0.0258286490951379,0.1003269908381991,0.1284275003908438,-2.4466158253627066,1.1259072077327248,1083.8413024365689,1096.5299372678464,1080.2804565592228,1107.229599914397,-214.78666098127593,336.2957474809186,-92.28056211254413,-414.48819665300965,156.39333560046197
1.31,-1.3898060611272052,-1.989802519622779,-0.822131149671949,-0.0614150119934616,0.0121768080775625,0.0047267736986076,0.0062922557143745,0.0007321826167274,-0.0290372225103031,0.9995580639161804,0.0094798624908205,0.1015866075017352,9.203171101240159,-0.0003181692755787,-0.025842593417085,0.0987572658768248,0.1284299236924581,-2.4466812591870735,1.1261589958585103,1083.2169854410845,1097.2247111807017,1080.5601073783089,1106.1797474779764,-242.33748218030604,162.56128235486705,296.88813633284275,-331.82442160874206,156.38835373828226
1.3125,-1.5165608084313575,-2.060277103683908,-0.698728147093787,-0.0651953522443338,0.0064710997265324,0.0030911838636548,0.0062183422893717,0.0007449693507258,-0.0290607654333236,0.9995578307686558,0.0100687173728351,0.1012143478282421,9.202013184331438,-0.0004080438425303,-0.0258488620299658,0.0971761700047268,0.1284292989462621,-2.446744522176012,1.1264055578900123,1082.6296150256671,1097.3427436796208,1081.7648972408867,1105.5704778063537,-241.1973625994557,-50.46582854502156,648.8750153892536,-176.4239385609054,156.38412487751688
1.315,-1.5640845245887585,-2.046660497778772,-0.5615020259740857,-0.0692192877375942,0.0005031198092851,0.002526716675056,0.0061386895027309,0.0007414644562322,-0.0290979443088516,0.999557233059816,0.0108223447126977,0.1001607407578617,9.201085612995456,-0.0004896526792623,-0.0258507743347225,0.095588005081187,0.1284246392417467,-2.4468063222203575,1.126647088880886,1082.0109986280872,1096.9723820379763,1083.804482455255,1105.297627785172,-262.2331412422621,-264.45173063602243,1014.1872079696205,-50.55889995410209,156.379818761806
1.3175,-1.5235329911508075,-1.930732972459904,-0.4016729296799143,-0.0741181442788608,-0.0063152695523086,0.002435623345935,0.0060547752463389,0.0007181940562704,-0.0291461139698236,0.999556343242316,0.0117787111851896,0.0984177974128694,9.200399229281706,-0.0005608454491194,-0.0258504888084093,0.0939974754725977,0.1284159460948865,-2.446867654299433,1.1268839433273943,1081.318449319456,1096.0204850264406,1086.8358332807352,1105.3176833065831,-228.88723008990763,-417.2270913444112,1141.1649181733271,46.2539902061497,156.37456564795673
1.32,-1.4090334297748874,-1.7633933800314427,-0.2733494261146141,-0.0781731794614222,-0.0112811865784715,0.0022133156379062,0.0059709163291121,0.0006766971988518,-0.02919826744867,0.9995553408024572,0.0128859486328588,0.0960375754264895,9.199953706754847,-0.0006210274537091,-0.0258488304077507,0.0924095590416987,0.1284043572885012,-2.4469306918748512,1.1271151721976636,1080.8665624776377,1094.8862465812545,1089.5103070461219,1105.5288977362027,-131.90513827512683,-499.59338318491217,1024.063860652108,93.35131523057696,156.37011921668602
1.3225,-1.2191774907888266,-1.5493246911286107,-0.1367795116721255,-0.0821341981970741,-0.0149497178870182,0.0015455385237528,0.0058914353317572,0.0006204638199499,-0.0292427048303253,0.9995545417592072,0.0140609683342643,0.0930820603089604,9.199738885481471,-0.0006710094024011,-0.0258459792168375,0.0908291788061497,0.1283911504491133,-2.4469969425210025,1.1273409082066639,1080.6589236280804,1093.522518110516,1091.9561525839956,1105.784439882736,-25.086223708559,-565.3914104675216,897.2340563741644,85.9044528226623,156.36560468851332
1.325,-0.9815142706741478,-1.3186078078525652,0.0197576392221587,-0.0855721628165063,-0.0176026646030115,0.0007819164608918,0.0058163842465839,0.0005540072900552,-0.0292704440711891,0.9995542080326696,0.0152091433855612,0.0895446931241994,9.19973668556584,-0.0007126864088586,-0.0258426225831397,0.0892607554959907,0.1283783939726721,-2.4470659715447405,1.1275614548147175,1080.7411313590949,1092.059289528917,1093.9964773279924,1105.958420000316,121.2966528824808,-593.1757233486542,690.4224943397209,29.489671509008303,156.36103652333117
1.3275,-0.716005678667843,-1.086444197850003,0.2102945689029414,-0.0876226183838242,-0.0196464420071778,0.0002810582361577,0.0057456391750076,0.0004898190971694,-0.0292759657545666,0.9995544951535976,0.016095252810108,0.0854224342895666,9.199921136518604,-0.0007502593525665,-0.0258396656993427,0.0877081840788109,0.1283676651244518,-2.4471368310105626,1.1277768334059675,1081.2654068924928,1090.5566394937728,1095.4082650556943,1105.931888240281,348.245378071889,-659.7288271375721,470.8297643050064,-66.6703530055641,156.35640761357368
1.33,-0.4107647659719039,-0.8143369427297517,0.4770109579002762,-0.0882276953727008,-0.0219442599539532,0.0003505319665457,0.0056810891770215,0.0004379199923531,-0.0292601803844773,0.9995553590612593,0.0165354034410711,0.0807620893979561,9.200261241324947,-0.000787965087497,-0.0258381664327611,0.0861747734401799,0.1283587411928992,-2.4472090682388576,1.1279865472369763,1082.4823582494544,1088.7606453932287,1096.3506261495177,1105.625068235288,545.673224661198,-655.8381967064773,235.44494828652708,-150.24214760219687,156.35078845435143
1.3325,-0.1950467018176008,-0.5907013687422212,0.7190362655565616,-0.0875205379679498,-0.0238247260515255,0.0011938225761317,0.0056210397936101,0.0003993480289123,-0.0292260438899679,0.9995567196782468,0.0165211114548402,0.07556209786113,9.20072513199915,-0.0008289080096511,-0.0258405284736709,0.0846627247273928,0.1283516675259219,-2.4472819650471345,1.1281893647519183,1083.9937730157988,1087.2774485102404,1096.585489797127,1105.18067750227,695.1850549707308,-591.6747005485958,14.444042981859036,-193.6732859701847,156.3460568028324
1.335,-0.0327290927889088,-0.3660905396844213,0.9561913415311653,-0.0862778216979828,-0.025511654452389,0.0030621872814014,0.0055586234893689,0.000374866166621,-0.0291751861330284,0.99955856608577,0.0160607585162799,0.069739620756444,9.201282144419752,-0.0008764947046881,-0.0258509088564721,0.0831726626912251,0.1283468542094982,-2.4473551037902657,1.1283863965497245,1085.958283524308,1085.802271890486,1096.4228463644267,1104.6567018054373,936.2591945652424,-645.9878025082013,-110.52739519250024,-215.24025499924804,156.34128049678264
1.3375,0.1160494104197011,-0.0984198458933719,1.1981181028138856,-0.0853983454901913,-0.0268168491871479,0.0065181133317924,0.0054858779565686,0.0003694513413585,-0.0291133820736419,0.9995607693062228,0.01509470281896,0.0632031290768323,9.201904641281065,-0.0009345693923463,-0.0258745592812902,0.0817034793502955,0.1283438348496731,-2.4474269050351665,1.1285803109347343,1088.675068988625,1084.0475094976991,1096.0328528211644,1104.1044762272738,1022.0338386684708,-635.7372470954341,-135.24504237320485,-168.08094135435175,156.33550529133544
1.34,0.2283484707331542,0.1130343812059167,1.3381592661218384,-0.0859871696130426,-0.027033086230592,0.0102533250508242,0.0053951523775908,0.0003791428131872,-0.0290489161577186,0.9995631255286144,0.0137363748236463,0.055885670645684,9.20257222441243,-0.0010050278146764,-0.0259174134842002,0.0802523490432481,0.1283416515555267,-2.447495967926036,1.1287736582459515,1091.0684527176504,1082.6235856550088,1095.7466211525607,1103.8162970986655,936.5142393911556,-550.9310600904545,-64.96369545507288,-63.397466734433216,156.3306625932613
1.3425,0.3573225134972726,0.294151661852699,1.3918691668369527,-0.0873213392385217,-0.0261721903711332,0.0144624674789128,0.0052822311807546,0.0003970191308922,-0.0289876819612031,0.9995654840226667,0.01216010064168,0.047799311083482,9.203273717527392,-0.0010889501917288,-0.0259853023029993,0.0788151319436666,0.1283396689781218,-2.4475613725184213,1.1289676661064811,1093.3576401855807,1081.2928541972472,1095.708034343889,1103.7874888936017,861.8334473822144,-507.32129405579315,47.28240669542275,34.82899587988942,156.3257967700702
1.345,0.5031224121097811,0.4368763641515999,1.3675086491872284,-0.0878631183758682,-0.0245261320135999,0.0185326933074783,0.0051472223399097,0.0004140432247279,-0.0289313466079396,0.9995677964647997,0.0105837624086065,0.0390503956539427,9.204009704699354,-0.0011867793108225,-0.0260833679251172,0.077386951933135,0.1283378185049237,-2.447623061888456,1.1291623332444696,1095.3776199545612,1080.08697918473,1095.983033186038,1103.9904420780647,704.2646044173275,-441.99135918598614,197.46378929917648,132.57361834667162,156.32091783632347
1.3475,0.645830704220161,0.5259351825017715,1.254028802530362,-0.0864779591390513,-0.0224253516397758,0.0221191626316562,0.0049969274930303,0.0004204590901519,-0.028878957525567,0.9995700561050967,0.0092400728042775,0.0298807892532735,9.20479437066722,-0.0012984513170014,-0.0262152020485227,0.0759629463236325,0.1283360770389756,-2.4476822602899704,1.1293565260705372,1096.8789632076673,1079.0828974013173,1096.695353290385,1104.450356985335,506.4585090300508,-385.62014208022464,410.7916811665196,250.61587097388255,156.31603031902296
1.35,0.7700060308588421,0.5783791280638134,1.0329466954382616,-0.0826845594714971,-0.0199735720406618,0.025938411190063,0.0048379772306833,0.0004118580270785,-0.0288272446631768,0.9995723231502932,0.0082666040900144,0.0205361490421037,9.205656644666234,-0.0014242396474466,-0.0263834906032711,0.0745384356279708,0.1283338398451165,-2.4477403678892182,1.1295486107249466,1097.9099124997117,1078.1588784743287,1098.0369915918707,1105.2435214329344,241.59672818404383,-287.47074477886844,557.1914083478857,321.8039862454969,156.3101645789012
1.3525,0.8129028350277253,0.5940086878101528,0.7975022473498234,-0.0784767875885314,-0.0182157162796636,0.0286984094001112,0.0046794489128186,0.0003879360711921,-0.0287745697593026,0.9995745990973824,0.0077253102415628,0.0113115191577419,9.206640328073442,-0.0015643121891347,-0.0265893075588598,0.0731094170086597,0.1283305299122236,-2.4477983345591783,1.1297373851500851,1098.0869468485876,1077.645543677423,1099.4813103321244,1106.0593769165623,-56.448672492525766,-148.96457810869242,612.7661800032587,346.697631060768,156.3052825003869
1.355,0.7993568101494039,0.6100956931506591,0.5402811045537027,-0.0750370653977741,-0.0169891278421303,0.0303998775060943,0.0045301156848492,0.0003460794388812,-0.0287208038906203,0.9995768472589094,0.007720098016055,0.0025008140171252,9.207804419424637,-0.0017178085688623,-0.0268323600736215,0.0716725902529725,0.1283270493105073,-2.4478563632876567,1.1299215951940045,1097.627669137249,1077.4140555837853,1101.100822491887,1106.977009588238,-306.3498072485865,-37.22555187173464,702.6580792050177,410.3866439137252,156.30041454095553
1.3575,0.7652891874415153,0.6656116219668002,0.2494950386896594,-0.0736935132213739,-0.016227913009333,0.0304643056251912,0.0043956119740714,0.0002879992843402,-0.0286676013311669,0.9995789947147165,0.0082742957636937,-0.0056625232897105,9.209220792488622,-0.0018838043281768,-0.0271113343285844,0.0702251306792643,0.1283237782781734,-2.4479142799259703,1.1301007844819828,1096.5551978123447,1077.4594159180642,1102.9946007281494,1108.1113101361311,-439.4412791211733,65.74342063035904,646.6782133970206,405.78590519352446,156.2945983636459
1.36,0.7618463415567315,0.7601787703748338,0.0479176086067355,-0.0741810798354872,-0.0156764556007341,0.0294182894797268,0.0042728283277701,0.0002223328789424,-0.028617427619578,0.9995809811751828,0.0092836705682012,-0.0131137062789671,9.210971398174513,-0.0020615853008527,-0.0274245695976533,0.0687641979649423,0.1283202306471681,-2.447973909980526,1.1302759838323486,1095.4304627416432,1077.742772686937,1104.334213558872,1109.0059391142058,-450.5376760365276,152.81068991184486,445.9290957924065,326.03942734848874,156.2897792730804
1.3625,0.8057311332004988,0.9092832669267348,-0.1001855809987942,-0.0739929455506452,-0.0145485191019721,0.0284555602837076,0.0041559895639001,0.0001546066375251,-0.028572605233526,0.9995827653438664,0.0106959728587465,-0.0198429849934226,9.21314654872031,-0.0022492154889557,-0.0277691302091532,0.0672871792401055,0.1283158193871775,-2.448037328531416,1.1304486138982903,1094.302509432162,1078.2234693676235,1105.2242462071115,1109.7415072728736,-424.9643491130973,213.76201394314648,263.4601744810936,253.16581695147391,156.28499664776595
1.365,0.8792388098633409,1.0939661015209514,-0.2104808705673656,-0.0723043611132483,-0.012852237115799,0.0279463919502184,0.0040420886540206,8.431603714390409e-05,-0.0285349085993864,0.9995843124655323,0.0125601573764516,-0.0257973869061938,9.2158423508945,-0.0024432384029899,-0.0281403439418242,0.0657920752030739,0.1283096897098844,-2.448104894454738,1.1306204565696796,1093.3056409960775,1078.8115827566528,1105.6515144312775,1110.2717681989632,-351.6112842744935,248.46113400395168,58.90180369833741,152.31910411253335,156.28024958599963
1.3675,0.9615993634110632,1.2978351966231367,-0.2909329579040655,-0.0691373450158353,-0.0105507692774134,0.0278738331076238,0.0039323231237339,1.6262980131942968e-05,-0.0285029985791592,0.9995856587664816,0.0148150938270625,-0.030862799542162,9.219156114863203,-0.0026404736164479,-0.028532157859815,0.0642778339786733,0.1283005766557598,-2.448175957733392,1.1307924463540215,1092.5444530107895,1079.4657750376432,1105.5187552256032,1110.5031027934363,-282.7595812435837,291.47378446854657,-160.42590872029535,35.50228088729373,156.2755511276227
1.37,1.0440583616902872,1.5220864263281415,-0.3684654623756442,-0.0645727550326355,-0.0064998233780474,0.0278803704233901,0.0038287803892396,-4.426338005795301e-05,-0.0284739251852379,0.9995868862312126,0.0173791147677751,-0.0349249449247277,9.223183037663617,-0.0028374980216732,-0.0289380685952729,0.0627447042812526,0.1282875393125412,-2.448250003376583,1.1309639112059335,1091.8918430898595,1080.2689516789956,1104.849384887676,1110.4492796033996,-209.5846738073712,292.54117278436985,-295.2826401476091,-59.19083611092765,156.26997565738307
1.3725,1.096593515740848,1.656789032723042,-0.4189439595696127,-0.0609418369757493,-0.0018523515208269,0.0274303446256446,0.0037367623435095,-9.456683821799109e-05,-0.0284441153324486,0.9995880857902084,0.0202051732169932,-0.0378266626753371,9.228012472326919,-0.0030306286920901,-0.0293512399918844,0.0611949159020937,0.1282706367275239,-2.448326864500616,1.1311322548943707,1091.4965296417527,1080.928480901565,1104.042342024865,1110.2071486128816,-149.35314201716528,258.8704487053347,-326.4906775729356,-104.43842216577872,156.26538579980675
1.375,1.1504249381824287,1.7027123818160719,-0.4458122409481801,-0.0583079744790237,0.0034797607292069,0.0261139174189231,0.003660899077891,-0.0001346232907848,-0.0284088953165347,0.9995893827150484,0.0232843694157828,-0.0394404622576015,9.233723227688413,-0.003216434997871,-0.0297653463055238,0.0596327648386669,0.1282517342827162,-2.448405776393403,1.1312953337288947,1091.145077379774,1081.5633039225222,1103.2169314998112,1109.9270874925708,-166.50740473133183,273.73085517775183,-320.63516276503606,-85.11936216464346,156.26085866915855
1.3775,1.2483245677933033,1.6379498474715743,-0.4381181416674491,-0.0560577037398816,0.0097365716553911,0.0240715884454776,0.0035998344369128,-0.0001560304583157,-0.0283694637169023,0.999590750751084,0.0264462382625316,-0.0397736221269226,9.240377739401875,-0.0033929607480768,-0.0301754925503168,0.0580641587946913,0.1282326542417461,-2.4484846928866286,1.1314509899669916,1090.663992618096,1082.2971351774538,1102.43916621104,1109.7815518020584,-194.8295895010188,267.1701667753434,-230.14421321467503,7.552998057871998,156.2555026179645
1.38,1.3734338355560052,1.4893604396807951,-0.3957143113698509,-0.0542787466969862,0.0143947036872895,0.0225278110486264,0.0035529862140898,-0.0001558141399328,-0.0283310220313307,0.9995920422099894,0.0296102876185156,-0.038836021633344,9.248020151747529,-0.0035582565434836,-0.030577326575028,0.0564967443994237,0.1282139878645676,-2.448562876311091,1.1315982176728607,1090.1709294322688,1082.8991547563987,1102.066210433738,1109.96485248286,-214.4979773140172,244.69671324008573,-89.83459947425918,154.3863197350184,156.2511053231021
1.3825,1.5428182508679362,1.2665033679338065,-0.3227306028682536,-0.0518579345527895,0.0180555263226354,0.0214860603017955,0.0035156207593851,-0.0001330242051496,-0.0282979770049278,0.9995931464355104,0.0327260026088061,-0.0367321934722148,9.256672460396777,-0.0037110374537497,-0.0309673930490809,0.0549389948983266,0.1281964448517236,-2.448640178800997,1.1317377265401891,1089.591502731526,1083.5206187436543,1101.9899932136686,1110.5534834007335,-257.6487503154622,285.3125206282645,15.136086716984533,347.1403902758158,156.24677885063224
1.385,1.7706009776107283,0.9545021749195872,-0.2153911665479673,-0.0477578102899207,0.0208773615814683,0.0207808277227083,0.0034838340907399,-9.44892742654024e-05,-0.0282731898911664,0.999593991323216,0.0358777624065389,-0.0335657761251766,9.266333116595511,-0.0038499854149023,-0.0313422441866312,0.053399935531422,0.128181499452586,-2.448716829580827,1.131870342342354,1088.8826856806916,1084.3257173595402,1102.141890867323,1111.7005544342392,-242.39648124053537,309.02241885729126,73.82819389099653,475.17859759633313,156.2416714316929
1.3875,1.94991026480774,0.6879422968388437,-0.1217610465875276,-0.0433240471243409,0.0219844713987815,0.020469950646797,0.0034576978532969,-4.659417684211503e-05,-0.0282585420467217,0.9995945193948677,0.0391324939901007,-0.0293846893195907,9.276975284298159,-0.003974368558083,-0.0316978872356036,0.0518887363403441,0.1281692335178174,-2.4487934627395607,1.1319964104800666,1088.3795203253233,1085.0657308379407,1102.3591341831236,1112.9293763887151,-157.77984486903367,312.79402041117646,79.49304737357849,515.0793089069674,156.2374875078715
1.39,2.076930157527763,0.4408391346415269,-0.0370055836616616,-0.0381552849624869,0.0223525466341102,0.0203448459377731,0.0034371776207081,7.216500541932971e-06,-0.0282552266332848,0.9995946950953662,0.0424963973300511,-0.0242567758644717,9.288546199638018,-0.0040838328617668,-0.032030065608362,0.0504139911817647,0.1281582856461435,-2.448871360254058,1.1321170210851854,1088.0937864563464,1085.889687461596,1102.5393561041908,1114.275950978774,-63.84454315930123,344.2143611943641,51.55416590600788,530.4967106222525,156.23338117534348
1.3925,2.1316043656278727,0.2178639069353133,0.0315459211755315,-0.0328137216932922,0.022507662792825,0.0204261532652382,0.0034234526502571,6.38345759570007e-05,-0.0282625193118475,0.9995945345175464,0.0459630187284,-0.01824246404488,9.300968249119995,-0.0041778456066641,-0.0323340652530036,0.0489834827823505,0.12814719898699,-2.4489518278346476,1.1322330958904603,1088.0602976095267,1086.7868026439123,1102.6169050126537,1115.5818599418265,52.83914337733335,375.85749256450873,-3.59514212500479,481.0103909051224,156.22934131275784
1.395,2.068904107676428,0.021390123749888,0.071080169431599,-0.0273584152507395,0.0226054601952965,0.0208011713929652,0.0034153410622397,0.0001197101975626,-0.0282775483156398,0.9995941235502974,0.0495303656884999,-0.0114590618691156,9.3141405582285,-0.0042554793187646,-0.0326052331305766,0.0476037545297842,0.1281344030083561,-2.4490359855714807,1.1323455746723876,1088.357982173233,1087.7689749244187,1102.5213803935656,1116.6810029332996,196.00679539540087,447.15153371777023,-88.78524012188981,402.74243043746486,156.22538442758494
1.3975,1.8266263353849093,-0.1945482736518382,0.0762911875161925,-0.020445993041927,0.0225339860156118,0.0215686528346231,0.0034135341723904,0.0001738622191933,-0.0282964842886132,0.9995935693690878,0.0531435657172565,-0.0040016169291623,9.327941550514542,-0.004315699147731,-0.0328389408735546,0.0462802652030829,0.1281195231832567,-2.4491243398563487,1.1324546743748247,1089.0403315865035,1089.0225603125011,1102.1729788120442,1117.5955720940135,284.4457987210196,465.3849981714649,-169.6694149649335,251.58136119657104,156.2207360820782
1.4,1.4733868251935875,-0.3659213173765309,0.0440993270831781,-0.0144894710073745,0.0221452179870392,0.022355852980268,0.0034169571205738,0.0002283443212858,-0.0283139278836005,0.9995930300634014,0.0566885877531693,0.0039917306537768,9.34223207003792,-0.0043576131023912,-0.0330314407967843,0.0450171343644191,0.1281024458022537,-2.449216440602083,1.1325606368821584,1089.780211166838,1090.095899915276,1101.673033318741,1117.9389097392825,300.48192366629553,424.769831879975,-244.70259080102892,41.536756555796224,156.2169488878191
1.4025,0.9741961066927404,-0.5342486152895815,-0.0183890942037017,-0.009304656124064,0.0214292179865725,0.0229647961028325,0.003424124786576,0.0002823783920312,-0.0283267329796154,0.9995926029719984,0.0601021000900655,0.0123709280088707,9.356859366310083,-0.0043799351974612,-0.0331802745608665,0.0438173051023147,0.128083715691341,-2.449311340753653,1.1326639821677635,1090.5427412048352,1091.1464094719013,1100.949465858039,1117.8032558767927,306.2027346107308,445.2288854400289,-366.01479892093136,-166.33084122291066,156.21325525491844
1.405,0.2643479985099712,-0.7325683668380882,-0.1067049612928632,-0.005914568545476,0.0201300891976741,0.0230037333900752,0.0034348350166256,0.0003322992632105,-0.0283313147666819,0.999592394662835,0.0633729727310802,0.0210092335227704,9.371660988501885,-0.0043814333570547,-0.0332845451922838,0.0426827044702627,0.128064426367198,-2.449407506245149,1.1327649259083568,1091.3112248398916,1092.322044342476,1099.8429593241365,1117.107255533168,239.75094451239383,410.7329490053504,-438.12156600434736,-330.9204086073421,156.20893463008227
1.4075,-0.3515034805987268,-0.8888274411586331,-0.1701639279582273,-0.0062118984497516,0.0184966853169446,0.0223768260896582,0.0034469541091956,0.0003788216406634,-0.0283275712699757,0.9995924175162192,0.0664095292970008,0.0297427885845575,9.386469015879975,-0.0043614387527653,-0.0333455052371498,0.0416140187089923,0.1280449311742074,-2.449502442330325,1.1328629208180352,1091.7414959273972,1093.200074216928,1098.7588580280171,1116.148653833756,122.45392342324782,326.13543520752285,-454.97112653580245,-433.7589565387681,156.2054287641982
1.41,-0.9025189130997844,-1.0225649374378099,-0.1988012419337169,-0.0092671060315765,0.0160548941441882,0.0214063665173651,0.0034589059215513,0.000417663170721,-0.0283158604317846,0.9995926714841212,0.0692151901068796,0.038425672402679,9.401114609583207,-0.0043193167796009,-0.0333662521983087,0.040610977860837,0.1280252737186537,-2.4495943768949,1.1329578408505228,1091.923494457008,1093.9527215185135,1097.5681036914575,1114.938460750474,40.38415659169821,279.09921256577303,-483.7192339332775,-496.5113293747321,156.20202166624847
1.4125,-1.3426608270229772,-1.1265298579454377,-0.1854432019647318,-0.0137868572572177,0.0129211028866926,0.0203882177609502,0.0034707229582128,0.0004437094409188,-0.0282963994357248,0.9995931562066824,0.0718120264595193,0.0469507200838828,9.415432219747192,-0.0042549395296833,-0.033351326321044,0.0396723347160011,0.1280060168907146,-2.4496821376091305,1.133049824505392,1091.9434167103557,1094.5955702797569,1096.3402618583507,1113.6660971868823,-5.897749129053273,230.1730829883983,-487.3429243884744,-483.7300744766596,156.19869588301393
1.415,-1.6057026567467787,-1.1866313337958625,-0.1138383763079886,-0.019288767426112,0.0094068639536546,0.0194345109805622,0.0034800864102955,0.0004618088648171,-0.0282698392942226,0.9995938580704135,0.0740414028431141,0.055171946278246,9.429264418931815,-0.0041694935512221,-0.0333065139925708,0.0387954037603877,0.1279880931583722,-2.44976535098043,1.1331384068680328,1091.8940057113628,1095.1035869334555,1095.131389069515,1112.5198103780908,4.409237849586228,191.66677959656636,-509.50767427653943,-426.0570165500303,156.19546627013747
1.4175,-1.6982201002489603,-1.2107753540615516,0.0378208556611662,-0.0263171083131584,0.0057199002192506,0.0184693875447757,0.0034881011802522,0.0004724394041747,-0.0282398607250368,0.9995946653421056,0.0758319655232569,0.0630228255458556,9.442465638369981,-0.0040640968846516,-0.0332377310384849,0.0379764697935087,0.1279704630408258,-2.4498453599540126,1.133224106963359,1091.9654628996036,1095.5539041777397,1093.7927234869683,1111.5358121041322,76.12984585125722,137.5800476710567,-456.25106363423646,-266.85524953136905,156.1916980089507
1.42,-1.60301591352783,-1.1995345505086963,0.208544995643216,-0.0320029785334015,0.0033234796870455,0.0179552110741266,0.0034916951441922,0.0004749209064946,-0.0282093146178309,0.9995955062331492,0.0771457527447833,0.0703724056189934,9.454906847415403,-0.0039402898465341,-0.0331510193787499,0.0372101202384313,0.1279518304848855,-2.4499232606333337,1.1333082531889247,1092.274654940619,1095.791487171811,1092.850133751344,1111.185534130434,193.96076577449557,65.10523701094675,-317.5039301953274,-21.725862067978092,156.18864331465136
1.4225,-1.375295010150996,-1.1635494374133675,0.4003074941354637,-0.0363481966986583,0.0012413102420973,0.0181041067661838,0.0034828277399652,0.0004752361731729,-0.0281810562287232,0.9995963235929886,0.0778328605879735,0.0770059502407917,9.466479582587198,-0.0038006644784678,-0.0330522024196734,0.0364891050377325,0.1279322712389585,-2.4499996294296422,1.133392362064725,1092.935266728476,1095.8794303627944,1092.2052038359916,1111.4271827937923,367.7785014030548,4.863981145353934,-183.4959049505372,246.71245716780845,156.18567183588925
1.425,-1.0286456535856174,-1.0878208218570384,0.6111895113534673,-0.0386389052262579,-0.0013348171704365,0.0195472899552023,0.0034579508876912,0.0004780727089035,-0.0281566488080956,0.9995970832433752,0.0777786580210343,0.0828075230502506,9.477097351791208,-0.0036485591569809,-0.0329458950263826,0.0358052134959476,0.1279116592268653,-2.450074726981466,1.1334772687009789,1094.1135474476343,1095.8158070775376,1091.9326542265912,1112.419096416273,479.0553918608669,-47.30299345610648,5.333746059523151,468.69081611017555,156.182195746594
1.4275,-0.7353435345851421,-0.9855245936178628,0.7348185741364083,-0.0383338243572729,-0.0035863490688228,0.0218024135080469,0.00341942057327,0.0004801665424179,-0.028131499180598,0.999597907541898,0.0770320411053958,0.0877898265120148,9.486696877794978,-0.0034881401477663,-0.0328352214681287,0.0351497532017968,0.1278907147118888,-2.4501492464792984,1.1335639841308298,1095.3305436877804,1095.642915395514,1092.2318725662892,1113.7706368743432,506.53635634408766,-83.64630227302035,246.46030463277907,618.8328428963036,156.1793696442809
1.43,-0.4760040101686333,-0.8214878598415075,0.7669184069507974,-0.0375941429626265,-0.0060597540159961,0.0248532312034749,0.0033712951847972,0.0004750320050954,-0.0280993139361142,0.9995989654910256,0.0757200312922688,0.0920113343188955,9.495239780848381,-0.0033246211823312,-0.032722099430822,0.0345136893386318,0.1278712045820636,-2.4502239337199647,1.133653588085452,1096.6462292293547,1095.3975755661727,1093.164955749755,1115.5132606307543,520.5453592218753,-99.23180083774012,480.6847230694418,728.1947419220446,156.17661291467658
1.4325,-0.2442141768860305,-0.5905480417888083,0.7067131563671384,-0.037709967330569,-0.0088770771877141,0.0283191383184433,0.0033140566473745,0.0004584892336915,-0.0280612141891435,0.9996002291977866,0.0739457340504876,0.095471821698867,9.502713825452265,-0.0031640191498951,-0.0326076761465393,0.0338878544433321,0.1278543403204615,-2.450299147231927,1.1337457573385004,1097.9332704838898,1095.1467563913252,1094.6352961816365,1117.4116105839535,486.6689773345912,-87.10447451712551,704.1976972919948,746.9174852371734,156.17391147829395
1.435,-0.0228699186256829,-0.2710166307113259,0.5379421595541892,-0.0392420395949364,-0.0116910810408509,0.0316964628667229,0.0032417012074376,0.0004358021832616,-0.0280217202161008,0.9996015881608123,0.0716546226888333,0.098051143857355,9.509132799526624,-0.0030136298574049,-0.0324925606090966,0.03326335615816,0.1278412267597717,-2.4503762387620958,1.133839181978437,1099.0795741160275,1094.962053193587,1096.6859442362152,1119.2478480569405,456.4839786528506,-49.135154937358635,999.3146933998316,725.6046959485656,156.1712748905344
1.4375,0.2529160575849268,0.1956762915693284,0.248840549929873,-0.0415749883123962,-0.0135662898191316,0.0342109301197162,0.0031556231177343,0.0004100625407001,-0.027981485415117,0.9996030152411424,0.068848174777002,0.0997774856411663,9.514531746054926,-0.0028812749611264,-0.0323760187987989,0.0326331088818994,0.1278327686607456,-2.45045626602056,1.1339320494010823,1100.215690377154,1094.9010806166384,1099.6318696486355,1121.0396340636962,376.1297664064921,12.617463821516408,1124.0218649314795,544.4327534169704,156.1681846959779
1.44,0.4826003062927009,0.6166604801389861,-0.0141167251834731,-0.0421156754523735,-0.012921423425872,0.0340259346631974,0.0030648647650636,0.0003820664151774,-0.0279379226264897,0.9996045517018264,0.0655851933697554,0.1008314558037969,9.51896407519827,-0.0027746583800219,-0.0322563868289058,0.0319921374213425,0.1278289789040167,-2.450539685849589,1.1340228618379806,1100.96022294806,1095.0251405126946,1102.3060535608724,1121.9700118240253,267.3107292167453,87.34803597217049,1068.059313631168,221.9740257706184,156.16567080745435
1.4425,0.6710145862327664,1.0117632615929704,-0.2347645690795326,-0.0400349712075674,-0.0099393143833773,0.0316759764233401,0.0029821742852072,0.0003591430560933,-0.0278927816417011,0.9996061032870108,0.0618128376361147,0.1014657164265342,9.52249903715336,-0.002700749053232,-0.0321319008356754,0.031337312043488,0.1278291984353228,-2.45062526463014,1.1341112648757448,1101.5522440232376,1095.3378207964993,1104.9721662167915,1122.149504192549,248.18176948337504,170.44793695130983,1124.39722226197,-96.39028686928901,156.16322122855848
1.445,0.7940834646167378,1.3948718231320936,-0.4017225568253867,-0.0356971271157962,-0.0047092267782622,0.0282875282037284,0.0029171298979091,0.0003476566683811,-0.0278483406103958,0.9996075730837028,0.0575104364862863,0.1018773396338143,9.5252194453009,-0.0026648787416259,-0.0320015196137599,0.0306668787879701,0.1278318591808645,-2.45071061039551,1.1341970864598687,1102.201131795477,1095.8773801974512,1107.9280396721824,1121.4880603896788,244.9338207226044,210.94516218145597,1020.0627673248836,-362.18850271612473,156.16035745326954
1.4475,0.7884046355436264,1.6112318413394586,-0.4526786267013331,-0.0319500978175907,0.0003380208666581,0.0260969065082133,0.0028700667980795,0.0003478108774691,-0.0278047146127027,0.9996089536597716,0.0527884813956156,0.1020944565913541,9.527219376146615,-0.0026701434905496,-0.0318654318092348,0.0299799815691976,0.1278341731418266,-2.4507947893140565,1.1342807545901648,1102.7769131268508,1096.3925466074063,1110.0724800534158,1120.3385616789687,251.55626705637212,200.36735040653608,779.826417963812,-524.9976291921596,156.15803494943992
1.45,0.6751215952776123,1.7134147139868143,-0.4314826415132627,-0.0290492994954756,0.0054242612817052,0.0248495497546565,0.0028387925937744,0.0003578311178437,-0.0277635649305529,0.9996102044750472,0.0478007432513182,0.1021017227323521,9.528599258764157,-0.0027173212693831,-0.0317245927695268,0.0292769585063007,0.1278343442315741,-2.450877278438,1.1343623466567092,1103.458913130759,1096.8792169494839,1111.8271717620012,1118.863072243718,292.45321657726214,178.15345108692367,639.2228233686944,-589.2771160203984,156.1557796356551
1.4525,0.4956584370395459,1.731972687350794,-0.3742937446765614,-0.0270308410768046,0.0099855418220431,0.0242016115805785,0.0028199582461469,0.0003822698287361,-0.0277257572057416,0.9996113093181002,0.0425811555835794,0.1018622698827472,9.52946185095582,-0.0028056700834986,-0.031580494790548,0.0285592792954936,0.1278331539122137,-2.450958798669072,1.1344401347702027,1104.2391792097371,1097.2833138628412,1113.2685941702591,1117.3921760988667,327.28200888608774,135.0092961251417,511.6422732705696,-523.586076956041,156.15358043892152
1.455,0.2777521387700943,1.674648623689688,-0.3016194141068316,-0.0261034579787222,0.0137601036137382,0.0239429005169925,0.0028086097967685,0.0004256881853423,-0.0276906206450819,0.9996123008707613,0.0371599907355083,0.1013128906835241,9.529909337776747,-0.0029328015480844,-0.0314350569666906,0.0278293504850714,0.1278320428291203,-2.451040730603515,1.1345123496498188,1105.0953231751892,1097.5542634301096,1114.3853831283543,1116.2451418589378,372.6650427290758,91.09149849787369,432.6913951572898,-369.3857967454357,156.15144918085747
1.4575,0.0302782199720994,1.5506801866535755,-0.2235750705960583,-0.0265791034693353,0.0176946337654142,0.0237975833979082,0.0028022734495989,0.0004845685570015,-0.0276588542290041,0.9996131690934308,0.0317111325241221,0.1004462800080236,9.530040561172674,-0.0030941425189037,-0.0312904105133248,0.0270903985122972,0.1278312425769352,-2.4511232057528165,1.1345785481728698,1106.1025044233825,1097.7387713553303,1115.4320511460455,1115.5452471151395,346.09164235362925,52.17209957445559,344.435877122176,-122.87235049821254,156.14897031374585
1.46,-0.1268814584338359,1.4187706855876805,-0.178462326115901,-0.0283616287130058,0.0207852754769849,0.0238150768129982,0.0027964883092997,0.0005497876917512,-0.0276275823191428,0.9996140101156874,0.0265042624369638,0.0992250503245391,9.52995029566451,-0.0032833960717836,-0.031149225448695,0.0263455983965921,0.127828531561954,-2.451204644955328,1.1346397809696285,1106.8257813869575,1097.8151239279819,1116.1075625139651,1115.6307801064468,241.22636864380533,25.20256211973843,234.6583522044912,168.99161275914204,156.14697002184482
1.4625,-0.2091422336093599,1.2687644404652108,-0.160201933624848,-0.0304725403354442,0.023787521344347,0.0237345612362999,0.0027840161834332,0.0006162139383572,-0.0275952029153494,0.9996148915093296,0.0217185485829991,0.0975613009635389,9.529727532868945,-0.0034928735540577,-0.0310147833901238,0.0255974134307967,0.12782107710913,-2.451283207338768,1.134697374834296,1107.3086362666015,1097.8647841659292,1116.6053429070682,1116.3902051789353,133.31208257522724,23.127250613469563,174.5442255395533,455.5995712542776,156.14503736032333
1.465,-0.2290229536009336,1.0740038271373828,-0.167793073262566,-0.0318094640750578,0.0270995207851858,0.0232645653324147,0.0027598093409738,0.0006811277552068,-0.0275608581463779,0.999615854859136,0.0174679987680594,0.0954117383712748,9.529453682684812,-0.0037138849547419,-0.0308904969147811,0.0248475511341864,0.1278072558716329,-2.4513581227431653,1.1347539034765195,1107.4923417998336,1097.9307601810492,1116.9802836416627,1117.9087779627182,-10.69076059357053,26.874906562080128,91.82409018235572,621.4020850966468,156.142796091031
1.4675,-0.2015726018216878,0.9022097658966438,-0.1954262548329287,-0.0319000814244685,0.0293952565710902,0.0227780353116591,0.0027246409564028,0.0007414125746181,-0.0275223673125485,0.9996169608296168,0.0138522596576294,0.0928477614941484,9.529201794266145,-0.0039374990593793,-0.0307793517034091,0.0240971398977729,0.127786812028453,-2.4514296971659673,1.1348118135801504,1107.2551824636337,1097.9991586987396,1117.06446335798,1119.4972156044184,-182.33666319115787,32.651455464793585,-28.812256772562865,654.9872294145329,156.14099329516128
1.47,-0.15535029153467,0.72284406986088,-0.2418609575912087,-0.0315432677638235,0.0311503166104186,0.0224531958354934,0.0026778972971552,0.0008038885705726,-0.0274807680731001,0.9996181737543552,0.0107629723482714,0.0899111670596148,9.529036818677753,-0.004155652548598,-0.0306839135363145,0.0233464554391854,0.1277612986570802,-2.4514987735825167,1.1348709461459996,1106.5806584838779,1098.0940174583732,1116.8362223578,1121.1837141097908,-340.0512915547624,48.902904173656815,-155.02007873906553,658.0082377069315,156.13925812635102
1.4725,-0.1062891538432287,0.5373377854494741,-0.3006860387231416,-0.0311568220204743,0.0324938972541283,0.0221998592708399,0.0026194163006046,0.0008746211378861,-0.0274431083288858,0.9996192918682362,0.0080874067530521,0.0866529700635983,9.52901635680371,-0.0043612615109495,-0.0306058957074821,0.0225955709720851,0.1277319446550621,-2.4515663088373745,1.134930324419476,1105.55492600586,1098.243673219608,1116.2893629642847,1122.787256792953,-482.5055091496668,88.25703714946737,-305.1620779314292,590.1126858766338,156.13757939978112
1.475,-0.0578206829615497,0.3418782506127105,-0.366182068810854,-0.0309540748685545,0.0333353461157438,0.0217024645269343,0.0025524280476966,0.0009543340747257,-0.027416055191779,0.9996201205210808,0.0057973428199825,0.0831907134319247,9.52919097359911,-0.0045490585055619,-0.0305457397713991,0.0218449799421786,0.1277000795692752,-2.4516329631824454,1.134988971547984,1104.1681309381295,1098.5353026441203,1115.3104119681427,1124.134277539174,-665.1720273899474,185.4163669434868,-528.2814843489965,509.9223083294756,156.13596940769474
1.4775,0.0049715418308221,0.088915117932291,-0.4351031800808564,-0.031018892956824,0.0339760264251475,0.0205798127463433,0.0024809882803585,0.0010427705842131,-0.027401438244678,0.999620598787112,0.0038706283995573,0.0796559990711918,9.529604467168722,-0.0047164828516708,-0.0305025876983856,0.0210956454204644,0.1276689488410169,-2.451700422462365,1.1350453849969888,1102.22906586891,1099.1707550543251,1113.6479555425396,1125.3368683346005,-728.3096436572732,296.7836744718688,-674.4577804431317,370.2616146588832,156.13411805634823
1.48,0.0679566929738419,-0.1435448313246661,-0.4694919915858351,-0.0312853878265198,0.0343067735072293,0.0192406074646246,0.0024047758068999,0.0011356082547984,-0.0273956035429276,0.9996208328424876,0.0023557454758362,0.0760953216889519,9.530295279988936,-0.0048636412697454,-0.0304745212045008,0.0203487737072172,0.127641252956529,-2.4517704931009896,1.1350980339969297,1100.5265827198432,1100.0192210164798,1111.9381230659271,1125.9855856124684,-659.5326217334018,417.04757892253815,-715.0225897702664,201.7736912786447,156.13264354743566
1.4825,0.1472511979472638,-0.4028359050656888,-0.4641620648272609,-0.0315773766489182,0.0340720815908943,0.0175180271751313,0.0023216521720377,0.0012243815711739,-0.0273913476612473,0.9996210373183072,0.0013747531970208,0.0725170311579562,9.531296214558001,-0.0049928314524175,-0.0304587018425192,0.019605813400621,0.1276190437832623,-2.451844164490117,1.1351464074599351,1098.9314027602431,1101.255992948938,1110.0728425936884,1126.3457367909937,-632.1939409737151,630.9511333970331,-803.5490858019144,122.97796178449686,156.13124146784543
1.485,0.2578081410490979,-0.7415650588458895,-0.4028397385837531,-0.0315312113447837,0.0326690650423479,0.0151956335725215,0.0022365802303063,0.001298981105496,-0.02737961793382,0.9996214634280712,0.0010735965393816,0.0690584339829773,9.53263304309426,-0.0051078070081782,-0.0304514700138264,0.0188686588181037,0.1276041416985764,-2.451920792027543,1.1351908991501876,1097.3656130149743,1103.173976683465,1107.9203776369177,1126.600475421391,-489.97677723317565,759.456434206896,-739.1389331739731,85.84331551037197,156.12964464572576
1.4875,0.3531015189144688,-1.0398965200734722,-0.310071523329154,-0.0309248180788673,0.0307155762588687,0.0134728103875899,0.0021557826716187,0.0013512100670216,-0.027354933077134,0.9996222611147548,0.0015591010620169,0.0658711252650191,9.534325350623579,-0.0052125464889626,-0.0304490993624009,0.0181389299931106,0.1275954159610095,-2.4519983283595446,1.1352327294101363,1096.4815188740772,1105.0532751199723,1106.3771479278184,1126.7749533685455,-249.183973944724,773.5405316580619,-537.9469751243165,77.0599559341934,156.12838669627902
1.49,0.4353950959912842,-1.3438627937431673,-0.1936111071154859,-0.0298318469713056,0.0281632044344625,0.0128460426852775,0.002083143372892,0.0013785054656286,-0.0273233552998246,0.9996232597421304,0.0028308336479385,0.0630491826447042,9.53638687474288,-0.0053098384970489,-0.030448271984645,0.0174175034785607,0.1275889510279017,-2.452075745544728,1.1352736529095873,1096.1196931452507,1107.0416793417553,1105.230642761296,1126.9857752010619,-57.79205095959819,776.6429330314787,-388.7054719004565,89.3129482729383,156.12720572855108
1.4925,0.4946972954520088,-1.6414135599210895,-0.0783471221334706,-0.0284680334792893,0.0250564420727133,0.0134473090084043,0.0020189443383348,0.0013801835609886,-0.0272953389517543,0.9996241735966372,0.0048549222656655,0.0606079904964941,9.538826492435875,-0.00540088388443,-0.0304460931313666,0.0167044865824313,0.1275807322096518,-2.4521533216059175,1.1353151431031037,1096.1925586192792,1108.9364897851299,1104.4336205683162,1127.2215181099102,120.02043904330726,689.245327275496,-249.17485612767783,84.20547582981986,156.12608962218533
1.495,0.5145056188760537,-1.91212512310276,0.0171834683804372,-0.026943778837528,0.0209787741753568,0.0146929789719903,0.0019671689269802,0.0013587741520681,-0.0272734869503002,0.999624918155572,0.007536069708203,0.0586246282906008,9.541647468182749,-0.0054859748653129,-0.0304397281070742,0.0159998777352109,0.1275688113996606,-2.4522319961812085,1.1353577174891127,1096.7197953404675,1110.4879059781329,1103.9847684806575,1127.4068025802108,305.19479540070483,555.8799218301244,-152.05049080882063,38.166638228312,156.12505285992535
1.4975,0.4831459993811738,-2.175378295443512,0.1079556407679866,-0.0249999148981417,0.0148980635085864,0.0156050670011046,0.0019335486655011,0.0013206679072728,-0.0272566447302639,0.9996255039935088,0.0107056723510193,0.0572006954518586,9.544847993630848,-0.005564587618509,-0.0304266468843267,0.0153038206298522,0.1275521135284054,-2.452312076627531,1.1354012004574918,1097.7185325962828,1111.7158893942803,1103.673368114272,1127.4123513010516,398.55674730602846,324.98305064478484,-104.25387048367377,-56.047340943724805,156.12390179949057
1.5,0.4093088179912383,-2.320940195510007,0.1764939272398965,-0.0232537817835171,0.0090756838161651,0.0155557264434625,0.0019188109425203,0.0012721934422326,-0.027240719605446,0.9996260325541076,0.0141999240554657,0.0563365094368633,9.548422605236668,-0.0056357662950382,-0.0304050551589769,0.014616640451699,0.1275316267203429,-2.452393557498975,1.1354437664003727,1098.7125790769976,1112.1128212313567,1103.4634991282392,1127.1265658754924,398.00381944897646,25.338199611861086,-97.85712406778866,-187.6647111542792,156.1230210015993
1.5025,0.2929454654755458,-2.3685228490981545,0.2547575123568512,-0.0217798513895871,0.0026691514466838,0.0149397324321956,0.0019224825978382,0.0012150656951581,-0.0272231875149179,0.9996265715484524,0.0179444421882684,0.0560068704534616,9.552362119958557,-0.0056983063400476,-0.0303740342485203,0.0139393774829303,0.1275099303575393,-2.4524749348398127,1.135483224578306,1099.7085516935276,1111.8425803923399,1103.1840824939331,1126.4740277452804,411.08945852855834,-254.38689733327328,-146.06112727801363,-362.75576986280686,156.12222253806675
1.505,0.1259842011322376,-2.3009167686552567,0.363732214452091,-0.0210677939683829,-0.0052758546723202,0.0146067244438739,0.001943010790666,0.0011548924069633,-0.0272019492862039,0.99962717564011,0.0217921746159878,0.0561605361272719,9.55665258198384,-0.0057514375547622,-0.0303336403641998,0.0132736556295803,0.1274879793305715,-2.452554908385284,1.1355190399011583,1100.7680263696404,1110.8408867446904,1102.7331934918493,1125.3127870261783,357.791537101767,-455.9026935277765,-174.91656326305525,-467.2365549692023,156.1213605298792
1.5075,-0.0148190657771189,-2.145256011650351,0.4544390149489747,-0.02151904609564,-0.0114137233192666,0.0155593960801804,0.0019732258191831,0.0010994171409685,-0.0271760771358256,0.9996278773833932,0.0255594916561809,0.0566358422092273,9.561276094033476,-0.0057948293645279,-0.0302849354008473,0.0126211942575225,0.1274660864889737,-2.452632926871406,1.1355509920830833,1101.4975093790365,1109.5630669247007,1102.3094996776179,1124.1378449704343,266.43202184678216,-569.0035836601177,-155.72434258270155,-476.8481157176768,156.12072293822555
1.51,-0.1365378311738629,-1.9073011404459284,0.5210762890173711,-0.0225486061401328,-0.0162887819701174,0.017746071854527,0.0019979821063743,0.0010577964314466,-0.0271462502618063,0.99962867872892,0.029041547292176,0.0571170992412518,9.566211432296376,-0.0058285501781322,-0.0302297877782041,0.0119833638917153,0.1274445049772083,-2.4527091151003657,1.1355793181414444,1102.1001864788743,1107.9958688263898,1101.9545717789358,1122.92854644759,235.14366843860944,-650.6323727852897,-109.49107477231568,-461.00881488901973,156.1201698172314
1.5125,-0.2357947649723759,-1.6224907108803095,0.5554058752533919,-0.0236040376300108,-0.0200704377810366,0.0201806027460152,0.0020059506002815,0.0010340025989616,-0.0271139454407991,0.999629557832276,0.0321328616739674,0.0573645007910932,9.571433599893819,-0.005852942530941,-0.0301702773846849,0.0113616678363855,0.1274233470249405,-2.4527836991833176,1.1356044898110125,1102.6732277212295,1106.3099050607743,1101.7620443037563,1121.8328008959893,247.43104309586096,-679.4329969809339,-15.191832899608576,-382.537776592508,156.11968716707406
1.515,-0.3110294659171084,-1.3038806384683355,0.5520310108865594,-0.0245609218084878,-0.022946892012323,0.0221223808947084,0.0019928345756645,0.0010234170115955,-0.0270802358865157,0.9996304984971968,0.0348917360351905,0.0572785543131293,9.576914042346653,-0.0058686036909306,-0.0301083935602636,0.0107577071471992,0.1274027850555681,-2.4528569654827406,1.1356272541351673,1103.3373416943537,1104.598703841485,1101.8786126144375,1121.0158575646271,346.7702237403875,-735.725086330814,142.55933589051563,-272.6564752856512,156.11928992692674
1.5175,-0.3860383545268005,-0.901123066694542,0.5227136323575174,-0.0255331978318032,-0.0258602939435913,0.0235201996376344,0.0019593420116401,0.0010134072328509,-0.0270421398034701,0.9996315926498218,0.0375314707547234,0.0568619863102368,9.582621366528596,-0.0058765831143819,-0.030045878186472,0.0101728560845913,0.1273833974265279,-2.4529295690194535,1.1356481129826184,1104.4070788399315,1102.6312796291204,1102.4748409832089,1120.469518519561,457.3209307222084,-692.982617857266,300.3124666374852,-123.75435670133164,156.11891243781488
1.52,-0.4468789224582818,-0.5563614867134302,0.4940648879870388,-0.0262575051098715,-0.0278617080363424,0.0240251565747184,0.0019061097107752,0.0009903108477779,-0.0269934781131111,0.9996330205352096,0.0402898865505408,0.0561191934798717,9.588522275301004,-0.0058783600785418,-0.0299842297802434,0.0096077638155752,0.1273658006954372,-2.453001681979044,1.135668134012022,1105.6239463479646,1101.1337907521988,1103.3801749476252,1120.3970857811207,565.8121041380704,-551.9374386307508,442.3238045775728,41.99985753334748,156.1186807927803
1.5225,-0.5167182110366941,-0.2114955537254578,0.4739798408932216,-0.0271732528846678,-0.0288806479416743,0.024311756065895,0.001836248255073,0.0009521963328587,-0.0269336860464352,0.9996347899421744,0.0431828427945734,0.0550980210897638,9.594581577282993,-0.0058753307960502,-0.0299246783781596,0.0090623538143574,0.1273495232266241,-2.453073036482304,1.1356883124372223,1107.2361393606216,1099.8715924359667,1104.6864600060967,1120.6795178072275,793.1766672407592,-477.30892310081606,648.0528705571337,182.4395534382305,156.11853544767425
1.525,-0.618063660632797,0.1880721193688263,0.4580971586064478,-0.0286855828608165,-0.0285075332756003,0.0251424753712567,0.0017543784528655,0.0009054678347035,-0.026867138437984,0.9996367631124868,0.0460693226292334,0.0538730789607616,9.600763706049971,-0.0058685232240662,-0.0298681220243442,0.0085359731242108,0.1273326097476083,-2.453144067211047,1.1357094373493677,1109.5898296841683,1098.7472461366947,1106.620439300411,1121.309283548312,911.3126945313313,-328.7975276971261,747.7465265639522,255.76906328928408,156.11846076249688
1.5275,-0.7200076674630953,0.5001730265559639,0.4413182098689993,-0.0301358397584498,-0.0271066544395629,0.0264137143609739,0.0016663990904089,0.0008544981590553,-0.0267962288123253,0.999638857424808,0.048850598052114,0.0525465665634688,9.607034191049012,-0.0058587622513259,-0.0298149907614013,0.008027792122978,0.1273142573536837,-2.4532149364978633,1.1357308047047057,1111.7927028332783,1098.227604797481,1108.4251926389163,1121.958363123674,887.230768460832,-101.44376279663663,728.474797715323,255.4146677495792,156.11848122466847
1.53,-0.841586426570932,0.7879175900472644,0.406520958396355,-0.0315439482247527,-0.0251644173016361,0.0279389567939263,0.0015760588707519,0.000804625834399,-0.0267221542960162,0.9996410290022664,0.0514142690175638,0.0511802418536058,9.613360442535152,-0.0058468130871844,-0.0297652907872191,0.007536846774826,0.1272950190911303,-2.453285027894012,1.1357523077355922,1114.0259835264726,1098.2400273227115,1110.2628132889874,1122.5863568870595,921.8424997464095,142.4029156007267,775.4493060581062,243.62408085585747,156.1185865384013
1.5325,-1.0053790317535023,1.1121194943731425,0.3347003430295953,-0.0334514512785801,-0.0227485421494934,0.0295597499474442,0.0014879582633762,0.0007655604542069,-0.0266468418104305,0.9996432123877014,0.0535667758042474,0.0498505474918473,9.619711692598845,-0.005833481600885,-0.0297185296021376,0.007062398541894,0.127275694803539,-2.4533544937989937,1.135773199348296,1116.4019153320105,1098.9396193754847,1112.3024391692068,1123.1764835279535,768.0688044424464,370.04577840693,694.7812545279088,180.087826018685,156.11880922905087
1.535,-1.1455171303095628,1.3705726270150371,0.2499672405208378,-0.0355715225634617,-0.0206250932759669,0.030549748635256,0.0014060749279404,0.0007448784311487,-0.0265757329451835,0.9996452528171578,0.055158583209007,0.0486229571097181,9.626059556617982,-0.0058194294110308,-0.0296737030078002,0.0066040755643547,0.1272569573553642,-2.453424339991913,1.135792483598126,1117.8663275486847,1100.0902562147462,1113.736719561627,1123.4867960171532,425.75840305693345,560.169032647296,499.1327583829728,93.84074933268275,156.11907334519506
1.5375,-1.2670623690915663,1.6146763532317459,0.1458530190689474,-0.0383214222372998,-0.0179502130230218,0.0310240316175751,0.0013349184667647,0.0007413139215064,-0.0265102842780979,0.9996471077374381,0.0562131282513966,0.0475771719089619,9.63237803533346,-0.0058055195517717,-0.0296292008856251,0.0061620402637438,0.1272394777327937,-2.453495919048587,1.1358094836208208,1118.5307073472952,1101.7404645387212,1114.798102961122,1123.6456872746169,109.67569175968725,716.5921407471312,359.12648180693253,56.45657826630788,156.11941643360336
1.54,-1.3525647668477496,1.834300801390888,0.0325346055995488,-0.0416583505425335,-0.0144158094113272,0.0309981478502734,0.0012745978430632,0.0007479921419174,-0.026449940349004,0.9996487981891296,0.0568670336362359,0.0467099856363717,9.638643788551033,-0.0057926406197172,-0.0295830580996922,0.0057365499962373,0.1272228623928435,-2.453569544557551,1.1358248270486209,1118.4147060074831,1103.6732169184816,1115.5323519706617,1123.7690789084847,-234.79455629868016,799.2459147499802,224.33258058827528,70.17470495811871,156.11982274891238
1.5425,-1.3702178672869427,1.997946381693404,-0.0854188379609732,-0.045631903942429,-0.0096246671767516,0.0305810237717834,0.001219201281808,0.0007652545933793,-0.0263970278424871,0.9996502699300316,0.0571231369018254,0.0458970944602696,9.644835970409604,-0.0057814165867163,-0.0295333001320379,0.0053275701492782,0.1272065781801927,-2.4536451129288506,1.1358387074714222,1117.3567345658018,1105.736694112471,1115.9197658640633,1123.9965607994075,-644.9842552873316,882.943276113129,116.31495905571929,158.07773070824052,156.12030214694045
1.545,-1.2910697197143952,2.0925822966579166,-0.2300131726006042,-0.050239290968845,-0.0028832566154328,0.0298589893134579,0.0011636360539558,0.0007948764650093,-0.0263566388913787,0.9996513947039402,0.0569576041240948,0.0450279506526067,9.650935840359047,-0.0057720278913603,-0.0294781628950044,0.0049351688964718,0.1271902358345661,-2.4537221484997542,1.135851157140962,1115.1897847310468,1108.087933299047,1116.1139267659403,1124.559467562026,-892.1993900956544,807.4593992750392,50.762143573091365,268.7574130346485,156.1209572560736
1.5475,-1.1351112785506687,2.0660665576642585,-0.3554031275837939,-0.0535350240788809,0.0030445880015888,0.0290936763394286,0.0011087267008224,0.0008330671803072,-0.0263291551642841,0.9996521651048752,0.0564523589715929,0.0441084674958764,9.656926658934449,-0.0057645591017623,-0.0294162344241578,0.0045598342616259,0.127173167258205,-2.4537994717610085,1.1358619769443024,1112.8957376153235,1109.7739911088463,1116.1735765819287,1125.3403478645807,-939.8299723914771,590.4485002841601,33.00194687135369,376.2102791774764,156.1215658869702
1.55,-0.8867099533221088,1.9197068131684825,-0.4912751460154689,-0.0563554959342252,0.0088877452026758,0.0281951188449331,0.0010560503026253,0.0008727120141413,-0.0263110728189515,0.9996526774520063,0.055754140168022,0.0431613011576501,9.662794428820115,-0.0057590287263555,-0.0293466894950037,0.0042020475923869,0.1271561669425338,-2.4538762644844128,1.1358708447846466,1110.4906348690893,1111.0401758004682,1116.278936500297,1126.4405189579131,-990.2156022216996,447.8859153085618,85.73945200592063,535.5548094825849,156.12223454767323
1.5525,-0.4914850585861003,1.6149651770998654,-0.672144911489944,-0.0591636502353047,0.0150434875977035,0.0270752489703841,0.0010047085947889,0.0009115150676767,-0.0263037929541433,0.9996528954173742,0.0549178509113614,0.0421603275002024,9.668528356153542,-0.0057549963510644,-0.0292694444907234,0.0038618545393333,0.1271386897305124,-2.453952557237476,1.1358775895067597,1107.944659604215,1112.013420685389,1116.6022738419583,1128.0181219119936,-821.1001064818622,269.51627317130834,163.4532650192376,594.8766689351614,156.12309983722284
1.555,-0.0960968966446874,1.2743456187603344,-0.8377538247641466,-0.060935057759054,0.0189330063987763,0.0260483442365342,0.0009541896066197,0.0009474776085529,-0.0263057014160829,0.9996528618639956,0.0539924206144972,0.041089391760299,9.674121133251136,-0.0057520309144116,-0.0291850037690248,0.0035389163974072,0.1271204878755577,-2.4540289281769354,1.1358822694486754,1106.38513433668,1112.3877571663247,1117.0962028253932,1129.414902302589,-468.4432222560992,75.1171590187806,244.4754343906368,540.1033628162043,156.123868165555
1.5575,0.335710889127619,0.8794416693718596,-1.0086116838071375,-0.0618457320566941,0.0213814874852577,0.0245128628915223,0.0009025425443775,0.0009770634584193,-0.0263129415920503,0.9996526832390245,0.0530568957103842,0.0399091045783438,9.679569606045133,-0.005749737675451,-0.0290944806191433,0.0032322534667957,0.1271016564454375,-2.4541051704455312,1.1358863513187822,1105.6024434929343,1112.3890064804827,1117.8246510139115,1130.7186387260747,-180.14151551419255,-44.3034322218399,320.5756087764638,482.7265629079536,156.1246789383018
1.56,0.759558656031721,0.4684106436788761,-1.1669728824767163,-0.0612033019238242,0.0226656572402119,0.022323688414462,0.0008513839198968,0.0009973872487246,-0.0263202835593313,0.9996524998639366,0.0521754082333643,0.0386536499856977,9.684874720135113,-0.0057478311441645,-0.0289995900351503,0.0029404372984304,0.1270819014004691,-2.454180410279967,1.1358909897223075,1105.484426759109,1112.1662400052155,1118.6990808692756,1131.8285351171287,90.21147445260077,-121.45966956241212,366.8629200387919,379.1784537927096,156.12551964099205
1.5625,1.1140629138978804,0.0693228745546431,-1.2816067313453887,-0.0576529344145344,0.0227481109411168,0.0193515255523523,0.000803674284743,0.0010041209237167,-0.0263229396175457,0.9996524428500376,0.0514387192231206,0.0373898114573418,9.690042072293837,-0.0057461309590305,-0.0289026445737178,0.0026615906933151,0.1270620354205411,-2.454254465597128,1.1358968198976083,1106.0535008651975,1111.7817081326707,1119.6589656141055,1132.614530995038,355.14392213068123,-181.8313738025647,421.13534166283887,263.49254818179014,156.12638964381057
1.565,1.3909403973729275,-0.3641962843667788,-1.32863056653912,-0.0507554095174525,0.0219395328915212,0.0148388463766273,0.0007593564883379,0.0009902646965879,-0.0263182175597442,0.9996525939433644,0.0509903903393138,0.0361336526137352,9.695082341845438,-0.0057445297466237,-0.0288064733089852,0.0023933909781018,0.1270436097318212,-2.454326993117932,1.1359042099851389,1107.2601463697624,1111.2570831362027,1120.8047575775895,1133.1459978580378,482.46159456360846,-188.4983533268453,411.1209187414621,131.5854015843312,156.12745859269967
1.5675,1.4766847494739184,-0.6704832125737475,-1.2678164510644891,-0.0445468846191588,0.0206781190583292,0.0103785556609009,0.0007150003734957,0.0009563827712572,-0.0263114708611379,0.999652815751992,0.050828528764831,0.0348383047312208,9.700010644274528,-0.0057426279818568,-0.0287143016521719,0.0021332270022823,0.1270262291130795,-2.454397479145347,1.1359126025322588,1108.4658088380156,1110.8392163660367,1121.7145702078128,1133.2724580029599,471.6127601717635,-151.13974058312684,355.94182572284893,1.841941742713928,156.12836386241193
1.57,1.433328563837482,-0.902336068385287,-1.0906197258393084,-0.0398386750417961,0.0187466808234492,0.005741593236346,0.0006673982885689,0.0009106015972419,-0.0263127774188015,0.999652837384118,0.0508041965940806,0.0334633499317273,9.704845646425584,-0.0057397790565664,-0.028629443844194,0.0018787072516017,0.1270080571717106,-2.454465764593369,1.135922086637128,1109.6182101706213,1110.501384433287,1122.584466706204,1133.1552075667514,454.1748183066017,-122.63257441245776,385.0240841519817,-77.92322162854526,156.1292769657842
1.5725,1.2990813352926935,-1.0752515012905597,-0.7624994108622191,-0.0365536844498346,0.0154871811440244,0.0012179443646206,0.000617782212106,0.0008617728294859,-0.0263238168737997,0.999652603377368,0.0507527551454,0.0320597453944214,9.709608692659586,-0.0057358039109458,-0.0285548575546204,0.0016282524577823,0.1269884254366373,-2.4545325134127367,1.135932217553845,1110.7366829295484,1110.2260534939744,1123.6396906285727,1132.8828418948171,355.3635132352686,-76.28461624176614,398.2986710208109,-95.45808982516269,156.1303738097273
1.575,1.1723425920976367,-1.1199969799790983,-0.4307517976097268,-0.0351619492130496,0.0120240605796993,-0.0005710693092489,0.0005683663998547,0.00081498149335,-0.0263408734676969,0.9996522043445148,0.0505830668878777,0.0307039759547554,9.714323151895208,-0.0057309601525139,-0.0284929593278873,0.0013811752150483,0.1269677750407101,-2.4545984240844305,1.1359420443577628,1111.3950277367976,1110.1199613520782,1124.575960061308,1132.6779171176256,214.903726998768,-12.259352138198382,391.1649162266622,-44.66311370774644,156.1312832445905
1.5775,1.0760482896656627,-1.0575677033219835,-0.0992746725376583,-0.0338415582623061,0.0083397112496911,0.0003090955869306,0.0005189548813494,0.0007757620045154,-0.0263609891360336,0.9996517145811588,0.050197626899673,0.0294283109695322,9.719013219362118,-0.0057257912595365,-0.0284455513501176,0.0011375430243343,0.126947010725443,-2.4546635533750423,1.1359500420784288,1111.8112015645424,1110.1647567332834,1125.595515209706,1132.6595263262784,142.52196116594527,49.2000938983881,416.36213313967295,45.70950147799416,156.1321816028969
1.58,1.0205327778315418,-0.9151190388389348,0.1926280107132476,-0.0320399987591389,0.0050412942335097,0.0024916901947577,0.0004676656784011,0.0007427170866885,-0.0263825141587777,0.9996511819405182,0.0496361349263461,0.0282365961689546,9.723702839637497,-0.0057211710067822,-0.0284137135049872,0.0008982493744441,0.1269272078401221,-2.4547278801747283,1.1359555726659372,1112.1076375426271,1110.36596182157,1126.6577707270064,1132.9064646250156,111.00790208952512,128.91730158039812,416.74082441851147,182.32865112950483,156.13306630432797
1.5825,1.0170592986517375,-0.7019969768350468,0.4160400791969126,-0.0299202659724691,0.002596512134326,0.004407915673534,0.0004166661373144,0.0007151234183348,-0.0264036228059503,0.999650657866782,0.0489254453314619,0.0272096767859098,9.728413912087284,-0.0057183611506533,-0.0283976616743605,0.0006650117053006,0.1269089983126347,-2.454790972384127,1.135958160760934,1112.36624107499,1110.8093432411852,1127.6792193317983,1133.571169581926,123.90707274726348,264.8931485563082,405.3040149679505,399.1044099556433,156.13392942200835
1.585,1.067190035214039,-0.4114904244098911,0.6091727294706648,-0.0275441459626159,0.0009628697066645,0.0058152670889696,0.0003685713307222,0.00070380962065,-0.0264206706919536,0.9996502297757466,0.0478700594352721,0.0264276112711349,9.733165064170151,-0.005718947761168,-0.0283965961228874,0.0004397106100698,0.1268914613405334,-2.454853514758447,1.1359582134833344,1112.7271729063636,1111.6904275643517,1128.684290801846,1134.9019866747935,145.06411903825784,388.08286688166856,304.63422666043,568.3933037684125,156.13493415002
1.5875,1.144119090585385,-0.1785761604907825,0.7183458969355317,-0.0257566812573512,0.0006939023167732,0.0069006839160083,0.0003259027902251,0.0007163820446048,-0.0264286034852972,0.9996500261263588,0.0463395898204625,0.025964378171779,9.737971464490371,-0.005724625816226,-0.0284085773678521,0.0002242301457965,0.1268746069449671,-2.4549160539706945,1.1359565585893288,1113.0915616701811,1112.7497575755935,1129.2023904651007,1136.413136100768,154.17372232313582,492.60651969819946,115.25080877395072,654.3142816197209,156.13574171631979
1.59,1.234198561648986,0.003150078167631,0.7815827510841986,-0.0237334022224665,0.0014110476820044,0.0084289000536363,0.0002939126594876,0.0007497705995057,-0.0264248750454954,0.9996501163425812,0.0444124005524874,0.0259443978103456,9.742844544494444,-0.0057368769085821,-0.0284305142876547,2.048551876589457e-05,0.1268579515373092,-2.4549787160503205,1.135954810477236,1113.4980415179791,1114.1534601628427,1129.260544845716,1138.1735580828924,177.3348588252285,688.1051837099368,-93.64094814418621,765.7989958918897,156.13651452878867
1.5925,1.3129214802862252,0.1283872593456521,0.8052467266579038,-0.0202316325930001,0.0030995361315457,0.0107298436679437,0.0002740002121884,0.0007920527286495,-0.0264100215288234,0.999650494357956,0.0423436543060885,0.0264114542742378,9.747792180466105,-0.0057568862970551,-0.0284581858395428,-0.0001700219341228,0.1268414507922724,-2.455042920452824,1.1359543205717568,1113.9782359643075,1116.1902834941432,1128.7341857243798,1140.2421310802274,168.43943730350833,790.951952999029,-287.9033478171157,694.0695886764992,156.13739796883775
1.595,1.3146968087826463,0.1460722603859715,0.780104725377552,-0.016172363222713,0.0047926513744069,0.012972815036905,0.0002612312821702,0.0008356262726691,-0.026391378778496,0.9996509698037797,0.0403094790306951,0.0272716685535205,9.752818239386272,-0.0057852967056995,-0.0284864116106803,-0.0003463744240275,0.1268245232835449,-2.45511011001836,1.1359545142171283,1114.3402387044969,1118.1082199278378,1127.8210281066304,1141.6439060262749,136.95753295232547,787.3640576710205,-442.7286149561394,434.06912505451055,156.13809536674455
1.5975,1.2099070663706895,0.0845352410356261,0.70960629915616,-0.0115810148260974,0.0059226353143204,0.0150893737177921,0.0002518407554183,0.0008714625337169,-0.0263741432533913,0.9996514117637668,0.0385146808589075,0.0284419670387182,9.757922627313382,-0.005822708169489,-0.0285092847139756,-0.0005075519579375,0.1268070374626499,-2.4551812633855348,1.1359538170806727,1114.6630236290691,1120.1271037824984,1126.520542649599,1142.4124767055,129.9002009695384,802.2472241111061,-559.973523581071,176.06330084763206,156.13875057427367
1.6,1.0018929423160288,-0.0202873423182107,0.6066605977460958,-0.007383985853087,0.005918414740175,0.0167673033491114,0.0002411043758813,0.0008926075243393,-0.026361136250181,0.9996517538891796,0.0371246991889543,0.0298067854073896,9.76310148366083,-0.0058697042214171,-0.0285206848532367,-0.0006525467861246,0.12679005115722,-2.455256366696912,1.1359515252520596,1114.9897397093443,1122.1194560483934,1125.0211604887247,1142.524222530513,147.20059799647373,765.9721265576701,-614.6490681739256,-115.32281660284087,156.13936988660024
1.6025,0.6750894005429013,-0.1446043309162469,0.4740654384474456,-0.0040671910016579,0.004764658481752,0.0180265821255749,0.0002213278544022,0.0009018513498195,-0.0263531023828868,0.999651976005465,0.0361157186663304,0.0311756077811183,9.768347173143379,-0.005926769674833,-0.0285148713514714,-0.0007806880513992,0.1267739552977175,-2.455335223610817,1.1359477493800667,1115.3990266190515,1123.9569644152868,1123.4472973087295,1141.8358626224858,221.17183766368288,748.3533091798267,-673.4206561602293,-453.424110974866,156.1399454281214
1.605,0.1807382252181377,-0.2855341977156722,0.2934127551203423,-0.0016205195657642,0.0030488001748701,0.0192289843886262,0.0001905878727441,0.0009044378023263,-0.0263441128391985,0.999652229461989,0.0354112476991491,0.0324592397891334,9.773648701724003,-0.005994408251584,-0.0284870204815324,-0.0008912211988601,0.126758813497541,-2.4554168628100808,1.1359428381401553,1116.0955988976627,1125.8612225942925,1121.6540572079239,1140.2571019756388,301.6218264191203,635.86020289546,-625.3896382377793,-659.4313034189468,156.1405852283918
1.6075,-0.2740037099470761,-0.3868883096753465,0.1346945414781959,-0.0014964367353752,0.0017570429420491,0.0198892639180569,0.0001524762891698,0.0009013017068381,-0.026325909918607,0.9996527300028704,0.0350128686377955,0.0336707453772362,9.77899282072102,-0.0060727159355121,-0.0284337673055948,-0.0009833699692158,0.1267447294361173,-2.455499629957368,1.1359381502411836,1116.907135751147,1127.136265429764,1120.3203491175407,1138.5387061053912,375.8791278225912,434.62964315693984,-495.18835498309943,-705.689180203428,156.14107559067062
1.61,-0.7128089399217588,-0.4726125848761821,-0.0190595860484408,-0.0037594432941995,0.0006991411018588,0.0201156767908994,0.0001119904698202,0.0008981715549936,-0.0262936331517378,0.9996535996529188,0.0348228256025167,0.0348432557930586,9.78436444831317,-0.0061608413209388,-0.028353563920958,-0.0010567222002144,0.1267315360569759,-2.4555815594046377,1.1359340607534931,1117.974994536776,1128.0343708100772,1119.1781154330083,1136.7286560746215,515.319348400032,296.86532274608214,-465.67781160664543,-742.6105415864467,156.14152046522133
1.6125,-1.1603334399566596,-0.5643073008976688,-0.1797472815666689,-0.008647953017863,-0.0004939206434271,0.0198249371923408,7.025029595790327e-05,0.0009005178605615,-0.0262511386799855,0.9996547306860152,0.0347436327325346,0.03593219393874,9.789748238589892,-0.0062565312778142,-0.0282467818860776,-0.0011113867372558,0.1267176803258348,-2.4556617129114575,1.135930219394946,1119.4837324931473,1128.6205920434943,1117.9919600595072,1134.8256533974588,570.7766868010945,125.18861099252076,-411.2048718005641,-607.5643464156785,156.14199976375608
1.615,-1.4436391182584956,-0.6348377642335994,-0.2798453382688348,-0.0134708212349355,-0.0016396503156813,0.0190645786694325,2.692078366859944e-05,0.0009068225018677,-0.02620400913926,0.9996559770579216,0.0348078952998405,0.0368696873317117,9.795129770366865,-0.0063565242575149,-0.0281154759354617,-0.0011476852247225,0.1267019141709546,-2.45573920740568,1.13592565898685,1120.8288779707811,1128.6603138650398,1117.1220910740055,1133.6908343425432,526.0766516769876,-83.76592248682934,-324.63820616849955,-324.2973893758132,156.14235178603667
1.6175,-1.6357096105474376,-0.6988643425433749,-0.3300873403360192,-0.0176760454738395,-0.0031367350957634,0.017738281437521,-1.4978521534654325e-05,0.0009121534160992,-0.026157696964463,0.9996571997694956,0.035105471606805,0.0376601882850466,9.800495755402796,-0.0064568174690132,-0.0279630797986656,-0.0011659463746886,0.1266841846859152,-2.4558132326322544,1.1359199558950763,1122.114115751532,1128.2017624310604,1116.3687690286647,1133.2041664505798,482.2523749807604,-266.17356337996466,-273.3451178038586,-75.9664733784103,156.14265171033037
1.62,-1.768465868960181,-0.754626158927802,-0.3327818145809834,-0.020978148079277,-0.0049045450817767,0.0160208841771826,-5.54112035998728e-05,0.0009172490668129,-0.0261181173485418,0.999658242898764,0.0356083894348679,0.0382545655490838,9.805834616956108,-0.0065529058658922,-0.0277939989320471,-0.0011671025366448,0.1266630881748894,-2.4558837530052258,1.135913776476908,1123.2401398456852,1127.32944604814,1115.7553654849862,1133.3110019756512,391.52657280500546,-440.4612153414644,-188.16112579560945,180.48387168805257,156.14290581407536
1.6225,-1.8472784364291412,-0.7962903305850093,-0.2822292075705007,-0.0234014655053919,-0.0066772639316168,0.0142133906013465,-9.768600584368208e-05,0.0009236059744109,-0.0260914423235029,0.999658944351402,0.0362672493664748,0.0385477203694772,9.811137511017764,-0.0066402214842898,-0.0276131615314302,-0.0011527346379611,0.1266378671151527,-2.455951331833453,1.1359085822592063,1124.0717486155572,1125.999456354353,1115.4279633996869,1134.10658580902,281.6016824870136,-669.1070377304328,-36.23610893673762,480.61131819418847,156.14310096336072
1.625,-1.8744589194222712,-0.8240004480354342,-0.1849640814271019,-0.0268729450328978,-0.0086762706387651,0.0128938975856169,-0.0001454530447143,0.0009286390846968,-0.0260762655350107,0.9996593429071664,0.0371059882311338,0.0384419289747483,9.816398867877085,-0.0067151123158548,-0.0274255270237549,-0.0011247866961586,0.1266099828193235,-2.4560171773194712,1.1359055014561035,1124.6481482581203,1123.9839108594879,1115.5741849403023,1135.714058566622,135.53155935133253,-787.0776525320875,175.06120688476955,663.9970130040779,156.14326188938912
1.6275,-1.8122110567808976,-0.8214634171400775,-0.1030986208333414,-0.0316424769791915,-0.0105577761717244,0.0131449114925872,-0.0001976249893524,0.0009277062952174,-0.0260684416440629,0.9996595513172304,0.0381806449252429,0.037946270931769,9.821616040615597,-0.0067750386668255,-0.0272358843457036,-0.0010851036746816,0.1265813917746634,-2.45608161015656,1.135904392061588,1124.7494064123139,1122.0640680916927,1116.3032694341107,1137.4265708740404,-40.01167331180021,-790.5127612334398,445.1133702750109,710.6465894376761,156.14333166753988
1.63,-1.6169108024543923,-0.7807246254948692,-0.0551841649462349,-0.0379858531617256,-0.012688394979609,0.0146288313817594,-0.0002503811712083,0.0009205907371204,-0.0260651720450323,0.9996596435910196,0.0394544732218116,0.037134354599213,9.826789007292698,-0.0068185797493494,-0.0270487250690792,-0.0010353620437139,0.1265535122859717,-2.4561446028717575,1.1359046028244275,1124.4480898915613,1120.0313470533204,1117.7997517916776,1139.2672915138105,-222.2019512351784,-895.583143816818,840.1976821170397,775.3175998485679,156.1433317962797
1.6325,-1.203843770164978,-0.675429018331481,-0.0531842263468736,-0.0447776949363383,-0.0148650333925143,0.0164586444659693,-0.0002986870850059,0.0009066219223033,-0.0260627739621102,0.999659717919804,0.0408965135037544,0.0361169566301116,9.831920526950473,-0.0068455705771109,-0.0268680583585633,-0.0009768487580874,0.1265271554194191,-2.4562062208205324,1.1359056502371998,1123.638396656138,1117.5861523726085,1120.504257844696,1141.303158873283,-363.3848044077772,-887.3620349997243,1121.2501908852812,676.1336081992939,156.14324948248083
1.635,-0.7244951630484147,-0.533635792094928,-0.0860131108046416,-0.0482987587857667,-0.0162445946034858,0.0171641776600504,-0.0003391014736717,0.0008857969957823,-0.026062624910166,0.99965973862666,0.0424626140108404,0.034985283184457,9.837015741531824,-0.0068566173022606,-0.0266973324636601,-0.0009104831185795,0.1265025036127235,-2.4562664842159165,1.1359066114990577,1122.6311658695224,1115.594536878322,1123.406002746104,1142.647959554807,-452.2709850364305,-784.0371787474108,1238.35438028107,430.9241873244083,156.1431116679069
