t,ang_acc_x,ang_acc_y,ang_acc_z,a_vel_x,a_vel_y,a_vel_z,quat_x,quat_y,quat_z,quat_w,acc_x,acc_y,acc_z,l_vel_x,l_vel_y,l_vel_z,pos_x,pos_y,pos_z,mot_1,mot_2,mot_3,mot_4,dmot_1,dmot_2,dmot_3,dmot_4,vbat
72.67,-0.9905966575442317,0.1789148192160257,-1.3634776586825488,0.0127047712597179,0.0021036584281707,-0.0114305762934862,0.0036259875327701,0.004029518153956,-0.0949678344799399,0.9954654062341358,-0.0068063676251072,0.0791468816985476,9.800980055529443,0.0064652973892567,0.0018442485014191,-0.0004414551955113,7.563976776185768,2.158794521395135,4.12892885227564,1102.983656022246,1111.938390731841,1118.1504095625176,1107.2569397431964,-344.5681291503612,-270.23511616141167,488.60150695567296,204.22796248254076,151.14926515681225
72.6725,-0.942132962625199,0.2927284174387349,-1.0223713061290287,0.0096390741059975,0.0019923744607797,-0.0154247304031735,0.0035857218732139,0.0040643782951575,-0.0949527701797974,0.9954668357913096,-0.0080118631138735,0.0802385810487004,9.798759423366755,0.0065247133252411,0.0019285169466979,-0.0003854355727549,7.563995782503911,2.1587964904249595,4.128933526181285,1102.1560631385244,1111.1398744365656,1119.0008775883296,1107.8177429279642,-327.3090044711601,-362.1783195818008,225.6898381248681,233.40351378886533,151.14649642550782
72.67499999999998,-0.8419876566693287,0.4002326417405739,-0.6008775233573824,0.0070674973505103,0.0028250291492438,-0.0177319918281649,0.0035371776111963,0.0041199003160134,-0.0949292972851389,0.995469006040102,-0.0097505861292565,0.0808392836550881,9.796641906608004,0.0065746588801648,0.002016006156236,-0.0003507168366933,7.564015279426288,2.158797053027901,4.128942201492262,1101.3471109998916,1110.1274991339335,1119.278858753141,1108.4239573121397,-332.4365155264172,-459.27327601726506,-5.592546401163047,248.35575032548,151.14376160471232
72.67749999999998,-0.6889720417425675,0.4867796390191182,-0.0725445605063158,0.0050998430737648,0.0048848453003993,-0.0183258199426132,0.0034858402521385,0.0041906707578615,-0.0949035831596321,0.9954713301629624,-0.0119037967160367,0.081056179311335,9.794705387687232,0.0066132622739464,0.0021065532253295,-0.0003419708836266,7.564036267010499,2.1587965778338374,4.128954373225673,1100.493880560894,1108.8435080564811,1118.9729148563235,1109.0595216795905,-285.53137247162636,-457.7939726367069,-202.27055253692032,205.12297670803864,151.1405252459732
72.68,-0.555390071682686,0.502433666627301,0.3345701951176544,0.0041451940772606,0.0071122577230279,-0.0171275370023209,0.0034388931482949,0.0042685682428909,-0.0948822640867352,0.9954731837100153,-0.0143003564581986,0.0810382520252328,9.793035943857394,0.0066391845761129,0.0021998492948358,-0.0003621588289645,7.564058822188786,2.1587957327272647,4.128968298833432,1099.9194541375307,1107.8385292707455,1118.2675059904543,1109.4495721956819,-201.51630266211373,-363.0748220300833,-344.79967260855784,125.66029320212962,151.1378702724977
72.6825,-0.4345397549612702,0.4485851625047089,0.6559727207329331,0.0033583937159326,0.0089770893428119,-0.0145746122759055,0.0034030508069121,0.0043459140683803,-0.0948702055377762,0.9954741136931698,-0.0167753857058239,0.080928236452478,9.791724417718529,0.0066518437277285,0.0022953111977208,-0.0004120919798451,7.564082440889902,2.1587953271001354,4.128981952787396,1099.4862990475815,1107.0281339463274,1117.2489164932776,1109.6878231456024,-156.39802534361152,-275.68603779534504,-432.76848183666766,77.93345687889808,151.135263218472
72.685,-0.3324920054371756,0.3403787669282539,0.8819974579862838,0.0027170279269869,0.0101423555186635,-0.0114403127112817,0.0033836182034975,0.0044131516384144,-0.094870068484799,0.9954738932034312,-0.0191247903619004,0.0808486815854192,9.7908631124087,0.0066515854025201,0.0023920783877567,-0.0004903351160794,7.564106108990247,2.1587963185568166,4.128993366427745,1099.1374640108131,1106.4600990817703,1116.1036635812732,1109.839239480076,-132.09383600913688,-152.28089204479355,-458.9119297492825,54.32801013649107,151.1326986868262
72.6875,-0.2578757171890823,0.1777882147778628,0.9837264039118804,0.0022607774374438,0.010810421332094,-0.0082579955500601,0.0033827174480333,0.0044642493063927,-0.0948810085409325,0.995472625412606,-0.0212086889934588,0.080857561238807,9.790541350944958,0.0066397373689924,0.0024891045439792,-0.0005932851460143,7.564128600017677,2.1587989737045126,4.129001567923504,1098.8258298675364,1106.266729486104,1114.954356844533,1109.9594631962843,-145.83220482490637,17.618661830799844,-477.8899259777771,63.238561937135486,151.1301882640335
72.68999999999998,-0.2011726933963262,-0.0634046058315691,0.9716540745811172,0.0016794184465114,0.0113327310061803,-0.0047511319522449,0.0033968552120976,0.004499688851303,-0.0948981404798238,0.9954707854769178,-0.0230064516977601,0.0808954407055574,9.79084161823376,0.0066184905727805,0.0025853149343054,-0.0007154967815784,7.564148581817856,2.1588027261317038,4.129005835245385,1098.4083029866895,1106.5481923909242,1113.7142139513865,1110.1554322897612,-169.44639257109833,194.92959014314232,-419.69767562256465,87.97529429606398,151.12724130114495
72.69249999999998,-0.1800395274990498,-0.287970234687669,0.8673190954427582,0.0011806499015501,0.0110485316911054,-0.0021956274915934,0.0034229528341903,0.0045166783566392,-0.0949190057015238,0.9954686308898903,-0.0244390043757391,0.080920603074627,9.791836668698334,0.0065905564169628,0.0026798008366498,-0.0008503578890767,7.564165530985987,2.1588072280944606,4.129005166231496,1097.9785979046817,1107.2413774368188,1112.8558684664224,1110.3993396677645,-191.56386475682933,370.68191213512574,-302.47184746800235,114.34738898520392,151.12484182733365
72.695,-0.1844788995581914,-0.515974391117105,0.693458540567569,0.000798836910473,0.0095452101409129,-0.0002159820320409,0.0034587323702406,0.0045149258344894,-0.0949421740942769,0.9954663070662197,-0.0254827156482614,0.0809057838488207,9.793585955950748,0.006558776487115,0.0027718295903342,-0.0009906360592293,7.564180764995995,2.15881195608638,4.129000878221121,1097.4504836629035,1108.4016019516034,1112.2018547140435,1110.7271692346883,-246.82495394142776,602.8995203821695,-241.65866928723196,153.43392296656378,151.1225023100402
72.6975,-0.2174742723531974,-0.7736423541440585,0.4421211902430944,0.000456703632106,0.0069856397787454,0.0013721835333608,0.0034970439780942,0.0044965835619891,-0.0949663379120786,0.9954639507160624,-0.0261580633717031,0.0807275310524319,9.796134924180484,0.0065257883857344,0.0028608143898406,-0.0011290433648722,7.5641952586732275,2.158816497519731,4.128994446118679,1096.744473134972,1110.2558750387357,1111.647575119984,1111.1665092825988,-259.0526316890273,736.497398150856,-166.25652876456684,157.1927214832678,151.1197652521488
72.7,-0.2649487170222346,-0.9685474535050532,0.2251028335735886,0.0001629237689138,0.0048700397171401,0.0019707108614197,0.0035349121140804,0.004461576199629,-0.0949918190586272,0.9954615380872148,-0.0264555253042259,0.0803509011639659,9.799513117586685,0.0064938275958378,0.0029462510729051,-0.0012587434412195,7.564209461713622,2.1588209149073565,4.128986641319507,1096.1552205044595,1112.0840889423544,1111.3705720702214,1111.513132842104,-218.40284152291895,756.7776113446205,-74.20674397892452,120.97351679241999,151.1175433294682
72.7025,-0.3255815112649282,-1.1406288819065504,0.0312709481443043,-0.0003298096792948,0.0028036639455918,0.0017371102233264,0.0035666618159592,0.0044129606696454,-0.0950161349535354,0.9954593101733564,-0.0264264866493044,0.0796856347740749,9.803734425631715,0.0064646943730719,0.0030275976189996,-0.0013734879829159,7.564223413684736,2.158824828795063,4.128977720205505,1095.6524589273583,1114.039763095455,1111.2765414000896,1111.7713768665603,-180.9936334016411,844.6728287518404,-4.8465653126230315,84.81557320722897,151.1153824779715
72.705,-0.399621143064671,-1.313805972954822,-0.1465183603192415,-0.0013915534789268,-0.0002557146305112,0.0007898145534208,0.0035866449266019,0.0043564082783944,-0.0950368952596396,0.9954574888307466,-0.026178036460351,0.0786397426000591,9.808797167858414,0.0064397185213462,0.0031042130455504,-0.0014677862268687,7.564237141512101,2.158828219845976,4.128968046611239,1095.250252337452,1116.3074530861095,1111.3463392436583,1111.93721070814,-101.99606361393488,784.5552075623203,47.01298902782311,39.00464353877305,151.11285927948893
72.70749999999998,-0.4508190993304825,-1.4191416879597438,-0.2368495106445007,-0.002793492460499,-0.0035926546999408,-0.0002942884408753,0.0035948694271496,0.0042959540139666,-0.0950530230251903,0.995456158834481,-0.0257998732691052,0.0772370411796722,9.814684882441165,0.0064197281040811,0.0031752464540075,-0.001537097944395,7.564250484692924,2.158831845597029,4.128957510838437,1095.1424786092891,1117.9625391332631,1111.5116063452283,1111.966400084254,11.448242143320085,576.9187378879216,72.6773230891427,0.80267767866489,151.11081381930435
72.71,-0.4808569684990005,-1.4680407264555755,-0.2634533309586724,-0.0046894887646614,-0.0077468993060578,-0.0014759757128961,0.0035890372783271,0.0042357052207523,-0.0950654490269031,0.9954552246261386,-0.0253819180789453,0.0754582761186323,9.821369107531604,0.0064050157927523,0.0032396119930788,-0.0015778596540098,7.564263871237552,2.1588363030929805,4.128946727510233,1095.3074935481688,1119.192046775555,1111.7097258591048,1111.9412240965332,109.20296649166443,400.1737975292141,72.54217064878125,-7.315918833305162,151.10882608861328
72.7125,-0.4928300158079129,-1.4625993413169367,-0.2421141382309935,-0.0066804112326307,-0.012218774743479,-0.0025600894236225,0.0035662990682542,0.0041771946392472,-0.0950774417518932,0.9954543811131992,-0.0249647523236838,0.0732798957408496,9.828811338698964,0.0063953065698576,0.0032960316698117,-0.0015875715433323,7.564278246433565,2.1588419630801834,4.128936892933568,1095.6884934417487,1119.9634081209133,1111.8743171984731,1111.9298204900874,191.3177331558393,183.9732473278072,47.86035412225634,10.04949838935322,151.10688464967163
72.715,-0.4944718391709873,-1.3949862038649703,-0.1768011486309815,-0.0080538772223602,-0.0162604586866452,-0.0031429630338139,0.0035313185085042,0.0041155423966354,-0.0950914168603617,0.9954534033748528,-0.0244779389320578,0.0708389797640979,9.83696428184827,0.0063898188391397,0.0033431074585465,-0.0015648352537672,7.564293816400653,2.158849134604755,4.12892764922273,1096.2640822139472,1120.111913012193,1111.9490276297158,1111.99147158848,269.81974722400065,-79.49362665788567,9.577384464191324,49.274479471477456,151.10499670348923
72.7175,-0.5084175308196733,-1.2615225791765887,-0.0702805912584166,-0.0084794472424175,-0.0200617137816539,-0.0029093849529722,0.0034862643389077,0.0040495211530042,-0.0951060935149667,0.9954524147060566,-0.0239168667070618,0.0682185283491785,9.845774035143345,0.0063874340277945,0.0033795293809608,-0.0015090552545418,7.564310653416776,2.15885747802202,4.128919340699065,1097.0375921778675,1119.5659399876242,1111.922204120794,1112.1761928874444,273.03607716405446,-309.69734227870475,-23.95242446884727,83.12318933365816,151.10278959932052
72.72,-0.5427779920434082,-1.1252574059808096,0.0284692451184066,-0.0082141860035949,-0.0223823680151285,-0.0022647171710861,0.0034314116355396,0.0039840726134392,-0.0951194103609935,0.9954515910863608,-0.023392975595372,0.0654532365380454,9.855181457697167,0.0063868330913915,0.0034043267177623,-0.0014202812886405,7.56432867798752,2.1588664888938207,4.128912839714729,1097.6292625997662,1118.5634263008008,1111.8292655073717,1112.4070875351479,200.53738031247167,-491.6774879632992,-40.76923499800684,99.63996706064755,151.10099669777836
72.72249999999998,-0.5960375816295366,-0.9803080518073326,0.1318536353660945,-0.0085952911619445,-0.0242383486402576,-0.001631058571991,0.0033756061629449,0.0039198345380649,-0.0951321190625929,0.9954508259121913,-0.0229478860218769,0.0627531191554785,9.86512397929498,0.006386593889242,0.0034170509011056,-0.0012992147369366,7.564347509424941,2.1588762398171726,4.128908402871501,1098.0402790794287,1117.10755254781,1111.7183579458042,1112.6743927227471,124.14472399212735,-713.3897508161081,-41.36886357474586,114.23663756818972,151.0992498644637
72.725,-0.6501744321174212,-0.8038764746239321,0.2667115315084963,-0.0107259532650571,-0.0266017214915008,-0.0010784026869164,0.0033273660928148,0.0038598731934714,-0.0951443518024915,0.9954500658864672,-0.0226679360574932,0.060316047693805,9.875537452279268,0.0063853506505824,0.0034179004954591,-0.0011468083362776,7.564366491257285,2.158886562643262,4.128906315067372,1098.249986219728,1114.9964775467135,1111.6224211894976,1112.97827072299,31.459353627663535,-811.1251189670622,-26.096217381513767,101.01467352782068,151.0972056322832
72.7275,-0.6591651654488268,-0.6545374056442793,0.3950751666419298,-0.0135977152717409,-0.0288029314211001,-0.0007461170605536,0.0032886536959588,0.0038077537708897,-0.0951553781498992,0.9954493609663412,-0.0226344434698753,0.058207657657241,9.88635842647442,0.0063818350272183,0.0034078335677453,-0.0009639708218471,7.564384936642383,2.158896587749149,4.128905847736789,1098.1975758475676,1113.0519269529668,1111.5878768588964,1113.1794660903875,-51.27204448731506,-789.3015831244513,-10.095520704917448,63.54029628561288,151.09554519188563
72.73,-0.610773580049161,-0.5048727527423827,0.5444677714777058,-0.0164220637790227,-0.0308143147999759,-0.0003398732654473,0.0032604029912553,0.0037626813100773,-0.0951654350707153,0.995448689376876,-0.022838384324602,0.0564774475966524,9.89752475536762,0.0063748325553799,0.0033885841508266,-0.0007514297458821,7.564403089665506,2.1589055675425435,4.128905920811524,1097.9936259972917,1111.0499696310949,1111.571943585973,1113.2959722044177,-86.0197608135295,-790.8215573700006,-12.444677010819255,31.166999929047204,151.09393007601963
72.7325,-0.5164345244541308,-0.3631903723692344,0.7074089330876544,-0.0185513607823876,-0.0322145422451496,0.0003600860047318,0.0032349585678127,0.0037236114322165,-0.0951703718604249,0.9954484777402844,-0.0232464083645357,0.0550013495222727,9.90897641098084,0.0063632013366383,0.0033624940379229,-0.0005095298058022,7.564421376900887,2.158912631195639,4.1289063758007165,1097.7674770435003,1109.0978191661204,1111.5256534738423,1113.3353010900323,-67.04039829580056,-744.8935171691527,-36.11533196643551,0.2294424064077515,151.09235364728568
72.735,-0.3844998854183966,-0.2484548784317686,0.8704826141609175,-0.0197479472000468,-0.0324822350301884,0.0017308380736975,0.003204523158545,0.0036892408107724,-0.095169133185453,0.995448857608368,-0.023817181285027,0.053646124310348,9.920654486393252,0.0063458593237001,0.0033323662855005,-0.0002382786576868,7.564440195738414,2.158917474397,4.128907125210868,1097.658424005813,1107.3255020452525,1111.391366926141,1113.2971194164495,12.923309399605316,-704.7304032762937,-82.20290893157853,-24.21837037925272,151.0908259987546
72.73749999999998,-0.2137360390177976,-0.1623999158339883,1.0328486388674225,-0.0203194045071874,-0.0319224067968732,0.0044681845130228,0.0031725297531251,0.0036540371502341,-0.0951631545152678,0.9954496974820334,-0.0244445862106173,0.0525013280198231,9.932500500308432,0.0063218969108327,0.0033011738027987,6.249149468253262e-05,7.564459357212409,2.158920720676006,4.128907380722402,1097.8320935904983,1105.574167149742,1111.1146389291848,1113.2142092381364,132.88982740089784,-552.6520962844212,-111.56129632218976,-24.6049319330492,151.08905289968476
72.73999999999998,-0.082929856499824,-0.1386634137042875,1.112147671600096,-0.020268366739181,-0.0313327961045758,0.0076631027920591,0.0031442120142903,0.0036162139411143,-0.0951532987690659,0.9954509027150688,-0.0250976309373783,0.0516791193068291,9.944456476639463,0.0062907220939053,0.0032717896175142,0.0003931696352657,7.5644785010862305,2.158923100491342,4.128907451819593,1098.322873142817,1104.562241563833,1110.8335604445303,1113.1740947567844,280.4561042317382,-278.60649286540854,-99.42052083510019,7.861225186009775,151.08762845388043
72.7425,0.0155281631964012,-0.1545496201331603,1.1050416943599548,-0.0198684855665937,-0.0311243834680121,0.0114010325628806,0.0031226847248855,0.0035793928872984,-0.0951373419377351,0.995452660771804,-0.0258468300275828,0.0512341682449684,9.956465164734743,0.0062521331287243,0.0032467816355794,0.0007542650424694,7.564497257374872,2.158925039019084,4.128908569824405,1099.2343741116597,1104.1811346854124,1110.6175363250084,1113.2535153640663,499.3265175207297,11.872059621259517,-44.54000065703017,84.65122427161997,151.08626292134028
72.745,0.0820743662541569,-0.1917139213688625,0.9820104797054348,-0.0191811887490499,-0.031657754406209,0.0156912225801939,0.0031060047988379,0.0035449254246177,-0.0951131710160262,0.9954551724841562,-0.0267076363978942,0.0511198789984319,9.968471757423917,0.0062063042004515,0.0032283366757706,0.0011462598116827,7.564515733491943,2.1589263792037947,4.128911181076449,1100.8195057304251,1104.621601861939,1110.6108604412448,1113.5973508781435,654.7061281167814,326.72400749322765,63.37183967426733,181.6226679046682,151.0846968050005
72.7475,0.0906693588655917,-0.2138437658416822,0.7886731353424097,-0.0186002242037235,-0.0328628054999839,0.0185395191432849,0.0030938959279338,0.0035123998383862,-0.0950833903189487,0.9954581895761306,-0.0276637866388629,0.0513208330307711,9.980423024975643,0.0061537483844819,0.0032182358725862,0.0015696207611655,7.564534141925616,2.158927068657664,4.128915271650129,1102.5079047522406,1105.814754722877,1110.9343955233794,1114.161628703589,731.1627761984539,650.3545013636088,214.76219698194177,293.7278925503449,151.08345540274917
72.75,0.0528732668755025,-0.2048267503577646,0.521502759073259,-0.0182954510750179,-0.0347494832155129,0.0204176915544822,0.0030868790086634,0.0034806663262087,-0.0950518027063269,0.9954613510616602,-0.0286861236112739,0.0518352135306801,9.992267446781865,0.0060953376127683,0.0032177199014463,0.002024881188332,7.564551533965753,2.1589271946195634,4.128920043888922,1104.4753196114143,1107.8733743687544,1111.6846714261535,1115.065990340894,811.4311260913485,953.2608656747502,371.58937289993594,418.44616124791935,151.0822840549911
72.75249999999998,-0.018373703611433,-0.1664878172963764,0.2151886288258874,-0.0183491611296846,-0.0368252267940785,0.021516411997368,0.0030841460715494,0.0034471791228383,-0.0950238426429602,0.99546415052987,-0.0297157729887152,0.0526349769460785,10.003955906405452,0.0060322553863596,0.0032273896946909,0.0025126373821681,7.564567792922189,2.158927349972177,4.128924725856484,1106.5650603826937,1110.5810590512465,1112.7923423878772,1116.2538595098267,834.5091690792145,1205.9177536083153,515.5531151423615,533.7884103134309,151.08117378765573
72.75499999999998,-0.1237103088650629,-0.1114955901187402,-0.1076398109649251,-0.0186660822052726,-0.0381739533318904,0.0216786930995934,0.0030834442660419,0.0034084540704594,-0.0950024342980263,0.9954663295670636,-0.0306728158708454,0.053664298806637,10.015442064238464,0.0059659021107275,0.0032470833025282,0.0030334305438755,7.56458269833984,2.1589280487824336,4.128929044997489,1108.6478654568064,1113.9029631367905,1114.2624370018632,1117.7349323924586,875.0532934832704,1544.3702364822168,700.3037917745695,697.093802997341,151.08014084534176
72.7575,-0.2840156224856214,-0.0756092115764562,-0.4722847769036072,-0.0192112356211712,-0.0379484711840847,0.0207775419695351,0.0030813222203572,0.0033638774312646,-0.0949860697043059,0.9954680457114616,-0.0315325102809261,0.0548385972997367,10.026682209068376,0.0058977133823549,0.0032758459904343,0.0035875841144639,7.5645961216813316,2.1589296386110184,4.128933591893873,1110.9403268501185,1118.3029102336725,1116.293861346757,1119.73932852482,781.1166081682042,1633.2388258296571,764.3330220456626,753.4253786773197,151.07899538527352
72.76,-0.4426737842652712,-0.1111272349122113,-0.7266028471030359,-0.0198473811130925,-0.0365572706366121,0.0191596849204294,0.0030762270079709,0.0033147312083016,-0.0949731094282232,0.995469456010707,-0.0323120274139901,0.0561087301727251,10.03763570248406,0.0058289136130852,0.0033120645895877,0.0041749662279752,7.56460804565081,2.1589329009853393,4.128938775614057,1112.5534484976552,1122.0691572659543,1118.084102112099,1121.5020592858525,562.6096050932233,1468.9061118371856,710.8645784547306,702.9854661027939,151.078122139501
72.7625,-0.6215918683231826,-0.2456276401377491,-0.8952723875434045,-0.0208341227377159,-0.0352723473971085,0.0166639107769519,0.003063692311711,0.0032616465707947,-0.0949621281260196,0.9954707079481055,-0.0330100949024507,0.0573705774856254,10.048266937329732,0.0057602968861659,0.0033535793798696,0.0047948283280655,7.564618884075366,2.1589381597813277,4.128944887672924,1113.753374875582,1125.6474407928515,1119.8481842390274,1123.2542558553307,422.3918051198074,1470.95328753796,753.1692146402322,750.754372094844,151.07733564076617
72.765,-0.8476430587815355,-0.5225113768489398,-0.9669644745556072,-0.0226240215450123,-0.0350590937401385,0.0128393153103582,0.0030414581962507,0.0032061171741376,-0.0949541062726899,0.9954717100600424,-0.0336465236173338,0.0585645970086441,10.058545180687831,0.0056919938683857,0.0033979681371848,0.0054456993257358,7.5646304171882015,2.158945433628228,4.128953366063225,1114.6654075232523,1129.4239237036377,1121.8499481852966,1125.255831146323,249.4933141209908,1263.6396087457467,712.3468450750919,709.6760941068256,151.07649335352033
72.7675,-1.0326724965433511,-0.8304515891694692,-0.9051133087346745,-0.0246672086655548,-0.0362664940946104,0.0092826575102819,0.0030096680783466,0.0031470172077831,-0.0949491537655643,0.9954724558732968,-0.0341919654419587,0.0596871855090459,10.068445960767187,0.0056234741769543,0.0034428130818123,0.0061253629227607,7.564643845476145,2.1589549078942887,4.128965120486847,1115.0008414461859,1131.9656388365747,1123.4099184643997,1126.8026363258618,62.17393583625578,863.6574284192317,608.2466936232852,590.2810246782705,151.07587593617177
72.76999999999998,-1.1952216485535303,-1.1836425171845493,-0.7208302942170021,-0.0272919638061937,-0.0386313031402884,0.0060097735134942,0.0029695445723688,0.0030829151883129,-0.094946868405413,0.9954729837311928,-0.0346109196861465,0.0607595953214994,10.077951450320263,0.0055536722974997,0.0034860473052953,0.0068310654421671,7.564659549747245,2.158966730053221,4.128980597347587,1114.9762772024333,1133.74221084573,1124.8911816534103,1128.207236269712,-49.11590566629968,575.2494443342381,587.6557075662288,538.5619234894016,151.075344912959
72.7725,-1.3232906510926015,-1.5452935204069576,-0.4545008500007316,-0.030416439020046,-0.0417984522845892,0.0036589806782232,0.002917339499791,0.0030180200717337,-0.0949428734661542,0.9954737045337716,-0.0349687167281891,0.0616949270970504,10.08705066348378,0.0054811859118603,0.0035262001729347,0.0075598800440424,7.564676659162072,2.158979761993693,4.128999049991346,1114.7552619178539,1134.8418860582515,1126.3481970022365,1129.495445943314,-104.87604705092701,280.51706712799734,583.3940032746434,489.50262976555666,151.07488368128824
72.775,-1.3911890730063987,-1.8811119704570467,-0.129774809999743,-0.0340216132952782,-0.0461797512767414,0.0028029786794784,0.002849751533678,0.002953356622822,-0.0949316418040331,0.9954751482503283,-0.0352648215011606,0.0624221087524091,10.095740448462639,0.0054045906858641,0.0035627801388413,0.0083087916007756,7.564693640591255,2.1589924084778542,4.129018839656365,1114.4518969671776,1135.1447961813726,1127.8081516697891,1130.6547494185445,-113.1974750616002,-31.05640015335762,638.2993384965523,484.48587270571306,151.0745033082681
72.7775,-1.3840175582479948,-2.2100781399466705,0.2653069924668299,-0.0386132211643838,-0.0527030963655445,0.0034136297447116,0.0027645454297825,0.0028889941200745,-0.0949092484642906,0.9954776938030578,-0.0354786804761053,0.0628926206676656,10.104024766147935,0.0053225165695925,0.0035963831944746,0.009074776667665,7.564709784314605,2.15900329205553,4.129039539311138,1114.1892745425464,1134.6866040574848,1129.5396936947163,1131.9178753068404,-57.3664712813819,-282.5326326288928,616.4781494960304,444.60773726018,151.07413488295296
72.78,-1.2962332506627852,-2.395973835894001,0.5549443495934863,-0.0424486058765213,-0.0588062164075893,0.0051158112128369,0.0026621952751392,0.0028281220292164,-0.0948741664697243,0.9954814754174668,-0.035655075295229,0.0631045636354784,10.111913124533286,0.0052335726573283,0.0036285565725002,0.0098547635540607,7.564725379847616,2.1590116469061265,4.12906260959384,1114.1650646107707,1133.7321330182294,1130.8905424172665,1132.8777881048431,43.31137987305129,-467.7508205595748,493.90605919474535,365.49580495731374,151.07389684218367
72.7825,-1.1234253651447932,-2.468412254609746,0.7603617581976809,-0.0460078689698346,-0.0653252065724597,0.0079333882613256,0.0025481604247298,0.0027720895871594,-0.0948281194596947,0.9954863073163887,-0.0358092617854451,0.0631570635391596,10.119420327218746,0.0051364114129063,0.0036615484902289,0.0106455435021009,7.5647407749053475,2.159017997399346,4.129089477900081,1114.4058314419115,1132.347849954689,1132.0092239906878,1133.745354331625,163.0706300150569,-666.0078742739332,406.47577501354726,355.4129365650219,151.07372523982696
72.78499999999998,-0.8313302134382319,-2.412761243582988,0.8805345541885079,-0.0493918618193261,-0.0734355429786263,0.0118623785670817,0.0024242887534949,0.0027175410430627,-0.0947737858373652,0.9954919362783416,-0.0358529682077568,0.0630823317801888,10.126567225680269,0.0050298808729634,0.0036977782964578,0.0114439635829094,7.564756430844205,2.1590226234958645,4.129120775265064,1114.9804177608455,1130.4020936468628,1132.9229212923324,1134.6548527876669,245.8872772026348,-729.495585480572,247.2757569418941,303.43861166984897,151.0735902989881
72.7875,-0.5353102815433755,-2.250607709776023,0.8722076148849273,-0.051264235524209,-0.079982488960692,0.0148908300505138,0.0022943844202836,0.0026602206797888,-0.0947177706416171,0.995497734294474,-0.0356826307307639,0.0629495025470016,10.133377615398272,0.0049130373640209,0.0037396691161207,0.0122472549229137,7.564773083264336,2.159025803108945,4.129156544145041,1115.635267827927,1128.7003720272792,1133.2456027753997,1135.2625473899775,279.55032680320613,-662.3405368215504,32.39428702566435,198.0942609909826,151.07353285605575
72.79,-0.2117155478279769,-1.9874167118915231,0.7662451608820785,-0.0520299328427614,-0.0855763796687918,0.0173303723829635,0.0021685974457324,0.0025929053126292,-0.0946692134256902,0.9955028243056552,-0.0351469820109882,0.062957405555225,10.139876124503335,0.0047853805841668,0.0037895368804566,0.0130533458999958,7.564790993241084,2.159028623810977,4.129195699653293,1116.3781693948642,1127.0903909627486,1133.084892727461,1135.6453240926237,299.5879452081222,-606.3441314924661,-136.68241846966035,104.55071615956926,151.07352769374805
72.7925,0.1136836039856708,-1.6644284577162196,0.5997085987088528,-0.0518022224664134,-0.090086148165713,0.0191395020026934,0.0020545068856542,0.0025100757869635,-0.0946337591798395,0.9955066639803616,-0.0341247829968414,0.0632469462370447,10.146086649485111,0.0046470356238134,0.0038492075528587,0.0138612535229218,7.564809598341085,2.159032012275376,4.129236998108674,1117.1332075539663,1125.6686513698196,1132.562190683052,1135.7853009707749,296.8235397609049,-502.833515948262,-272.2768770501009,-12.94135137578718,151.07356238530133
72.795,0.4194917628764306,-1.3033204878048883,0.3896182390799309,-0.0505835292917282,-0.0934142918373573,0.0201609958431653,0.0019536625475141,0.0024125380432937,-0.0946118929305024,0.9955091979094992,-0.0326128483070371,0.0638228537930038,10.152029860534302,0.0044988062315924,0.0039198747167687,0.0146712606435219,7.564827460482538,2.1590358929864126,4.129278793709501,1117.8622870936674,1124.5762233830096,1131.7235083422115,1135.5806173357448,313.131266178346,-388.4096850684168,-394.9355232499282,-172.70655410868375,151.0736410172435
72.7975,0.7451257225552653,-0.8685556753713936,0.1248144184631752,-0.0483287296405396,-0.0961935150275527,0.020581660058516,0.0018664562596744,0.0023022105778589,-0.0946006288667167,0.9955107017202196,-0.0306318095148442,0.0646622259766803,10.157721396635296,0.0043422993822353,0.0040022729956293,0.0154847239630338,7.564843745372815,2.15903999550324,4.129320436172071,1118.6988638848563,1123.7266029444793,1130.587513066804,1134.9217682002322,303.8013645616992,-230.94421654653243,-396.6026506867335,-302.10393368093,151.07378100201623
72.79999999999998,0.9757207336322296,-0.5328955658261116,-0.0819236420970657,-0.0460176945383438,-0.0974174892262426,0.0203263268525629,0.0017928083547973,0.0021794772648227,-0.0945981777511001,0.9955113439837912,-0.028175623439838,0.0657335201454046,10.16317043870142,0.0041798522158073,0.004096742648735,0.0163037743013159,7.564858255144186,2.159044586671401,4.129362049154366,1119.3812939164743,1123.421502300278,1129.7404950887799,1134.0700976673415,277.0707706969706,-42.98979883669107,-269.1150601417295,-380.7459640166878,151.07393201029183
72.80249999999998,1.162780335089504,-0.2515931551580005,-0.250102955666265,-0.0436224042359435,-0.0975592874017071,0.0194528412122275,0.0017316648023384,0.0020480390980282,-0.0946021895309471,0.9955113426934848,-0.0253095882214325,0.0669781450675436,10.168377481188163,0.004014201044264,0.0042031588775146,0.0171310481255964,7.564871039707686,2.1590498617555727,4.129404335838896,1120.08421773834,1123.511653950296,1129.2419377660967,1133.0180383801503,322.5515478082021,118.0948510556382,-95.59310872382126,-471.98810258286994,151.07411442700203
72.805,1.3363676310272123,0.0054602272654027,-0.387922442162752,-0.040634141508355,-0.0969662030078235,0.0176688871467265,0.0016825940247777,0.0019133012652741,-0.0946092162262672,0.995511016584054,-0.0221415727205219,0.0683468138942331,10.173333460481162,0.0038482913446972,0.0043209820769949,0.0179693854567595,7.564881828290018,2.1590560759761646,4.12944748141617,1120.9940516555187,1124.011976555557,1129.2625295451599,1131.7101571544226,347.9995892247739,238.03981734126327,125.85172117063172,-459.01957564058154,151.07436486499992
72.8075,1.4331696658150233,0.1506204119019708,-0.4436117262757185,-0.0377684786774615,-0.0962914151988929,0.0156365521675312,0.0016416225799321,0.0017800074965593,-0.0946158724656571,0.9955106874432712,-0.0187666434508746,0.069720442112136,10.178020420687078,0.0036851105211099,0.0044491532137963,0.0188216205870006,7.564890398050112,2.1590634672775058,4.1294910760697086,1121.8242156844672,1124.7018530370046,1129.871196371951,1130.7229405019432,344.42147910207893,321.7938959385463,359.17981330704526,-346.95247966760405,151.07459646615547
72.81,1.4656783311270007,0.2325232109300179,-0.4457878085002962,-0.0344058643821465,-0.0956511831776818,0.0134327358850089,0.0016082389538155,0.0016515894019433,-0.0946197914757317,0.9955105787259464,-0.0152674436077581,0.0710539393203922,10.182410500692239,0.003527407218459,0.0045864028716432,0.0196903005982543,7.564897186049039,2.1590722182851105,4.129535581460717,1122.7161590510275,1125.6209460352486,1131.0584286116934,1129.975394756086,394.0696613584751,448.0605509852904,614.2509339650717,-258.12742623143833,151.07484793056807
72.8125,1.4075044084417951,0.2745038812456257,-0.4186507332399933,-0.0298709129364253,-0.0948533029700883,0.0116728700654197,0.0015848334775115,0.001526182354926,-0.0946226829031125,0.995510531987063,-0.011632324173201,0.0723730560255338,10.186467075392923,0.0033775666025346,0.0047313811400586,0.0205774357785682,7.564902910001323,2.15908253110961,4.129581086767441,1123.794563991258,1126.942155791929,1132.9424510417737,1129.4323033707872,382.1161073905224,514.416057247185,718.5645620283764,-140.58120445201038,151.07516826931587
72.81499999999998,1.262835627371585,0.2763550449137617,-0.4058841845405824,-0.0257659084524319,-0.0942940419116047,0.0116438855942836,0.0015685697570091,0.0014011648486177,-0.0946276501664231,0.9955102656149624,-0.0078306206237008,0.0736018362942078,10.190146343551707,0.0032373233892014,0.0048824261158646,0.0214844226075069,7.564908696236993,2.15909435395285,4.129628330827528,1124.6267395879784,1128.193026321482,1134.651251421832,1129.2724887338268,298.46019135988934,521.690072007206,645.1801346375261,-15.710392875612987,151.07544760565827
72.81749999999998,1.0105477367435332,0.2597214774601168,-0.4401378396453761,-0.0215190899493699,-0.0939875877843544,0.012779316610864,0.0015520564513307,0.0012786890459526,-0.0946347794258955,0.9955097793742402,-0.0039247080608914,0.0745663609951209,10.193397924919104,0.0031075076426551,0.0050376485540225,0.0224119700051876,7.564915462303298,2.1591069792101636,4.129678680026665,1125.286864948056,1129.5506061519627,1136.1683517149584,1129.3537514064092,220.98663401564443,550.7931194446243,529.8780498322449,56.84183392652741,151.07573624409738
72.82,0.6781264269118231,0.2369511136282749,-0.5220706717390831,-0.0177044433790656,-0.0937209391513706,0.0138696349651488,0.0015347128062203,0.0011574085919792,-0.0946439432521243,0.9955090856707056,7.652357971596467e-05,0.075241209288717,10.196165755693004,0.002988405760243,0.0051956021190355,0.0233599562703817,7.564923543320792,2.1591202937288827,4.129732768808224,1125.7316727580587,1130.9469919187106,1137.3006416709984,1129.55669790346,114.14855208541432,552.473516726128,325.0778319569774,88.30881056052233,151.07603015734233
72.8225,0.2849970638922585,0.2128006492814674,-0.6390076509487025,-0.015776331707866,-0.0934156340032478,0.0133597281067987,0.0015130432454761,0.001036794212554,-0.0946534456733756,0.9955083509263448,0.0041501105565363,0.0755441509702329,10.198391049197195,0.002879825335718,0.0053549447947582,0.0243276991184178,7.564932647982664,2.1591342143044456,4.129790212962449,1125.8576077084842,1132.3129737355987,1137.7937408747464,1129.7952954592126,-21.763919175120247,570.71194019065,57.87648265587256,85.09611316525033,151.07632793284122
72.825,-0.1867035245480048,0.1845470357526857,-0.7618319636835633,-0.0167077146966578,-0.0930565668021859,0.0102431727782956,0.0014785916428424,0.0009168973200208,-0.0946633621875863,0.9955075781603044,0.0082682899988285,0.0752946861221641,10.20001473452805,0.0027812810219936,0.0055143930830045,0.0253141469410839,7.564942702132275,2.1591480580025406,4.129850362339883,1125.6228531621832,1133.8005516196613,1137.5900240842775,1129.9821784692858,-144.1243481696748,502.1328051506336,-191.3171628829708,34.08814326797627,151.07668712546777
72.8275,-0.5292846857892133,0.1603350610101459,-0.8077173303278591,-0.0195309844781586,-0.0926045632955401,0.0065166380494439,0.0014276798159338,0.0007949997872049,-0.0946736514739434,0.9955067760321842,0.0124488908910579,0.0744185289783008,10.200978153166393,0.0026923262017095,0.0056731864580826,0.0263178494074168,7.564953307480223,2.1591611728116624,4.129912356044732,1125.1369859676363,1134.8236377613496,1136.8371550603324,1129.9657361755524,-240.8104566095433,343.58600951417753,-381.1955120085997,-58.116278562927725,151.07698655388387
72.83,-0.7839401758080795,0.13271061638391,-0.7687435006519918,-0.02289278280796,-0.0919500680616192,0.0030349836550496,0.0013580723122093,0.0006731915003386,-0.0946821351939659,0.9955061507574796,0.016608942197425,0.0728655433408149,10.201224989323771,0.0026123653934816,0.0058308032789077,0.0273370108218303,7.564963912613032,2.1591729525591368,4.129975884314288,1124.4188008791364,1135.5184816672306,1135.6840465242362,1129.6915970764715,-353.7035289113225,209.29351532414265,-537.6685889191664,-188.9189509884899,151.07728488784707
72.83249999999998,-0.9863524126744538,0.0961218358102484,-0.6299181150247054,-0.0263163318514087,-0.0912369512156881,-7.403098472315002e-05,0.0012736934578057,0.0005535839036694,-0.0946878997440988,0.9955057807376704,0.0206530124397573,0.0707145721308981,10.200703206098405,0.0025409145940457,0.005987082638497,0.0283692845851015,7.564973833674935,2.1591838217515487,4.130040973891416,1123.3684683230815,1135.870105337969,1134.148812115739,1129.0211414206108,-408.8055536791047,37.38201084149346,-542.3717440538417,-301.5737396565411,151.0776409005125
72.835,-1.085518997741916,0.0676128397549597,-0.4597366069722686,-0.028462665953309,-0.0908820266552207,-0.001550732887147,0.0011824981018389,0.0004361083841352,-0.0946904271712388,0.9955057047929032,0.0245228644579906,0.0681346517763697,10.199367788922675,0.0024777583123109,0.0061419458749959,0.0294116317487237,7.564982888090166,2.1591946217030276,4.130108284081902,1122.3747731107371,1135.7053917214384,1132.9721878039616,1128.1837283781858,-418.0290253698892,-167.98206721804766,-404.42065917885935,-381.8926344754696,151.07793583490243
72.8375,-1.1353794167679014,0.0510039360675707,-0.2683398860393062,-0.0301815691744954,-0.0908193666904824,-0.001911535401394,0.0010921081460463,0.0003229870984185,-0.0946879691940108,0.9955060801115848,0.0281160010054826,0.0652879534208232,10.19718318100372,0.0024226720587206,0.0062949884901089,0.0304603014982086,7.564990875322395,2.1592060033151106,4.130178897919657,1121.278323196228,1135.0301950018775,1132.1267088198408,1127.1116782482295,-454.24073688937295,-354.23296482709173,-262.70995967612424,-452.7964264772916,151.07822937930297
72.84,-1.1538005531742044,0.0523276137030004,-0.0840621574504146,-0.0319555477743155,-0.0909336248491939,-0.0016829434398287,0.0010081918068157,0.0002131962344078,-0.0946813378633963,0.9955068267628384,0.0314015046596245,0.062307378912191,10.19412572443017,0.0023755795876537,0.0064453715393586,0.0315108321317387,7.564997590688072,2.1592184598255906,4.130252674824641,1120.1035694262923,1133.9342268973044,1131.6586380055824,1125.9197462458014,-484.9318064977387,-530.6644821458855,-91.17868597776685,-481.8924151399023,151.07852247304547
72.8425,-1.1312182510873865,0.0826898362592306,0.0705438329620978,-0.0342659578751044,-0.0910792013176483,-0.0010896621572912,0.0009351505271508,0.000105196402118,-0.0946733423729014,0.9955076776588618,0.0343641403589493,0.0593053922331189,10.19018475246344,0.0023362396080868,0.0065918625686747,0.0325581470824313,7.565003553074067,2.159232621301908,4.130329817174972,1118.8536641637415,1132.3768725911505,1131.6708153899524,1124.7022161725324,-555.5107100779474,-767.3862081517357,99.20509237881488,-509.68588678043454,151.07881634313367
72.845,-1.0397079276269168,0.1568602981985371,0.2069217026946283,-0.0379102250775935,-0.091047553956271,-0.0001505965516303,0.0008730943088832,1.6112949571392407e-06,-0.0946660903241307,0.9955084338990658,0.0369164592089152,0.0563038210540345,10.18536379328596,0.0023038270766966,0.0067326973184722,0.033596737180897,7.565009309568193,2.159248517604412,4.130411212065777,1117.3260158759051,1130.0972958565494,1132.154663467476,1123.3713168119016,-550.1263908109196,-877.6003177902363,231.48782781234468,-446.56040991089554,151.07917218710847
72.84749999999998,-0.897383815554449,0.2492094268620098,0.2761458302181479,-0.0413401269052614,-0.090792092604505,0.0007966760258128,0.0008246313515274,-9.663631599216551e-05,-0.0946639943170999,0.9955086742326926,0.0390053097302646,0.0533826109289504,10.17968054450768,0.0022771117361466,0.0068662383139293,0.0346207377412887,7.565015584927923,2.15926634971215,4.13049774843941,1116.1030322096894,1127.9888710022033,1132.828254529013,1122.46941412298,-455.4949303833219,-848.4716755132896,293.15637578481716,-302.2271278861424,151.07947349894215
72.85,-0.6845393534111979,0.3682662500566782,0.3020330799422538,-0.0441749522480098,-0.0901999191697471,0.0019106450771815,0.0007861132079386,-0.0001886891346938,-0.0946674818737981,0.9955083621866936,0.0405970600220425,0.0504991775894351,10.173167929683787,0.0022544849740579,0.0069905623477866,0.0356243716477241,7.565022590701923,2.1592855478312294,4.130589484483158,1115.048541223984,1125.8549374789748,1133.620445346403,1121.860181172468,-395.7734933737893,-902.2913229939902,345.3137997881333,-194.06622103905428,151.0797827901875
72.8525,-0.3669074100954275,0.53235341473527,0.2946903494949145,-0.0461264516858957,-0.0888662012411728,0.0032906201793269,0.0007504740529975,-0.0002766090235777,-0.0946774249120522,0.9955074221065184,0.0417301359536191,0.0475509379044309,10.165873193628688,0.0022341573261993,0.0071038490029217,0.0366022825203709,7.565030693938658,2.1593051577967817,4.130685182307092,1114.1241647428167,1123.4774143872244,1134.554823527957,1121.4990830177828,-263.8752078482538,-818.7199557011069,326.8868695114878,-73.71359567884947,151.08016730998548
72.855,-0.0737544549862357,0.6789385338525245,0.2711338188962327,-0.046560118600371,-0.0870576036742176,0.0041469549283355,0.000714871852025,-0.0003640084200534,-0.0946949875034057,0.9955057461354496,0.0424730712245276,0.0445268032428321,10.15785586792184,0.0022141551063194,0.0072050365110759,0.0375497431375587,7.565039745589504,2.159325381559993,4.130783342005126,1113.729165184744,1121.7613377004727,1135.2548796939589,1121.491613194074,-67.09479889552048,-620.8933780451124,260.8936484221075,45.93600615439385,151.08050233043176
72.8575,0.2192548506265736,0.8300584666495447,0.2518637143669379,-0.0458705812333835,-0.0844711619297015,0.0042101630397234,0.0006728814513674,-0.000449069585969,-0.0947176246209452,0.9955035837338072,0.0427991186550231,0.0413350872668823,10.149186885024818,0.0021920550044771,0.0072932724657825,0.0384629357293524,7.5650495971027585,2.1593460817251886,4.130883891740618,1113.7886907483391,1120.3729474970019,1135.8592917700664,1121.7287630485544,99.84360054304473,-506.4507119947452,231.61854902294328,120.6570240761454,151.08085704536916
72.86,0.4935823890713622,0.9877472024184776,0.2509376133329285,-0.0443506927351245,-0.0814907157221995,0.003722517298232,0.000621234827108,-0.0005292774832501,-0.0947419591755866,0.9955012631059252,0.0426692240300156,0.037948002839707,10.139946112117256,0.0021653497401297,0.0073685121730731,0.0393388617804584,7.5650600497009055,2.1593664232590206,4.130987056662812,1114.2283831874588,1119.2290841405015,1136.4129724390723,1122.0948983144542,255.91428858133975,-417.7780308998697,219.9439363166857,154.4478966935498,151.08123157903663
72.86249999999998,0.7320369776150936,1.1688360615446984,0.2775098806668843,-0.0421328469850772,-0.0786939780438259,0.0033631764157051,0.0005662002375989,-0.000605794172742,-0.0947663044455157,0.9954989433053044,0.0421079540521127,0.0345374413240672,10.130219854630976,0.0021318221369688,0.0074320931364405,0.0401752501234603,7.565070861496947,2.159385851271372,4.131092311186511,1115.068262191245,1118.2840573425044,1136.9590114516488,1122.5010025320216,432.2481650868506,-401.67450931521824,247.5699978517219,156.70355509651628,151.08163396864427
72.86499999999998,0.9735629541836746,1.4424665337202356,0.3277971609149957,-0.0390349943145171,-0.0761283197555338,0.0038739563768852,0.0005144516717929,-0.0006793279590464,-0.094788232010758,0.9954968536827202,0.0411375321173235,0.0312814248924786,10.12009934712682,0.0020894353363912,0.0074859186373268,0.0409707235837803,7.565081238779526,2.1594039196256096,4.131199152348354,1116.389624012891,1117.2207115939273,1137.65082242833,1122.878416089936,506.86463754729897,-399.49357930331746,257.5755635734846,101.0480471223084,151.082153733094
72.8675,1.1443759941863745,1.7332885659787804,0.3661286914500645,-0.0364581999765461,-0.0743923922102017,0.0052692772302264,0.000465881399207,-0.0007477670720249,-0.0948038260502524,0.9954953665256878,0.0397436971884262,0.0282142039883014,10.1096786948619,0.0020362426133824,0.0075316337113366,0.0417248819230367,7.565090763878955,2.159419972154412,4.131307297912853,1117.6025853789863,1116.286589445984,1138.2468892695188,1123.006242767634,468.4502411081253,-400.0773215224852,226.58012237181404,-0.6771546806235719,151.0826207378775
72.87,1.2966580899039155,2.0828648641846166,0.3805990457291105,-0.0340582441617522,-0.0719196705867297,0.0073479514463144,0.0004246474312852,-0.0008085269933534,-0.0948127981332818,0.9954945049427154,0.0379011535402144,0.0254527788222857,10.099051517667357,0.0019703841528446,0.0075712575698324,0.0424380523416269,7.565099546426029,2.159434529371881,4.131416834818002,1118.7318752184362,1115.2203249863107,1138.7837230401913,1122.8750303165327,434.334066817459,-503.7906701929877,191.16646944670825,-117.57911730170925,151.0831262577393
72.8725,1.468188390521254,2.51925419116435,0.3655021248464571,-0.0307009813188849,-0.0662238609913377,0.0095112877356949,0.0003911613539985,-0.0008623619295828,-0.0948161970924612,0.9954941651381992,0.0356650871968543,0.0230426403449045,10.088309409661816,0.0018904709455981,0.0076062531905495,0.0431113038559656,7.565108114873747,2.159448334480196,4.13152766854328,1119.7742557130716,1113.767636095021,1139.2027216167514,1122.418347181126,306.24332631064703,-554.4939642172761,91.50369398707107,-207.36598112294573,151.08378084871822
72.875,1.6017458540792535,2.839312112917387,0.3372757288417879,-0.0270407624131092,-0.058595742774916,0.0103471685320451,0.0003634573325942,-0.0009100249725109,-0.0948172622462219,0.995494038168904,0.0331003315718006,0.0209789923647139,10.077539470010745,0.0017952855357553,0.0076373968737582,0.043746372163042,7.565116817787371,2.159462167477145,4.131639368234027,1120.263091849988,1112.447855165227,1139.2412415101262,1121.8382004109192,102.35566188325934,-531.5115135731788,-70.7234652681752,-251.86951047349052,151.0843685175884
72.87749999999998,1.721112091918756,3.0496076665136767,0.3141627186661184,-0.0228245304562997,-0.0491821969838593,0.0104925974432663,0.0003407684077477,-0.0009519361177257,-0.0948195516750968,0.9954937870448988,0.0302670499164788,0.0192781290974537,10.066822151711545,0.0016837808965739,0.0076650001756998,0.0443455020389424,7.565125563975777,2.1594771672317528,4.1317508909473295,1120.2860340224875,1111.1100785271578,1138.8491042904109,1121.1589996287598,-66.63794503357771,-517.1220327406601,-233.54165770818648,-266.94360720268094,151.08500222020336
72.87999999999998,1.8266802838353355,3.142667319566911,0.3076970474340816,-0.0185004540669028,-0.0398730481783833,0.0107607297060816,0.000326053928779,-0.0009873555583325,-0.094823516348161,0.995493371423714,0.0271985157459804,0.0180266388651977,10.056229507179188,0.0015550601201339,0.0076892017339196,0.0449112195814973,7.565133910390067,2.1594938962834846,4.131861955168761,1119.9299021248205,1109.862245001526,1138.0735332215863,1120.5034823749068,-217.9916769296931,-446.51442677941407,-392.788218835781,-229.05948523035767,151.08567542267397
72.8825,1.9155070109565024,3.094788958970576,0.3280498055154685,-0.0142260812483041,-0.0316739197251569,0.0112544118805294,0.0003228857387109,-0.001013425551505,-0.0948253994355486,0.9954931524238188,0.0238869330371289,0.0173170372073262,10.045824049240148,0.0014083124432531,0.0077098844806217,0.0454461290207352,7.565142365617133,2.15951192475024,4.131974031798321,1119.1960756378369,1108.8775063932565,1136.885163196228,1120.0137022026058,-375.70382740355086,-331.02782821710804,-587.0377381934327,-147.32959670958456,151.0863972139036
72.885,2.0009635248321005,2.899589274073122,0.3850051775722171,-0.0094700435204892,-0.0230024666559658,0.0115592878189483,0.0003332621476274,-0.0010310089825166,-0.0948233787720255,0.99549330402284,0.020403053636525,0.0172143623723018,10.035658421180658,0.0012432545919218,0.0077267606121471,0.0459527493383201,7.565151031957455,2.1595312012919647,4.132087475797641,1118.0513829877991,1108.2071058604374,1135.1383445306135,1119.7668343913576,-432.83958405571207,-134.94907333136774,-663.3053197347756,-22.167990899444856,151.08731984960698
72.8875,2.0466488375545207,2.646033840760459,0.4544787787431645,-0.0057275909745016,-0.0164746506441893,0.0117591100519261,0.0003556779141843,-0.0010399386316037,-0.0948156548698994,0.9954940012014596,0.0168035030356245,0.0177084649892021,10.025774616004425,0.0010597946894902,0.007739337965706,0.0464335316142285,7.56515990118523,2.159551995673595,4.132202843564532,1117.0318777175603,1108.2027610266002,1133.568636597557,1119.9028622481087,-385.21286349708606,130.01080124852703,-615.5792802713364,121.26995298937914,151.0881353440791
72.89,2.0411739952957686,2.325611858825084,0.5290796036623023,-0.0012465648103778,-0.0107064808012477,0.0127475153399388,0.0003839102812648,-0.0010406470684805,-0.0948040051841831,0.9954950777229156,0.0131642702178092,0.0186921288807405,10.016203975767407,0.0008581968651985,0.0077470251060594,0.0468909320847432,7.565169439379968,2.159574343604188,4.132320610084745,1116.1253186703154,1108.8571598666795,1132.0604481292596,1120.373184156304,-341.74951742042293,433.86290686560994,-620.1869944312604,257.4503971859098,151.08899791877835
72.8925,1.9312742401229297,1.8924781192410771,0.5937902362680765,0.0054907751569147,-0.0049832494775294,0.0151021100383595,0.0004150617132241,-0.0010399111816481,-0.0947896872346777,0.9954964087933308,0.0096786718578815,0.0201322161005152,10.00696747364008,0.0006397054130657,0.0077501425311291,0.0473273980989577,7.565178979976871,2.159597725055087,4.132439283456453,1115.3231301304595,1110.3720755609263,1130.4677016254038,1121.190114234037,-236.67232669816863,654.0681616939347,-540.2572162014533,312.724962344794,151.0900848938526
72.89499999999998,1.7246111661966477,1.5088082577866573,0.6077119913387928,0.0115824129916714,-0.0010991452193442,0.0175089111297958,0.000444323229254,-0.001045045134469,-0.0947714772846697,0.9954981051688454,0.0065499814356047,0.0219533667218769,9.998075870752558,0.0004061700769431,0.0077495731104633,0.0477455217668133,7.565187313125101,2.1596206192267777,4.132556817856038,1114.9419570368257,1112.127500675146,1129.3591620482548,1121.9368089680263,-99.1298698141139,759.5880523544436,-407.17763660689775,275.4713407545884,151.09103141682473
72.8975,1.385490462838693,1.1184528082860368,0.5705961420385413,0.0169731412739346,0.0021698846572928,0.0196530015555466,0.0004689346129537,-0.0010539616997088,-0.0947475356495412,0.995500342840524,0.0037849929573147,0.0240969171020553,9.989528813306649,0.0001590110344495,0.0077470708873642,0.0481478352627512,7.565193554932584,2.1596422576023455,4.132673549984336,1114.8274807813882,1114.1700158227059,1128.4318134423654,1122.5674709378127,-18.327423974288696,823.5729880365395,-359.11105827257126,208.7165768993204,151.09201639977343
72.9,0.9481909304283876,0.7345742986027038,0.4949775158592044,0.0211811494951264,0.0049825335382454,0.0214221351307451,0.000489906508002,-0.0010667115105413,-0.0947203632919636,0.9955028824259152,0.0014195929183332,0.026575215826556,9.981316652122734,-9.992239803429027e-05,0.0077453816288926,0.0485364688465436,7.565197710041347,2.1596627103243784,4.1327902759286665,1114.850319916954,1116.2453656153368,1127.5636067568885,1122.9803918525251,14.31752992258618,787.5420078848833,-360.99661930248743,91.43600168917278,151.0930300197605
72.9025,0.4300336069666003,0.3786778689908424,0.3869634924803316,0.0235953418279784,0.0070101086347721,0.0226649471587252,0.0005096339720407,-0.001086504586172,-0.0946938428038829,0.9955053490949384,-0.0004574416932492,0.0294255215446021,9.973421743796452,-0.0003683379672124,0.0077477940368721,0.048912990505194,7.565201098043165,2.15968196173822,4.132908794768247,1114.899068431001,1118.1077258621267,1126.6268303458546,1123.024650946258,-5.74263066692378,713.4213591151487,-457.1787887490765,-79.87833330806086,151.09407413369763
72.905,-0.2162236854781156,0.0229038207300317,0.2442513772542528,0.0238858972580429,0.0076611921325944,0.0233320189854154,0.0005251293162332,-0.0011135059442306,-0.0946691236403751,0.9955076327594145,-0.0018155444757873,0.0325641660122809,9.965819408367354,-0.0006440470070226,0.0077571960119996,0.0492785087432351,7.565204100823531,2.15969961548004,4.1330299154801216,1114.8216067636195,1119.812472410909,1125.2777128131452,1122.5810001859852,-66.73669923240297,506.96565832746,-539.1724732746653,-245.66984117650068,151.0953571530079
72.9075,-0.7191089902828012,-0.1798018631789051,0.1321515478920062,0.021710892024068,0.0063472219040234,0.0231784134409871,0.00053459629911,-0.0011491263384918,-0.0946484553096579,0.9955095183002391,-0.0026102579363054,0.0359248191815669,9.958479237561209,-0.0009246347814715,0.0077765119410347,0.0496337181055403,7.565206368155514,2.1597159836145203,4.133152101615961,1114.5653849348391,1120.6425541537617,1123.9309679794835,1121.7963017403767,-148.63648585592148,192.87743657850376,-569.6964837749144,-389.4496563630032,151.0964476645416
72.90999999999998,-1.1278037133129672,-0.2530520433853425,0.041358052350769,0.0174889699663063,0.0039176404667083,0.0226681957409956,0.0005369570965407,-0.0011872793210431,-0.0946307019146564,0.9955111228100783,-0.0029556876541245,0.0394335745280055,9.951365242671933,-0.0012081994830596,0.0078083524591748,0.0499790247307914,7.565207454502622,2.159731371028445,4.133274551640792,1114.0784243343403,1120.7768595938007,1122.4292303942732,1120.633751904172,-263.48537415391553,-96.05501610771705,-651.517485840364,-575.9657852617929,151.09755588666775
72.9125,-1.4756633735626212,-0.1860162226424196,-0.0404424530703662,0.0116264843826754,0.001201875351,0.0222072000769641,0.0005348769374284,-0.0012169852361157,-0.0946142507352794,0.9955126163834208,-0.0030783735890589,0.043073916296225,9.944437117286792,-0.0014931940939432,0.0078551381780892,0.0503144697470686,7.565207009627223,2.1597464076531967,4.133397511347859,1113.2479580640672,1120.162279073222,1120.6733805502756,1118.9164728140622,-339.72883643494066,-337.55023685751684,-593.0967570540265,-662.0164224899265,151.0989011281897
72.915,-1.6486450035646267,-0.022730827782426,-0.0918644142884392,0.0071975293842586,-0.0001111810833566,0.0221188922285369,0.0005357183858277,-0.0012320298543305,-0.0945975765587696,0.9955141554640669,-0.0031275479984899,0.0469243454583015,9.937652519566655,-0.0017775657690003,0.007919154411434,0.0506396526686309,7.565204465884428,2.1597621988945925,4.1335208925973115,1112.3797801521623,1119.08910840951,1119.463746608997,1117.323669791716,-379.26428829853586,-517.747366077281,-383.2352996328457,-642.3840131541441,151.10003127451736
72.9175,-1.7233079722608389,0.2030731777756317,-0.1355645017658889,0.0036914450206012,0.0001206671549932,0.0222287194603941,0.0005482206420231,-0.0012340365347999,-0.0945865958530944,0.9955151799345104,-0.0031088130937075,0.0510980379061395,9.930968836343082,-0.0020586792060566,0.0080022044714447,0.0509537428363141,7.565200197927213,2.1597805661641547,4.133644831564369,1111.3516366225763,1117.573542242838,1118.7572040521131,1115.7045527482944,-438.1638960095535,-657.9039547290521,-176.9737853187298,-630.2353074892201,151.10116649324127
72.92,-1.735543017330287,0.4368486245194146,-0.1774553061652745,0.0005764297627342,0.0015982203592619,0.0222005673128206,0.0005721970419385,-0.0012220814936894,-0.0945837045143511,0.9955154701186856,-0.0030689388223166,0.0555226948100685,9.924344124238667,-0.0023342944770343,0.0081046764371224,0.051255608794691,7.565195024550797,2.1598029360027544,4.133771035832384,1110.1889606721168,1115.7995886358678,1118.5788776824045,1114.1724932542727,-501.166886617558,-747.6183017429299,56.383643795339935,-567.1355429901424,151.1023027495656
72.9225,-1.6838514342684419,0.6329035871960345,-0.217386844082886,-0.0028133718830984,0.0042253060940528,0.0214899287016508,0.0005951010584003,-0.0011919015000539,-0.0945829335048589,0.9955155956600255,-0.0031033073517915,0.0598739605586128,9.917738703506416,-0.002602715952377,0.0082255786878642,0.0515439773097368,7.565189427505686,2.1598274839238334,4.133899827046938,1108.8458021894908,1113.8354507341269,1119.0391222710896,1112.8688750333463,-634.7882929066461,-877.6917980045052,315.23527208516066,-495.8271511793517,151.10343675413688
72.92499999999998,-1.5458483186030627,0.7846514297991087,-0.2630381674952144,-0.0075264013423066,0.0079414070462777,0.0197831583763998,0.0006120987569066,-0.0011455438515245,-0.0945814670605729,0.9955158105043052,-0.0032029377091755,0.0639898740820813,9.911114448791299,-0.0028622668205445,0.0083649924483562,0.0518173747648231,7.565183462988256,2.1598519597671157,4.134030829238316,1107.0150192075864,1111.411129645849,1120.1550540428289,1111.693357498378,-701.9457806989085,-876.0694941527854,458.0723001123334,-356.4380288044562,151.10479092793258
72.92749999999998,-1.3613894433383755,0.8318381690640178,-0.3070375278209491,-0.011725042921899,0.0107287917877722,0.0183745592447936,0.0006182130774968,-0.0010860065602896,-0.0945746761834164,0.9955165445248984,-0.0033439969690036,0.0677076079955904,9.904435357608744,-0.0031116641165229,0.0085233539286378,0.0520745065326519,7.56517703987372,2.1598744531913927,4.134164175870834,1105.3360732859994,1109.4551032633667,1121.3294837716492,1111.0866848893256,-683.4618390907941,-737.410554909532,457.0796530395261,-166.0264708985298,151.10591129562638
72.93,-1.1038663127252752,0.8043442303744883,-0.3799795546688061,-0.0156418461167763,0.0129046986747799,0.0179419859461706,0.0006045795476952,-0.0010175124523459,-0.0945598816321551,0.995518046542595,-0.0034745662664623,0.0707911667766463,9.897668308902482,-0.0033499437065865,0.0087008411304698,0.0523145670984532,7.565170600320216,2.1598940328985776,4.134298594358817,1103.5977100121258,1107.7240768712943,1122.440452308031,1110.863225143884,-741.4599064324868,-673.5363718545784,408.5768651095639,-25.28420662055966,151.10702057752968
72.9325,-0.7270836850732054,0.7054462216505079,-0.5306891059512984,-0.0193658589041587,0.015337466366711,0.0183664081581079,0.0005688500747289,-0.0009481781214754,-0.0945368585012084,0.9955203261817164,-0.0034804406236279,0.0731432420554966,9.890781620807907,-0.0035761647248501,0.0088980567562494,0.0525372252406064,7.565164269636894,2.1599109421750247,4.134432912359291,1101.6287737538298,1106.0874214040875,1123.3723680972007,1110.9602638562224,-672.4271401397094,-505.28932017010015,244.4189429823331,78.45919252679637,151.10833632373334
72.935,-0.3823575919839122,0.5861337675955914,-0.7175157135572938,-0.021114290428913,0.0171174445647141,0.0186599008711204,0.0005143566456682,-0.0008822924044324,-0.0945071738687556,0.9955232278197492,-0.0033343663000115,0.0747759966509213,9.883743877427941,-0.0037900386291635,0.0091154001875717,0.0527425778106424,7.565157327048309,2.1599258573523312,4.13456633161664,1100.2355743114304,1105.1976302704463,1123.6625470229415,1111.2555211065176,-477.2729347467496,-242.35747997549183,7.725094055793056,138.0591756815084,151.10941841172465
72.9375,-0.0472099655345282,0.4536037794542675,-0.951044390340238,-0.021020102953857,0.0182243197347903,0.0179145882955234,0.0004505058527701,-0.0008219138935525,-0.094474015381869,0.9955264452157722,-0.0030637375298302,0.0758236678082613,9.876523894509688,-0.0039916860974875,0.009352700239636,0.0529309668555736,7.565148209263784,2.159940219413444,4.1346978774097085,1099.2424090800982,1104.8756340042112,1123.4109935674799,1111.6505597346295,-331.7134047783672,-8.864913904434493,-208.76961671175084,169.19351646894864,151.11048414336847
72.93999999999998,0.2980092591198009,0.3091515439512119,-1.2336829650249428,-0.0189909774317619,0.01867876030569,0.0150522208838306,0.0003911402553738,-0.0007722485069153,-0.0944443439692947,0.9955293126171544,-0.0026407119571138,0.0765218673107448,9.869091731837985,-0.0041811921400944,0.0096087813246637,0.0531027412308226,7.565137127429699,2.159956220446903,4.134827808404945,1098.57700728754,1105.153305700924,1122.6186989393836,1112.1014886888615,-163.8783734968582,202.56575987064255,-336.01857900997487,143.6233048984319,151.11174283038355
72.94249999999998,0.5187374331841468,0.2180179554722038,-1.4229341281813923,-0.0164158573417357,0.0184716657044466,0.0109821838730693,0.0003456796402884,-0.0007389091341152,-0.0944245349688729,0.9955312239781194,-0.0020177892097738,0.0770309197523326,9.86142019300168,-0.0043589400842404,0.0098804729735321,0.0532580972750402,7.5651262008112,2.1599755917841184,4.134957940125392,1098.4230172126147,1105.8884628035635,1121.7309006724315,1112.368676259121,-5.046139494779052,374.19477935919053,-354.33285571170654,66.95530011325692,151.11277404840635
72.945,0.6721690161289264,0.1659199920156862,-1.5124454872326876,-0.0139837933864319,0.0180193725146056,0.0058645449548117,0.0003177033841109,-0.0007217574695717,-0.094418745780004,0.995531790710574,-0.0012446096954707,0.0773988395811083,9.853484760840585,-0.0045263442749554,0.0101626483981702,0.0533969022604285,7.565116617101362,2.1599994807773633,4.135089020135314,1098.551776590066,1107.0242795977235,1120.8470346608217,1112.4362651894285,70.90915948901903,494.1003982128223,-324.64943155124286,-15.388733573370063,151.11378583980851
72.9475,0.788384683437323,0.141640328693751,-1.4959632425925786,-0.0120558103155923,0.0177914899534186,0.0006523913609711,0.000307632149316,-0.0007204165419575,-0.0944261233630529,0.9955310985479768,-0.0003629553635008,0.0776261844707996,9.84526431855403,-0.0046851864084644,0.010449087692467,0.0535186893264949,7.565108651428499,2.1600285573164606,4.135220966457354,1098.7775630100605,1108.3589647946324,1120.107653514672,1112.291732591254,80.40255148464931,542.4812534310536,-247.112906644904,-114.62522124276312,151.11478068635492
72.95,0.8910411590725438,0.1341623089448877,-1.347902048210319,-0.0109911040761685,0.0183276896625038,-0.0040931344846808,0.0003064187503631,-0.0007249165300365,-0.0944380569096127,0.9955299703540934,0.0004230881142914,0.0775261733935773,9.836741723076528,-0.0048383319337291,0.0107323833516758,0.0536228286712829,7.565102523025273,2.1600615244647154,4.135354778467356,1098.9537893474887,1109.7366858648763,1119.6114701275983,1111.8631390832152,33.225504175137054,562.9225615808654,-174.00749788132453,-252.6598670575392,151.11575403894793
72.9525,1.0299052596997695,0.1201892947046826,-1.041943916461337,-0.010301088870358,0.0195448999579942,-0.0085697753388864,0.0003048003042932,-0.0007289511297235,-0.0944502053386811,0.995528821146022,0.0009887976401647,0.0769291054937669,9.827904260889571,-0.0049884632854657,0.0110055528804563,0.0537086029053096,7.5650980246876465,2.160097024774585,4.135490279442259,1098.943690530936,1111.173577602534,1119.2376160252663,1111.0284332559675,-53.05349601876792,455.6089392115206,-125.45395560925994,-350.80051720474404,151.1168957735823
72.955,1.162298786900254,0.0931996163226807,-0.7132012355922187,-0.0090867880445252,0.0204412205833977,-0.0106379952986427,0.0003034165399618,-0.0007336863862958,-0.09446126103836,0.9955277688302838,0.0013447679972744,0.0758864497240319,9.818742714358764,-0.005137539799066,0.0112636058373002,0.0537752081812416,7.565094028751086,2.160134183702548,4.135625805997951,1098.6885218673951,1112.014730560932,1118.9842003495523,1110.109136497193,-152.78994188998038,231.62078319526847,-126.61152643566002,-394.7440005177166,151.1178242085275
72.95749999999998,1.28983295357172,0.0484593935280844,-0.3538990450397423,-0.0062396485317323,0.0208250583047778,-0.0108756430963836,0.0003048764952506,-0.0007381537604087,-0.0944702406537477,0.9955269058872283,0.0014639460762067,0.0744958600274238,9.80925217896986,-0.0052875384883206,0.0115028803594974,0.053821935509134,7.56508949143807,2.160172171782788,4.135760427218796,1098.1797408214868,1112.3316815185094,1118.6045583930886,1109.0547132533807,-265.2685395223546,2.9927592932778135,-231.2907739755324,-464.1001322940736,151.11872738095394
72.96,1.3957897204074763,-0.0187041833533693,0.0706047781796612,-0.001346748051757,0.0208583490449449,-0.0101928611967583,0.0003097714697199,-0.0007366266349031,-0.0944752508776797,0.9955264174798923,0.0012381369738438,0.072816285527767,9.799433008863645,-0.0054406477703803,0.0117207008473545,0.053848168535427,7.5650835283253075,2.1602107599030895,4.135894404016228,1097.362179169781,1112.0296943573985,1117.8277464796727,1107.788635835718,-314.78239496171324,-220.52267287643315,-349.9875493327238,-440.2615175311116,151.119780510978
72.9625,1.4200621739490296,-0.0792550003363439,0.401866763177322,0.0032135541288879,0.0206992790128421,-0.0095347161688245,0.0003167424768002,-0.0007301590971331,-0.094475607005522,0.995526373135357,0.0007026417650395,0.0708879493307759,9.789292674196707,-0.0055981825447603,0.0119154791500054,0.0538533503488588,7.565076093925039,2.1602499192003206,4.136027282273358,1096.6058288466752,1111.2290681541251,1116.8546206464216,1106.8534056657209,-292.7965447607156,-415.2102943218008,-449.88457432255007,-326.18629663195514,151.12063193148535
72.965,1.3657676802560328,-0.1371631557225632,0.6985471621611,0.0074429163469101,0.0204355004552698,-0.0085130043144391,0.0003218969934106,-0.0007193998376633,-0.0944709671734292,0.9955268154762564,-0.0001035580222551,0.0687051822504233,9.778845587868743,-0.0057614824599052,0.0120865492269492,0.0538368028762222,7.565068315391123,2.1602889843055446,4.136159631030377,1095.8981964459788,1109.9536428857912,1115.578323608062,1106.15770435256,-258.3997593148145,-568.8193893573215,-541.1220841932765,-230.81393399286827,151.12145618234524
72.9675,1.2507518718733663,-0.1876939664223361,0.9572708440473472,0.0108337250070756,0.02007983302552,-0.0067158012922764,0.0003198296069336,-0.0007043875230668,-0.0944598003120776,0.9955278971968105,-0.0011440192738556,0.0662335793704099,9.768113477318929,-0.0059319788548309,0.0122342193191514,0.0537975894055122,7.565061090801616,2.1603270729288364,4.136292279498727,1095.3138300501023,1108.384971207341,1114.1490102254577,1105.6993359957576,-190.332180544456,-672.4328422201528,-574.0422345543484,-132.20322763471103,151.12225848510212
72.97,1.07657500001762,-0.2228696356214247,1.1553726404627849,0.0132854502972386,0.0195547444990184,-0.0042058507624387,0.0003143959626561,-0.0006940890507259,-0.0944471716638766,0.9955291257407246,-0.0022211626914512,0.0636331953559198,9.757125480445271,-0.0061103998332859,0.0123607887268117,0.0537342890552433,7.565054124040814,2.160364118700099,4.136423503818272,1094.9465355432571,1106.5914786746937,1112.7081124352928,1105.4966882143867,-103.3941222479856,-808.8643541788396,-591.6053540097361,-55.69883508356333,151.12303571790355
72.97249999999998,0.815886343757702,-0.2391004682709489,1.3018896776998428,0.0157362235306863,0.0186511089617201,-0.0008014582221971,0.0003061057741219,-0.0006938703885237,-0.0944352100196234,0.9955302933401898,-0.0031966035873988,0.0609886972974406,9.745919262764403,-0.0062976201057573,0.0124689840350947,0.0536451061673703,7.565046821588519,2.1604001144836653,4.136552551043152,1094.7968594388628,1104.3406494364503,1111.1909834554117,1105.42084182034,-7.11348599682868,-818.0342369180485,-496.53606070218746,-25.783055306824473,151.1239420946243
72.975,0.5639320928791844,-0.226576493509586,1.3312659384464383,0.0173691354565724,0.0176737428371795,0.0024114575704382,0.000295911272471,-0.0007027843476628,-0.0944232811276795,0.9955314591152788,-0.0040515303873123,0.0583761362415556,9.73454034720308,-0.006494894305098,0.0125621268194653,0.0535275276600104,7.565038911132814,2.1604348712671126,4.136680863916158,1094.9109681132732,1102.5013074900955,1110.225432131777,1105.3677729378524,87.23074609266827,-697.3307232169809,-312.45791015488606,-48.44013226561134,151.1246780731549
72.9775,0.2835303067009028,-0.1869591784979749,1.2439592959487535,0.0184065321223578,0.0166494827017323,0.0062013271901678,0.0002937220392294,-0.0007149884849213,-0.094411616778235,0.9955325959990564,-0.0048759148685678,0.0560282509453486,9.7230411519684,-0.0067038358777389,0.0126447836054416,0.053377945078934,7.56503030535057,2.1604688468006135,4.136810383879765,1095.233013169327,1100.8539958203587,1109.6286939046342,1105.1786411590115,171.62667800127713,-641.1917902270409,-187.18540166831843,-135.71149188731917,151.12539780152207
72.98,-0.0770257472069727,-0.1180298801601141,0.9889711268557828,0.0191156955511085,0.0158815249393518,0.0111942657635263,0.0003005957017828,-0.0007218897235611,-0.0943995606932087,0.9955337660517392,-0.0057948657854604,0.053992231961014,9.711483495811443,-0.0069259421691478,0.0127207018784828,0.0531922211075738,7.565021299160606,2.1605021260607544,4.136942798790248,1095.7691015032788,1099.2953485389633,1109.2895051234364,1104.6892154784164,202.2967246217852,-474.18199238929833,-81.23123510998195,-225.6167989907459,151.1262479337812
72.9825,-0.3883655045302137,-0.0557600225344647,0.6556239495655474,0.0193207493376904,0.0157661020515852,0.014949533465254,0.0003125332120349,-0.0007157857047956,-0.0943869474851442,0.9955349877213164,-0.0069066909383586,0.0522099440459119,9.699937548851107,-0.007162241296354,0.0127930763557347,0.0529660075916515,7.565012701652231,2.1605346968858283,4.137079759107118,1096.244496792435,1098.4830858584144,1109.2225377290847,1104.0505571640588,167.197999108582,-199.7694901067005,-13.880531831013176,-290.6074872236701,151.12694926956598
72.985,-0.6910336200360234,-0.0054473421985832,0.2291292203496722,0.0187653941317575,0.015892695780292,0.0171564577529792,0.000327052230417,-0.0006968252678402,-0.0943722383039267,0.9955364048633418,-0.0081621739649227,0.0506582792000252,9.688480455188888,-0.0074124725285766,0.012865203647666,0.0526952775892106,7.565004268378245,2.1605662233435066,4.137220321598372,1096.605091498821,1098.2965010884307,1109.2201024642811,1103.2361780422996,101.7580955836836,34.32578206059982,-15.07242229319224,-336.8509100680393,151.12764851589304
72.98749999999998,-0.9621477910095548,0.0240121852103289,-0.2316058192802329,0.0172544196979745,0.0162284948124114,0.0176046937062357,0.000338871064501,-0.0006694857447468,-0.0943544680700392,0.9955381063413514,-0.0094272821540075,0.0492594169486797,9.677194437783728,-0.0076753297669121,0.0129398039032501,0.052377091767118,7.564995535581426,2.1605961551581547,4.137362508145055,1096.7532872703528,1098.6547147687174,1109.1471756176188,1102.36630261372,-15.898573922791819,259.4792087005858,-69.9612665506447,-336.63353500258984,151.1283502001252
72.98999999999998,-1.1566389199760452,0.0191816357171748,-0.6696658272067627,0.0143708019902906,0.0170191929000293,0.0157608590424072,0.0003435130733693,-0.0006355902986816,-0.09433322690892,0.9955401323068344,-0.010626208028744,0.0479385785242515,9.666162728224096,-0.0079491177878397,0.0130191047517765,0.0520099267758903,7.564985742129523,2.160624347423135,4.137504722155429,1096.525598629207,1099.5938971319324,1108.8702961315284,1101.553010367288,-201.72604204483045,499.90413023009535,-183.46453848786047,-318.7159056404405,151.129060134762
72.9925,-1.2514575605972038,-0.027231889407898,-1.0912402307795168,0.0095437858489542,0.0180370242221634,0.0113526694384776,0.0003449717281021,-0.0005990441184175,-0.0943106832195856,0.9955422743411534,-0.0116656149964192,0.0467808169779216,9.65546623818439,-0.0082313434538867,0.01310535770066,0.0515937918740353,7.564974546723053,2.16065178914128,4.137646146667913,1095.7446570601269,1101.1542354198727,1108.2298529251775,1100.7727230855148,-364.7938943563302,593.7796088975922,-281.7493041187857,-242.53911914587167,151.1299287884962
72.995,-1.1887914959782473,-0.0890958119545208,-1.3152360545685386,0.0050914191064064,0.018440354349195,0.0068023689737946,0.0003555309149066,-0.0005637749999031,-0.0942934635169324,0.9955438962661644,-0.0124753616949017,0.0460240489035568,9.645180065801174,-0.0085190296146003,0.0132004982731379,0.0511303007408413,7.564961779582653,2.1606807409151085,4.137786360848125,1094.7016291574218,1102.562795176426,1107.4615496109316,1100.3403147715565,-471.6396197138434,517.7495203389004,-333.55066899237823,-125.34077987782015,151.1306720959618
72.9975,-0.9701675747163216,-0.1506108191442092,-1.386244702516616,0.0011200536027618,0.0180363056197838,0.002378940314737,0.0003811612142021,-0.0005329583513049,-0.0942873214792524,0.995544448488222,-0.0129971242811761,0.0457792169687387,9.635371818212596,-0.0088086482243849,0.0133046876919892,0.0506230596572316,7.56494709773125,2.1607125684124378,4.1379240275006275,1093.3864589615598,1103.742983021565,1106.5620995802171,1100.1460191861263,-595.0783639733755,395.3036427686996,-387.25167586366047,-38.90448362921134,151.1314423769926
73.0,-0.5481972778590744,-0.1913795864279718,-1.300856911580126,-0.0026139387999682,0.016519398174838,-0.0024627983288316,0.0004204531340581,-0.0005071137161485,-0.0942958926210735,0.9955435880177292,-0.0132193668731111,0.046008911389656,9.626098330818534,-0.0090964816739003,0.0134164600969968,0.0500775499382914,7.564930594065825,2.1607473779211905,4.138057941884174,1091.7262373375577,1104.5393133902678,1105.5252912316153,1100.1457923534103,-587.6225348618733,153.33795309107094,-346.5171220510424,27.723412710136216,151.1324056409871
73.00249999999998,-0.0975825641955369,-0.1808684504477414,-1.1060433008701072,-0.0046354582584749,0.0145714753541273,-0.0061238032858323,0.00046988144268,-0.0004872253269912,-0.0943184045534385,0.9955413937740126,-0.0131268046902631,0.0466363496273352,9.617402997350709,-0.009378552400042,0.0135336978000358,0.0495007297388654,7.564911688776921,2.160785121820415,4.1381863595675,1090.4483462872531,1104.5096727870196,1104.8295139699635,1100.2846362496769,-457.4120778612791,-169.00056370442962,-226.7535428197577,68.70123508139723,151.1332456008772
73.00499999999998,0.3945158880767212,-0.1239351629129402,-0.8178399658085224,-0.0049433176551465,0.0125961296037596,-0.0091228354970556,0.0005205557706083,-0.0004724212887215,-0.0943471947597967,0.9955386032383832,-0.0127382650474837,0.0474806250065987,9.609314105042936,-0.0096510529688951,0.0136537053064256,0.048900590064687,7.564890059928017,2.1608248346727033,4.1383085518653955,1089.4391769482531,1103.6943105717464,1104.3915235175175,1100.4892985288172,-347.8741111819643,-442.696140483494,-136.69563998388142,80.81704948420179,151.13412852750236
73.0075,0.8628841797636169,-0.0480033240762843,-0.4876048165688933,-0.0031197033160271,0.0114928431666461,-0.0109351002018769,0.0005636094739421,-0.0004600018709918,-0.0943754456122928,0.9955358759069606,-0.0121155520975917,0.0483594904120141,9.601843411703616,-0.0099109295098912,0.0137738747909009,0.0482853389888981,7.564866230703625,2.1608654151640407,4.138425061887134,1088.70897573134,1102.2961920845978,1104.1460357700428,1100.6887214970986,-228.8423721823744,-658.5056017648192,-76.3220454378714,65.4611733235114,151.135049231
73.01,1.2302093963519223,0.0084854327651015,-0.1561853336563215,0.001412044024169,0.012104468906458,-0.0107546652932453,0.0006026417888327,-0.000451790191709,-0.0944026103113114,0.995533266982357,-0.0112636845392879,0.049337863733532,9.594985687635251,-0.0101558311339298,0.013892927534203,0.0476624647445473,7.564841197826131,2.1609068225329104,4.138536745964656,1088.2949650873393,1100.401782562916,1104.0099132903274,1100.8166043954354,-133.11836009168755,-876.4457439352796,-80.01507044389656,26.97016251243164,151.13601677827688
73.0125,1.485851067963958,-0.0013195494776516,0.1874397752332759,0.0083843301852071,0.0140985411380486,-0.0088020009866753,0.0006407151989668,-0.0004491790406231,-0.0944299463392537,0.995530659007687,-0.0102000543497027,0.050470479392336,9.588720604993764,-0.0103845426925832,0.0140097038902257,0.0470384551958134,7.564816082909026,2.1609495034644945,4.138644906515191,1088.043383930882,1097.9139633649252,1103.7459604178239,1100.8235723096607,-76.52779203242656,-892.7497936147053,-146.4443450038711,-26.9420306578258,151.13723198835393
73.015,1.526965637384518,-0.0979552554702244,0.4062146865663245,0.0139572287852541,0.015690056266692,-0.0068154826486326,0.0006688386978455,-0.0004499146401518,-0.0944547185666537,0.9955283114048143,-0.0089924172584982,0.051577040085984,9.583015720006063,-0.0105970508300764,0.0141222774103551,0.0464186773449087,7.564791743176314,2.1609925519891706,4.138750620216499,1087.9123261271775,1095.9380335948465,1103.2776915653087,1100.6818942421464,-64.67366686385019,-713.0482090017385,-266.8028845521956,-87.85750374885342,151.13828858515677
73.0175,1.4067438010166569,-0.2864522920215917,0.5524776436107008,0.0182921897904968,0.0163209664647312,-0.0053438074270921,0.0006854910891338,-0.0004540233258809,-0.0944780626305919,0.9955261114245018,-0.0076798600802826,0.0526240502761049,9.577827511334355,-0.0107942682065295,0.0142297844309673,0.0458066648101266,7.5647685176345405,2.161036124280849,4.138853986998681,1087.7200155965631,1094.34872231992,1102.411945995064,1100.3842847909168,-118.02630600820342,-564.3837857150305,-483.88034957568726,-161.60485985516206,151.1393879035953
73.01999999999998,1.12544543758315,-0.5891546781316634,0.6583537217070535,0.0219287819206796,0.0156796499998978,-0.0040821151192893,0.0006919851210272,-0.0004621722116334,-0.094501259561367,0.9955239328821838,-0.0062935254967858,0.0536328943275207,9.573104740927182,-0.0109778453165347,0.0143320881162422,0.0452040845023688,7.564746642021456,2.161080767195428,4.13895570598577,1087.322194597137,1093.116114666274,1100.8582898174325,1099.8738699428711,-174.6869837963266,-322.57574182814506,-648.6786491072248,-205.98091669281737,151.14075163996387
73.0225,0.8186139702061291,-0.8721295358584173,0.6980782768345132,0.0238128781877186,0.013949112969897,-0.002814665909737,0.0006906314691903,-0.0004671667025222,-0.094521481799535,0.9955220405665194,-0.0050131644321053,0.0546290887901972,9.568790806567073,-0.0111505472545518,0.0144297258801106,0.0446105799277976,7.5647262827225585,2.1611257621212507,4.139058054970876,1086.8465806775798,1092.735843610776,1099.1685527495215,1099.3543802074507,-207.8199448555628,-16.28559836414333,-734.1838743813605,-218.38081235508608,151.14192151320432
73.025,0.4819663970803537,-1.1437014674130332,0.6922411728050121,0.0247583742992543,0.0109651811256663,-0.0007266760485944,0.0006899547721995,-0.0004675467628624,-0.0945376642446239,0.9955205258731448,-0.0039165359124947,0.0557643011776629,9.564828099236077,-0.011314962569008,0.014524446206688,0.0440240263015936,7.564706865147342,2.1611704943483363,4.139162149790525,1086.2830948728572,1093.034686674453,1097.1873704455184,1098.7819658810938,-224.86584402993216,220.57790567684657,-813.7297726897611,-232.44767336635272,151.14312225988607
73.0275,0.1477455397940202,-1.376719372171895,0.6520557607508976,0.024955951613731,0.0071717591773978,0.0016977132941353,0.0006960101305406,-0.0004675006296832,-0.094548777781132,0.9955194778471111,-0.002964345080264,0.057150032934249,9.561161943673492,-0.0114731851009718,0.0146184542305494,0.0434411803596442,7.564687063775778,2.1612140938996878,4.139267149015651,1085.7222514574312,1093.838733139159,1095.0999038860766,1098.19214184062,-204.370132275248,416.01526152759646,-820.4689314163902,-237.8218571096912,151.14434626825985
73.03,-0.1598532298468118,-1.538334509118665,0.5836611330204367,0.0242592785689466,0.0029153053602152,0.0035856675611501,0.0007101620961182,-0.0004658008807709,-0.0945552821966991,0.9955188523545356,-0.0022064124800686,0.0587944908192857,9.557741845448554,-0.0116276826349881,0.014713977419352,0.0428579663196871,7.564666859017419,2.161256075887608,4.139373693277885,1085.2612442114819,1095.1147629820891,1093.0850257884404,1097.5928565955464,-158.129784821229,622.1351202587103,-814.1994401665798,-268.865563119988,151.14559611463295
73.0325,-0.4799726515884825,-1.632840741446538,0.497559298803434,0.0225669925216705,-0.0022832053487148,0.0047333490739897,0.0007331101534203,-0.0004611685603326,-0.0945573043847024,0.9955186406133762,-0.0016861179166721,0.0606887925535215,9.554523398714403,-0.0117807310550038,0.0148134790354406,0.0422698982480681,7.564646912358744,2.1612967459809975,4.139482711576933,1084.9316025333255,1096.94940874045,1091.0289066852474,1096.8478140250213,-70.72197243489492,682.617082291547,-654.8517310930082,-282.39991341614075,151.147123723684
73.03499999999998,-0.701815349622436,-1.6254378721595863,0.443777033274026,0.0207330434329401,-0.0066053455698516,0.0048976152737601,0.0007607068644693,-0.000458402692063,-0.0945554377235814,0.995518791423108,-0.0013162655786789,0.0627381897531824,9.55147065612557,-0.0119338062788991,0.0149190926046839,0.0416728490388215,7.564627146961382,2.161336554542101,4.139592124495287,1084.9076343493075,1098.5278483935435,1089.8107671329783,1096.180857028467,55.048935909765554,593.3894084942393,-347.248058832076,-281.34831151446826,151.14841893419705
73.0375,-0.8812810736009119,-1.5325617927448523,0.4230902201365649,0.0187749065596195,-0.0106876664141297,0.0049028387786792,0.0007873764591248,-0.0004591095840912,-0.0945467537891231,0.995519594529389,-0.0010613458825176,0.0648111382354531,9.54855475948989,-0.0120881797432419,0.0150327456229665,0.0410631806681395,7.56460684771722,2.161375529702473,4.139700477402269,1085.2068472128751,1099.9163557829268,1089.2926663910837,1095.4410724674462,215.99444629827397,520.0596442999494,-43.12327376756762,-341.6890385966089,151.14973670200752
73.04,-1.0576828889002348,-1.3346287875855007,0.4322828298233472,0.0162855969402449,-0.0150945431195291,0.0055905435528485,0.000809461695844,-0.0004628049277989,-0.0945299894984948,0.9955211796656144,-0.0009234895095031,0.0668046421002711,9.545753131920304,-0.012244938287811,0.0151561418733306,0.0404378634030197,7.564585427880591,2.161413505700396,4.1398075917125645,1085.9876065808012,1101.1281466150483,1089.59515076414,1094.4724118354807,357.4728398234197,345.22525122969927,264.64868850895493,-361.86776678210833,151.15134422130055
73.0425,-1.177982492739725,-1.1104035714743328,0.4547889947062254,0.0137733532046918,-0.0181423188775553,0.0068460328431171,0.0008338313792355,-0.0004734924732879,-0.0945097613356473,0.9955230996316448,-0.0008340043549612,0.0688197935590318,9.543047779170845,-0.0124046770790002,0.0152911869972807,0.0397944127754755,7.564563001019766,2.161451881585707,4.139913656928078,1086.9942114119904,1101.642482039074,1090.6159098336273,1093.6317336335371,467.1393195660741,91.12951605101544,546.8973565284585,-328.23627003124625,151.15270585011606
73.045,-1.2739554184091753,-0.8426089989748082,0.4745070673969253,0.0106888713614013,-0.0203662196403502,0.0083267578100299,0.0008615968535754,-0.0004900679455506,-0.0944869592530255,0.9955252660246958,-0.0008056995538008,0.0708372886272158,9.540425072462973,-0.0125679487848034,0.0154387031035628,0.039131284501835,7.564539601807917,2.161491661985539,4.140019394154062,1088.3233031786294,1101.5837941953032,1092.3296375467798,1092.831230485326,634.5049759703984,-151.71288440442524,867.8877658161744,-321.42049063015423,151.15409039621284
73.0475,-1.3647320529935927,-0.491744334015812,0.4796956990070059,0.0068425927021863,-0.0221624360883682,0.0099244107601044,0.0008824298866055,-0.0005096994947002,-0.0944602635755696,0.9955278058195228,-0.0008590561301201,0.0726167948781098,9.537875373381937,-0.0127350923421063,0.0155980593847535,0.0384482732930041,7.564514978735205,2.1615324886839526,4.1401240934427594,1090.1667362918397,1100.8839176170525,1094.955348662704,1092.024631180388,691.9316100300347,-345.3418061135338,1014.001478173317,-256.1297037996666,151.15577812120569
73.04999999999998,-1.4240896944453523,-0.1886043170183286,0.4613933513972679,0.0037447810248786,-0.0229473239393027,0.0112435720190172,0.0008904027422942,-0.0005304109607237,-0.0944286876232249,0.9955308123282656,-0.0010026141011723,0.0740035883810288,9.535388726590535,-0.0129063581577543,0.01576848292161,0.0377461826115408,7.564489382578524,2.161574097755969,4.140226665140027,1091.7829612287765,1099.857085164737,1097.3996449376418,1091.5505819663288,627.9339475873511,-473.3895721053372,975.1460225990968,-138.80763172095504,151.15720609237167
73.05249999999998,-1.4697660249691866,0.1107046455846814,0.4141213733442205,0.0007339214598806,-0.0228227124556021,0.012569950175209,0.0008840849442691,-0.0005505022029755,-0.0943934510782848,0.995534168976206,-0.0012449669167448,0.0749303096459353,9.532952574365956,-0.0130821339035346,0.0159490395656096,0.0370268300903462,7.564463423205803,2.1616166905107383,4.140326993636,1093.3064060297736,1098.516969756528,1099.8310787756952,1091.330593021784,566.7849503687609,-561.1030903799998,931.8740849245567,-45.60600209261164,151.15865575219152
73.055,-1.5023437182214803,0.3971545301412806,0.3417031673114895,-0.0024084857143875,-0.0219504513165335,0.0136583957375011,0.0008667042830101,-0.0005696210800716,-0.0943573984592159,0.9955376015573718,-0.0015751397852735,0.0754232359636178,9.530549861262815,-0.0132629098386672,0.0161386909443918,0.0362930064939339,7.5644376739054175,2.1616605944512326,4.140425118948103,1094.6168859806255,1097.0515697128317,1102.0590153622736,1091.3225519558653,442.5673433570951,-582.6876484302936,804.9728942471478,40.0869067161828,151.16012272187655
73.0575,-1.510563322196015,0.6600216799416231,0.2409860425440618,-0.0060328700552943,-0.0205292286091321,0.0143229600259078,0.0008397042265215,-0.0005933150792247,-0.0943217215999571,0.9955409920255432,-0.0018646878587504,0.0754898368184769,9.52815913615181,-0.0134487996615836,0.0163360138978281,0.0355487144417285,7.564412019840167,2.1617055334029147,4.140519355053488,1095.5192427465631,1095.6035315143708,1103.8559432469388,1091.5310275553652,272.0668705692079,-596.1768430752237,658.4522712466046,124.68430696937928,151.16160952228276
73.06,-1.4779646256037284,0.9416448953744196,0.0913059612458655,-0.0109221485582502,-0.0185289135024596,0.0148885194153669,0.0008040174937494,-0.0006293880299919,-0.0942899409683036,0.9955440022848439,-0.0019403379542489,0.0751369113859961,9.52575286422312,-0.0136399210293805,0.0165392681897152,0.0347988274186014,7.564386511962013,2.161751376383831,4.140607280355157,1095.9772203334703,1094.0706854974583,1105.3512767185036,1091.9459734907116,50.646029022391886,-510.4544776833886,425.9892926201028,165.21721197401823,151.1634149938156
73.0625,-1.40872767240835,1.1424250088405767,-0.0543010242860305,-0.0149113494150804,-0.0165286606654724,0.0153154198142994,0.0007614409806053,-0.0006796548971762,-0.094262436932338,0.9955465954849938,-0.0017426313830554,0.0743836192425419,9.523295778102813,-0.0138367378213458,0.0167466562778561,0.0340483535977491,7.564361095728818,2.161797645306986,4.1406883998768205,1095.772472891675,1093.0512591259562,1105.985889710037,1092.3571136152343,-205.7901713761619,-347.6599036825498,126.17593541347212,162.62939981062357,151.1649360622145
73.06499999999998,-1.2965793529446397,1.2950399278064684,-0.2142890024678315,-0.0182234757347153,-0.0137354716068977,0.015328494597368,0.0007130715086722,-0.0007400282495579,-0.0942375700460871,0.9955489305064896,-0.0013221501339864,0.0732326015543102,9.520745517241487,-0.0140399543966235,0.0169562127776749,0.0333018023987739,7.564335903776754,2.1618439682749084,4.140764230718614,1094.9482694765907,1092.332385979047,1105.9821563955704,1092.759120489764,-491.0260282333557,-256.36110594865056,-134.40742860969695,163.0445784366775,151.16647288723078
73.06749999999998,-1.1197118080807649,1.4010695003057432,-0.4070531028256813,-0.0214248043318667,-0.0093801398511583,0.0143694519678127,0.000667001908689,-0.0008062346575991,-0.094215731902863,0.9955509698169764,-0.0007461612444149,0.0718260818225927,9.518053163214415,-0.0142501895943858,0.0171662085718931,0.0325624164105796,7.56431100813877,2.161890980374732,4.140836774674032,1093.3173427505103,1091.769453596214,1105.3138525669895,1093.1723365074172,-684.3671502384002,-172.16852099475923,-337.4037451272516,136.7878252740041,151.16833388645887
73.07,-0.9413931399906748,1.4113609152818842,-0.5547677005603471,-0.0236528730973205,-0.0051632033591054,0.0128835049683843,0.0006295925654208,-0.0008727805570822,-0.0941992560550387,0.9955524949048332,-0.0001032649839234,0.0702787969429228,9.51516648695911,-0.0144678816624088,0.0173745273651395,0.0318320764399338,7.564286185821105,2.161938923736425,4.140907575584486,1091.526433725392,1091.4715433740716,1104.295137669931,1093.443059616135,-773.6331357503842,-107.80736595863428,-477.32564237984263,95.41187854701752,151.1698978200238
73.0725,-0.7319160589121553,1.3347091121414285,-0.676224540237595,-0.0255289665126476,-0.0007581521590848,0.011432585407826,0.0006000155319535,-0.0009311639770216,-0.0941908534604579,0.9955532560545372,0.0004719966940039,0.0685718201851069,9.512032933655828,-0.0146932263116885,0.0175784140514207,0.0311113470734639,7.564261040399553,2.1619879932454977,4.140977736969496,1089.4491770717511,1091.23041676642,1102.9272243550856,1093.6493959001532,-851.6772329237043,-104.87229522673704,-585.0327874773801,77.33204319627232,151.1714743993195
73.075,-0.494874909784235,1.1938276499046763,-0.7685488564831778,-0.0270427095095431,0.0031615866986024,0.0104873752450648,0.0005800678865274,-0.0009775564186681,-0.0941917586763713,0.9955531380891735,0.0009265746085314,0.0667524398116205,9.508601486785789,-0.0149256620770527,0.0177752966058348,0.0303993884334475,7.5642345193154705,2.162038815438048,4.141046879364732,1087.2680475607774,1090.9471818979384,1101.3699737325467,1093.8297198321163,-866.1011684646073,-138.65637722400484,-645.5182004454359,74.60890030704341,151.17306084984122
73.0775,-0.2218691833444939,0.9999544138652198,-0.8105160173015811,-0.0282175910185551,0.0056817963743974,0.009608831288348,0.0005691706462478,-0.001011230617993,-0.0942020788344432,0.99555213245937,0.0012672070442337,0.0648360736435585,9.504825996146701,-0.0151640525857486,0.0179625727098337,0.029694252608571,7.564206882237073,2.162091780858217,4.141115237048366,1085.118671229432,1090.5371348803003,1099.6996333528612,1094.022440401688,-902.7202182848691,-214.77703039669433,-734.934975451083,97.50466804225424,151.17465857248985
73.08,0.1467941364623717,0.7440783439684734,-0.7652206697990325,-0.0293203391434783,0.0069660478815564,0.007099099829945,0.0005645179411314,-0.0010279353666919,-0.094217010684118,0.9955507009849291,0.0014345497178242,0.062797130053836,9.500666949936125,-0.0154070919414723,0.0181378900116734,0.0289928628812103,7.5641782668263025,2.162146355537767,4.141183629074512,1082.7544464693572,1089.873296745956,1097.6952988552944,1094.3172431723272,-810.3299637501188,-263.18571072344014,-719.6324827027362,122.10287302525295,151.17658823174833
73.08249999999998,0.4794727707153323,0.5311587760598527,-0.6145432879321278,-0.0296473312660366,0.0074996732910722,0.003353287891181,0.0005604676550559,-0.0010271641128593,-0.0942329039583025,0.9955491952106464,0.001440520200709,0.0605686730840769,9.496094753437891,-0.0156532042533465,0.018299163825347,0.028291443926132,7.564148829923885,2.162202206145471,4.1412515457805394,1081.0670214106851,1089.2212063266843,1096.1014709393507,1094.6329547668136,-599.763507646026,-258.3289856928796,-607.4673900341251,138.15883180087113,151.1782064896132
73.085,0.8123831408028346,0.3246590172652265,-0.3261331255027421,-0.0287182610974505,0.0084380520510073,-0.0010207111960114,0.0005550206037499,-0.0010141295354148,-0.0942469018529652,0.995547882998707,0.0013935629685399,0.0581673495183607,9.491090967175518,-0.0159005661773254,0.0184451052891956,0.0275855578862723,7.564119222640712,2.162259458935513,4.14131862744019,1079.7556289311212,1088.581651817489,1094.657961905118,1095.0080373313328,-483.1659113958024,-246.74894115025893,-585.960697428577,166.38819384997663,151.1798360353964
73.0875,1.164047428864978,0.0800955098735512,0.1465427473826234,-0.0255782257154228,0.0099420603340728,-0.0043615963563442,0.0005456539531346,-0.0009896473067297,-0.0942532347031959,0.9955473145467668,0.0013149564637122,0.0555955605794087,9.485649237835082,-0.0161475459501751,0.0185751626404787,0.0268701793915186,7.5640896956791535,2.1623176339891206,4.1413858796411995,1078.6511918537014,1087.9874616209308,1093.1716674522024,1095.4648957360653,-330.045840701705,-172.20420013456734,-493.7946087064973,154.3075987601281,151.18180653178572
73.09,1.3792668836160376,-0.1189304328398828,0.5806213962137781,-0.0214333715473274,0.0107667197610837,-0.0038041132858622,0.000531714825122,-0.0009551155955168,-0.0942476133527275,0.9955478980259564,0.0012281077363408,0.052893404232054,9.479776451773347,-0.0163925406793073,0.0186896421682314,0.0261399753464513,7.564059968186493,2.162375674922011,4.141454225801425,1078.1053997276142,1087.7206308168168,1092.1889888615879,1095.7795753251328,-152.52649694107507,-55.74835397074435,-330.49883505007574,91.31388838044704,151.1834633837597
73.0925,1.4800530630338995,-0.296732701882127,0.9547250757297489,-0.0165077189895988,0.010303515148893,0.000414805488946,0.0005198371575711,-0.0009169357202913,-0.0942304313875155,0.995549582591396,0.0012319995049422,0.0502466248184933,9.473492891911617,-0.016633843837293,0.0187898831084871,0.02538957321453,7.564029197443719,2.1624330495995405,4.1415231230856735,1077.8885593689968,1087.7087198510771,1091.5191732769536,1095.921465177967,-44.7623737328238,26.44152739319583,-214.30921781190077,12.106526500849313,151.18513915903972
73.095,1.4769979119230532,-0.4384635038057307,1.2143975307268935,-0.0115787322920674,0.0088174292042835,0.0062808622437591,0.0005093877479645,-0.000880419016097,-0.0942043036123312,0.9955521101543696,0.0014125848852199,0.0476998273559504,9.466833033395828,-0.0168698124775272,0.0188774100270663,0.024614355088336,7.563996934470403,2.162489162858491,4.141590886200234,1077.8815878589503,1087.8528384537829,1091.117442772529,1095.8401079576367,31.843080361324468,69.6917849088274,-104.12050219029344,-102.53239091025765,151.1868339919566
73.09749999999998,1.359774520459772,-0.51841485619055,1.300419274259855,-0.0072955960795949,0.0069692085562155,0.0121105142900396,0.000500834673482,-0.000846672503939,-0.0941716687518922,0.9955552447618772,0.0017698312866367,0.0453081233552246,9.459842965752417,-0.017099025904008,0.0189542310102772,0.0238102726960228,7.563963132476707,2.162543954022142,4.141656867257463,1078.0477747708032,1088.0571787756212,1090.9985707660023,1095.4088032234163,95.62464471837009,66.22002458544492,-10.00587128112669,-281.46682615292946,151.1885566991414
73.1,1.1231239583436858,-0.5322610635184084,1.216276006038365,-0.0033293327860657,0.0050747203203025,0.0175520791393476,0.000497605332937,-0.0008180837297952,-0.0941332384779716,0.995558914275319,0.0023185894082012,0.0431810610190801,9.45257929298272,-0.0173200475005766,0.0190227308116703,0.022974019506204,7.5639279694917185,2.1625977288267846,4.1417204803602194,1078.359711082543,1088.1839385767107,1091.0674134161236,1094.4327738268696,123.99774213662248,3.658797795644409,38.64456440903076,-430.83471867074377,151.19066344079374
73.1025,0.8808296733032697,-0.4745608678213824,1.030309213011476,-0.0011302584052534,0.0036247762286062,0.0205176736131617,0.0005027879507308,-0.0007959404162098,-0.0940893410278802,0.995563086222274,0.003050175702486,0.0414152170671029,9.445107231676547,-0.0175316724384697,0.0190851993299028,0.022103095949064,7.563891654258973,2.16265088447398,4.141782085513212,1078.6677634814876,1088.0754727645995,1091.191793588048,1093.2546296300584,126.29464530853174,-102.41645677697527,39.719928163267205,-526.9390899566379,151.19245747232364
73.105,0.6340432013361269,-0.3484835410882189,0.786684572225883,3.475683936608441e-05,0.0021415326143459,0.0219470760133397,0.0005191589557078,-0.0007780814842915,-0.0940408843150449,0.9955676761490562,0.0038890370285058,0.040090005619022,9.437497952748206,-0.0177331419034589,0.0191436015858436,0.0211957317499955,7.563854127099906,2.162703748677581,4.141842250543373,1078.9911843090852,1087.6718562928263,1091.2660130569395,1091.7980783770888,140.0467187434879,-241.3223599181868,4.848208716161797,-665.6345854924581,151.19429732872553
73.1075,0.3727018740889178,-0.1300945245248568,0.4951636045945222,0.0005906952914507,0.0007811234216559,0.0222602051163054,0.0005492685734177,-0.0007678244329089,-0.093993007278049,0.9955721950917488,0.0048611954544975,0.0392844951801065,9.429827024212237,-0.0179239729691573,0.019199359510246,0.0202512211854176,7.563816070441866,2.1627567851446554,4.1419004059088795,1079.3679970752044,1086.8688609650096,1091.2160346316289,1089.9264567025991,131.23983154439995,-330.4210802786478,-42.556020266868074,-673.7088721070211,151.19656398629195
73.11,0.2034326344132733,0.0916358485097737,0.2878301667460093,0.0006122149906415,0.000285853713773,0.0218408577876371,0.0005933091835435,-0.0007667298792091,-0.0939509668375465,0.9955761462741788,0.0059633050896574,0.0390251868497034,9.422171018760869,-0.0181041689164696,0.0192533315046958,0.0192698607463897,7.563778156236825,2.162810723546264,4.141956259842308,1079.6473834668063,1086.0197508914343,1091.0532329556056,1088.4295340165568,96.35893779831927,-344.8511430346524,-79.22555449625108,-550.5689325598729,151.19850545210159
73.11249999999998,0.0957771350283616,0.3271715629550123,0.1364842397241106,0.0004142440971728,0.0006698053436638,0.0212477143443156,0.0006419634834636,-0.0007709906138209,-0.0939160796069303,0.9955794122561052,0.0071091413329889,0.0391464412018681,9.414605112089642,-0.0182741350866948,0.0193057628655114,0.0182531525902127,7.5637403003975505,2.162865623527543,4.142008709053352,1079.8497917641955,1085.144605249838,1090.819906859148,1087.1736120398023,61.291814728348335,-326.84700552961374,-90.45975498846968,-444.629008063425,151.20050489562186
73.11499999999998,0.0397883933873085,0.5499139945475106,0.0299408913909034,0.0001529684616397,0.0018969500333343,0.0207361840073221,0.0006836832458137,-0.0007721026131438,-0.0938868877298186,0.995582142212306,0.008130645698379,0.0394287265703301,9.407199906989245,-0.0184346286650678,0.0193567187968059,0.0172034534543768,7.563702235445594,2.162921351136704,4.142057328466767,1079.953842540448,1084.385515863788,1090.6009341806637,1086.2063889762417,11.338444838816857,-245.8541219177528,-64.92782265664758,-309.4594563261511,151.20255431257692
73.1175,0.0394065433885843,0.7285289202939009,-0.0383841461475831,-9.193535142294479e-05,0.0041773264155724,0.0204377101465986,0.0007131861819038,-0.0007649097258995,-0.0938622392646491,0.9955844502404516,0.0089146953772703,0.0397717261186527,9.400019156107396,-0.0185865630432773,0.0194064256191436,0.0161237304563249,7.563664167208037,2.162978225391353,4.142102499516193,1079.9064839883897,1083.9153346402468,1090.495267745864,1085.6263147581683,-59.11973418590093,-113.8512298072856,-1.7416092921815098,-172.5819601576252,151.20466549667887
73.12,0.0873132410271948,0.8647186354608674,-0.1057824401072698,-0.0002694062553993,0.0078220860879068,0.0203542904275113,0.000730736024881,-0.0007500092483362,-0.0938423297564651,0.995586315247391,0.0094501237716745,0.0401845410250578,9.393118004057941,-0.0187309797011909,0.0194552817251947,0.0150175271388472,7.563626148298569,2.1630362212406524,4.142144746866931,1079.658243869518,1083.8162597147505,1090.5922261342027,1085.3434791754519,-121.24089029709577,48.6947885144661,77.62859187794457,-49.355816449087214,151.20727125878227
73.1225,0.1515102427157972,0.9065177807110152,-0.1725950637550141,-0.0002388628238245,0.0109315089818174,0.0204812746479215,0.0007365819582151,-0.0007313897480689,-0.0938264756273555,0.995587798767176,0.0097941065550744,0.0406774620832891,9.38654162290531,-0.0188690437045965,0.0195038595548999,0.013889034875938,7.563587958564345,2.1630949793379384,4.142183549272059,1079.3002795369048,1084.158808582819,1090.8834107052535,1085.3795356759233,-168.7548615656567,219.3225929199064,153.31896281491328,47.51039493375857,151.20950295570688
73.125,0.2173150189125556,0.8838914201717655,-0.2728413034167597,0.0001061118195751,0.0131696665109601,0.0207213202354371,0.000731589280472,-0.0007175246426354,-0.0938135333757539,0.995589004137918,0.0100920245753078,0.0412755504759784,9.380324103190842,-0.0190020541444976,0.0195530178856317,0.0127430129213675,7.563549494245097,2.1631537057147137,4.142217252006053,1078.8144695616904,1084.9128726793488,1091.3588209482766,1085.5810311501205,-233.1449414579612,401.8730743478517,231.45373370815057,99.65104749458047,151.21179621922198
73.12749999999998,0.267196546045948,0.8051432552223498,-0.4444716891949284,0.00106269713683,0.0147778602308218,0.0209472056712314,0.000718066460956,-0.000716698500339,-0.0938029220052634,0.995589982247148,0.0104890764950916,0.0420256005877785,9.374487255698751,-0.0191316358827061,0.0196038890857729,0.0115843557541318,7.5635107364447505,2.1632120726424255,4.142244251998282,1078.134554829616,1086.1681739545563,1092.0406793737932,1085.8777909133955,-256.7195964565205,489.94146467906813,250.9632860945212,102.36854349427846,151.21461708434447
73.12999999999998,0.2627424099196383,0.7088548884134501,-0.6265433303164479,0.0024180321750408,0.0158003938485538,0.0208591273331241,0.0006943052104989,-0.000728252125436,-0.0937930391839652,0.995590889693814,0.0109771757208034,0.0428789873510358,9.36904024075409,-0.0192598311259773,0.0196577383797908,0.0104175693722655,7.563471819069479,2.163269717040577,4.1422646206611455,1077.5308715794088,1087.362580002742,1092.613637378748,1086.0928738675912,-239.27778438441376,465.887465529986,212.8687982431508,69.41503584853535,151.21702288286454
73.1325,0.1925208234651344,0.5827255273511264,-0.825982456677941,0.0043308776141383,0.0171776809479545,0.020094438567374,0.0006595304192522,-0.0007446231925427,-0.0937843533194578,0.9955916913698823,0.0114247192178059,0.0437874400236001,9.363979813533112,-0.0193890541576779,0.0197158859305465,0.0092460851835992,7.563433347106227,2.163326369358152,4.1422807248054845,1076.9381659076917,1088.4976112822108,1093.1050233650108,1086.224866092639,-230.02773345375425,410.4172786431972,175.77364832789175,38.91936363690301,151.21948210621048
73.135,0.0670928754130172,0.4267606122508729,-1.0086614964712892,0.0064429250114623,0.0188758772903826,0.0184000012480481,0.0006225923639243,-0.0007592712561963,-0.0937800615578559,0.9955920844479144,0.0117091739865934,0.0448789412066638,9.359291157045408,-0.0195218257043904,0.0197796950422907,0.0080717859196998,7.56339571397064,2.1633830632226325,4.142294544192895,1076.380732912138,1089.414666395962,1093.4925056203892,1086.2874706857763,-212.20104296336305,278.33301629764566,127.88965692100454,15.594657477291179,151.2219821527782
73.1375,-0.1015695225610194,0.2310004880579906,-1.1224089841532878,0.0079556141095499,0.0205192294602866,0.0151557562755499,0.0005904516322806,-0.000770105689967,-0.0937792114800846,0.9955921550397177,0.0118013037291485,0.0462498728410376,9.354950720651017,-0.0196602921681674,0.0198505012238154,0.0068955419985578,7.563358436999443,2.16344022017952,4.142306730687082,1075.8771606928758,1089.8892763636975,1093.7444716496154,1086.3028393800255,-211.03362780391856,75.17144738610584,80.88758646393298,9.707503746548996,151.22452639782745
73.14,-0.291370296594355,-0.0410704959566711,-1.1198710574503308,0.0074659574276734,0.02188782823131,0.0095731216017778,0.0005641756918578,-0.0007709168732022,-0.093778698103118,0.9955922004907252,0.0116116200258237,0.0478756104432315,9.350927249384656,-0.019806314852115,0.0199295152940424,0.005717232571255,7.563321629753624,2.163497685244061,4.142318804877972,1075.3255647731191,1089.7905236328922,1093.8969435527083,1086.3360082045087,-196.87980416397008,-155.37071239905833,30.534363140696342,23.483661861131157,151.22762310789096
73.1425,-0.3817089435004355,-0.2795935619680872,-0.9774089630798274,0.0047623410009877,0.0220855117225884,0.0046169301454347,0.0005468660699276,-0.0007571480889462,-0.0937760471832675,0.9955924581223315,0.0110828680309227,0.0497685223698048,9.347182894940605,-0.019961380185903,0.0200179071508602,0.0045359392040335,7.563285263722139,2.163555688579456,4.142332156921591,1074.8927616720568,1089.1124228017031,1093.8971434653188,1086.420257689331,-171.46954236656845,-383.5635445087824,-32.980680152680165,49.24221771666384,151.23023394958872
73.14499999999998,-0.3487558346773793,-0.4951528653549224,-0.6970808106000697,0.0012179370664106,0.0208937873919002,0.0011057581710371,0.0005404671747975,-0.0007335202230178,-0.0937721130659105,0.9955928436704836,0.0103359421266672,0.0519320613922243,9.343675626456816,-0.020126559392688,0.0201167034314755,0.0033508878910658,7.563249350597053,2.1636142534375455,4.142346384958191,1074.4682170612873,1087.87270591035,1093.7320401519453,1086.582219293092,-187.02040417033692,-637.3388507288797,-127.06830702139084,81.97101142757293,151.23286833459048
73.1475,-0.1535858075100538,-0.6832653790422704,-0.2521586995001564,-0.0020880450488391,0.0179543214110447,-0.0009062456902135,0.0005401392048373,-0.0007025802938505,-0.0937640988718737,0.9955936245087798,0.0094657768456949,0.0542375823541755,9.340359929546432,-0.0203022815720528,0.0202270902284465,0.0021618858009445,7.563212962552429,2.163672703465996,4.1423601192216655,1073.9576596512031,1085.9257285480523,1093.2618019302104,1086.8301127464697,-186.73638812993264,-750.843950296989,-230.3227159538988,88.03884012928657,151.2360470275127
73.15,0.1143516456115629,-0.758176446035631,0.1574298106859252,-0.0035127077230939,0.0145870308704486,-0.0009700487623625,0.0005370062570689,-0.0006686184465001,-0.093749140383474,0.9955950730011786,0.0086076046296371,0.0564828483758134,9.337187914054132,-0.0204884015484338,0.0203503434209287,0.0009698099453333,7.563175407674947,2.1637301981829484,4.14237043114042,1073.5345351206358,1084.1184861588579,1092.5804265721736,1087.0224134937391,-165.43831038131015,-709.3597729628158,-338.44106975537983,56.91706361536209,151.2387028691811
73.1525,0.4334176450916225,-0.7433684061940194,0.5423544090857347,-0.0028537259223988,0.0109945045275568,0.0004308806958274,0.0005293234205252,-0.0006418369715075,-0.0937298395821152,0.9955969312845576,0.0079926184092668,0.0586071919448939,9.334109121144664,-0.0206844815795604,0.020487501892856,-0.0002235874306838,7.563137025518031,2.1637866937272547,4.142374318089404,1073.1304680992976,1082.3789296832415,1091.5695965814352,1087.1146980645462,-154.6749779890476,-649.8898833866859,-450.74250645666393,9.1120311758542,151.24135629308094
73.155,0.7418052864140176,-0.672304929589213,0.8619306157629034,-0.0004691523930804,0.0081270259426819,0.002966530759434,0.0005141427989537,-0.0006246865915603,-0.0937049898907017,0.9955993059725076,0.0077080095066687,0.0605148281365181,9.331070992880424,-0.0208894853192987,0.0206394617012646,-0.0014160903858851,7.563097833425901,2.1638418261041017,4.142371187087931,1072.7611602306913,1080.8690367419274,1090.3267140398923,1087.0679736496184,-134.58471555980813,-520.2112051304268,-526.6472336409394,-60.515841304741585,151.24400011384063
73.1575,0.9807061989307844,-0.5775784535230125,1.0593877241243694,0.0032630586664644,0.0069980836278498,0.0066968191460374,0.0004899404795927,-0.0006130923269253,-0.0936740755552881,0.9956022441375432,0.0077134092179849,0.0621265701081616,9.328019672256222,-0.0211018967333367,0.020806541350876,-0.002605637259106,7.563057670454754,2.163895629924895,4.142361822646742,1072.4575445214991,1079.777873657592,1088.9363604132327,1086.8121188580228,-113.82957991287532,-370.5409402048377,-598.547940679508,-164.3182258432392,151.24662264241147
73.15999999999998,1.1410106393141568,-0.4994079386261159,1.122404414345419,0.0082178967739542,0.0076071613478714,0.0118158646758315,0.0004622788584887,-0.000605243483978,-0.0936392300784513,0.995605540738884,0.007992813087115,0.0635014589177592,9.324901432155809,-0.0213198196551151,0.0209880656229467,-0.0037908148791987,7.563015757930161,2.1639495267679494,4.142346446877308,1072.1920123311274,1079.016332040905,1087.3339743364975,1086.2463825204031,-79.47289326655766,-195.92133093145424,-541.7493283570809,-249.29850747864316,151.24973192415536
73.1625,1.158662094262752,-0.4943240202273653,1.0277133101660472,0.011973920202392,0.0088902870574593,0.0157054256642224,0.0004384792032395,-0.0006006174832867,-0.0936056964160865,0.995608701209918,0.0085445172003188,0.0647373198441776,9.321664978948784,-0.0215411257112984,0.0211821285698328,-0.0049711477932599,7.562972211457778,2.164005181422106,4.142326228854933,1072.0601800551656,1078.7982670029328,1086.2276137714423,1085.5656263206272,-35.093565853071986,-25.568134359123786,-365.13122204889817,-312.11488774914574,151.25228197899943
73.165,1.0651514486352143,-0.5518402384879055,0.8022754665871338,0.0150339498169091,0.0093057512441863,0.0184969938760582,0.0004280369840432,-0.0005961975271817,-0.0935789354807926,0.995611215176133,0.0093096980494012,0.0659735112362243,9.318262897209156,-0.0217634878452412,0.0213857151463178,-0.0061476216239136,7.562927667244383,2.1640639748835833,4.142303901108024,1072.0165445018615,1078.888491369109,1085.5083182262495,1084.6858080816544,-2.7869117634079767,74.28907940081835,-215.82857280133416,-426.9622478945411,151.25477893920223
73.1675,0.8500563909930828,-0.6499408864982922,0.4264329601045291,0.0179150819587268,0.0075988673491232,0.0204654922885171,0.0004383644887158,-0.0005896640426167,-0.09356112579727,0.9956128823152232,0.010239071441056,0.0673189631680351,9.314654627437438,-0.0219844300751232,0.0215951413659264,-0.0073224314350745,7.562882663684472,2.1641265705706942,4.142281982282936,1072.0462454963483,1079.1697123999363,1085.1484709074366,1083.4308150811564,20.44059989404599,108.05312604453142,-55.25613702725901,-486.59164088579615,151.2577030695308
73.17,0.6072793638807945,-0.7124954888009508,0.064306656422076,0.0195951989942596,0.0046178920689403,0.0210503189774766,0.0004701273601387,-0.0005857933249817,-0.0935554241259756,0.9956134067923588,0.0114188146354398,0.0687770523851925,9.310809732221776,-0.0222017577270126,0.0218063812523264,-0.0084982092444957,7.562837736864845,2.164193133698378,4.142260201312296,1072.1187475013319,1079.4287569993312,1085.2320375411134,1082.2528498772276,33.91996719013507,90.41007163690702,93.50007700162995,-486.219176430892,151.26007265478995
73.1725,0.3249104233451775,-0.7148911055477442,-0.3015518647215786,0.0205338312076332,0.0012054280570309,0.0206213012892756,0.0005175175201062,-0.0005839813917895,-0.0935599407020421,0.9956129726606308,0.0128394687909457,0.0702301436539866,9.306708263324055,-0.0224131976337785,0.0220159122177326,-0.0096780443943139,7.562793160629493,2.164262730117934,4.142238524734641,1072.215845332299,1079.6217627581207,1085.6159712924443,1080.999719199004,44.71995039111309,62.719436439022246,214.3868291481016,-548.555814849668,151.26236520022252
73.17499999999998,-0.0318159926401577,-0.6338732418833938,-0.6920863913944594,0.0208950239005479,-0.0022086509579975,0.0188845337383492,0.0005668112555075,-0.0005800328924152,-0.0935705394410468,0.9956119760666692,0.014431724442921,0.0714157131213693,9.30234254576924,-0.0226164870398012,0.0222211415756147,-0.0108648679241908,7.562748670083611,2.164333550308233,4.142215895707867,1072.3423472532872,1079.742354181526,1086.3039716868527,1079.5100708029815,47.826303901136114,26.85646115762834,277.1687664645262,-526.78564295709,151.26502004675723
73.17749999999998,-0.325127089398036,-0.506813038565174,-0.9411487727193424,0.0205705653264552,-0.0040178036077496,0.0163360421060147,0.0006129285285234,-0.0005771315654316,-0.0935860084762139,0.9956105274865374,0.0162406542068236,0.0722512249577563,9.297716311140617,-0.0228097561630307,0.0224200896957732,-0.0120614443586091,7.562703180945735,2.164404068275182,4.142189292939785,1072.4549768518043,1079.7560450639087,1087.0018151247657,1078.3657909842211,48.93259914578813,-10.064498585123705,294.1747268508378,-417.8308105434663,151.26714790199256
73.18,-0.5917327266195239,-0.3441743542864794,-1.0754442274532685,0.0195019119623771,-0.0046310326151848,0.0127042805124673,0.0006568805151349,-0.0005789661955457,-0.0936073482897329,0.9956085251999788,0.0183034868620003,0.0727738513264126,9.292844704285706,-0.0229914158793667,0.022611380314505,-0.0132704617296611,7.562656131781789,2.1644734788255096,4.14215758371374,1072.5870102490167,1079.6920316886003,1087.77484532111,1077.4209167502604,58.29403740961072,-38.81645006996906,313.23379175217667,-333.2694101334635,151.26918385471282
73.1825,-0.8185103461493862,-0.1724982015203746,-1.0991136898199825,0.0176959692692967,-0.0045695192171281,0.0085854975892656,0.0006971985211119,-0.0005824869112112,-0.093633596971666,0.9956060569922758,0.0205321002405896,0.0729685550684787,9.287755127292774,-0.0231598726607265,0.0227944216477458,-0.0144946165460845,7.562607788220378,2.164541696935312,4.142121425759806,1072.7464470388531,1079.5619628135585,1088.5679840835296,1076.6994439335504,70.65341598970068,-71.16010637639297,306.32922695022563,-227.41486505927003,151.27114108660282
73.185,-0.9766547018138112,-0.0065355900943694,-0.9912514531274192,0.0149335212170224,-0.0043514928124265,0.0048650740851621,0.0007349991838711,-0.0005858112806556,-0.0936626202144392,0.9956033214922336,0.0228517222798298,0.0728744258949789,9.282486837444527,-0.0233138221362118,0.0229689545847757,-0.0157367837220472,7.56255854088805,2.164609307798337,4.142082055103652,1072.9402773289648,1079.3362311567187,1089.3064914558595,1076.283842424965,87.02355018743857,-124.680711071164,283.5127398882228,-112.63395781026033,151.27300066660735
73.1875,-1.0682662973043746,0.1752277663409623,-0.7385804782306535,0.0108449345823613,-0.0041715645373375,0.0017379093098851,0.000772743958715,-0.0005884669608343,-0.0936922922754089,0.9956005172086764,0.0252086572935327,0.0725608656232908,9.27709051944656,-0.0234524074501731,0.0231347809158823,-0.0170000628332076,7.562508563669151,2.1646776305426694,4.142040449106203,1073.18156478979,1078.9385592582032,1089.9855477829694,1076.1362741444996,80.04683308775388,-164.53819987801992,190.4502359573966,-1.9700346168083067,151.27511591065726
73.18999999999998,-1.0600791939672736,0.3068628447596634,-0.4586041536615778,0.0074557496829345,-0.003827400963593,0.0003866786347921,0.0008072500204968,-0.0005915250449517,-0.093719349471775,0.9955979534167332,0.027586404066404,0.0719978156011216,9.271628408681122,-0.0235752791840205,0.0232919676128729,-0.0182873666895814,7.562458173618291,2.164747367131015,4.141997196797593,1073.3405114944032,1078.513540157329,1090.2587426356458,1076.273992251881,39.096352121158894,-177.5939974658082,23.102694347083435,97.50321531978216,151.27677939242756
73.19249999999998,-0.976042673015792,0.4091591328981437,-0.1494622073173434,0.0046578323523551,-0.0029839156600033,0.0002222907882106,0.0008342770440707,-0.0005911253200915,-0.0937378462503685,0.9955961962953243,0.0298797995331869,0.0711286009094244,9.266171645768829,-0.0236823422165984,0.0234408898468358,-0.0196017407340298,7.562407323405699,2.1648178303068444,4.14195261655962,1073.3770465503956,1078.0505892708748,1090.1010612547047,1076.6237902210983,-29.649887540233056,-189.00237210554985,-186.38004014574463,188.1256911187849,151.27833720228406
73.195,-0.8140070561373948,0.4852355283086374,0.2124967782915534,0.0020642741504082,-0.0016372449071484,0.0011520248398356,0.0008523746430886,-0.0005834742086758,-0.0937443221071441,0.9955955774679824,0.0319814795855861,0.0699482652633824,9.260798134079636,-0.0237741751180082,0.0235819010333916,-0.0209460885440902,7.562356307761978,2.1648885047329127,4.141906592103285,1073.1922620567016,1077.5685282967995,1089.3268424349153,1077.2146207074768,-114.43354060271017,-145.4388140737055,-382.78407194014704,235.09349918877015,151.2800814314184
73.1975,-0.6500075128398136,0.5005043476052377,0.4842807890132673,0.0004915361627058,-0.0004087566180849,0.0026426849971024,0.0008649211862398,-0.0005688163585293,-0.0937406408500016,0.9955959205767344,0.0338525568716266,0.0685469026292492,9.255590094753972,-0.0238523473373011,0.0237150600331359,-0.0223228198705947,7.562305602749512,2.1649590343095135,4.141858938629976,1072.804878847381,1077.323395200505,1088.1871408950003,1077.7992577170444,-205.96450367075337,-47.74431604659889,-545.8121528291447,242.3340090403984,151.2814285833293
73.2,-0.4805905473594569,0.4555738433365452,0.7101838895629216,-0.000750900216862,0.0009405907613195,0.0044554623212179,0.0008800518684363,-0.0005486385425887,-0.0937306874842784,0.9955968523701328,0.035472782130665,0.0671028066198692,9.250631169841704,-0.0239191386067016,0.0238401876121374,-0.023733689667122,7.56225557006827,2.1650293900634545,4.141809320225532,1072.1624395383487,1077.3298067165667,1086.597781670772,1078.4262907526777,-294.16279102751486,49.42005079897119,-690.7894896177283,250.67451819300064,151.28266292684222
73.2025,-0.3231626511772139,0.354511956878696,0.8937956905596459,-0.0018465379650366,0.0024477411136007,0.0061664678102157,0.0008999904131119,-0.000522725133922,-0.0937181500364839,0.99559802377768,0.0368060957393141,0.0656802493947949,9.246004831844564,-0.0239772328529877,0.0239573982511718,-0.0251791119865606,7.562207174371091,2.165100000633834,4.141757954744024,1071.3340648922447,1077.5704954544997,1084.7331934469148,1079.0526303080082,-360.55681474277714,145.6152283982152,-779.338062803917,242.53519438556623,151.28380199750592
73.205,-0.2002049971277502,0.1839525140618836,1.0225429697163837,-0.0023320149712471,0.0040936803038598,0.0080466130223691,0.0009239894552732,-0.0004926381006278,-0.0937041207685017,0.9955993324386084,0.0378605934689746,0.0642894909139699,9.241790708722668,-0.0240295575666158,0.0240671250353032,-0.0266578998762628,7.562160493742796,2.1651714451408552,4.141704243636557,1070.3596554646367,1078.0578828585572,1082.701091356756,1079.6389667246044,-431.5255316439393,245.49499542376495,-885.12569640287,239.76357885980156,151.2848241683493
73.20749999999998,-0.1179804195697924,-0.0876717130032469,1.1022447043150088,-0.0019061205992628,0.0057492705674985,0.0112792937081666,0.0009425522641471,-0.0004631434773677,-0.0936865792217765,0.9956009729530704,0.038725026476413,0.0627825799874767,9.23806201918704,-0.0240791467544045,0.0241705786397131,-0.0281666754123918,7.562115222816391,2.1652434888966687,4.141646604131012,1069.1764372340267,1078.7979704316172,1080.3075649649045,1080.251448202306,-409.1412720293925,269.84763294879167,-836.5585796417893,203.78404258032512,151.2859131148398
73.21,-0.1163325586792593,-0.3438507261872656,1.0960357765271886,-0.0011263183425508,0.0060981293740721,0.0146411090903101,0.0009439616643158,-0.0004351484552762,-0.0936655298426327,0.9956029528110448,0.0394268060527763,0.0609607081304677,9.23488094822188,-0.0241287533072277,0.0242693799079586,-0.029700430735951,7.562071590803257,2.165315558663559,4.141584075431368,1068.3139491044858,1079.407121023304,1078.5182984585388,1080.657886937508,-288.8588583344119,207.25192989339996,-639.8542179041126,135.7019821279315,151.2867040828446
73.2125,-0.1838091492775832,-0.5823800893218519,1.0094629800617831,-0.0004230303451269,0.0046280326580093,0.0179505375035941,0.0009252570168527,-0.0004099555965377,-0.0936426254493707,0.9956051151910162,0.0399910796258847,0.0587831151320513,9.2322944028034,-0.0241807409513959,0.0243649626837073,-0.0312530315423056,7.562028829756411,2.16538742002744,4.14151465676413,1067.732142942352,1079.8342300810864,1077.1082938753775,1080.9299581129471,-167.29992125116706,112.82547101378698,-506.68169459923473,84.85009134645665,151.2873720927153
73.215,-0.321842453957471,-0.7867496864091083,0.8229051702695255,-7.73258154732082e-05,0.001127537621045,0.0213925589394019,0.0008892609377364,-0.0003911562718471,-0.0936181481405609,0.9956074251199616,0.0404804273753453,0.0563154866297571,9.230332319113408,-0.0242368752852656,0.0244587485905311,-0.0328173161147392,7.561985829737472,2.165458604518152,4.1414366718590045,1067.4774494982307,1079.9712483783724,1075.9848899855451,1081.08213739424,-14.185459066824645,-27.080246048150983,-307.3769715428237,26.03272841127003,151.28802925816584
73.2175,-0.4538823801168863,-0.8554501954245012,0.6163538856665888,-0.0004506807728791,-0.0025466280901589,0.0236912121552563,0.0008376060804439,-0.0003768533442457,-0.0935906102771339,0.9956100189638416,0.0408631611863308,0.0535883620051541,9.229006814648276,-0.0242977595027821,0.0245524986516094,-0.0343856419314799,7.561941852146813,2.1655286890033665,4.1413501376830295,1067.661215647018,1079.6988288508455,1075.571409017665,1081.0601217550031,146.6295444383801,-194.72565438172273,-55.439346262533434,-37.67599326446332,151.2884549002828
73.22,-0.5552102884653646,-0.8041786383056772,0.3882049195376467,-0.0017786265025326,-0.0061417430367513,0.0251161333926722,0.0007727895013462,-0.0003646420153042,-0.0935576425981277,0.9956131187773898,0.041100311443983,0.0506438321824565,9.228311512160314,-0.0243631725878419,0.0246479327878811,-0.0359504649878063,7.561896499412059,2.165597896961314,4.141256358036721,1068.210597220422,1078.9976201064646,1075.7076932542327,1080.8937574279175,264.37966902818914,-347.9553088507582,140.73847229828127,-86.86896981729376,151.28875205835254
