t,ang_acc_x,ang_acc_y,ang_acc_z,a_vel_x,a_vel_y,a_vel_z,quat_x,quat_y,quat_z,quat_w,acc_x,acc_y,acc_z,l_vel_x,l_vel_y,l_vel_z,pos_x,pos_y,pos_z,mot_1,mot_2,mot_3,mot_4,dmot_1,dmot_2,dmot_3,dmot_4,vbat
3.215,0.0821760305825191,0.1414146092714354,0.941045440747421,0.0571342250293427,-0.0236467764345476,0.0034141888676869,0.0044124577568579,-0.0080184630368764,-0.9929653949497488,-0.1180494619294481,-0.1155179179398271,-0.0311056685082694,9.789839738875289,0.0334193958375415,0.0467089903090122,-0.0012383075007269,3.6401824862953074,4.904530418274774,1.1636839982921472,1135.501815520969,1116.5198187929216,1136.0182103923771,1129.0405634792887,1.6786154941654563,287.5621953562392,-421.7379270720982,-130.89564490377623,148.86116549928087
3.2175,-0.2764315591160306,0.0840969424719984,1.0847007220564029,0.0575789640663467,-0.0228377439811076,0.0066333831626126,0.0043762150173876,-0.0080717543689737,-0.9929702502259566,-0.1180064279236185,-0.1163928819056739,-0.0318827747698215,9.792102169631606,0.0332103173761912,0.0463403510430991,-0.0013052089861669,3.6400739930021966,4.904439232377459,1.1636739050172327,1135.6365277320187,1117.2966160448264,1135.1496828580212,1128.6360627367746,121.56004049587952,353.3325569651185,-292.00270424624097,-229.81170072833527,148.8597607222407
3.22,-0.7149152724593532,0.054409635480705,1.1501534738749155,0.0569467346546008,-0.0220902882249333,0.0113005392133142,0.0043485467791787,-0.008121995877741,-0.992975424647419,-0.1179605612195584,-0.1173088719213332,-0.0325902551232019,9.794565854113184,0.0329983402608324,0.0459680481694193,-0.0013473539126283,3.6399667384065784,4.9043496621998255,1.1636641723156915,1136.1096157234483,1118.2864815777473,1134.558196871146,1127.8915049756472,222.98411962829525,359.0445959226676,-144.78395126471096,-319.13506753240426,148.85806234810175
3.2225,-1.0553710061331325,0.076514190522776,1.1021361881168532,0.0550121891089277,-0.0219970365637725,0.015161347762889,0.0043315314252807,-0.008169039107568,-0.9929805674256176,-0.1179147516964042,-0.118303492621516,-0.0332316531474427,9.797152165965713,0.0327827713308301,0.0455934592757849,-0.0013649176396457,3.639860177700805,4.904260666862226,1.1636554545835025,1136.7514483301604,1119.0918390244397,1134.4257631016978,1127.0403873991127,303.1732451042964,302.34498141927094,13.803921538101644,-377.91096658785034,148.85663334339313
3.225,-1.3255619277965505,0.1677072600943843,0.9515237446010724,0.0512032923254738,-0.0225931463134753,0.0182821633587559,0.004322388178161,-0.0082133030534615,-0.9929855025247284,-0.1178705606786713,-0.1193210710545177,-0.033792965780918,9.799785856625151,0.0325631430160643,0.0452173950629758,-0.0013595228963199,3.639753476728948,4.904170816680621,1.1636481249211608,1137.62548194897,1119.7982064848436,1134.6272164788363,1126.001950142708,431.675805390396,273.23124914733523,151.8834364438622,-472.5335830672166,148.85518675756197
3.2275,-1.5258394690469923,0.3706389087558044,0.6760237962918957,0.0448223134865051,-0.0238390882414624,0.0209082542799967,0.0043140555492664,-0.0082537932964457,-0.992989828504254,-0.1178317026912401,-0.1202188717117842,-0.0342832088965892,9.802397558816985,0.0323389269282206,0.0448404739772243,-0.0013338389934203,3.639646732765099,4.904080471548455,1.1636422543639535,1138.9098273571124,1120.4579952701763,1135.1851802839171,1124.6777194837766,504.41719350493423,204.62053424108012,243.6876909653672,-473.28112414421514,148.85342784109793
3.23,-1.5783854482120827,0.6096159388700237,0.391259818635101,0.0391315176397095,-0.0244808118372248,0.0221597210376599,0.0043018228653292,-0.0082905685308029,-0.992993087928135,-0.1178022059483179,-0.1209022295086937,-0.0347008923779092,9.804923325041331,0.0321097867932408,0.0444632197578131,-0.0012910724180119,3.639540494778147,4.90399038137005,1.163637436551398,1140.1475679164946,1120.8213091560488,1135.8456549336631,1123.6355445219867,519.5872219965278,107.88613737209064,285.57271805135014,-375.32650613744306,148.85194180943816
3.2325,-1.53168109510834,0.8828860521227985,0.0789002083872946,0.0345642736539585,-0.0231156256257442,0.0223841440275152,0.0042874625472911,-0.0083235941398573,-0.9929951214033618,-0.1177833476935685,-0.1214031145014689,-0.0350646346745923,9.807304921175744,0.0318758926350736,0.0440860322058651,-0.0012343872488902,3.6394358410686793,4.903900453339877,1.16363362729867,1141.5077634670947,1120.9974259570367,1136.6130438741739,1122.8010869530895,607.115370707392,48.239536501888445,341.74062694915665,-293.8511172551051,148.85043447797705
3.235,-1.413132473381374,1.1833523773620152,-0.2973363312242609,0.0308546197174478,-0.018727048080267,0.021546109018164,0.0042744201397328,-0.008352015757638,-0.9929960546425078,-0.1177739999438928,-0.1217851586640571,-0.0354159322122558,9.809493102023668,0.0316378130976781,0.0437093024677675,-0.0011670742679513,3.639332639062733,4.903810771727064,1.1636305117206756,1143.1831447700315,1121.0625068385584,1137.554358068409,1122.1662889357115,600.9812595108136,17.184423199067826,338.7777094099646,-160.97780501180574,148.8486020697411
3.2375,-1.3033366461303169,1.3674773741317068,-0.5951318319930347,0.0288403404228164,-0.0138691688959527,0.0201460374967165,0.0042664276441131,-0.0083757704632584,-0.9929962633358836,-0.1177708648329375,-0.1221206426846488,-0.0357842759871799,9.811448970067994,0.0313963703696183,0.0433334865404456,-0.0010926740714268,3.6392305460393057,4.9037218944103405,1.1636283106180507,1144.5126697646492,1121.083348073032,1138.3069324212236,1121.9961979280304,488.74453988456816,26.315118576574648,290.57714389535107,8.187878061698386,148.84705700592724
3.24,-1.2170274151664122,1.456739538550208,-0.8632803241292281,0.0272365397193424,-0.0090314548416357,0.0181756801498582,0.0042655932486293,-0.008395759909593,-0.9929960480922896,-0.1177712710779691,-0.1224535397993752,-0.0361797535840598,9.813145147952381,0.0311523074198259,0.0429592945946117,-0.0010150119066575,3.639129361165468,4.903634940643587,1.163628129668619,1145.6268674694545,1121.1940824314413,1139.007243787886,1122.20722832602,388.7391880051465,74.53761833367184,272.47950292203893,140.04007127078083,148.84549617807255
3.2425,-1.1599480111317104,1.4687341824586204,-1.1006291106612955,0.0255392543038451,-0.0047811265829316,0.0158349026624644,0.0042721659024066,-0.0084156072500449,-0.9929955741482862,-0.1177735627548003,-0.122799116734601,-0.0365578691840045,9.814565688066464,0.0309062507973158,0.0425876291465343,-0.0009381407467889,3.6390282831737566,4.903549659761389,1.163630188218884,1146.456365704675,1121.4560361647004,1139.669329935834,1122.6963982843843,244.40967686323867,147.71674625253897,257.44031311720033,244.09648382994027,148.84392521232226
3.245,-1.130792601898229,1.4060235061162172,-1.2949373713367855,0.0234561137815867,-0.0014888702739642,0.0133238374027404,0.0042844681392119,-0.0084385942675502,-0.9929951615984905,-0.1177748722880587,-0.1231360158371146,-0.0368778169687155,9.81570572993357,0.0306589801281587,0.0422193328649666,-0.0008658069043646,3.6389270779448726,4.903465601519825,1.1636341855096113,1146.8489158537707,1121.932666162704,1140.294445353472,1123.4277107451696,61.65412582477206,248.0380969409505,266.1101460159955,346.4270901660785,148.84234566946225
3.2475,-1.1019692067500784,1.2732193710039077,-1.4668928018641858,0.0204264980351313,0.0016967682834968,0.0100351807143422,0.0043014667698972,-0.0084668765509584,-0.9929948828526745,-0.1177744769689253,-0.1234542514791346,-0.0371239908087641,9.816569544024775,0.0304112717396027,0.0418553240510247,-0.0008009225210611,3.6388265403615807,4.903382668156332,1.1636392724834852,1146.7646363337988,1122.6962266494052,1140.999880665914,1124.4285337352146,-119.50667980481992,291.9115947381732,248.6653833033468,364.25916809185634,148.84044401373325
3.25,-1.0586017013890363,1.1308008581888027,-1.5441036867737583,0.0175047248331375,0.0041212712711356,0.0064999221220121,0.0043226477600612,-0.0085021163130029,-0.992994906671172,-0.1177708594304547,-0.1237547697570238,-0.0372916214911077,9.817169150722364,0.0301642361047741,0.0414963589004959,-0.0007454242083521,3.6387275430228425,4.903300996712932,1.163644345789409,1146.2513824547464,1123.3922241363948,1141.5377722699886,1125.2490065856289,-279.9846611812486,261.0036882328187,201.0471453494617,304.8340894825807,148.83885597793886
3.2525,-0.9678451317302096,0.9662640190785924,-1.5295036377908595,0.0142479592706502,0.0065893298464015,0.0020919877336272,0.0043460008105563,-0.0085421239328388,-0.992995237942504,-0.1177642148243187,-0.1240020804664711,-0.0374473026381774,9.817523713068017,0.0299190748900402,0.0411431050648429,-0.0007001057967551,3.6386310436933567,4.903220810486191,1.1636486006937452,1145.3647130278923,1124.0012450905692,1142.0051163926612,1125.9527041826275,-443.5716723798217,217.7219943270348,188.8811672651213,276.72044006481565,148.83726568138673
3.255,-0.7851500021233963,0.7507914418773546,-1.3861792857723334,0.0104165042521826,0.0093021096034423,-0.0034724015658941,0.0043685456053681,-0.0085825806988845,-0.9929959253125756,-0.1177545645071177,-0.1241386801686719,-0.0376948926696869,9.817657502163042,0.0296770948154649,0.0407958853605999,-0.000664797410512,3.6385369925950792,4.903141855193646,1.1636512375104051,1144.0335240928475,1124.48083410803,1142.4821781063142,1126.6326087859527,-503.6419566120573,121.38559237331808,166.3225309210135,231.84676976005247,148.83535481589837
3.2575,-0.5713180133974757,0.5631462434377325,-1.1607500381357168,0.0078486667070151,0.0109478404428334,-0.0079823437294837,0.0043892663805663,-0.0086181693698279,-0.9929970343903112,-0.1177417899469805,-0.1241446594773192,-0.0381589792719138,9.817596983377593,0.0294394947056381,0.0404545264278353,-0.0006384556458641,3.638444945259249,4.903064087994448,1.1636517748254112,1142.846503244832,1124.6081730524359,1142.8367290472663,1127.1119380314278,-456.54515530219766,-5.468702809866585,146.44798465873384,199.34898684945,148.83375957563103
3.26,-0.3104262522186831,0.3777340152530475,-0.8455348009406529,0.0062989856658136,0.0118973071937559,-0.011796034537047,0.0044061666806262,-0.008647636735495,-0.9929983473431216,-0.1177278999894691,-0.1239912743083698,-0.0388786567144034,9.81737010214525,0.0292069946318394,0.0401183502106206,-0.0006200248574599,3.6383541273969104,4.902987394072244,1.1636509233801395,1141.7507983163364,1124.4534905939806,1143.214418029608,1127.6293537202002,-429.7362868823348,-114.42713509946104,190.75187382959888,274.27562153184806,148.83215948255395
3.2625,0.0222222320733517,0.1693017598830919,-0.417191454134065,0.0057196926963203,0.0126164830811715,-0.0142525173258697,0.0044191452691997,-0.0086739632231818,-0.992999699662276,-0.1177140714222709,-0.1236973061122508,-0.0398087052209329,9.817003815821252,0.0289799769672736,0.0397859022467419,-0.0006085030275854,3.6382637055274016,4.902911453332424,1.163649563946752,1140.6978218104205,1124.0360373769383,1143.7904884164143,1128.483316139087,-329.24744760972106,-169.27542155813532,241.67730430663653,376.3532801131613,148.8302305354953
3.265,0.2856142236255554,0.0143756889808512,-0.0716795463407455,0.0064788201376153,0.0127676420487357,-0.0139244714272625,0.0044264064506256,-0.0087021868115368,-0.9930007483225586,-0.1177028950291617,-0.1232530997725299,-0.0408532124024512,9.8165245800437,0.0287583015998581,0.03945505754223,-0.0006031826963694,3.63817291379452,4.9028351457228325,1.1636476672293872,1140.1045610782878,1123.60711348619,1144.422804551141,1129.511120120766,-174.5554276992644,-158.94207170704587,284.52255781672346,491.1032055771207,148.8286134189306
3.2675,0.5011322001541133,-0.1136865490461352,0.2021199707507233,0.0083622071667734,0.0123396488773667,-0.0114986215459635,0.0044306416723552,-0.0087338952426897,-0.9930014369832384,-0.1176946191250959,-0.1227282810528181,-0.0419852496318305,9.81595540272557,0.0285416902007699,0.0391229144456104,-0.000602930425343,3.6380817811011448,4.9027577223593,1.1636456996472844,1139.825044671924,1123.2413270184031,1145.2131012054979,1130.9388321669724,-64.44143901276358,-117.75001692758703,331.5945437491407,630.9653608693359,148.82698451755164
3.27,0.659945768761344,-0.2161844053131223,0.3907585737232096,0.0107677369145999,0.0116392601966801,-0.0083985669975404,0.0044343573558759,-0.0087653334370804,-0.9930018433568336,-0.1176887601337133,-0.1221754700292972,-0.0432728174886408,9.815317118098195,0.0283296911432629,0.0387861305055971,-0.0006064217969827,3.6379907731711376,4.902678916060154,1.1636445770251596,1139.782353883224,1123.018363401552,1146.0807772698868,1132.6659469251126,27.756551523226015,-44.18880019161501,343.2206255275633,731.6795226538189,148.82534538660184
3.2725,0.7445079457509224,-0.2883833618866833,0.4804145636823361,0.0132475027910904,0.0108463780768357,-0.0059226415687574,0.0044367082553852,-0.008793507411627,-0.9930021471251592,-0.1176840487412096,-0.121582163970497,-0.0447522985803618,9.814628807187162,0.028121740172992,0.0384412222878837,-0.0006127335136833,3.6378999520433855,4.902598967621391,1.16364465064653,1139.9638274295403,1123.0203830174453,1146.9292043331357,1134.5972297802416,109.57482918902548,47.890612238144165,337.40085300879207,832.8169391493424,148.82369441392802
3.275,0.7699998728319462,-0.3452652880978193,0.5143128725321592,0.0158389839591186,0.0100072242365699,-0.0045098346754215,0.0044326985265444,-0.0088161337175797,-0.993002494617847,-0.1176796038458508,-0.1208544685301931,-0.0464282175244854,9.813907815836467,0.0279170854917517,0.0380849380612394,-0.0006212429200995,3.6378095386666818,4.902518822038156,1.163645514889342,1140.3302280291691,1123.2578164627428,1147.7677815349307,1136.8300316208592,139.47851827934144,110.12514162375972,259.18021901821345,751.1852429373608,148.82170153513857
3.2775,0.7430825565203429,-0.3726080804673259,0.52068632440695,0.0176804788832996,0.0096677836494007,-0.0045650688846199,0.0044199775543365,-0.0088338464312761,-0.9930029084425263,-0.1176752730148027,-0.1199543060676935,-0.0482467757684169,9.813166883454857,0.027714778669255,0.0377145027834259,-0.0006311957585846,3.637719554739016,4.902438923464092,1.1636461981892223,1140.6612200209368,1123.571008725564,1148.2251054282267,1138.3531559949283,111.68532272212516,121.04537503095436,120.89087898720302,485.93490251183897,148.8200334571566
3.28,0.6873112779403778,-0.3799506279256749,0.540339770277646,0.0193739460171913,0.0095230997283743,-0.005186598937458,0.0043993854235859,-0.0088492196203384,-0.9930035019340364,-0.1176698761862785,-0.118907886138389,-0.0501168400006734,9.812414041945464,0.0275138275135059,0.0373276512707408,-0.0006415536932772,3.6376299752207393,4.902359519953897,1.163646100220242,1140.8886546427796,1123.8630433378976,1148.3722359298667,1139.2597061334186,46.15185972693014,89.92177407489481,-7.3664591639948895,227.98076566244444,148.8183617922134
3.2825,0.6118536956823565,-0.3534129362344635,0.5877141266016493,0.0212035213691688,0.0086539171980209,-0.0052149922527252,0.0043722763441345,-0.0088633989661344,-0.9930041820371694,-0.1176640624841917,-0.1177452453757048,-0.0519717351800838,9.811654013570692,0.0273130105556637,0.0369228632747195,-0.0006510023898497,3.6375405540258345,4.902281052863604,1.1636449681294134,1140.8919793195716,1124.0206175959383,1148.1882731324067,1139.4930598232406,-61.86732436122061,6.845071603675168,-120.69003552565192,-49.3020147443996,148.81635767937186
3.285,0.5597357667551908,-0.2864158336702472,0.6301889726949427,0.0225127272137866,0.0068173374039634,-0.0039737725453625,0.0043405090989184,-0.0088819847035768,-0.993004659169974,-0.1176597790751255,-0.1165138614489383,-0.0536562017754927,9.810888408350957,0.0271109931652659,0.0364993613553627,-0.0006584800860579,3.637450836500379,4.902203131213886,1.1636424754513235,1140.5793180209737,1123.897268695916,1147.7687857522385,1139.0131960596966,-202.54235709626727,-112.40805078118925,-209.70070517269497,-294.09308941572533,148.81469401487314
3.2875,0.5391038870470002,-0.1619469345077621,0.6425008868681242,0.0234907696482314,0.0044522559474874,-0.001609853397446,0.0043042400428256,-0.0089091020273908,-0.9930048137371316,-0.1176577145101731,-0.1152227342144966,-0.055038148402351,9.810117368873629,0.0269066272506497,0.0360570270963887,-0.0006630898856916,3.6373609737979855,4.902125688102172,1.1636383629354172,1139.8792675340903,1123.4585773420326,1147.1397696065433,1138.022594376162,-393.8686309351481,-259.4833831678498,-306.5512775170711,-490.7006507586734,148.81304282581667
3.29,0.5697803493230855,0.0362393484075353,0.5904068228560361,0.0242216988746647,0.0026972037742552,0.0017096421052345,0.0042655822007426,-0.0089440913101431,-0.9930045981881804,-0.1176582406497043,-0.1139064031435164,-0.0560839610945955,9.809338984383778,0.026699007155152,0.0355965348626155,-0.0006638809945248,3.6372713088556727,4.902049645639672,1.1636331617415037,1138.609974866298,1122.5998517800767,1146.2360293646532,1136.5596928059033,-521.7976046476563,-353.7679789492889,-341.9653679616731,-536.0437983870385,148.81108245288465
3.2925,0.6482139032425399,0.207106671075926,0.4828973094285906,0.0246768235042621,0.0028358552172984,0.0043324813276243,0.004226429100638,-0.0089851259591965,-0.9930039546837496,-0.1176619177822012,-0.1125914685429686,-0.0567852024164238,9.808550896386034,0.0264875468893114,0.0351193839168255,-0.0006604339424283,3.6371821063246745,4.901976038336967,1.1636274992956448,1137.270279510852,1121.6897374472862,1145.4299427667347,1135.342375384227,-565.4851353833358,-373.5403145890893,-316.8120458742646,-443.18431645057024,148.80947113070025
3.295,0.7754588149837861,0.3302154125993109,0.320793159810412,0.0256030588550523,0.0045940743265472,0.0061416126140651,0.0041887247761287,-0.0090347072228511,-0.9930028956701508,-0.1176683794863657,-0.1113155193651316,-0.0570538955258846,9.8077510641173,0.026272156077526,0.034627720387558,-0.0006533078628505,3.6370939520601913,4.901904524811801,1.1636221344195394,1135.7825491893811,1120.732150207131,1144.651969135282,1134.3437712236505,-594.6777780029734,-362.9164614164515,-295.15027193006694,-343.28979948137027,148.8078886126314
3.2975,0.9275250755711842,0.3787069794518392,0.1364331815229075,0.0271939745715557,0.0072898114576481,0.006905606351809,0.004157941074775,-0.0090924586338734,-0.9930016905037742,-0.117675178001131,-0.1101792682467021,-0.0568724778485822,9.806937608081485,0.0260533524286741,0.0341241237800923,-0.0006433757338297,3.6370076655365553,4.901834593061592,1.16361795782082,1134.2968906208373,1119.875155140204,1143.9541914070846,1133.62592638682,-565.8792028655697,-285.1363534851578,-248.9306069821228,-211.44134800477724,148.80633414536376
3.3,1.0815533806726019,0.3171734691806307,-0.0389720710297377,0.0295443651597379,0.0102309281015941,0.0063515211832379,0.0041384891975458,-0.0091554582984871,-0.9930001885354688,-0.1176836404802747,-0.1092576113917795,-0.0562798321978175,9.806111361255212,0.0258317889430013,0.0336117722367924,-0.000632032834684,3.6369231505094306,4.901766164758967,1.1636154973793211,1132.953153175053,1119.3064684397054,1143.4073161003712,1133.2865644836263,-530.7443929828975,-149.86055229122837,-198.15655611626903,-69.97422742801501,148.80481849570492
3.3025,1.2284985866997415,0.1290586818842174,-0.1984566821899065,0.033257685261365,0.0126606555205815,0.0046049992894321,0.0041318883560689,-0.0092226768036818,-0.9929980853482372,-0.1176963531884115,-0.1085754221163586,-0.0552811224118024,9.805277027215086,0.0256083234829414,0.0330941899228794,-0.0006213637712216,3.6368399045946287,4.901699510559401,1.1636148458846498,1131.6431686559226,1119.1258523787478,1142.9634086265032,1133.27605524968,-416.64920889030304,30.27989352767755,-128.1576650454126,45.30690839847108,148.80305097811572
3.305,1.2920457963022864,-0.0882183336762071,-0.2720466701931806,0.0371122566264669,0.0129303565833187,0.0029056821567314,0.0041354213074829,-0.00929241307366,-0.9929953691377876,-0.1177136394654313,-0.1080767601897806,-0.053894547224119,9.804443984731263,0.0253841724973309,0.0325749625695153,-0.0006137838296907,3.6367575551326494,4.901634967392736,1.1636160666640492,1130.8699071306019,1119.4578679073438,1142.766527775144,1133.5130990256189,-233.76498943503563,230.89351428121097,-52.275652710615056,116.7561439088356,148.80162528879677
3.3075,1.2718797195416407,-0.3130789769501826,-0.283441597999855,0.041368333208208,0.0112267047397549,0.0015579803327335,0.0041455751762326,-0.0093628089994575,-0.9929922848699568,-0.1177337060892404,-0.107693487849872,-0.0521497590631703,9.803624962847271,0.0251608690248181,0.0320576287769203,-0.0006115770629412,3.6366765386476807,4.901572207020024,1.1636191663593007,1130.4743437087475,1120.2803199501539,1142.70203036295,1133.859835969224,-80.00082766061665,452.2001755995103,-18.011124186887557,140.15111614380956,148.80025366125608
3.31,1.1462582974674975,-0.538306367182188,-0.243630869911997,0.0459143319632688,0.0079159086647084,0.0005699183057939,0.004161076256129,-0.0094286907268266,-0.9929891122268212,-0.1177546532465663,-0.107396898550741,-0.0501569390120204,9.802834670644542,0.0249400986648364,0.0315456631162728,-0.0006162628293572,3.636597367187657,4.901511405653504,1.1636232738744507,1130.4699029922988,1121.718868785341,1142.6764721542097,1134.213854606338,80.24685542313989,576.8288433569646,-18.91377484998924,94.49648212207849,148.7986754838668
3.3125,0.9683667157678681,-0.6707507296776128,-0.1854092386373441,0.048766134849634,0.0052047628805088,0.0002557102694935,0.0041826979588923,-0.0094886497328874,-0.992985981749987,-0.1177754688440361,-0.107210125236216,-0.0479683280573546,9.802088988335782,0.0247235514994015,0.0310423798409169,-0.0006288076571169,3.6365204114329583,4.901452311605426,1.1636275574009123,1130.8755779858632,1123.1644641669386,1142.6074614887002,1134.3323183798343,248.68870895798483,595.4274871581802,-58.574425447615226,-10.627232178285565,148.7974202986782
3.315,0.7379794205420793,-0.7497446907648037,-0.1242090923467901,0.0506374019548312,0.0032638694609344,0.0003600161280727,0.0042114048547963,-0.009544367653553,-0.9929829724887465,-0.117795330130934,-0.1071703378273506,-0.0455861315215999,9.801404663656461,0.0245128173805859,0.0305507505528803,-0.0006495749610517,3.636445670561919,4.90139486603349,1.1636316122235375,1131.7133465370887,1124.696006221132,1142.3836000269716,1134.1607184454465,462.8793183452316,658.6246659699694,-151.7010688786318,-153.88819695026868,148.7962310811405
3.3175,0.4298936223881933,-0.803214853274598,-0.0668730925626589,0.0519857000545282,0.0017747120613702,0.0007829570827909,0.0042432611309806,-0.0095963572324107,-0.9929800100574148,-0.1178149747426378,-0.1072190879406868,-0.0430328691301514,9.80080020733501,0.0243091191183286,0.0300733390089078,-0.0006783613792869,3.636372584698812,4.901338688827349,1.1636345241867583,1133.1899745775893,1126.4575874967884,1141.848956144307,1133.5628773950832,608.9291178167102,613.7415124355853,-245.3426416027303,-285.24402986688875,148.79488407718512
3.32,0.1650737213422955,-0.8255747322750561,-0.0393761815373216,0.0524637613405906,0.0008270571040157,0.0012011827099812,0.0042708322935789,-0.0096478512320915,-0.9929771501381804,-0.1178339380884391,-0.1072383986447121,-0.0402766998488214,9.800294106527582,0.0241133337865212,0.0296120650987802,-0.0007146146808209,3.6363005448503416,4.90128322081412,1.1636358359346624,1134.7579921261724,1127.7647137833103,1141.156886818958,1132.734498296112,675.9656445861764,473.84765081484574,-323.9308205554844,-395.5771632805596,148.79383070678887
3.3225,-0.0909376509468665,-0.8259453206940766,-0.0317098327942741,0.052213369157537,-0.0004859149145877,0.0013833129430995,0.0042907992038184,-0.0096977237573184,-0.992974686380708,-0.1178499413933186,-0.107181801691564,-0.0373849383334899,9.799901436711112,0.0239259360764419,0.0291681623091986,-0.0007568217777426,3.6362293571359374,4.901229129173002,1.1636353703541185,1136.5698028005204,1128.8268257508628,1140.2293020415295,1131.5849915786803,744.8910708112339,376.7203774744383,-400.30740978378105,-507.6181227334581,148.7928515986846
3.325,-0.3303923445909887,-0.7982533413147973,-0.0342635230819005,0.0514244073624954,-0.0023431142053206,0.0012318970907762,0.0043032259079388,-0.0097455870279305,-0.9929725714794736,-0.1178633950944332,-0.1070700786525905,-0.0344223969863082,9.799633125643394,0.0237467069917356,0.0287423612322517,-0.0008030799184917,3.6361584439496055,4.901176652079159,1.1636335255632588,1138.4824474802283,1129.6483156706825,1139.155349770039,1130.1964076824447,762.591354961767,264.5937348952486,-446.2111220274986,-602.9567388342131,148.791935846084
3.3275,-0.5433968585878405,-0.7192285364760937,-0.0401621539911269,0.0502219334337149,-0.0046749856655567,0.0008762004678116,0.0043081802720463,-0.0097929961756192,-0.9929707419975946,-0.117874694590344,-0.1069277106465272,-0.0314174120250034,9.799496468351457,0.0235749473194233,0.0283346894691576,-0.0008515599745154,3.6360870067614073,4.901125302990824,1.1636307373335595,1140.3827595753291,1130.1497944253388,1137.998246431392,1128.5702078845093,798.4858708958369,142.77139966857553,-497.9643380562372,-749.2764693440381,148.7910989230423
3.33,-0.7641636378103603,-0.5476168058127037,-0.0431168640795002,0.048460338154492,-0.0077058562863743,0.0004701726433059,0.0043044855029522,-0.0098412736208167,-0.9929690449202674,-0.1178850625058014,-0.106752423249778,-0.0283994900402549,9.799495338153568,0.0234095591873425,0.0279444820473154,-0.0009006160766477,3.6360150376656537,4.90107449152878,1.16362746822171,1142.4748768347076,1130.3621726690253,1136.665528079758,1126.4500253357246,710.7668421531495,14.211761151227924,-455.0518257749088,-782.7612559361736,148.7901894056198
3.3325,-0.9162741680645334,-0.3386347596567123,-0.0398725535259659,0.0467473445070563,-0.0101083578148488,0.0002426658007501,0.0042915080005054,-0.0098940236655278,-0.9929674378278353,-0.1178945833149209,-0.1065551719018709,-0.0253520276212433,9.799629228371112,0.0232493183297752,0.0275703279362994,-0.0009489100928564,3.6359434776411272,4.901023821380574,1.1636235655888345,1143.9365937860948,1130.2208532310951,1135.7229873025176,1124.6564016048285,497.3228472719817,-114.43885140556876,-314.06382021383007,-689.0266345271958,148.78951350922966
3.335,-1.0288981684576968,-0.0781198711686569,-0.031077336334047,0.0444840894926152,-0.0114104312538053,0.0001732776913867,0.0042725500458678,-0.0099526149348207,-0.9929657451184876,-0.11790450589938,-0.1064145814061348,-0.0223068740560669,9.799892493154669,0.0230928261788367,0.0272102864358961,-0.0009950819008129,3.635873008639429,4.900972950152929,1.163619164149855,1144.9614910710675,1129.7899784119975,1135.0952089786888,1123.0048921630887,321.28332867660674,-238.31710871432327,-176.1959570388209,-652.7392402607941,148.78892684249
3.3375,-1.1075050618471611,0.2521775463535074,-0.0157283747010472,0.0409093917364805,-0.0108366629112228,0.0002754631699681,0.0042513253463033,-0.0100169261658273,-0.9929639002523206,-0.1179152786359848,-0.106409711616546,-0.019319587289219,9.80027585492353,0.0229385779102101,0.0268619161615802,-0.0010380423506909,3.6358035994292814,4.900921522821436,1.1636149672188036,1145.5430104294778,1129.0292676875235,1134.8420075173235,1121.3927054035244,93.24315729363859,-302.0071683607576,4.076577903924858,-504.4768624954593,148.7883313041687
3.34,-1.1205047667518468,0.5077982114586032,0.000983635223976,0.0375780255671606,-0.0088171297900689,0.0004947328748888,0.0042304814125236,-0.0100814079228841,-0.992962172026676,-0.1179250232665581,-0.1065818722594718,-0.0165410165799774,9.800767724297753,0.0227849421436445,0.02652236704694,-0.0010768689631585,3.6357344689645905,4.90087005836012,1.1636115975695203,1145.4277068575357,1128.2799425701935,1135.1155918682084,1120.4825078506115,-165.3996905013516,-301.6956711238232,214.91161956585896,-256.41505688061534,148.78792965614159
3.3425,-1.0818524506654454,0.7140220877972167,0.0249040030882969,0.0344225014884348,-0.0061094861791107,0.0007905382164788,0.0042146566395252,-0.0101403803043534,-0.9929610609105938,-0.1179298526583584,-0.1070059748347018,-0.0141204083099505,9.801353124627225,0.0226301008036943,0.0261885429499098,-0.001110818793615,3.635664842784287,4.9008188015625995,1.1636096319283615,1144.716011976971,1127.5207893319043,1135.9165656151529,1120.1106301191214,-414.24828285714216,-315.73843831086066,461.92173714263447,-37.60713170331402,148.7876317181615
3.345,-0.9916645863533566,0.8954839879521359,0.0708822495649675,0.0311311511006041,-0.0028536968814938,0.0010744675015004,0.0042062552448477,-0.010193135024494,-0.9929612630909592,-0.1179238834588007,-0.1077199929763453,-0.012095707113254,9.802015022701763,0.0224721117332266,0.0258572223348472,-0.0011396040123094,3.6355940837031646,4.90076778418079,1.1636088731591068,1143.3564654432498,1126.701250378639,1137.4252005539215,1120.2944721920949,-538.1802174479732,-276.44217318971323,622.8507085072712,161.85766505582595,148.78740044204434
3.3475,-0.897263791557774,0.9994120381276592,0.1328967473555721,0.0288867143083856,-0.000525623296447,0.0010660263289317,0.0042068849074576,-0.0102375756944018,-0.9929632991303567,-0.1179028600132651,-0.1087379859950059,-0.0105213763215299,9.802734854306856,0.0223088969904454,0.0255253678536752,-0.0011628171373816,3.635522038488311,4.900717236897374,1.1636083204736392,1142.0251108897312,1126.1385784659556,1139.0308191576892,1120.9199184444003,-510.7396098294084,-197.18522480061856,676.7149675890921,325.18130477884154,148.78731702249036
3.35,-0.8055356131489008,1.0706341220019202,0.2296623170330184,0.0270851778804836,0.0012791658262098,0.0008106313573492,0.0042162812793779,-0.0102737509400628,-0.9929670138841729,-0.1178680899162187,-0.1100373780731883,-0.0093982884681427,9.803492967443136,0.0221382935065842,0.0251904092984979,-0.001180036735007,3.635448959026904,4.900667224242454,1.1636070115952146,1140.8027673941028,1125.7153242546362,1140.8087753918671,1121.920378715989,-427.07341387582346,-148.44043360313069,705.6246653709118,440.12910429383766,148.78735116020553
3.3525,-0.7316508108599178,1.1238059293510767,0.3572928088575446,0.025510639405401,0.0029790449809663,0.0006542212518819,0.0042369064935843,-0.0102999122228714,-0.9929718133246443,-0.117824630516463,-0.1116403763152523,-0.0087611545827222,9.804267890662452,0.0219584148435606,0.0248502598142071,-0.0011904385638382,3.635375678235008,4.900617928618674,1.163604578372966,1139.889743820352,1125.39637629794,1142.5589424845436,1123.1205639658697,-255.13733425232743,-108.93511774052288,649.4174578163577,498.8928499705814,148.7874852440896
3.355,-0.6946083615293822,1.154404974186137,0.5131038175061221,0.024083178455184,0.0052095156356685,0.0009800867133148,0.0042708034919185,-0.0103171014165185,-0.9929772398324724,-0.1177761668889548,-0.1135649013053397,-0.0085813290801477,9.805037439308636,0.0217680895729475,0.0245031243819565,-0.0011932841423678,3.6353031539226097,4.900569345466448,1.1636010122236475,1139.5270807228412,1125.1706486659336,1144.0558626809488,1124.414842965842,-19.853461900629977,-89.33431779692192,545.8414158438816,554.7082275735766,148.7877421002777
3.3575,-0.7074443191926205,1.1509126364387838,0.705936161013182,0.0224970496812181,0.0088941577385459,0.0022778984589234,0.0043170631508013,-0.0103270807497993,-0.9929826490813672,-0.1177280116957528,-0.1157711975760588,-0.0088030336995732,9.805780539484122,0.0215667669565082,0.0241476533191802,-0.0011881140719525,3.635231693531849,4.900521113402385,1.1635962759567269,1139.7904765108487,1124.9497047089556,1145.2881495637628,1125.8941051037375,197.13778696996508,-81.6723272336748,325.1614606895215,507.02778762866893,148.7881942445014
3.36,-0.7724245716491197,1.1030134245591987,0.8442999885646136,0.021257378612894,0.01249169156628,0.0042403398229312,0.004368791429467,-0.0103331979484385,-0.9929873499131,-0.1176859512892438,-0.1181060244830745,-0.0093203691074271,9.80647908955264,0.0213545403347889,0.0237829051274529,-0.0011750906622657,3.6351615642302697,4.900473096552023,1.1635908777242059,1140.512769657691,1124.7622870297653,1145.6816699843964,1126.9499819039852,351.9471345782439,-83.40223663385022,3.2937828545070764,365.6749647639325,148.78869173958466
3.3625,-0.8945447384245157,1.0049463896918567,0.9250695525575396,0.0198981360106087,0.0157323409960049,0.0070236334087917,0.0044188086764823,-0.0103390630148014,-0.9929910357926294,-0.1176525194322628,-0.1204121469777382,-0.01001651037505,9.807116967341559,0.0211322508895477,0.0234082328096694,-0.0011547843359427,3.6350928913540175,4.900425735157124,1.1635853852428333,1141.5502121837403,1124.5326935257863,1145.3046184780355,1127.7224799275573,468.922051849827,-110.8581681348294,-340.1400668323501,265.07857069289486,148.78931466455293
3.365,-1.0961409613539899,0.8422809403313523,0.9239487251503314,0.0176953738902269,0.0186338526257784,0.0110430461735396,0.004462516969754,-0.0103437189047501,-0.9929936198596976,-0.1176287028589869,-0.1225739024370609,-0.0108661726385409,9.807680403243635,0.0209012932393973,0.0230233944323956,-0.0011279088061959,3.635025802673141,4.900379344603548,1.163579796271872,1142.8573799169403,1124.207996189091,1143.9809696502343,1128.2753747574495,448.1565446919017,-119.21791741565612,-604.422548180277,144.3511090495607,148.79020644362376
3.3675,-1.2938872338482827,0.6853590627077275,0.8309939567683594,0.0150989958760827,0.0202616306249969,0.0143989767633081,0.0044983631613469,-0.0103461807793091,-0.9929951578041504,-0.1176141763758233,-0.1245375797806305,-0.0118496467333563,9.80815804261574,0.0206634842291763,0.0226285275600046,-0.0010955282857126,3.6349606529251703,4.900333831147072,1.1635743788662896,1143.7909949071995,1123.936603938708,1142.2825057371342,1128.444235472805,303.90570019281506,-90.5980931795076,-746.7089684553844,22.363724280967762,148.79106886024195
3.37,-1.4970735952977363,0.5254454053292743,0.6501265665381893,0.0116640076440751,0.0213253708368906,0.0168507700415694,0.0045300037715088,-0.0103435261834398,-0.9929961432564652,-0.1176048869356856,-0.1263501544644934,-0.0129955776917696,9.808540980427997,0.0204210211981459,0.0222240024582682,-0.0010588833435175,3.634897878978226,4.9002895859654885,1.1635698457976575,1144.3769084179044,1123.7550057231936,1140.2474248079575,1128.3871933788544,160.68872009423447,-41.617055410962145,-815.1892877419588,-44.49920081133408,148.79205354971273
3.3725,-1.6847663582012202,0.3739317590935289,0.4145648622132774,0.0076906587822966,0.0221069746831092,0.0182410299014305,0.0045635991402327,-0.0103319972402306,-0.9929970032000927,-0.1175973287635687,-0.1281089837306544,-0.0143556505562622,9.808824184052163,0.0201760833128252,0.0218105158838568,-0.0010195031935027,3.6348372943777583,4.900246492511966,1.1635669500660968,1144.5944385076707,1123.7285186616532,1138.2065592984245,1128.2217394687484,-8.18744638072548,42.047023512578555,-748.737055116378,-73.57038791301576,148.793138215496
3.375,-1.8318350717492429,0.2406809752026579,0.1409904473866435,0.0031729024675369,0.0226161950139707,0.0183792856914383,0.0046017560332657,-0.0103090908240381,-0.9929981876970398,-0.1175878339331161,-0.129848780016786,-0.0159507468195333,9.809008973440772,0.0199306523632354,0.0213889534437036,-0.000979388287267,3.634778632698157,4.900204619253887,1.1635658332343335,1144.3359711860007,1123.9652408407565,1136.503739532376,1128.0193414392895,-220.05763419411335,170.7468619837564,-596.6666517222748,-79.16173800718013,148.7943413754232
3.3775,-1.9381889902079732,0.1074736352235246,-0.2000027565038255,-0.0025628850045252,0.0227756541743239,0.0174378844208994,0.0046408245890685,-0.0102745600754953,-0.9929997966475486,-0.1175757314362225,-0.1314906296594203,-0.0177470451244825,9.809104170087698,0.0196862063419889,0.0209604251803661,-0.0009409147797003,3.634721168896728,4.900163863380666,1.1635660624054855,1143.4941503367004,1124.582252971572,1135.2232260398132,1127.8259307787123,-388.5296934849604,272.98705138510405,-309.7630936884864,-54.83428582033529,148.79591904253283
3.38,-1.9556393417903764,0.0193829020866458,-0.4805904169015338,-0.0075001231719389,0.0225205881317684,0.0161785241222605,0.0046753820936357,-0.0102330377220574,-0.993001620578816,-0.117562598790571,-0.1329350327572823,-0.0196158351975651,9.80912394248712,0.0194436762364137,0.0205261693819159,-0.0009064826420315,3.6346641138823466,4.900123917661466,1.1635671972022248,1142.393322718576,1125.330176097682,1134.9549240639335,1127.7451700101878,-507.1017496397984,322.58025516068847,62.801567492120135,-11.861171350027796,148.7973427287172
3.3825,-1.888922138109551,-0.0498420247570931,-0.7505923609925833,-0.0126884715133406,0.0221746945828164,0.015025082655437,0.0047034308705431,-0.010187636300963,-0.9930035303708562,-0.1175493276508036,-0.1341482025299366,-0.0214699430461881,9.809085896992233,0.0192035780770916,0.020087438157106,-0.0008778829959416,3.634607458625592,4.900085084875294,1.1635681847001036,1140.9586415885012,1126.1951542473755,1135.5372338772738,1127.7666249219624,-683.2489736113523,366.1496179782924,413.56613943295935,33.31724121621621,148.7988760253338
3.385,-1.709255949533783,-0.1241984551252781,-1.0557720675654936,-0.0187499408189237,0.0219473439949096,0.0134270416941408,0.0047230894723462,-0.0101427216434265,-0.9930049902503107,-0.1175401269461125,-0.1351027753407897,-0.0232036774232407,9.809011354165044,0.0189658995705203,0.0196456430736718,-0.0008565010879795,3.634551744376592,4.900047570539094,1.1635686760053732,1138.9770778505188,1127.1609241875735,1137.0227547610984,1127.9117562162687,-748.1630800885955,310.59009766386885,624.5819027332933,71.99644899092317,148.80083825291985
3.3875,-1.4844959664276527,-0.1903988194019826,-1.2812616481453387,-0.0230398120361715,0.0218932448032744,0.0112316057837042,0.0047357564723451,-0.0101028546745137,-0.9930056920476044,-0.1175371362972514,-0.1358370621504262,-0.0247193762241437,9.808923184504657,0.0187303624984753,0.0192021106391185,-0.0008431762886238,3.63449699515036,4.900011547770284,1.1635692305884264,1137.2178261880583,1127.7481047356948,1138.6601433909402,1128.1266071669168,-699.0873374744446,160.42767194526618,665.4793980075425,103.19878640721292,148.80257200131163
3.39,-1.2014232722529317,-0.2719273751742702,-1.4494395248223655,-0.0261637004473732,0.0216981835576141,0.0078327851551702,0.0047431887273607,-0.0100717315338603,-0.9930055282483274,-0.1175408717154562,-0.1363950035654683,-0.0259415115156917,9.808845991276362,0.0184964050319441,0.0187580376255921,-0.0008383234078789,3.6344425821599855,4.899976653144165,1.1635703018220929,1135.4816411631468,1127.9630625472998,1140.350151751136,1128.4277501483048,-731.5301996172066,-5.924135928808154,680.5978667524105,149.65430380534917,148.80440407525072
3.3925,-0.8213043824539658,-0.3931493444091965,-1.5486278792288193,-0.0288160970716249,0.0209503015494964,0.0025805390254439,0.0047461682400982,-0.0100506064721709,-0.9930046018549604,-0.1175503291044196,-0.1367960178274136,-0.0268442959981627,9.808805613951913,0.0182632169558327,0.0183144614238762,-0.0008419032621343,3.634387757810732,4.899942425813904,1.1635719342137618,1133.5601751899724,1127.7184840560508,1142.063132724702,1128.8748786859437,-664.3635254949146,-168.8968769796738,539.8658941771488,177.24310268359127,148.80671162756175
3.395,-0.4887097081217812,-0.5141369771808839,-1.5256320787670687,-0.030303323212987,0.0199225291984634,-0.0023281142000094,0.0047468410800825,-0.0100370446099374,-0.993003016707974,-0.1175647633746498,-0.1370770286182733,-0.0274817297118733,9.808827054082055,0.0180298031658051,0.0178723676811281,-0.0008532296991723,3.634331759791931,4.899908801431176,1.163573277019729,1132.1598235356723,1127.1185781624015,1143.0494812220215,1129.3139656617227,-512.5987884953811,-300.6724547281074,291.4278929699838,190.70311003143112,148.80872210513863
3.3975,-0.1582983830176042,-0.6547846111642123,-1.3858709003474947,-0.0310729870073514,0.0185941770790101,-0.0069143486677834,0.0047480979741341,-0.010029083885616,-0.9930011942882128,-0.1175806803398945,-0.1372902187791625,-0.0279038348598197,9.808933183649229,0.0177953118851432,0.0174326680949055,-0.0008711210278438,3.634275096092463,4.899875974917315,1.1635737051099155,1130.9971812474955,1126.2151217824103,1143.520272189552,1129.8283942361008,-427.6150771231733,-387.04839198104224,116.27664936763968,221.04154144281452,148.81081938886066
3.4,0.1570141623776927,-0.8102582368547825,-1.1587995729507463,-0.0312254096051472,0.0170972765380384,-0.010554893245405,0.0047553362348867,-0.0100213398489268,-0.9929997556577836,-0.1175930878282195,-0.1375281483847287,-0.028236576017834,9.80914328808451,0.0175592154928576,0.0169963400741886,-0.0008937940705804,3.6342190598591566,4.899844829046836,1.1635730775261268,1130.0217481500565,1125.1833362024963,1143.63086446886,1130.4191733689368,-350.8374289018396,-410.16464523564497,-9.277401213285172,258.73032802870154,148.81298562758835
3.4025,0.4369498855311849,-0.97950870341072,-0.8507377432246636,-0.0304878187629668,0.0153026611129679,-0.0129994427132774,0.0047729439542855,-0.0100109619297513,-0.99299873740211,-0.1176017503806117,-0.1378681933251177,-0.0285590704827599,9.809473127818585,0.0173212297259481,0.0165646137702554,-0.0009193302741008,3.634164581466991,4.899815771702784,1.1635713296402308,1129.2429941029864,1124.164298556232,1143.4738851834857,1131.1220458762443,-302.3551135039066,-406.87875470200174,-82.61547804103782,336.6102897779683,148.81523132199015
3.405,0.7088452520948159,-1.187462562487482,-0.4244589556862897,-0.028295239043561,0.0125630345806427,-0.0149095131033409,0.0048004703931794,-0.0099994589253734,-0.9929980987953017,-0.1176069093635841,-0.1383030359534794,-0.0288571394529326,9.809935652576685,0.0170814705640021,0.0161386627513556,-0.0009460085275967,3.6341122934640895,4.8997887333469885,1.16356857271375,1128.5099725825369,1123.148942428986,1143.2177870786547,1132.1022248178267,-233.99143752011025,-318.018347189833,-75.62230842863245,376.5880764036156,148.8180131897805
3.4075,0.8683331349483753,-1.352236820153235,-0.0500989493869926,-0.0255087903989336,0.0097884898255723,-0.0156772874990998,0.004831088504752,-0.0099884187234618,-0.9929975484472496,-0.1176111760515532,-0.1387008225211391,-0.0291028726004001,9.810541527753843,0.0168402852693722,0.0157194705746979,-0.000972360125231,3.634062208847488,4.899763434734963,1.1635652516790904,1128.0730369153855,1122.5742068202828,1143.0957736413425,1133.0049862582623,-130.10935183947646,-163.94397202784953,-9.36414624616211,360.50316335359497,148.82040037902308
3.41,0.9532365547122859,-1.4888566494631814,0.3089098599474218,-0.0224351732094473,0.0063845524201736,-0.0154024158551283,0.0048559464517678,-0.0099802433287306,-0.9929968265342852,-0.1176169183959886,-0.1388922887073383,-0.0292485527311838,9.811296979870148,0.0165981890093867,0.0153075530507771,-0.0009971165910787,3.634013852747649,4.899738807256728,1.1635615535275308,1127.8594258233395,1122.3292225688467,1143.170966347424,1133.9047406345949,-26.772672307561724,-38.81853444581876,79.41681927072918,358.7365102624594,148.8228548410773
3.4125,0.9819854239185788,-1.5954416238061386,0.6789294182113705,-0.0191201613539333,0.0018355027641031,-0.013486359194449,0.0048687501349421,-0.009970628663456,-0.9929958157456084,-0.1176257644082927,-0.1387429867603658,-0.0293825762149344,9.812202404455682,0.0163557350932447,0.0149028725730554,-0.0010189081668618,3.633966316543344,4.899714481682647,1.1635575421287625,1127.939173553848,1122.3801141480535,1143.492857737696,1134.7986688095748,95.44230084384456,60.79652223966279,142.75596949433142,264.3529453743269,148.82587287560816
3.415,0.9638835845732064,-1.6191501431526631,0.9076052165503742,-0.0169729483021102,-0.0022116206081107,-0.0106168235882972,0.0048684128016187,-0.009951608470406,-0.9929946170243072,-0.1176375795084263,-0.1382122941106764,-0.0296749036140111,9.813251070042144,0.016113467936789,0.0145048245346034,-0.0010363198166907,3.6339194419946255,4.8996907483662495,1.1635535406209057,1128.3366373275587,1122.6332051800453,1143.8847461948956,1135.2265053614665,231.55738357414103,120.34459850497372,154.42439262665505,69.96176785828688,148.8284446852413
3.4175,0.9267511427988228,-1.5573972024088114,1.030800044521006,-0.0156427088530633,-0.0066005020541008,-0.0069692086165428,0.0048539979953354,-0.0099247047136887,-0.9929934797905852,-0.1176501306077876,-0.1372854498407726,-0.0301079392706923,9.814430401405092,0.0158719102991913,0.0141122559488766,-0.0010484232088313,3.633873261730879,4.899667495339788,1.1635500658649467,1129.0969604717186,1122.9818371405784,1144.2649797008291,1135.1484776488662,406.6759320559954,147.49957330191452,129.65218882818863,-171.15070493569328,148.83107082137076
3.42,0.8771368379267676,-1.3725586146548552,1.0545224893116805,-0.0143902008787155,-0.0119790427461047,-0.0026358936425488,0.0048252402334943,-0.0098945639513715,-0.9929926431092316,-0.1176609895867749,-0.1359688490289132,-0.030601415974384,9.815722695872948,0.0156315100629553,0.0137235973471891,-0.0010545329035723,3.633827719346239,4.899644687290968,1.1635469230556152,1130.3700169878387,1123.3707030465548,1144.5330071390365,1134.370751836788,507.15745814082936,122.65633300308116,48.335491268472765,-390.48876166908406,148.83427950992075
3.4225,0.829582276571248,-1.1287255885005951,0.9863282175560784,-0.0130546105160217,-0.015895169595709,0.000442450357498,0.0047847396393648,-0.0098653008532289,-0.9929921938203784,-0.1176689560921946,-0.1343242724295647,-0.0310884680948876,9.817105027221709,0.0153926150195762,0.0133369761528295,-0.0010539803631726,3.6337827581972606,4.89962228611342,1.1635436896832312,1131.6327477624227,1123.595118805594,1144.5066571571715,1133.1960338405208,514.4817220647946,61.363687468515714,-69.55808048064213,-540.3509744029724,148.83699709156588
3.425,0.7580912781792789,-0.8103865877063431,0.8597561271653039,-0.010910920149638,-0.0186258217519059,0.002728775751085,0.0047381504610871,-0.0098368730084279,-0.9929919588736614,-0.1176752528909894,-0.1324641128016539,-0.0315866663343153,9.818550062876318,0.0151554650019452,0.0129503294222864,-0.0010460128968634,3.633738008437625,4.899599918782248,1.163540444774647,1132.9424255981628,1123.6775214838974,1144.1852167366333,1131.6689969647728,505.9367210477489,12.119495617070331,-170.79006004531703,-625.9876614473374,148.83975503569133
3.4275,0.650145118964683,-0.4529743119767375,0.7143110060459391,-0.0081386872717808,-0.0203121955586421,0.0041940461438995,0.004692492806661,-0.0098101419303655,-0.9929917641447252,-0.1176809926953351,-0.13053064255083,-0.0320944983035676,9.820027020332008,0.0149203038948465,0.0125614234407744,-0.0010299797968105,3.6336932764891294,4.89957677223291,1.1635373749597107,1134.1624313676616,1123.655716283679,1143.652706856945,1130.066095533284,441.1208973790147,-21.652158438474096,-244.16501979231333,-604.5769242706357,148.8425428072256
3.43,0.488175943665388,-0.0804322979788486,0.579101114065874,-0.0054740251971941,-0.0208551562627928,0.0045421854598238,0.0046522361588963,-0.0097864545760253,-0.9929914016174388,-0.1176876489038297,-0.1286186670370171,-0.0325907456810796,9.821503983580433,0.0146874142819492,0.0121680672146282,-0.0010054421894157,3.6336487435222415,4.899552616468646,1.1635345217776751,1135.1480300850578,1123.569260691705,1142.9643916376715,1128.6461123434199,361.3929024844842,-30.63057642007217,-305.7438728055851,-526.9881805790759,148.8453623645632
3.4325,0.2420574342794353,0.3422841773561149,0.4545525027690138,-0.0034636704141969,-0.0203062288657923,0.0040438550896574,0.0046171808282846,-0.0097699575764029,-0.9929909164841292,-0.1176945145345267,-0.1267399569056886,-0.0329841508905313,9.82294924158427,0.0144572153701166,0.0117682969721632,-0.0009722567347996,3.633604778956408,4.899528070892817,1.163531891569408,1135.969395880084,1123.5025634015788,1142.1239874929172,1127.4311546303886,239.9453310076348,-1.1148525673889036,-286.37567735254987,-343.7419559559731,148.84877747420015
3.435,0.0165093672929128,0.6451156365645718,0.3810534881505458,-0.0030336217915783,-0.0188572135452684,0.0036389759782363,0.0045838727761094,-0.0097622294243791,-0.9929907637539492,-0.1176977663302944,-0.1248385544484582,-0.0332219505008377,9.824331799369933,0.0142302847530605,0.0113605992561507,-0.0009303891732279,3.633561752278108,4.899504018775941,1.1635290179317304,1136.347756740096,1123.563686428868,1141.532513250909,1126.92740256364,98.75139131463794,64.92890371382738,-191.887881242114,-100.48267097613676,148.85164624442635
3.4375,-0.1957547483364201,0.8656396808587927,0.3120522324450806,-0.0037012562324463,-0.0163604643297809,0.0040446695555221,0.0045521706710125,-0.0097613925798884,-0.9929911335475576,-0.1176959652943112,-0.1229159553775663,-0.0333251021394682,9.825619630239443,0.0140072087413923,0.0109441926030926,-0.0008797184340845,3.6335204207309246,4.8994814478644395,1.1635257421389276,1136.4631528366572,1123.827207920148,1141.1645480867066,1126.928741275508,10.231028836278927,169.5723831474006,-98.37859118365697,81.76361727428403,148.85453475477317
3.44,-0.3984562303269287,1.0095215564905304,0.1842684863194573,-0.0051902103727877,-0.0123647140205447,0.0057713741581807,0.0045232227181064,-0.0097684675113896,-0.992992236066893,-0.1176872089990189,-0.1210067435384013,-0.0332599876328462,9.82678088612858,0.0137885669721054,0.0105188987975572,-0.000820293942944,3.6334816007797577,4.899460388236888,1.1635217499494324,1136.3989118842771,1124.411548344605,1141.0406202949907,1127.3362206500115,-43.35479758683597,253.23414854584,6.943619416506556,180.85916573032068,148.85801945253093
3.4425,-0.5039725529993536,1.0224005330620711,0.0067017852760757,-0.0067225922270277,-0.0087788474411593,0.0079839758326879,0.0044975736612612,-0.0097809866267755,-0.9929942361754358,-0.117670292861984,-0.1191265793108106,-0.0330602621404076,9.827785976385174,0.0135747456783649,0.010085068531951,-0.000752381372314,3.6334440220859032,4.899440308506634,1.1635168700525451,1136.2463788487228,1125.0933786628773,1141.1992661837892,1127.8330371041595,-70.12836510306879,294.8942885938578,109.76030541500393,189.41959467104965,148.860935777557
3.445,-0.5281840873155801,0.9351408064064464,-0.2611346107994172,-0.0087263545978667,-0.0059471802839233,0.0101161930529047,0.0044788614613781,-0.0097933059626288,-0.9929969218993476,-0.117647336435733,-0.1173444971112882,-0.0328313343141692,9.828607036785684,0.0133657605389197,0.0096435642088987,-0.0006765051476841,3.63340691565414,4.899420915890401,1.1635120386426043,1136.048270058762,1125.8860197875745,1141.5894218220656,1128.2833186233668,-91.09927767335033,345.69968552043457,212.11782384524145,152.34961799054753,148.86386155467386
3.4475,-0.4585465881803513,0.744488050993565,-0.659593757505542,-0.0118038629276446,-0.0038732197180522,0.0111745428842825,0.0044685039837248,-0.0098011082242303,-0.992999959870332,-0.1176214629088287,-0.1156898120734587,-0.0326506538466936,9.829220510521044,0.0131612850262699,0.0091956785381135,-0.0005937668414909,3.6333698034699062,4.899402431640207,1.1635079680979532,1135.7908824603562,1126.8218770904796,1142.2598553030155,1128.5947851941123,-94.73332162147217,321.1625309606529,270.2511445947551,63.23687281042247,148.86737934853275
3.45,-0.3300195174863437,0.5371143117371711,-1.004698314405746,-0.0142235122994708,-0.0029276369744735,0.0097987892744157,0.004465824365646,-0.0098053747603482,-0.9930028559489908,-0.1175967899876761,-0.1141635857647825,-0.0324914535172915,9.829607563462718,0.0129607387361008,0.0087431639466726,-0.0005058558777956,3.6333316164656098,4.899385305482396,1.163505285840788,1135.5746034506546,1127.4918324423777,1142.9406775450395,1128.5995029874189,-82.59731660423489,230.09852825080577,287.5290701628335,-51.3745046567703,148.87031339365575
3.4525,-0.1660022725426898,0.2993829013912267,-1.2812495066040932,-0.0153240431867521,-0.0021377776048277,0.0055697073857772,0.0044661456592579,-0.0098063499731208,-0.9930053473909696,-0.1175756916411974,-0.1126877970524891,-0.0323362693179349,9.82975581095449,0.0127635349177291,0.0082881854806196,-0.0004148672573754,3.6332923615014097,4.89937040364949,1.1635035225414927,1135.377895877335,1127.9723697317336,1143.6975006538296,1128.3379126708285,-71.03342564182792,157.1229946502205,307.4465848099928,-139.79587610301976,148.8732460366585
3.455,-0.013753028501378,0.0461035080844767,-1.4437748090024811,-0.0150295965951767,-0.0014638593610929,-0.00032503605076,0.0044689497273455,-0.0098011306836086,-0.9930073645061628,-0.1175590156874426,-0.1112590204957378,-0.0322435674182867,9.829656910908232,0.0125693498283051,0.007833274399709,-0.0003229064147734,3.6332534552332976,4.899358099311447,1.163502296321296,1135.2194363224455,1128.2774474156288,1144.4779104690895,1127.9005236069036,-48.4634660605035,82.22970811725821,306.53523765091194,-198.88559273422712,148.87617428200383
3.4575,0.074562533453502,-0.2140441588882143,-1.4306021030946667,-0.0134175359052453,-0.0012855529763187,-0.0064758643051395,0.00447653644651,-0.0097864097224187,-0.99300884581151,-0.1175474688166048,-0.1099284505049376,-0.0322916903050867,9.829307153886113,0.0123782918200005,0.0073811941708594,-0.0002320853471874,3.6332161605680335,4.899348398829275,1.1635018656571328,1135.1355785470323,1128.3835182723199,1145.230176842084,1127.3434847071571,-14.131343009330823,6.892910848910252,307.6619565201847,-244.19920592422903,148.8790930431113
3.46,0.0637757459526104,-0.5124076193825007,-1.214840874609452,-0.0106927099948036,-0.0019193784712732,-0.0126964060853053,0.0044857846309725,-0.0097617580214373,-0.993009843816172,-0.1175407527199736,-0.108648840686276,-0.0324953483395937,9.82871022023352,0.0121909439138903,0.0069346746951815,-0.0001446969324808,3.633180667675071,4.89934114110393,1.1635023430925275,1135.1487796073989,1128.311911969873,1146.0162202516904,1126.6795275772827,25.54638359301916,-56.05957670341132,256.5219848191245,-221.26221374556297,148.88257883376167
3.4625,-0.0483183423143863,-0.7284105985926189,-0.9038372088509224,-0.0086044965842735,-0.0031975592214508,-0.0164672381781299,0.0044934271248799,-0.009729212245252,-0.9930105728682824,-0.117537005526817,-0.1073766334274162,-0.0328252297095571,9.827875008992256,0.0120082833231559,0.0064961393309741,-6.294800075440649e-05,3.6331477052533767,4.899336434560976,1.1635038999137128,1135.2633104649976,1128.1032203888028,1146.5127867661795,1126.2371736384296,67.13714804273111,-113.22406602803552,154.5351511950263,-130.20444064314057,148.88546525639114
3.465,-0.2396676836046117,-0.8810024272081455,-0.5254081174792563,-0.007769961014299,-0.0052401842308212,-0.0180820646131185,0.0044962685982146,-0.0096907587350205,-0.9930110567675696,-0.1175359836537289,-0.1060697894793436,-0.0332575471371941,9.826815269750771,0.011831466469576,0.0060675121781167,1.1201000101762411e-05,3.633117473411171,4.899333515487377,1.1635062737779827,1135.4844653476125,1127.7457916397332,1146.7888960076655,1126.0285053740668,121.67300811387663,-192.04729929109433,65.85015613736242,-14.905597635014503,148.8883269328709
3.4675,-0.4948357765144729,-0.9558364217414688,-0.0847857086950157,-0.0088881397734371,-0.0086828671342726,-0.0170824430105545,0.0044912357897084,-0.0096519283400349,-0.9930112602121982,-0.1175376466779237,-0.1046969996569307,-0.0337023863375484,9.825548656008609,0.0116616132516824,0.0056499482597228,7.611868533941398e-05,3.6330894458276424,4.89933136727287,1.1635090291186208,1135.871675505567,1127.1429838923473,1146.8420375468663,1126.1626456502545,164.21846711758718,-249.77894738634083,-22.996329677105944,124.81542561708076,148.89172555770324
3.47,-0.6726056738179004,-0.9078193337142944,0.2159638007733869,-0.0115149167738905,-0.0120511211760038,-0.0144620948782782,0.0044791553227814,-0.0096162739826448,-0.993011075963942,-0.1175425784886887,-0.1032980704396651,-0.0341188873688399,9.824094925547747,0.0114995497686721,0.0052437277332897,0.000130718818342,3.6330631676008087,4.899329487189545,1.1635122083735263,1136.3055576832005,1126.4968969028012,1146.67391435928,1126.6525825021524,202.72621070098896,-285.66229303692734,-97.83544517436192,277.6639256003423,148.8945233213412
3.4725,-0.7582935661018682,-0.7361748262024319,0.4159796192384229,-0.0149345834769859,-0.015077821434042,-0.0116142807834918,0.0044644060393622,-0.0095848927837928,-0.9930103857116852,-0.1175515273905336,-0.1019753700787174,-0.0345220276047719,9.822475151189181,0.0113456013866424,0.0048482465049653,0.0001744823517982,3.6330379827767056,4.899327566339576,1.1635158793400295,1136.885306559072,1125.7146724271627,1146.3528603209948,1127.550965278256,297.9462230974668,-367.21700161407045,-153.31541344817524,473.80207291840736,148.89727951985236
3.475,-0.7207956594694251,-0.3999073903118101,0.5504226259119924,-0.0188390453602403,-0.0178257893405606,-0.0091552463218017,0.0044509975187433,-0.009560291422841,-0.9930092597863268,-0.1175635488297115,-0.1008256804793417,-0.0348960731166972,9.820711816394976,0.011199465069035,0.0044620614402244,0.0002073704477406,3.6330132478950254,4.8993253231650895,1.1635197186034327,1137.7952887986878,1124.660811894731,1145.907337292039,1129.0215928667444,373.2483923110146,-394.518692949586,-156.05729901617784,578.3732674871894,148.9005321890092
3.4775,-0.5701451376143403,-0.0342406990925754,0.6031118791091638,-0.0215662228376301,-0.0191838345536129,-0.0081427689545601,0.0044386491269937,-0.009542640245861,-0.9930075979957782,-0.1175794856025902,-0.0998536777505432,-0.0352579897334255,9.818829361699633,0.0110601182112105,0.0040831174330476,0.0002297844916958,3.6329880494922766,4.8993229570829495,1.1635230733180852,1138.751548520627,1123.7420789624148,1145.5725738259139,1130.442831615692,419.82987896400095,-357.08988830866326,-111.29138037640824,564.9737015122021,148.90319223059487
3.48,-0.3146183720868114,0.3783511339723435,0.6324957972079217,-0.0235118731168422,-0.0192085467941719,-0.0080409981144076,0.0044273710800054,-0.0095323147590816,-0.9930055057106264,-0.1175984191304235,-0.0990669476572306,-0.0356163339929706,9.816851442590515,0.0109258977520144,0.0037088467093696,0.0002426192043078,3.632962108304648,4.899320553541914,1.1635255805608111,1139.8944381935075,1122.8753624531876,1145.350880390157,1131.8464613743051,477.1870855986992,-321.9408875270415,-65.0816245876754,523.5333788963655,148.90579403808383
3.4825,0.0004605611576226,0.7905476073946257,0.6610010117747898,-0.0245225407874812,-0.0179101546450081,-0.0080479367435646,0.0044176753549269,-0.009526402469731,-0.9930033708110884,-0.1176172957516508,-0.0984714398663272,-0.0360388361326554,9.814800256719607,0.010794630563036,0.0033363403212282,0.0002471674458085,3.632935292804856,4.899318263095773,1.1635264314196452,1141.1374839486205,1122.1323745247796,1145.2471657029755,1133.0604985101738,498.9265946408629,-250.26718865661303,-13.737664185100876,407.2807070469567,148.9083432268609
3.485,0.3429616041600412,1.1509644123757097,0.6889345574238329,-0.0239839151712455,-0.0148779379669204,-0.0071132751644791,0.0044119895910111,-0.0095227272249251,-0.9930014311009788,-0.1176342034262222,-0.0981073952467375,-0.0365773756511807,9.812695209670329,0.0106637847273117,0.0029625918941197,0.0002449331135001,3.632907240515992,4.89931604717736,1.1635259082520713,1142.389071166712,1121.6240265099048,1145.2821920692315,1133.88286490954,516.4194646530283,-157.38974320023618,43.054174711912125,253.65036451829036,148.91082375307252
3.4875,0.7244931880027667,1.4645465369305155,0.7017231247805336,-0.0215597342686595,-0.0094600726397354,-0.0047371946034873,0.0044158600897264,-0.0095210442122626,-0.992999798718556,-0.1176480100796441,-0.0980754637128643,-0.0372472126412882,9.81055205601596,0.0105306897052736,0.0025846594556448,0.0002374370475315,3.6328779813992966,4.899313727103112,1.1635248207649482,1143.7195812718855,1121.3454258087784,1145.462436576535,1134.3287503327651,432.2597593381651,-48.737300820490766,86.06931214052892,80.83639057885557,148.91371465394423
3.49,0.979270171704196,1.5982334423677087,0.6780261883785748,-0.0184190320905253,-0.004139807911867,-0.0023485407489554,0.0044284172306573,-0.0095205694630642,-0.9929983308254156,-0.1176600013898518,-0.0983451774518768,-0.0380537283325469,9.808386132314768,0.0103927728846903,0.0021998947211751,0.0002258710226177,3.6328471857311144,4.899310644630299,1.1635234466632076,1144.5503699634028,1121.3803400058023,1145.7125386299342,1134.2870468624344,248.29718837586896,54.25345750600288,117.88704551531988,-73.17602897169466,148.91604825414447
3.4925,1.1383346901765858,1.5910785417083615,0.6073191025559672,-0.0145648211116268,0.0010291520281623,-0.0001048654297958,0.0044469298947954,-0.0095222769063581,-0.9929968661631297,-0.11767155024636,-0.0988500481616756,-0.0389582471255203,9.806210745680689,0.0102478177344545,0.0018061484550828,0.0002111298321114,3.632815160912685,4.899307145290785,1.1635221256395865,1144.961067213765,1121.6166930963084,1146.0518718041117,1133.962870187907,66.92836198226502,122.77173939696956,164.6708096343026,-159.3963571248457,148.91829947790637
3.495,1.2093490639927067,1.4417978297876068,0.4702594471887575,-0.0098500006608571,0.0062992641901465,0.0021411317827691,0.0044669493542169,-0.0095294040257772,-0.9929952129336412,-0.1176841763777081,-0.0994924705243919,-0.0398694986816849,9.804037384081324,0.0100942026015939,0.0014020411146145,0.0001938006079566,3.63278221670096,4.899304030025827,1.1635203828230491,1144.8850117733143,1121.9941987027871,1146.5358926781057,1133.49006507681,-123.92747910367044,133.57646433205727,182.36068385740896,-151.53804039923995,148.92090203442393
3.4975,1.1790206745420435,1.2311916192935166,0.3232440538434047,-0.0064128488052161,0.0095363867247793,0.0034430338532433,0.0044847231496091,-0.0095432441070385,-0.9929933340742808,-0.1176982312757604,-0.1001824092109384,-0.040731995767962,9.8018755179522,0.0099311150935851,0.0009871197043291,0.0001741958104188,3.632749396444833,4.899302280432688,1.1635181546089703,1144.3414298182468,1122.2845754179687,1146.9636752233987,1133.2051799859107,-306.0190407260572,92.99555683683337,158.68703001565675,-59.517139357832455,148.92298637176785
3.5,1.0822956665913699,0.974507475375536,0.1625713223841316,-0.0037806055563938,0.0115211546998667,0.0038782279840595,0.0044981965497637,-0.0095601597689387,-0.9929913145230992,-0.1177133697844191,-0.1008512209326629,-0.0415877860168673,9.799732845045588,0.0097586872980453,0.0005619019961391,0.0001523128407266,3.632718019777728,4.899302865656485,1.1635159106470072,1143.354916569684,1122.4591764869713,1147.329327828184,1133.192479380021,-509.92453691684386,41.43619928827408,115.04457956575853,69.77790076885107,148.92498137650395
3.5025,0.9257673019625424,0.6570961901898295,-0.0201863504793329,-0.0013034964006674,0.0125770608181663,0.0036254461949273,0.0045078882995485,-0.0095781637700916,-0.9929893307804822,-0.1177282421108023,-0.1014852360904219,-0.0424514241406811,9.797615103630477,0.0095780035570595,0.0001277315778906,0.0001278265311105,3.632689151771823,4.899306353484424,1.1635145278519394,1141.7918071336624,1122.49175641441,1147.5388981212275,1133.5540694897547,-611.0025708856159,-14.304708895679447,11.723602384700166,185.66221089713903,148.92727111870036
3.505,0.785286026383055,0.4048198163556837,-0.1488847827134522,0.0004067345755761,0.0126746922737173,0.0031529213848843,0.0045155262370979,-0.0095939078771052,-0.9929875465002428,-0.1177416763066516,-0.1020932288587502,-0.0433667613483716,9.795527136548705,0.0093909644215744,-0.0003134896220687,0.0001001335626167,3.632663544343119,4.899312927652095,1.1635142790012167,1140.299903715256,1122.3876529424929,1147.3879458401075,1134.1207904345067,-604.2658106388945,-53.81359287598208,-155.11901448384242,251.52888899340843,148.9290921937675
3.5075,0.6568327206387662,0.1702596461954657,-0.2405559118834675,0.0017433588122033,0.0127693662802587,0.0025154854735626,0.0045209841112992,-0.0096050036401896,-0.9929861173162172,-0.1177525666124694,-0.1026531577464784,-0.0443554466921343,9.793474211917701,0.009200031655051,-0.0007596799312746,6.845973092508237e-05,3.63264176449414,4.899322376356222,1.1635153912074816,1138.770478080468,1122.22268845003,1146.7633030488082,1134.811713934722,-596.7743132554967,-58.21883598732318,-336.87709843086395,266.7233232791934,148.93082289127975
3.51,0.5506334010471208,-0.057388298265752,-0.2950219759002108,0.0026888247688328,0.013091098940925,0.0015981099548678,0.0045246529652145,-0.0096124956824511,-0.9929849596373526,-0.1177615273986726,-0.1031643581895602,-0.0453751968225716,9.79146136479802,0.0090078792533337,-0.0012089365660909,3.212619751599286e-05,3.6326237798836383,4.899333683673177,1.163517692427924,1137.3160321489784,1122.0965587625562,1145.703560347953,1135.4544070509028,-544.3844102215396,-16.84025334934667,-517.1800655362514,209.8984681605588,148.93247831813656
3.5125,0.4793507191067503,-0.2892486957971098,-0.3002315977141886,0.003064317160617,0.0131866369188519,0.0003795333543918,0.0045231441511486,-0.0096188753756998,-0.9929836022123358,-0.1177724611116877,-0.1035593379266561,-0.046349130316941,9.789495164455351,0.0088170030006677,-0.0016598140468586,-9.31835049963872e-06,3.6326085572108,4.89934544337014,1.1635205165081035,1136.0485560293603,1122.1384871832831,1144.177402721127,1135.8612062755249,-498.9891148312488,83.095170554272,-736.0058959315822,90.609887697021,148.93404208813467
3.515,0.4311248051697248,-0.5811553693937245,-0.2518253955804353,0.0031943676358656,0.0128159097560792,-0.0012449999911729,0.0045148431402147,-0.0096244115876902,-0.9929818890377666,-0.1177867228340271,-0.1038042089710373,-0.0472484507567431,9.787581943997369,0.0086293422758397,-0.002111555099689,-5.586684538800413e-05,3.6325950658907207,4.899357389232292,1.16352343360176,1134.821086574822,1122.5120346153276,1142.0235308682952,1135.9074564893879,-395.86520910084727,200.66983189090453,-796.6274592059277,-68.79453011843144,148.93581085483785
3.5175,0.4069926740227698,-0.8334147873403958,-0.1759774569183356,0.0035947109001347,0.012204653010831,-0.0026102993954128,0.0044993473041387,-0.009628078946313,-0.9929801203201892,-0.1178018837732259,-0.1038896325361026,-0.0480725295207788,9.785727924252958,0.0084460137067689,-0.0025640852452921,-0.0001070086113479,3.6325822260295384,4.899370134716065,1.1635256359656627,1134.069229983856,1123.1418363427379,1140.1942654250975,1135.5172336249327,-243.79677601719388,315.245738063329,-675.2613164486464,-243.2549892161257,148.9371932521569
3.52,0.3684888953796382,-1.0774228271290127,-0.0880676649543066,0.0048184375838111,0.0107922304926182,-0.0036852568144124,0.0044771206698716,-0.0096342641278128,-0.9929785813920012,-0.1178151603588901,-0.1038382357107917,-0.0487183504599205,9.783939112598672,0.0082672331839187,-0.0030178902990671,-0.0001617292530774,3.632568438560008,4.899383290307322,1.1635260388392787,1133.6021026947362,1124.0882633056442,1138.647224286052,1134.6911815433073,-145.9286240180094,467.1187981928696,-547.2110164031282,-442.8034054658932,148.9384779139544
3.5225,0.2668184755702085,-1.3201946387225951,-0.0142162204314693,0.0072206738352666,0.0071254457983868,-0.0038766587257001,0.0044509731550568,-0.0096460705502942,-0.9929774262966068,-0.1178248921901108,-0.1037167921859478,-0.049114289232311,9.782221159113535,0.008092430700155,-0.0034738958570286,-0.0002186930692604,3.632553498332216,4.899396593089977,1.163524410142032,1133.339586863766,1125.477430333702,1137.4582103430819,1133.3032165976033,-56.43617296318673,524.7064395495383,-288.9044750753389,-548.623001773706,148.93990268632163
3.525,0.1184262082427347,-1.4463935709311744,-0.0181113681769518,0.0094440811002633,0.0024413707572701,-0.0025045860571678,0.0044216174751904,-0.0096629525931358,-0.9929765681633383,-0.1178318281082811,-0.1035433793424501,-0.0492560675861241,9.780581252546398,0.0079204914699664,-0.0039332833335,-0.0002766086320234,3.6325370464797255,4.8994096508189875,1.1635204076762329,1133.3199218299203,1126.7117955033918,1137.2027019106752,1131.9480665344388,15.395995975950756,471.0545603171896,66.00012067697348,-543.3821659913635,148.940989428482
3.5275,-0.0918107352646446,-1.46587755893671,-0.125168762538231,0.010947836205188,-0.0028780917491786,4.254751376103348e-06,0.0043901126780856,-0.0096827116844114,-0.9929761434578164,-0.1178349586732103,-0.1033395759250827,-0.0491726896473626,9.779027576989229,0.0077500032541422,-0.0043973243529487,-0.0003344965287227,3.6325187897783486,4.899421799300637,1.1635143539697654,1133.4165668436456,1127.832703135288,1137.7882109464667,1130.5863057676463,43.21760162765421,422.4840726148328,428.91229521721306,-553.5213017969535,148.94196794110627
3.53,-0.3767271370086152,-1.3675014109486396,-0.3708890335871314,0.0112477043914878,-0.0084702046735447,0.0022262629461864,0.0043581539895408,-0.009698691329144,-0.9929759032057908,-0.1178368560889754,-0.1031281521701453,-0.0489832948991952,9.777569885973895,0.007579591032183,-0.0048669810575431,-0.000392031153554,3.6324993845413016,4.89943320644803,1.163507292956299,1133.5360098380584,1128.824215866466,1139.3472633867616,1129.1804600254538,25.37090657456076,277.51963656635724,672.6848767088542,-450.4989271347918,148.9430132670878
3.5325,-0.5967529168885135,-1.2071277830262737,-0.6359100902558442,0.0097915056450809,-0.0116039475521662,0.0018640452781462,0.0043281080492638,-0.0097073315242181,-0.9929754442464452,-0.1178411143921785,-0.1029513759876423,-0.0487504940265252,9.77621985244404,0.0074081616556115,-0.0053426195940815,-0.0004496709815256,3.632479560707892,4.8994446316767055,1.1635006734776292,1133.5434213765186,1129.22030131812,1141.1516353300112,1128.3338111319724,-33.34875378950599,48.09280188951664,760.112608411753,-255.7196242958125,148.94377474841215
3.535,-0.741484044631629,-1.0038503330959287,-0.891797392117452,0.0067532444803402,-0.0131882884773346,-0.00129987164832,0.0043028050271113,-0.0097072914326418,-0.9929745566501041,-0.1178495097704858,-0.1028653999938511,-0.0484970831301216,9.774991739266552,0.0072350501248962,-0.005823801039619,-0.0005086838540643,3.6324601082559607,4.899457243349418,1.1634954720231792,1133.369266069111,1129.0646798759135,1143.1478264288203,1127.9018619039748,-105.01812346929223,-158.9611857180932,780.7557722432358,-106.61255596415003,148.94442043343443
3.5375,-0.7911263773789025,-0.7883083580300317,-1.088270688522258,0.003310091197867,-0.014303630316286,-0.0057350174797752,0.0042828528919841,-0.0097012361732497,-0.992973422725518,-0.1178602644689618,-0.1028926201866574,-0.0481656471156016,9.773903665968282,0.007060071504299,-0.0063092108281891,-0.0005709884397139,3.6324422121117466,4.899471810030465,1.1634922661040503,1133.018330759172,1128.4254953895295,1145.055414191227,1127.8007483521517,-176.86847172044887,-365.8123960684484,697.6416550927446,22.40159032389831,148.94496908495185
3.54,-0.7092758347745053,-0.5708579744812453,-1.1758158415657587,0.0003953807665316,-0.0156729379502436,-0.0103095659949989,0.004270845694962,-0.009690783776154,-0.9929725157508962,-0.1178691634842578,-0.1030916305589246,-0.0477274984027951,9.7729764073201,0.0068834945954854,-0.0067967153465745,-0.0006388703678057,3.632427024131283,4.899489624682697,1.1634914487745776,1132.4849237105088,1127.2356178955715,1146.636034704284,1128.0138698555943,-252.52538318596265,-629.6089735412031,594.4433875309313,137.07813854953494,148.9454001061478
3.5425,-0.4634243710873215,-0.3128039286544649,-1.1450945739239409,-0.0022539016933893,-0.0172700730530419,-0.015064434458372,0.0042675246029993,-0.0096762838731988,-0.99297177251667,-0.1178766792413002,-0.1034809721300741,-0.0471805184380684,9.77223449770826,0.0067059777771284,-0.0072835246515773,-0.0007146791761032,3.6324145911260337,4.899510615564728,1.1634926702070771,1131.7557038432424,1125.2774505218235,1148.027631128882,1128.4861390448991,-255.64517770063136,-784.9981250230197,430.3377932978584,189.71279690031628,148.9457812991739
3.545,-0.1521068364877574,-0.104263680144065,-1.020633413903566,-0.0038570152588992,-0.0180363379410202,-0.0179750876562255,0.0042726201482732,-0.0096592646629965,-0.9929710854381326,-0.1178836061992834,-0.1040619690208059,-0.0465028477447113,9.771705131057464,0.0065283105771251,-0.0077666184887122,-0.0008004111517322,3.632404099263896,4.899533875504751,1.16349537538007,1131.2066978220057,1123.3106272704565,1148.7877236707732,1128.9624338400959,-173.08651481976455,-828.048027935319,245.85943029138048,192.71027174814165,148.94598609055024
3.5475,0.2365593058282208,0.0881888484259593,-0.8229503549496439,-0.0046394485594092,-0.0179115549565827,-0.0197564455800061,0.0042826626893854,-0.0096452107683609,-0.9929700433812508,-0.1178930942543751,-0.104782188378458,-0.0455944188268771,9.771417721581487,0.0063512648780319,-0.008243027645067,-0.0008973608309038,3.6323946973549126,4.899559190135218,1.163499449200516,1130.8902712691436,1121.137210382147,1149.2569282803388,1129.44969040364,-53.56022048858542,-972.3649843901312,177.54802828229623,211.47332940452932,148.94607463360745
3.55,0.7359346878508822,0.288481356087604,-0.5342193093793454,-0.0034518478903642,-0.0167461544037591,-0.0209250491532643,0.0042912124001533,-0.0096440013500546,-0.9929682227666812,-0.1179081489612222,-0.1055411625721383,-0.0442679480070477,9.771402327504125,0.0061754687406935,-0.0087100769748057,-0.0010058234953704,3.632386272682184,4.899586337402376,1.163504342426568,1130.9388967195628,1118.4488023485055,1149.6754638121847,1130.0198004871183,101.79435515059816,-978.7382367699386,153.1831332111675,208.12310744343864,148.94604743776267
3.5525,1.1307602576853524,0.4255592943869253,-0.2673725079821643,1.824874163182887e-05,-0.0151942727609831,-0.0213681660015184,0.0042938897506715,-0.0096615996503223,-0.9929656000666351,-0.1179286557508257,-0.1062690241069484,-0.0424202565504196,9.771686498372084,0.0060013260430216,-0.0091655573036303,-0.00112498529166,3.6323790068078208,4.899615322799871,1.1635088287892292,1131.3992430448964,1116.243519198297,1150.0228439463947,1130.4903059408573,271.73697595104056,-853.9625448442802,152.0324615169589,190.1237363016248,148.94591409608202
3.555,1.4546699451725715,0.5367871580937892,0.0169432835399197,0.0051769710869321,-0.013730241902325,-0.0214818103929341,0.0042891639228015,-0.0096973030563846,-0.9929623893432068,-0.1179529401116735,-0.1069346974791701,-0.0400867200497267,9.772293400708701,0.0058290014071108,-0.009607823047961,-0.0012529188559873,3.632373206591229,4.899645591093778,1.1635122349271727,1132.297581599318,1114.1789896242842,1150.4356261197695,1130.9704191686267,481.67601567821407,-853.6012668312378,185.8143062635957,211.52734971183688,148.94566630750072
3.5575,1.7394619672168303,0.656734736355629,0.3744040006444519,0.0111816294936486,-0.0125921668954938,-0.0212722826157292,0.004282474924218,-0.0097434055688509,-0.992959246184052,-0.1179758968177658,-0.1076248805897002,-0.0374555307113721,9.773238825840455,0.0056583192013793,-0.0100359057309083,-0.0013866462809339,3.632368873346732,4.899677007335434,1.1635140478401886,1133.8076231232876,1111.975512864141,1150.9519154777126,1131.5479426894165,608.3415629133144,-745.354889296202,166.3429861559997,204.98515674135416,148.94523690788583
3.56,1.896852347461209,0.7559978981329406,0.6820996051686717,0.01521477708742,-0.0116182996648777,-0.0206724806887197,0.004275107201072,-0.0097911117258729,-0.9929566188235796,-0.1179943992833593,-0.1083402848858503,-0.0347271920779474,9.774533630092918,0.0054887401968195,-0.010449532358826,-0.0015223068890887,3.6323655801560535,4.899709434157497,1.1635131679905055,1135.3392894138844,1110.4522151778033,1151.2673410505495,1131.9953449523334,645.3677217598989,-522.4376770531874,53.87887860415618,157.8028078426575,148.94476905743107
3.5625,1.9866438633592889,0.8572385768204601,0.987858550443503,0.0184488604414524,-0.0098923316265934,-0.0193033839755836,0.0042655925251137,-0.0098366074626777,-0.992954804928784,-0.1180062823093188,-0.1090365532497214,-0.031998123871783,9.776181900230503,0.0053192804247299,-0.0108491971055921,-0.0016552884185475,3.6323623818116006,4.8997422744678465,1.163508450512606,1137.034461732087,1109.363324478875,1151.2213098707334,1132.3369567286295,686.9436910516616,-347.13656479580834,-119.37314727761331,105.9107443957623,148.9441868538865
3.565,2.022082244039318,0.9561754163261246,1.2749910935269924,0.0217018452428403,-0.0076641628412538,-0.0169915793382867,0.0042556771884685,-0.0098787371375007,-0.9929540135534848,-0.1180098023587354,-0.1097344583878153,-0.029317871676214,9.77817840642784,0.0051485334338078,-0.011236140756832,-0.001780657652665,3.632358919780807,4.899775407947126,1.1634993489751275,1138.7740078691427,1108.7165323538243,1150.6704753141614,1132.5248986743122,685.8091554405438,-136.83365197748864,-383.558314572846,21.37311505853222,148.9435095693717
3.5675,1.9721970052536255,1.046415268520499,1.511638725047987,0.0259374843080514,-0.005249545490542,-0.0132797114432657,0.0042480938422005,-0.0099161366985917,-0.9929543953366556,-0.1180037082517212,-0.1104698555200105,-0.026738278814745,9.780509711498384,0.0049747597712386,-0.0116122610645496,-0.0018938045454591,3.6323550141953462,4.899808926254647,1.1634867426426267,1140.4635075092897,1108.6791562189876,1149.3035182978692,1132.4438223039224,708.0909477390355,130.51761622226903,-816.2108740922935,-116.69895785106868,148.9427174118676
3.57,1.769404480031417,1.1378762875235335,1.7021114708835843,0.032514053849481,-0.0023590399337304,-0.0074055845518553,0.0042455468960434,-0.0099463634680968,-0.99295600598003,-0.117987655777246,-0.1112719606502115,-0.0243270610698177,9.783155367993658,0.004796036742276,-0.0119800059525846,-0.0019910160518672,3.6323501305313632,4.899842804870553,1.1634718374312356,1142.314462607838,1109.3691204349357,1146.5894209436997,1131.9414038850568,634.8154887883564,365.8280983328704,-1165.9031157623426,-259.82728295442087,148.94163464529043
3.5725,1.452356349961312,1.1939024891359542,1.7673197104804557,0.0385187694133118,6.936588799692297e-05,-0.0020231398021626,0.0042496986189592,-0.0099706639209692,-0.9929589487769768,-0.1179606379192089,-0.1121551933579693,-0.0220716309513334,9.786089137215091,0.0046104123948197,-0.012342301438896,-0.0020697591641033,3.632344143797517,4.899877091734374,1.1634564413811213,1143.6375849532317,1110.508296710652,1143.4740027190571,1131.14468588915,470.5076638468299,543.2736896647955,-1379.478250733002,-394.81496561262173,148.9406235390051
3.575,0.9732113073851703,1.2171451058590872,1.7362108341750004,0.0435417188596604,0.0028294224342541,0.0029926030647092,0.0042573750655071,-0.0099955299714925,-0.9929632325303424,-0.1179221650577081,-0.1130494025553005,-0.0198399000414522,9.78928177693056,0.0044161494450173,-0.0127024247387122,-0.0021288204218054,3.632337086115276,4.899910987231372,1.1634421459245812,1144.667000927072,1112.0854888832596,1139.6920296900348,1129.9673290569935,375.76354157436873,743.3931732088852,-1732.1350709071253,-584.5229072424115,148.93950218636726
3.5775,0.2458898802063211,1.1888122262538128,1.610141226994133,0.0469730047263755,0.0068606216296912,0.0078362752466416,0.0042644969519533,-0.0100230540304086,-0.9929682848245606,-0.1178770180260609,-0.1138541384417581,-0.0175781734707278,9.792702293403169,0.0042120916841471,-0.0130637323806926,-0.0021684459000514,3.632329271451807,4.89994367749112,1.1634300602694638,1145.5164026611035,1114.2252625766964,1134.8133273645217,1128.2220713529382,245.27315018922832,783.130467008112,-1769.6941567978606,-668.8464646334666,148.93803359168913
3.58,-0.4366784216477219,1.1075984543828228,1.4538060471004712,0.0472053399945628,0.0107114892014584,0.0105810372536218,0.0042663366613043,-0.0100551110114712,-0.9929732727214324,-0.1178322049937036,-0.1144548587705257,-0.0152303118877901,9.79631926840184,0.0039977816617446,-0.0134294155647241,-0.0021899707489144,3.6323211982619616,4.899974626884705,1.1634206621046408,1145.8933666780183,1116.0011412183,1130.8435589060457,1126.6230967338263,86.23889337027505,661.9639087856426,-1477.3530661606262,-631.247623338654,148.93671146713447
3.5825,-1.1238803984692165,0.967015295304901,1.2638659328726178,0.0446349517288392,0.0142678553143405,0.0126661902222849,0.0042623061139328,-0.0100893971607742,-0.9929776891480456,-0.1177921926930632,-0.1148088467416774,-0.0128257052392026,9.800101063821476,0.003773461238632,-0.0138021454573365,-0.0021955332176083,3.632313146956754,4.900004145168055,1.1634136469368463,1145.9475971279549,1117.5350821206243,1127.4265620337187,1125.0658332362448,-40.28929083274392,580.508520517527,-1289.137315344424,-630.8807740582913,148.9352933852599
3.585,-1.8700739569036575,0.7530805670798805,0.9984946021979748,0.0387897810171564,0.017254000008716,0.0156635774222193,0.0042548195667314,-0.0101227422246113,-0.9929813334524024,-0.1177588433102529,-0.1149321970414263,-0.0104138092331909,9.804017159899006,0.0035401006673996,-0.0141837060596254,-0.0021876153255437,3.632305695351332,4.900033007883694,1.1634088953305932,1145.6919202238544,1118.9036838208876,1124.3978723293235,1123.4686928635351,-138.87883672428256,410.60443309525874,-890.4319141846107,-512.1267462209853,148.93348913859165
3.5875,-2.3790997370130174,0.5648881521560108,0.7378198259695833,0.0323786200521568,0.0184963551639219,0.0184881022598627,0.0042467001128849,-0.0101510656074688,-0.9929840341310884,-0.117733857299791,-0.1148503297179683,-0.0080615939172063,9.808039957877591,0.0032994368994489,-0.0145746874593866,-0.0021687041809825,3.63230007028278,4.900062229570224,1.1634059638070327,1145.2532029443335,1119.5881042861008,1122.9744024627955,1122.50519950514,-214.5486366785508,184.8602739403344,-322.61492345724724,-284.62774688578673,148.93190690006278
3.59,-2.737186741542444,0.4001607370357281,0.4304871027393122,0.0251390867475614,0.0186446705050508,0.0206332197151158,0.0042408548719587,-0.0101720217889308,-0.9929855249393754,-0.1177195979480432,-0.1145989071941731,-0.0058035829007824,9.812144999315665,0.0030538927757948,-0.014974369083412,-0.0021409132650155,3.6322971895594742,4.900093212063587,1.1634039652148016,1144.6191770404619,1119.8279851905893,1122.7847977120375,1122.0455541291062,-282.3768714188455,40.79334755292345,119.32336326193867,-91.46051442116297,148.93025113811134
3.5925,-2.960659189954002,0.2722569475033131,0.0895326402517523,0.0174909059922257,0.018212444994527,0.021812511661378,0.0042368076252635,-0.0101878477261117,-0.9929858921536392,-0.117715175419718,-0.1141642261551077,-0.0035792626251294,9.816311835069095,0.0028062423504991,-0.015380834466728,-0.0021056917116288,3.63229693447682,4.900126461648235,1.1634020509367011,1143.8413185872391,1119.7920710238654,1123.5710192791055,1122.0478969330343,-342.8078241825684,-46.6695404435964,515.5955586734415,108.4769590462583,148.92854039566365
3.595,-3.025395974741139,0.1929604130829512,-0.2759542371934744,0.0096575748653649,0.0176513786586792,0.0219044287719525,0.0042376036828122,-0.0101975420189251,-0.9929853979116776,-0.1177183632312241,-0.1136000858132826,-0.0014038628819851,9.82052215788493,0.0025594510409592,-0.0157911461447368,-0.0020639728530552,3.632299646498194,4.900162300793575,1.1633987349383084,1142.905137919549,1119.5946374883713,1125.362775505405,1122.5879389243375,-443.53084798868656,-75.85681599130275,959.6258434294872,337.25741137155444,148.92677046088855
3.5975,-2.938912052413256,0.1368572417260645,-0.7139823882079894,0.0007136668576644,0.0176398039391291,0.0207505383900386,0.0042481973671749,-0.0102009746284206,-0.9929843286949432,-0.1177265962185688,-0.1130061323609237,0.0007135787215605,9.824759427963906,0.0023164496293558,-0.0162016636169589,-0.002016170166288,3.632305618987636,4.900200611337717,1.163393480275514,1141.6236643472955,1119.4127869439087,1128.3691484962528,1123.734183989892,-490.7876205957668,-26.559532391275408,1197.026857471954,473.952456647895,148.92458712161883
3.6,-2.7511384540850425,0.0996062402933709,-1.0533902311047043,-0.006113782077018,0.0182538948237733,0.0185733178079051,0.004272539798083,-0.0101951499483626,-0.992983408406724,-0.1177339143602416,-0.1124626314444369,0.002703750602851,9.829009810803997,0.0020797390045646,-0.0166083869371005,-0.0019625379301712,3.632314810468128,4.900242040115103,1.1633877402965815,1140.45119981657,1119.4618398264147,1131.3479097927643,1124.9577012075767,-482.7195395862521,85.89953078121837,1237.6033847853969,504.5598579886808,148.92272461965487
3.6025,-2.471165541891424,0.0442673833914789,-1.3353309571698528,-0.0122680509274282,0.0190731023719154,0.0151006837635344,0.0043114983797727,-0.0101755037509281,-0.99298289274407,-0.1177385530955901,-0.1119915920728883,0.0044645188311256,9.833262115937993,0.0018513508656932,-0.0170073239582288,-0.0019033095516346,3.632326471255252,4.900287473845808,1.163382759293858,1139.2100666493643,1119.842284597815,1134.5571654201797,1126.2569832798351,-552.6500116315337,252.48370698237153,1415.890497289168,547.4097194654522,148.92082501217325
3.605,-2.0606665557912405,-0.0652119152265635,-1.5788468100259363,-0.0187443418154469,0.0199164008114695,0.0099218504430475,0.004359299792078,-0.0101449564218274,-0.992982539801454,-0.1177424957419926,-0.1115074976077955,0.0060462312072604,9.837507015519117,0.0016326458376892,-0.0173949978907584,-0.0018383779062293,3.632338913452884,4.900335887899377,1.163378941535083,1137.6879497584123,1120.7242583613267,1138.4273622792102,1127.694749804904,-557.5141194335748,386.54263995154815,1392.1875900579676,487.023876468776,148.91851122014566
3.6075,-1.679465967844964,-0.1988298182298851,-1.6921168880737711,-0.0231550668261904,0.0203292266283655,0.0054631696987543,0.0044108526695622,-0.0101027292845667,-0.9929825260111124,-0.1177444659447484,-0.1109339904323294,0.0074189158906227,9.841735216071024,0.0014240765072596,-0.017768829901957,-0.0017675497137516,3.632350735941986,4.900386001187874,1.163375547267082,1136.4224960521967,1121.7749977975727,1141.5181033704691,1128.6921026621792,-498.9302759047966,462.00826811878943,1175.165073156065,351.32624908447565,148.9165606211745
3.61,-1.284213308585917,-0.3721921887950779,-1.7113553040446812,-0.0264518692516307,0.0202573671729833,0.001383894596344,0.004461666957357,-0.0100515097864941,-0.9929828639190904,-0.1177442493082359,-0.1102175142338326,0.0086123212770602,9.845935785474166,0.001225479182561,-0.0181273510405401,-0.0016902063380184,3.6323611966213183,4.900436380813602,1.1633721145434632,1135.1932983788884,1123.0342997019206,1144.3031876449904,1129.4513810503263,-523.5268650466979,562.0610938352986,1115.3922714397752,294.8150073890048,148.91459359331327
3.6125,-0.8214468666321937,-0.6071861119515161,-1.6307102534455595,-0.0291301265218877,0.0193600587229332,-0.0032465190349572,0.0045092495137302,-0.0099963383196559,-0.992983404733745,-0.1177427356105327,-0.1093511027856836,0.009692381090639,9.850095180070063,0.0010363364856393,-0.0184701721420984,-0.0016053310568425,3.632370162778869,4.900486068826098,1.163368111853184,1133.804861726963,1124.5853032667494,1147.0950647276686,1130.1661776991243,-485.5431305838137,543.5959542258021,903.4835275944106,250.20463653016253,148.91222148666378
3.615,-0.4624401896509022,-0.8043154955428239,-1.4797505974029523,-0.0303810402346406,0.0177393028978145,-0.0071425219482016,0.0045525759548188,-0.0099419867885958,-0.9929838935406022,-0.1177417018842659,-0.1083571832998253,0.0107127854278318,9.854197341941385,0.0008560440841983,-0.0187977728473708,-0.001511679907018,3.6323781670305206,4.900534920014464,1.1633633217076906,1132.7655827259691,1125.7522794730498,1148.8206052829628,1130.7024042329774,-375.64247832266005,408.1748919642537,537.5101104854481,225.50243695287037,148.91023992340567
3.6175,-0.1464786935215219,-0.9738687122051491,-1.2451710290468243,-0.0308338668918107,0.0150721282972906,-0.0109922958684595,0.0045892492364188,-0.0098931078048822,-0.9929842127171192,-0.117741847482261,-0.1072317096697199,0.0117265101215719,9.858224354643685,0.0006840527519247,-0.0191112262502909,-0.0014079035002171,3.6323859362264046,4.900582771143846,1.1633580805450254,1131.9266493353496,1126.6261777265706,1149.7826152800956,1131.2936898838886,-287.0624655500312,284.9475812457119,247.29444996492543,253.3567038165583,148.90825875000596
3.62,0.125740863093971,-1.101632873770955,-0.9482883894218576,-0.0307723529761842,0.0116636910985331,-0.0143169198636859,0.0046150048340612,-0.0098508982968162,-0.9929841643124904,-0.1177449213067658,-0.1059258327786742,0.0127225001959773,9.862157006431298,0.0005200743334154,-0.0194119023562478,-0.0012928028253783,3.632394240138765,4.900629814348553,1.163352692213166,1131.3302703982192,1127.1770173792784,1150.0570775327872,1131.96918775206,-159.69260389670467,135.44113860453143,-51.611450851033815,282.03542172964865,148.90628155790327
3.6225,0.3380306700871308,-1.1672827165417783,-0.5944200709325644,-0.0301767271132737,0.0079586449746968,-0.0166072892318102,0.0046283105544964,-0.0098160506691453,-0.992983624487844,-0.1177519872877563,-0.1044423324397639,0.0136744173116119,9.86597282615032,0.0003640462649812,-0.0197012351091033,-0.001165332621602,3.632403829778764,4.900676622650862,1.1633472914674676,1131.1281863158663,1127.3033834195933,1149.5245580258406,1132.7038669925369,23.96731567155308,-36.697502631023646,-391.62675181683807,306.14098604756435,148.904313163635
3.625,0.5152326725282252,-1.1779885414820763,-0.1382842372148295,-0.0288543787476086,0.004054644860776,-0.0179002380316831,0.0046312259324748,-0.0097839328007502,-0.9929827347563716,-0.1177621641832142,-0.102840861090563,0.0144455648612042,9.869646893012264,0.0002159855623118,-0.0199805540540647,-0.001024871553738,3.632415514162067,4.900723777390072,1.1633416462857242,1131.4501069765768,1126.9935298661233,1148.0989437737032,1133.499892682298,219.16211672642487,-177.341309838179,-618.6055309197532,248.40893038249837,148.90196589207125
3.6275,0.5927798342369139,-1.1430274499296462,0.2381267299489407,-0.0272483689538297,0.0015284794552164,-0.0175885154094681,0.0046276236776541,-0.00975328932799,-0.9929814897092843,-0.1177754498919254,-0.1012226418549397,0.0149637815484476,9.87315158479067,7.590827845696305e-05,-0.0202510581058826,-0.0008709551296449,3.6324292010161625,4.900771717700848,1.1633358816032506,1132.2239968994984,1126.4166768704024,1146.431530371242,1133.945911644449,407.65980528563847,-273.97957679527866,-715.0167376592588,103.69514174249385,148.90002520911966
3.63,0.5939221427506508,-1.0794945979041088,0.5753432391377328,-0.0252739431872242,-0.0004465712484169,-0.0158855695581076,0.0046204911835547,-0.0097257490559996,-0.9929801220365868,-0.1177896269044902,-0.0996760444454902,0.0152198505506741,9.876458172392867,-5.651991174350769e-05,-0.0205138565003367,-0.0007033511267375,3.6324442890247632,4.90082076178677,1.1633305017918851,1133.4884060030051,1125.623631982147,1144.523860085407,1134.0183683910104,642.3450094532676,-368.7247061732456,-832.6218108828364,-66.74214143954036,148.89810393054893
3.6325,0.5115004580197952,-0.9803953183060188,0.9035121675298844,-0.0230243364168167,-0.0026953926851478,-0.0126985656030151,0.0046104206106266,-0.0097017946186524,-0.992978550954915,-0.1178053058745731,-0.0982366263154671,0.0151916821395795,9.879538698216793,-0.0001819403993725,-0.0207700521337718,-0.0005222429660008,3.6324598551479466,4.900871053565826,1.1633258679925125,1135.4357219467647,1124.573053339536,1142.2684213168275,1133.6122009372516,756.6315187546422,-380.92523398028953,-779.6977870858809,-219.19785315725105,148.89582478609591
3.635,0.3839913820647742,-0.8773390414048933,1.1016363347005853,-0.0216682650629828,-0.0047814854495121,-0.0095242449074065,0.004595995918645,-0.0096824592643535,-0.9929767534178384,-0.1178226464205305,-0.0968981977774501,0.0148783019972835,9.882366346521843,-0.0003014820924172,-0.0210208480362384,-0.0003281451864198,3.6324755364452894,4.900922355255399,1.1633217461347352,1137.2715635967786,1123.719005812245,1140.6253711499771,1132.922379125224,741.0549191944185,-317.7688510593793,-568.4868537007,-310.73494915459133,148.89395037512153
3.6375,0.2152994339081358,-0.7452432585602191,1.2218069898999475,-0.021030431536911,-0.0071109592847688,-0.0062317095243993,0.0045775300034699,-0.009668118959775,-0.9929748131355208,-0.1178408990967874,-0.0956828333906045,0.0142683117537877,9.884915248851064,-0.0004167383603899,-0.0212676187095773,-0.0001219502851839,3.6324908239744937,4.900974225831765,1.163317834236645,1139.1409965427367,1122.9842090842392,1139.425987048324,1132.0585261914787,793.1005887737398,-284.15845254472214,-397.44490636781785,-358.0637945183829,148.8921052325803
3.64,-0.0095590482223951,-0.5468526815814643,1.289827907031999,-0.0210014607222345,-0.0096226702142794,-0.0026752593964111,0.0045554485714946,-0.0096573860776839,-0.9929730143781216,-0.117857769059329,-0.0946062695814339,0.0133227609945724,9.887162016168249,-0.0005297089914961,-0.0215119295433426,9.502286478388614e-05,3.6325057918994266,4.901026613357641,1.1633146545636759,1141.2370665406472,1122.2982135495215,1138.6381466181383,1131.1320601526322,725.2335166735674,-218.96120850797624,-174.5845683224198,-276.335756172472,148.88992891669008
3.6425,-0.1993349715016512,-0.3504489524175182,1.2963946232997323,-0.0214900096154172,-0.0112175161333718,-7.218720675282083e-05,0.0045307444923254,-0.0096461041102453,-0.9929721568174364,-0.1178668212249698,-0.0936844875652651,0.0119555294172499,9.889086477771686,-0.0006427990639675,-0.0217555180829619,0.0003209825341048,3.6325201199972814,4.901079829946408,1.1633126001432283,1142.7671641261047,1121.889403041699,1138.553064206712,1130.6768474106163,556.0336092807238,-137.7134831032465,73.65253390003247,-78.12025744842852,148.88814981651885
3.645,-0.3763502458072389,-0.13312968828674,1.2624396353872935,-0.0225301383818019,-0.0121777922899865,0.0025012379089977,0.004506035185662,-0.0096295727396912,-0.9929729861059488,-0.117862058885477,-0.092959506612869,0.0100740463262024,9.890671611735907,-0.0007584793997313,-0.0220002912388425,0.0005538112386283,3.6325333087756766,4.901134270288497,1.1633121903721335,1144.0172345870508,1121.6096461340055,1139.0064092876385,1130.74145886539,453.08471718227395,-98.66977816032185,250.4564807135065,121.40812397169869,148.88641006977647
3.6475,-0.5351250201481844,0.0872320707375542,1.1974527013944922,-0.023983735370617,-0.0122830113534911,0.0053344883637138,0.004482382067655,-0.0096032446877729,-0.9929757225365868,-0.1178419574002743,-0.0924386047537491,0.0075999798126446,9.891904918842512,-0.0008788951531474,-0.0222483516527935,0.0007912488978266,3.632545252205005,4.901189774317451,1.163313880732669,1145.032587712016,1121.3960541508975,1139.8053466102795,1131.2838880304748,355.52563341271554,-77.04405033159838,367.92550284590885,316.83243995986,148.8847055507007
3.65,-0.6681178620648337,0.290829274575427,1.0938631684124596,-0.0257400819061589,-0.0113514843370552,0.0085237477356939,0.0044607899376488,-0.009566325572013,-0.9929801800218137,-0.1178081124751129,-0.0921327379163756,0.0045371169588933,9.89277772073259,-0.0010056652424987,-0.0225020105751442,0.0010312328087494,3.632556252943732,4.90124569472046,1.163316902295336,1145.7948627541143,1121.2244258823475,1140.846036801868,1132.3256210651891,288.2033087842108,-69.5296138211703,462.6392092111572,525.6027801164349,148.88304619600635
3.6525,-0.7996078242928443,0.4941755859443065,0.9276100213404552,-0.0278915304478445,-0.0095266290456081,0.0122963042557854,0.0044423064713821,-0.0095226558420556,-0.9929859719146452,-0.1177634291694607,-0.0920613535613714,0.0009890111298696,9.893285252614762,-0.0011397374463091,-0.022763740656536,0.0012721044725937,3.6325672213668736,4.901301139767879,1.1633203398341103,1146.473604255937,1121.0484060817919,1142.1185426563352,1133.9119019310567,217.37992406964065,-57.7437569835599,434.09621030029285,590.6537557607008,148.88110976456971
3.655,-0.8894561095447147,0.6210902810090805,0.7645246085204583,-0.029646959083736,-0.0079533804733266,0.0148105619255365,0.0044283663924895,-0.0094744930710413,-0.9929925108341544,-0.1177126212259053,-0.0922454040931759,-0.0029642509115571,9.893427509556947,-0.0012812531521862,-0.0230360745693554,0.0015123792122422,3.6325796031604978,4.901356123215656,1.1633235300751474,1146.8817623744624,1120.9357070974297,1143.0165178533696,1135.278889843993,136.58879574062655,-31.75150903725593,288.60996664309687,500.0874271830188,148.87954296433432
3.6575,-0.9614848282126224,0.7008543971651848,0.5985304115802895,-0.0315444798597437,-0.0065555786582885,0.016164026696104,0.0044186435171609,-0.0094242664616765,-0.9929989409220886,-0.1176627186017579,-0.092669982319499,-0.0072271159576967,9.893209583688368,-0.0014295741682566,-0.0233214738690976,0.001750773728148,3.6325938840429934,4.90141113657029,1.1633268606923743,1147.1565482346402,1120.8896485366056,1143.5615924895508,1136.4123390669722,90.87892452462448,4.993273913623959,130.240767779108,397.5025411298332,148.87802554084558
3.66,-1.0245540714951022,0.7393275868907778,0.4244079781213384,-0.0342498771480754,-0.0047492054924407,0.0166352674842008,0.0044156075155472,-0.0093718472299515,-0.9930048247039884,-0.1176173201789137,-0.0933688293067956,-0.0117522281200069,9.892640299613664,-0.0015837392740309,-0.0236222500675956,0.0019859559800549,3.632609734214364,4.901466745421732,1.1633311542257039,1147.3361569970857,1120.9606734669978,1143.667721692265,1137.266402549642,37.26996692562432,54.531083153052606,-58.66663912729689,214.88342414809725,148.87626157586016
3.6625,-1.0525904137156283,0.7187012170544923,0.3133531700042325,-0.0368731421485878,-0.0027836215970611,0.0165772846668629,0.00442167420864,-0.0093139865794086,-0.9930099329754192,-0.1175785241141099,-0.0943676234511548,-0.0165461802947966,9.891732790119663,-0.0017425634627343,-0.0239405610242742,0.0022165204288506,3.632626966570296,4.901522706429907,1.163336517116694,1147.3428980692684,1121.1623039523708,1143.2682592939143,1137.4867561877127,-34.42157924500935,118.61485061658892,-247.7306978081795,-3.3810295778949504,148.8748383273315
3.665,-1.0494657441165463,0.6374053129004589,0.2384602257610872,-0.0396859345315953,-0.0003917472389774,0.0166069687402019,0.0044368572391027,-0.0092503488988716,-0.9930140512921604,-0.1175481665607183,-0.0956522877773372,-0.021546960772529,9.89050425518816,-0.0019047290601082,-0.0242783833651989,0.0024413463190758,3.6326454938121686,4.901578582109959,1.1633431437343404,1147.1640491008607,1121.5537477200808,1142.4290682032242,1137.2494974017527,-129.4644432728119,224.53959203171985,-429.3485801337829,-170.51931567985227,148.87346197004547
3.6675,-1.0078706306090048,0.4732960972443259,0.1750289385739323,-0.0430555933448336,0.0024200234408932,0.0171183078402111,0.0044567798901514,-0.0091807094359504,-0.993016904183852,-0.1175287592939698,-0.0971235980443529,-0.0266760868186243,9.88897664886422,-0.0020688635227577,-0.0246374625404457,0.0026595742705691,3.632665256700265,4.901634001894396,1.1633502906536344,1146.6955758529043,1122.2850019125294,1141.1215163932454,1136.6341596093134,-215.253966968844,315.96810307911016,-486.3316252458948,-241.9796288819322,148.8718619501861
3.67,-0.9449702122326512,0.2963335293938394,0.1282410631458221,-0.0456853890730248,0.0039759273913686,0.0179052531872625,0.0044733057160353,-0.0091089463290273,-0.993018443583456,-0.1175207073649027,-0.0986193419936089,-0.0317627525452035,9.887175892016737,-0.002233811447192,-0.0250191505793414,0.002870845054218,3.632685994866795,4.901688742616208,1.1633575374554168,1146.0877792660165,1123.1335882354763,1139.9974100769948,1136.039599257343,-280.63241837313086,389.59344663372497,-399.07345047678007,-207.9646113226817,148.87056958150006
3.6725,-0.8620535213524694,0.109388454292337,0.0717832021565584,-0.047766465198506,0.0040559021279293,0.018682469928002,0.0044786175129059,-0.009037144117313,-0.9930190537083688,-0.1175208925165861,-0.0999809333798412,-0.0366707617939839,9.885130697252904,-0.002398849371823,-0.0254242401513851,0.0030749437503526,3.632707510063194,4.90174257785049,1.1633641234816903,1145.2924137610387,1124.232969145698,1139.1261491408616,1135.5943365527,-336.36605707686164,476.145962774867,-265.9498516387705,-124.47113537790824,148.86931743913772
3.675,-0.7711730340290937,-0.059987348978245,0.0013367159173957,-0.0493348872772,0.0032141500409171,0.0192032426237018,0.0044680689413576,-0.0089676904726963,-0.9930190044398493,-0.1175270245374816,-0.1011134043002908,-0.0412671228298404,9.882870995008446,-0.0025635910768573,-0.0258527443683307,0.0032717475648131,3.632729627085892,4.901795834703524,1.1633702552647645,1144.405948980632,1125.5143180493508,1138.6676608188009,1135.4172435804535,-354.7710486236371,540.5012031064506,-47.144302761486415,14.447033509576547,148.86809702691184
3.6775,-0.6777202151040788,-0.1865919763463102,-0.0858781999915549,-0.0504944978885085,0.001966793120781,0.0192767500041758,0.0044442169661256,-0.0089005817693387,-0.9930187576111114,-0.1175350919154772,-0.1020581194491515,-0.0454859605704393,9.880426200904305,-0.0027282125252654,-0.0263036761721325,0.0034608878419942,3.6327520414992978,4.901849404805564,1.1633769493597084,1143.5185585179204,1126.9354751612304,1138.890427627054,1135.666571720248,-361.03234141465543,623.1736713275174,276.9449523113112,210.44644183416943,148.86691303138414
3.68,-0.5622808934736879,-0.2793264152600301,-0.2041893650586974,-0.0517831069064547,0.0005097437845204,0.0188049528174193,0.0044131459060328,-0.0088323417603045,-0.993018535438108,-0.1175432365612681,-0.1029167960501467,-0.0493443391441221,9.877826019083912,-0.0028932427206961,-0.0267749196859797,0.0036416446184949,3.632774399586689,4.901904599251926,1.163384462070468,1142.6007872735588,1128.6301864059883,1140.0523855803572,1136.4694757896243,-293.85306070303784,586.2643931715991,568.3973027608894,360.69034098014384,148.86553211697637
3.6825,-0.4563271331238376,-0.3113355115587745,-0.3090514854767825,-0.0529780494988478,-0.0005148205527766,0.0180049940034431,0.0043794411078739,-0.0087619825492095,-0.9930185444415764,-0.1175496095706893,-0.103766398688498,-0.052815192122607,9.875101590365809,-0.0030595703546785,-0.0272631515967737,0.003813328827683,3.6327965745684576,4.901962286556704,1.163393004114035,1142.0492932144052,1129.8667971270884,1141.7324141408585,1137.4700234251486,-162.87263142303692,414.96708266327886,785.700145539766,427.8137344089464,148.86441309023996
3.685,-0.3282614056389728,-0.3092610471555213,-0.4164422640069476,-0.0543123454254452,-0.0012389229721185,0.0170166134636841,0.0043447304701673,-0.0086889483529483,-0.9930188045714672,-0.1175540299819963,-0.1046249781949393,-0.0558666080957747,9.87228585756968,-0.0032281850987675,-0.0277639834226713,0.0039752743658987,3.6328186433171865,4.902023629261096,1.1634021523149416,1141.7864241164436,1130.7050218193046,1143.980886308056,1138.6085444616688,-45.83086021589322,232.90705729960376,1055.258855212673,470.3413030534293,148.86332536600597
3.6875,-0.1390849356537612,-0.2854286821837491,-0.5467638777609433,-0.0556471669590607,-0.0016209326065972,0.0160039696784837,0.0043086809343444,-0.0086145186568541,-0.9930191167407614,-0.1175581166671851,-0.10547408296727,-0.058438147917233,9.869412865989624,-0.0033999777736639,-0.0282722245277827,0.0041269763843958,3.632841242682921,4.9020894674213125,1.1634118315429132,1141.8201389133255,1131.0313324135864,1147.0087084169215,1139.8217299404157,64.30756898148638,-14.70395454075546,1107.673252829796,375.1752105909043,148.86205454390225
3.69,0.0485789267179746,-0.2580210074485484,-0.6541436182757102,-0.0562578276240472,-0.0016313978479514,0.0151434273596406,0.0042755267107566,-0.0085418938054282,-0.9930193066681228,-0.1175629769045785,-0.10638709296675,-0.0604546914193036,9.866515025352193,-0.0035757441805578,-0.0287822863754303,0.0042680560992512,3.6328650127619566,4.902159583472192,1.1634217729055547,1142.107961961351,1130.6315020466009,1149.519252572205,1140.4844205146235,152.04116385403137,-305.8418247824713,933.0686137574248,156.2384493090609,148.8610229277714
3.6925,0.2592411256611877,-0.2262622133887858,-0.750119504937547,-0.0563319273420998,-0.0017198683229045,0.0137727951320493,0.0042539387189167,-0.0084756480187019,-0.9930192099755888,-0.1175693815629147,-0.1075251276342766,-0.0618371786335561,9.863622629125745,-0.0037560886993429,-0.0292886677285577,0.0043982472559026,3.632890620055792,4.90223347327268,1.1634322625107731,1142.580344732596,1129.502123289674,1151.6740514857088,1140.6029221869608,221.35940958558743,-646.8006825205539,802.032018596074,-84.0286951970427,148.86001797794987
3.695,0.5192953531801228,-0.1753709460550071,-0.8313827747032297,-0.0553496289537923,-0.0022091604220517,0.0113122114988393,0.0042487340860535,-0.008421559007596,-0.9930186711975276,-0.1175780807270298,-0.1089741093357238,-0.0624864069930538,9.860766250626336,-0.0039413582669695,-0.0297864031393274,0.0045175261939123,3.632918754732152,4.902309959252535,1.1634434855150868,1143.214759009279,1127.3974986339979,1153.5294126651856,1140.0642770386382,220.2945256087184,-867.2116965213587,531.541646143351,-296.50898648817747,148.85884048957013
3.6975,0.7239289778448352,-0.1126989506725176,-0.8546308131325887,-0.0534785574867839,-0.0029477495621355,0.0086042772402227,0.0042529237106984,-0.0083803250144453,-0.9930174821289796,-0.1175910142963815,-0.1105744694206042,-0.0623869694379153,9.857979121361932,-0.0041316204308887,-0.0302714750914015,0.0046259221764402,3.632949063097593,4.902387965439572,1.1634551609696666,1143.6818173606396,1125.1660648070667,1154.3317597164255,1139.12037725452,150.37562910620503,-943.7487342889855,163.39069666214877,-443.63123726489937,148.85788101819185
3.7,0.8969637739158614,-0.0201550435845992,-0.819586971551776,-0.0509379347847717,-0.0037571912184294,0.0056660096438156,0.00425780299174,-0.0083498715332287,-0.9930155055425112,-0.1176097784827569,-0.1121247928822067,-0.0615835136304541,9.855292828676426,-0.0043270200986446,-0.0307410060097682,0.0047235454199686,3.632980638928288,4.902467084408157,1.1634672821066805,1143.96663715481,1122.678754962553,1154.3463661484964,1137.8461208523136,74.45627849256357,-996.9310068847093,-106.76337450327308,-529.7718642124548,148.85694158725332
3.7025,1.0356809979973691,0.0974285200927932,-0.7372425124226508,-0.0482029285320961,-0.0043166652729457,0.0030903488674005,0.0042569563698887,-0.0083276653979119,-0.9930130569686448,-0.1176321087653563,-0.1134664518632455,-0.0601418761245851,9.852735139237737,-0.0045281770989035,-0.0311932922045358,0.0048106860215678,3.63301296055512,4.902546952020254,1.1634798966166031,1144.0540987531024,1120.1814097726435,1153.7979428439091,1136.4715179334576,-9.807430545606833,-952.9976071706391,-317.69938950192903,-533.3214779300873,148.85601669063882
3.705,1.1309239743890447,0.2358113151577152,-0.6114634364465255,-0.0455316212396971,-0.0042914515502444,0.0013001254983819,0.0042463141727662,-0.0083093557749856,-0.9930109371709152,-0.1176516962309795,-0.1144817637014731,-0.0581736999662938,9.850329294698367,-0.0047362668909335,-0.0316277998805453,0.0048877538444052,3.633045570390924,4.902626887686653,1.1634927002269264,1143.917600002082,1117.9137669267,1152.7578692009868,1135.1795134626634,-92.85993871080989,-889.4739717082492,-518.9454465931814,-509.6919012195139,148.85510658888177
3.7075,1.196912661110438,0.4042283969260732,-0.4359846881516231,-0.0423679159082967,-0.0032913030459996,3.696968255853673e-05,0.0042278584939819,-0.0082907610225403,-0.9930099912293252,-0.1176616267173675,-0.1151707444878602,-0.0558050847887475,9.84809192371739,-0.0049528365574643,-0.0320450692972295,0.0049553461232785,3.633077567054156,4.902705775328437,1.1635056929550285,1143.5897990595483,1115.7340399141024,1151.2032156109435,1133.9230584273603,-128.94148438986397,-678.7720883819164,-589.1883165103661,-397.04111578708694,148.85402774202007
3.71,1.2125272359664703,0.5285840172058154,-0.2879793400186328,-0.0394410677329066,-0.0018913704129984,-0.000444268128274,0.0042034607827526,-0.008268850612447,-0.9930104986658468,-0.1176596860356868,-0.1155324565485827,-0.0531428072701317,9.846034741133336,-0.0051793124837931,-0.0324465028106565,0.0050144201699789,3.6331082134402313,4.902783322354145,1.1635196228430256,1143.2728925801327,1114.5199064847905,1149.8119276184348,1133.194307883728,-118.64437429685748,-342.93719510415764,-552.5116441695563,-226.74139162132207,148.85313661944284
3.7125,1.1874550200021283,0.618146728013704,-0.1553493460488884,-0.0362735877277003,-0.0002350655478139,-0.0005531203575526,0.0041719019593714,-0.0082435797268056,-0.993012268228566,-0.1176475409681186,-0.1155121724017526,-0.0502298968085537,9.84416508599066,-0.0054168242080996,-0.0328339723461736,0.0050665175492466,3.633137258448631,4.902859188503557,1.1635335188069813,1142.996577188064,1114.0193539385816,1148.4406573900956,1132.7893514692537,-108.28156723883014,-62.002129727490185,-590.2121760406898,-124.45512595027404,148.8522493594306
3.715,1.1142652473089567,0.670369171104747,-0.0254996159898863,-0.0327489412207241,0.0019411996966827,-0.0004463177551717,0.0041321701767233,-0.0082156531837088,-0.993014641616115,-0.1176307536090839,-0.1150620231939839,-0.0470959637836709,9.842484302400548,-0.0056659593188954,-0.0332094282595601,0.0051135933467885,3.6331643311771016,4.902934214770771,1.163545988533408,1142.7314847439386,1114.209895836153,1146.8608667382316,1132.5720322539767,-95.27386004464726,181.27912827170488,-571.8915850998269,-57.169852664170094,148.851183264992
3.7175,1.0236893250058843,0.6607237131852634,0.0548248828326156,-0.0302526724518684,0.0038448107410662,-0.0002409494878241,0.0040853756262905,-0.0081873100091106,-0.9930166543272148,-0.1176172976988561,-0.1141820473542542,-0.0437451500600828,9.840986758513532,-0.0059265595863451,-0.0335744958836973,0.0051579081380014,3.633190132776748,4.903009092407153,1.1635570865383351,1142.5202078878408,1114.9257495799402,1145.5811994645965,1132.5035022059328,-102.64544431274076,368.2192645906732,-513.9637580660856,-29.479857986960095,148.85028891075447
3.72,0.911027463522225,0.5921877020948166,0.1060461230551437,-0.0281129671277088,0.0055293917064216,4.7252631662210826e-05,0.0040401389233911,-0.0081589234212969,-0.9930176357808002,-0.1176125259474364,-0.1130200500208421,-0.0402332542442239,9.839658044000906,-0.0061977975655295,-0.0339301943292788,0.0052014808231423,3.633215866830928,4.903085028758378,1.1635675420737939,1142.2182575223749,1116.0509921591065,1144.291047947901,1132.4246329640418,-151.31149875260556,492.9609705195267,-524.5522814607396,-46.0202653125644,148.8493820575135
3.7225,0.7852097846445617,0.4752804126706309,0.1347288855994842,-0.0261436244535922,0.0067098608162731,0.0004004581145594,0.0040087916063677,-0.0081321921262182,-0.9930172116847434,-0.1176190677211593,-0.1118063413455211,-0.0365963770053032,9.838476685752157,-0.006477955980315,-0.0342768045002028,0.0052461891279277,3.633243346282367,4.903163064672141,1.1635783991696835,1141.7636503940776,1117.3905544325376,1142.9584380572928,1132.27340087937,-229.01080937390847,563.2015741138849,-546.4210162505995,-82.25752380412989,148.84845965299192
3.725,0.6481326881682085,0.3012495371665385,0.1393467056246575,-0.0244203952517098,0.0075899372447776,0.0008204920124086,0.0039964410334515,-0.0081056521326312,-0.993015499607256,-0.1176358462437729,-0.1106313827172733,-0.0329131120945908,9.837419052902204,-0.0067643586525983,-0.0346139991788832,0.0052936546638508,3.6332736359217095,4.903243370721297,1.1635899216340035,1141.0732034755051,1118.8670000296759,1141.558942866648,1132.0133453450212,-353.7104932630503,656.9732904273363,-626.8463519444729,-131.60784742358655,148.84751167042555
3.7275,0.4763425587220171,0.0266884448402916,0.1226008990806292,-0.022757335873295,0.0088685355825913,0.0013176091350462,0.00400502406306,-0.0080789125093728,-0.993012942459105,-0.1176590766658517,-0.109536068388177,-0.0292315827464536,9.83645839365482,-0.0070535061482072,-0.0349410611758704,0.0053454976290906,3.6333074607026954,4.903325263057464,1.1636012728631395,1139.9950979277623,1120.6754208846744,1139.8242062975703,1131.615361642252,-419.4866951510992,652.7998037432692,-636.0258267362177,-147.44075520893915,148.8463351969449
3.73,0.3317734987890558,-0.2521367805266732,0.0954240593000066,-0.0216825344240651,0.0098082124326573,0.0015700837862423,0.0040316268138499,-0.0080566459110029,-0.9930099566916488,-0.1176850120942123,-0.1084888395873379,-0.0254884546639986,9.835566063349761,-0.007341174733978,-0.0352571269823666,0.0054036633892699,3.633345368150221,4.903407538815324,1.1636110616672528,1138.97576999975,1122.130999048392,1138.378813732967,1131.2761415689763,-398.66659269215165,548.9796059321751,-560.1066692585965,-119.49711961019857,148.8453159299582
3.7325,0.1924780659942802,-0.5619275348953156,0.0615683535276626,-0.0210127990884971,0.0096449772968309,0.0014704473739833,0.0040678755770053,-0.0080407871219614,-0.9930068368287692,-0.1177113041887806,-0.1073561970026587,-0.0216603164700066,9.834713443771268,-0.0076227048411727,-0.0355614457379382,0.0054697832278647,3.633386381556072,4.903489524912783,1.163619159719932,1138.0017649643019,1123.4203189143352,1137.0236729512776,1131.017876044201,-371.51083959821216,499.02145065994927,-547.0351375664112,-79.94653021251166,148.84424994646906
3.735,0.0408711420576288,-0.9243475466108764,0.0182131688150653,-0.0207647370807843,0.0075743194629494,0.0011669739277268,0.0041070726768247,-0.0080312783506322,-0.9930036453546894,-0.1177376486084421,-0.1060438106819546,-0.0177656698609971,9.83387081604796,-0.0078934256578514,-0.035853428254505,0.005544816320884,3.6334294722101976,4.903571477230544,1.1636266988178363,1137.1182158017589,1124.6261063016918,1135.643638045135,1130.876408917914,-246.6666234727033,365.344860148546,-442.49231773839455,-21.47463626520076,148.84291127688263
3.7375,-0.065663316944623,-1.179483296380595,-0.0210433738729598,-0.0209785414348826,0.0044636980049681,0.0009818553960302,0.0041452192475794,-0.0080250983111188,-0.9930002984995115,-0.1177650890096505,-0.1045137397110838,-0.0138858182722208,9.833008779061238,-0.0081490000903478,-0.0361326317022944,0.0056287521421754,3.6334743626838546,4.90365434745627,1.1636344793234967,1136.7684318469383,1125.247043215078,1134.8112113625855,1130.910502862875,-38.81729826848378,154.48853306651338,-244.83074215116343,35.14384214235851,148.84174341380924
3.74,-0.1456561602383562,-1.3442695199095844,-0.0690667945347563,-0.0214966521433353,0.0005478395803395,0.0009768583139785,0.0041777510512872,-0.0080224945162545,-0.9929968475473688,-0.1177933327619424,-0.1027341520383323,-0.0100345316570634,9.83210045916085,-0.0083857755498875,-0.0363986711042039,0.005721045266429,3.6335208154838794,4.903738330989688,1.163642661676443,1136.9241293104164,1125.3985489670245,1134.4194843343791,1131.0521281286256,183.9783606082204,-40.0590127159839,-58.83728218700652,60.8312371600745,148.84051950973986
3.7425,-0.208769702678547,-1.4051172615535952,-0.1440527336298584,-0.0224236662586778,-0.0046727184576123,0.0011321831515891,0.0042008751871589,-0.0080247026042206,-0.9929936299090788,-0.1178195842567519,-0.1006984448775806,-0.0062050246265166,9.831122799326423,-0.0086010082164792,-0.0366513170756252,0.0058204337355589,3.6335688114513167,4.903823463305497,1.163651241105598,1137.688323649979,1125.046748151498,1134.5170249516505,1131.2146590486755,357.7135528181392,-204.44250907658423,127.12334054531583,33.837534644681725,148.83898591732563
3.745,-0.2365650753162765,-1.3316846636273791,-0.2228475444922887,-0.0234239946095484,-0.0091806070887001,0.0012485279146507,0.004215603550541,-0.0080303915100682,-0.9929908128593496,-0.1178424834892153,-0.0984932355725198,-0.0024492573234662,9.830057121218621,-0.008792719808255,-0.0368907228680066,0.0059246089704492,3.633618119136416,4.9039092121306735,1.1636604903048846,1138.712697074507,1124.3763364216416,1135.0551010371055,1131.2213158018492,450.8208768580613,-320.37677140838923,294.3252478513449,-49.966957376410555,148.8376550160598
3.7475,-0.2485248599477228,-1.1364141677831863,-0.3130386046326426,-0.024418363324519,-0.0131762242505109,0.0010264405922961,0.0042237766578683,-0.0080361425898183,-0.9929883592532152,-0.1178625112889618,-0.0962193004728557,0.0011411512458561,9.828891794819873,-0.0089597228830865,-0.037117506533937,0.0060303962044665,3.6336684892772495,4.903995119435342,1.1636713437553219,1139.9424280342696,1123.4448642944562,1135.9886511909071,1130.9648242617934,489.0829926177152,-392.7203222631389,421.61197140895626,-155.65298772053544,148.83627207247733
3.75,-0.2603363779920537,-0.859810866766284,-0.4023945031945236,-0.0251484685208294,-0.0163233239880949,0.0002381082120725,0.0042269700584538,-0.008037297286473,-0.9929863386900772,-0.1178793484715804,-0.0939695888884998,0.0044552674158387,9.827623414761732,-0.0091018933256194,-0.0373327091444184,0.006133988686754,3.633719478271495,4.904081209726396,1.163685071922246,1141.1581120375956,1122.412734810326,1137.1631608941505,1130.4430508632463,438.4895765628337,-408.7182307123017,503.99448372319216,-265.9986240208184,148.83484886732808
3.7525,-0.2916173845119561,-0.5224553815392367,-0.4747622577202425,-0.0253826787906996,-0.0181505003176556,-0.0011984668062819,0.0042266202991593,-0.008031970427418,-0.9929848637297388,-0.1178921318718089,-0.0918380349854452,0.0074413409181216,9.826256602443326,-0.0092202187218487,-0.0375377072748329,0.0062315335890485,3.633770622611955,4.904166625573274,1.1637019101950903,1142.1348759170835,1121.4012731408948,1138.508623609523,1129.6348311416891,329.9793324286454,-406.82354277756485,599.7219105501372,-391.2996085803199,148.83338071737367
3.755,-0.37346907808876,-0.1039545709938952,-0.5250788478177201,-0.0254611506960099,-0.0186095436132984,-0.0032213214085907,0.0042215885662185,-0.0080186232548914,-0.9929840419074922,-0.1179001068288344,-0.0898634520997226,0.0100653148545668,9.824804930999225,-0.0093167271885041,-0.0377341334620479,0.0063194256136432,3.633821009886233,4.904251423690557,1.1637208366497118,1142.8080086997388,1120.378617096438,1140.161770446901,1128.4865528203447,147.06531718515097,-323.4976822391909,589.3040203467592,-418.53856033182547,148.8315714568965
3.7575,-0.4864305210865974,0.2160753059161304,-0.5303937409948158,-0.0258353658610392,-0.0175963459328842,-0.0047443129344766,0.0042142354027681,-0.0079933264111785,-0.9929838468230756,-0.1179036760183707,-0.0881389626388653,0.0122433644167639,9.823288782376164,-0.0093943987611331,-0.0379237697896057,0.0063942972826806,3.6338698725369896,4.9043367705293806,1.163741037821664,1142.8702025030095,1119.7837847296987,1141.455143711257,1127.54213834003,-75.21340411507883,-170.2765058723229,471.9670213911877,-336.3332827602108,148.83002731353335
3.76,-0.6437831965608644,0.469308123537485,-0.4967536526142932,-0.0267425528592743,-0.0154052543572956,-0.0060500256729589,0.0042097211784318,-0.0079562115766376,-0.9929842168978757,-0.1179031540499984,-0.0868108312520724,0.0139698033774009,9.821733557604231,-0.0094570757218728,-0.0381083199656681,0.0064537373051769,3.633917805261007,4.904422826603354,1.1637617848397497,1142.4319416791634,1119.5272345670764,1142.5216055538572,1126.8048864065438,-276.60368615480047,-32.68769510405106,384.98506954916496,-246.33878338818772,148.8284489632428
3.7625,-0.8700716983094722,0.6768970117930759,-0.4140189223896304,-0.0284527804833175,-0.0121658821019642,-0.0076332874376885,0.0042116699408422,-0.0079085409961756,-0.99298482958218,-0.1179010328735356,-0.0859849170032836,0.0152693197533163,9.820169928527402,-0.0095090137138014,-0.0382894359485625,0.0064963212678916,3.633965339556,4.904509021513832,1.163782562853073,1141.4871840722356,1119.6203462541785,1143.3800690590028,1126.3104444230892,-379.766315686228,92.99178168444284,224.1104109169148,-111.4741762474774,148.82651940181475
3.765,-1.0739776164789037,0.7745568922322144,-0.3139741842936658,-0.0304568011689671,-0.0097627391156847,-0.008679381481928,0.004222613069321,-0.0078512899942266,-0.9929855152929932,-0.1178985805366728,-0.0857305730618041,0.0161687646844263,9.818632120594897,-0.0095549999026496,-0.0384686410410415,0.0065215324442252,3.6340129440555593,4.904595692029307,1.1638036997136643,1140.5331101007323,1119.9921934754987,1143.6421576084415,1126.2475155253064,-367.58873405152247,191.58634666378427,-4.573286834193011,32.3305744926081,148.82488462948092
