t,ang_acc_x,ang_acc_y,ang_acc_z,a_vel_x,a_vel_y,a_vel_z,quat_x,quat_y,quat_z,quat_w,acc_x,acc_y,acc_z,l_vel_x,l_vel_y,l_vel_z,pos_x,pos_y,pos_z,mot_1,mot_2,mot_3,mot_4,dmot_1,dmot_2,dmot_3,dmot_4,vbat
0.0025,-2.9727393080384603,7.242595017004211,-1.7908187904845143,-0.1650443990659236,0.1536689544419941,0.0018854832979202,0.0039750375352191,-0.0095098827437683,0.0192861244856738,0.9997610991474614,0.259950668891789,-0.1026577721539284,10.689684164888831,-0.0873786145633828,-0.0160725645308817,0.8211614176934652,-0.7288880993462348,1.0492882605461895,0.192271539242424,1182.1025263312777,1207.2554235868176,1243.5830777390893,1120.7553434254983,-866.4025011308696,-120.096936815753,-760.90716427816,201.52337065119357,162.19258072483913
0.005,-3.154005019055397,6.841308120334001,-1.8051274388715963,-0.1760679803437603,0.173124069607921,-0.0020875875013733,0.0038438719509978,-0.0092108203505146,0.0192959060135767,0.9997640358104724,0.2507179173909686,-0.0938237763469935,10.691594267544787,-0.0878740726653102,-0.016438398419337,0.8233079041165795,-0.7291420424111257,1.049230831218294,0.1943236254932944,1179.9365200784505,1206.9551812447783,1241.6808098283939,1121.2591518521263,-969.7703093518611,-156.49652165338924,-744.3953946698458,365.58744865265,162.19704170659267
0.0074999999999999,-3.079389568926161,6.190372814988434,-1.7544810304174896,-0.1862998627064822,0.1907721659474975,-0.0067011132035553,0.0037120048893783,-0.0089193516829002,0.0193017066949814,0.9997669494280093,0.2416274520483523,-0.0849939661061154,10.693499772781536,-0.0883582114887939,-0.01680363730967,0.8254582832218789,-0.729397549581819,1.0491722207169167,0.1963783703290903,1177.2536747845184,1206.4729409785507,1239.86110076574,1122.5832806687615,-1297.1035711914735,-242.75761974636225,-810.5274075877331,693.2184853769741,162.201158464898
0.01,-2.740257597491044,5.212296544349568,-1.592635133866168,-0.196443622175038,0.2084165202342177,-0.0129045730822702,0.0035720109624133,-0.0086388419306183,0.019300013062207,0.9997698785436074,0.2327331880080447,-0.0763228887437211,10.695399881991587,-0.0888245301732415,-0.0171776920232946,0.8276145662952125,-0.7296552133786958,1.049111678521247,0.1984360201959255,1173.4510022224931,1205.7413931460464,1237.6281727904552,1124.7252442790111,-1474.8964800588963,-281.85324150895207,-845.7732165139531,816.8598504209056,162.2057049417315
0.0125,-2.3134314257703408,4.321961829339745,-1.3652987088837802,-0.2024295514920162,0.2195046515598764,-0.0178969545681578,0.0034147503395936,-0.008364698677969,0.0192872794739284,0.9997729385008424,0.2239154342733911,-0.0680044911855052,10.69729658559588,-0.089279845749735,-0.0175716503913656,0.8297768610438014,-0.7299142527797243,1.0490480603504995,0.2004982653746052,1169.8791923842239,1205.063674771006,1235.6322346831703,1126.667579920866,-1476.02888175893,-272.6165700823004,-835.562992441055,749.4949504565285,162.20916805640078
0.0149999999999999,-1.823686531849536,3.4638792397800127,-1.0539557822464238,-0.2055888249650738,0.2268418989061445,-0.021510392869922,0.0032349110828328,-0.0080879416337454,0.0192631324420214,0.999776208324162,0.2149610305752323,-0.0601584446485421,10.699192476664894,-0.0897387425016935,-0.0179889037124944,0.8319439082338037,-0.73017404333078,1.0489811475451172,0.2025649352912166,1166.0708578136985,1204.3783102956347,1233.45035782825,1128.4727190312935,-1526.5590442115351,-271.19878638063705,-896.9367734117893,671.8202882130753,162.2122951692731
0.0175,-1.3354921733927776,2.700929959520886,-0.6960812937322473,-0.2068987565350635,0.2318517560789584,-0.0235825738075159,0.0030330128364902,-0.0077970245370874,0.0192320370767344,0.9997796740394346,0.2056051029061058,-0.0527901649378835,10.70108945985048,-0.0902208027990443,-0.0184218564687623,0.8341133013135105,-0.7304329989609197,1.0489117721667611,0.2046355326496575,1162.246397163166,1203.7076808391027,1231.147550816111,1130.0266813619314,-1487.0477569766078,-269.92853814463155,-926.9686405745231,551.1816672682925,162.2151444424003
0.02,-0.8809077957336972,2.1018735724529556,-0.3152673373280471,-0.2071702005195308,0.2354317183880182,-0.0242145538868313,0.0028089306129944,-0.0074869300856455,0.0191956947721332,0.9997833241281656,0.1957246221911486,-0.045933217583006,10.70298660716818,-0.0907353579311658,-0.018864764053042,0.8362827001541695,-0.7306906305390193,1.0488398334332487,0.2067127347686193,1158.6356190288154,1203.0286676049116,1228.815514625377,1131.2286273676352,-1486.3551277665017,-321.4801264182826,-989.1609328541568,456.4955871471286,162.21765883767029
0.0224999999999999,-0.3669782499463304,1.5912446531858475,0.1321093120492695,-0.207961293049413,0.2395371011181143,-0.0241607579525538,0.0025669373809614,-0.0071601528110437,0.0191575714990371,0.999787041984664,0.1853634001789145,-0.0395427815975474,10.704879935335704,-0.0912795756098779,-0.0193048063810639,0.838450222719923,-0.7309470265878527,1.0487664312844103,0.2087978397640551,1154.8146215243337,1202.100280207011,1226.2017461518403,1132.309159297667,-1288.3936998144231,-381.16071682175055,-891.2838473228928,350.6990796809532,162.22028855610753
0.025,0.0631917194449765,1.3310036631048687,0.4763219683441916,-0.2093294200482988,0.2432258387156285,-0.0236935183883455,0.0023101651215299,-0.0068231894684275,0.0191198944381294,0.9997907116907828,0.1746562027624766,-0.0336118190579247,10.706764393028942,-0.0918440658921942,-0.0197320438067465,0.840613875652853,-0.7312033614635743,1.0486920506294797,0.2108928740983811,1152.1936505297433,1201.122864020803,1224.3590953887629,1132.98212276604,-916.8927672674268,-458.5701518161385,-627.2890543722496,242.55067283347665,162.2221565929964
0.0275,0.527908882397344,1.225925556756696,0.7666164625079752,-0.2104095320897934,0.2468580777603003,-0.0225721613788995,0.0020425934806488,-0.0064807483710066,0.0190871139789643,0.9997941908413284,0.1637073385198961,-0.0281251421691492,10.708634698674151,-0.0924225329625513,-0.0201354153810703,0.8427711168106312,-0.7314605841996046,1.0486170702956057,0.2129995020142031,1150.2301576879963,1199.8074294479306,1223.0653008799793,1133.5219126618344,-718.8931886445065,-673.8160641451035,-411.12322804019664,231.2682399287952,162.22368835259908
0.0299999999999999,1.1337156735837572,1.268501133949948,1.0178826172252533,-0.2096004791053766,0.2506330489670152,-0.0199990883087405,0.0017715593719145,-0.0061312595265643,0.019060789932708,0.9997974310645285,0.1524962088696604,-0.0230013396897258,10.710484458014932,-0.0930191316779578,-0.0204994652411796,0.8449188982502178,-0.7317188338441786,1.0485408826067737,0.2151167308402571,1148.5991845865208,1197.7537837000775,1222.3034792485619,1134.138463965684,-496.15735727070376,-830.8973469880128,-141.08314233658345,239.25615660673424,162.22513687859944
0.0325,1.6619917607418042,1.4425412936606243,1.1179071272923,-0.2065101413022567,0.2532051969406796,-0.0167215078491984,0.001502061696423,-0.0057744738484709,0.0190373175563154,0.9998004838674384,0.14103812182889,-0.0182153237324742,10.712303572566087,-0.0936359380003536,-0.0208147606372283,0.8470556211586306,-0.7319784621974512,1.048463407601567,0.21724332055207,1147.749370901643,1195.6529427129904,1222.3598851682964,1134.718193444868,-268.59886843963045,-900.373059455159,150.26319999665233,266.7030883512323,162.2260186491313
0.035,2.1817372846151724,1.754311657013264,1.076438130210555,-0.2011558589820538,0.2554263558306106,-0.0126337059740776,0.0012414855706046,-0.0054116470187178,0.0190164358142097,0.9998033296556222,0.1293920179084087,-0.0136947473777249,10.714075696636357,-0.0942730036012369,-0.0210684735103379,0.8491820444487701,-0.732239413100131,1.0483851100249797,0.2193763649616534,1147.2561902443226,1193.2519184028015,1223.0547952485451,1135.47197940744,-168.61933577806676,-979.7243671778691,354.4275408447904,342.31301100658146,162.22656181393833
0.0374999999999999,2.6722353132053622,2.162084232937387,0.9099346291484328,-0.1943498331991238,0.2581222380730348,-0.008500102293696,0.0009997796832609,-0.0050422085067433,0.0189999449176798,0.9998059216464232,0.1175897531493749,-0.009311148430491,10.715776704838376,-0.0949341215232035,-0.021244364952621,0.8513010016721707,-0.7325004670327989,1.0483068600137695,0.2215116891906827,1146.9062742227527,1190.7543208771012,1224.1320228725203,1136.429758499901,-142.90057486709892,-969.7562355555879,469.8520551092317,436.9600891065604,162.2268234172444
0.04,3.1138363718987057,2.636401208746003,0.6076775785675806,-0.1865141105162818,0.2627256635142142,-0.0052274432465832,0.0007824901432238,-0.0046684820057243,0.0189866669984404,0.9998082634341116,0.1057337285106167,-0.0050274985905,10.717373680118424,-0.0956189015262453,-0.021335886473047,0.8534177708469824,-0.7327600210393562,1.0482294841758744,0.2236462104817315,1146.5416873699871,1188.4031372250236,1225.4040555240913,1137.6567798529727,-206.40805900711692,-921.5738529939692,522.5906060930351,592.4448346011097,162.22674448788234
0.0425,3.5880276723982663,3.18879761165951,0.1387156510763315,-0.1769274784482665,0.2712135184850009,-0.0032104914301392,0.0005904267811467,-0.0042940035322993,0.0189756439860907,0.9998103563599468,0.0939608404812772,-0.0009015224113185,10.718824478840125,-0.0963256156943011,-0.0213461650405602,0.8555390251045037,-0.7330164270391171,1.0481555079376272,0.2257785554954131,1145.8742339277171,1186.1464516121312,1226.7449759029855,1139.3919826729064,-305.6298246627195,-676.918551173549,399.14648603366936,662.7187367935225,162.22625525657077
0.0449999999999999,3.942994153961596,3.55893810279424,-0.2875705912617185,-0.1691053997744262,0.280390920897623,-0.0034636604232332,0.000419420325295,-0.003921296329287,0.0189638980827148,0.9998122495459872,0.0823932417460132,0.0029129166762632,10.720077894382245,-0.0970545260858554,-0.0212886739862155,0.857671330915204,-0.7332689346221646,1.0480864546122433,0.227908292613574,1145.0135382466735,1185.018544469156,1227.3997879542596,1140.9703735369403,-419.5120506640708,-243.1713037103692,101.64677955899612,630.4076708710003,162.22551925252665
0.0475,4.253073886687068,3.7551808023936815,-0.6821107296737944,-0.1609637210258484,0.2911966804239041,-0.0056786021580924,0.0002681852679171,-0.0035480372613541,0.0189514235553692,0.9998139526503848,0.0710586269028157,0.0063385014796748,10.72107262549037,-0.0978138844155825,-0.0211722174605355,0.8598195639501305,-0.7335174756410681,1.0480229030717738,0.2300371756871632,1143.7766736743968,1184.9305950935795,1227.2532098007805,1142.5440210272616,-552.9450356051707,155.56415804721823,-225.72860668710723,605.1209173520414,162.2244445177164
0.05,4.505342741852565,3.7665028231472615,-1.0057192775177968,-0.1517214333333631,0.3028197843095484,-0.0091430075401112,0.000131610502957,-0.0031657329538766,0.018940470596996,0.9998154559533016,0.0598566213837957,0.0092331704936444,10.721739764986983,-0.0986218434649049,-0.0210118892618787,0.8619852277249226,-0.7337630411093681,1.0479635789158228,0.2321692434391765,1142.2488130686477,1185.796365259392,1226.271144920824,1143.9959781237008,-661.0818688342537,567.413972285249,-613.0246579458801,524.4009249645844,162.2230914600123
0.0524999999999999,4.640417810456702,3.5410888464245205,-1.208918251918773,-0.1403929944518217,0.3141119935841132,-0.0132017865429125,7.057754612729068e-06,-0.0027675184749155,0.018930070455041,0.9998168041891532,0.0487241939254773,0.0115227277051287,10.72200323146429,-0.0994920768974235,-0.020819054465951,0.8641675883503016,-0.7340075335925088,1.0479073456215864,0.2343090148303858,1140.4712643302255,1187.7676649550056,1224.188086511051,1145.1660256520845,-801.3982593505267,1074.9246637138644,-1163.2965794185116,422.88084239407925,162.2214072804996
0.055,4.598609637255849,3.02985049085338,-1.2967012220837768,-0.1248699465716347,0.325539964379193,-0.0179681154564016,-0.0001098587390231,-0.0023522999489972,0.0189178063482568,0.9998180517027438,0.0377195284283945,0.013108905217032,10.721783862408431,-0.1004263881273833,-0.0206079817696003,0.8663642889274283,-0.7342526564769518,1.0478529245390484,0.2364598726669974,1138.241821771895,1191.1709885779615,1220.4546620237315,1146.1103823356711,-803.7845148403896,1367.5330897385254,-1546.320488125592,261.0956189053011,162.219011151717
0.0575,4.359499868375337,2.4569027774897414,-1.2440076908756283,-0.1116176678218742,0.3325623108305799,-0.0218376137942013,-0.0002204994555316,-0.0019262004599464,0.0189013155836924,0.9998192326712574,0.0270514794643294,0.0139707627897198,10.721001832948428,-0.1014118354443455,-0.0203871098349546,0.8685724483349692,-0.7344996304736152,1.0477997377070047,0.2386222326564846,1136.4523417560235,1194.6053304036984,1216.4564840704231,1146.471503746611,-673.1293013881444,1426.9373595708207,-1727.244124039954,64.36934994467268,162.21670875828144
0.0599999999999999,3.9042002925427775,1.81203136430154,-1.0804408277893627,-0.0995310382069541,0.3367533737361878,-0.0254060070606156,-0.0003224497995244,-0.0014991750179205,0.018878532522747,0.9998203665486252,0.0170034906037055,0.0141811765102265,10.719579454657268,-0.1024265311264014,-0.0201574082076844,0.8707889128381034,-0.7347498670778755,1.047747991905822,0.2407960982675774,1134.8761752649543,1198.3056753758156,1211.8184414035316,1146.4322290853945,-628.0234063268384,1614.221697805534,-2104.8916921404734,-76.249319075032,162.2140990414431
0.0625,3.153161537550311,1.0428708744342183,-0.7959787890371409,-0.0876149151780871,0.338909982326849,-0.028781518977298,-0.000418977460032,-0.0010786501343829,0.0188483722361819,0.9998214581658098,0.0077899778740351,0.0137053486448123,10.717445165822818,-0.103451281952478,-0.0199283809903169,0.873009490978966,-0.7350047120112408,1.0476970129259011,0.2429826912185938,1133.3122247243891,1202.676438892726,1205.9320256097208,1146.0902571512358,-520.5141425140932,1547.273879766361,-2146.953993314444,-138.78671781212677,162.2106250268996
0.065,2.415917205730724,0.4517611830464636,-0.5241539430173485,-0.080597736395097,0.338947919091189,-0.0304994628962377,-0.0005159227360724,-0.0006698111790998,0.0188097769395239,0.9998225172502888,-0.0004394821652167,0.0124656362918883,10.714533914016192,-0.104469489977956,-0.0197129407951181,0.875230125603976,-0.7352649825481069,1.0476451284209138,0.2451809550975675,1132.2736045523839,1206.0420447746471,1201.0836714369595,1145.7382954963339,-376.78264078585886,1252.9778307379715,-1857.5551527360387,-108.12530539687933,162.2074545815183
0.0675,1.6477757198132856,-0.0623984315591059,-0.2677330733983002,-0.0769967379206491,0.3380741044218072,-0.0307155614453336,-0.0006142932760062,-0.0002754920929274,0.0187630624024369,0.9998235334656314,-0.00760137337218,0.0104986548324461,10.710785974204688,-0.1054678460931216,-0.0195143181542154,0.8774481008973349,-0.7355299126094423,1.047591828146104,0.247386005553161,1131.42831152046,1208.941328046416,1196.6442498460403,1145.5496306242514,-325.4163672425417,1067.1731058628657,-1668.872646362477,-17.681139657815933,162.20401033576243
0.07,0.912202033268357,-0.5142258404041236,-0.0592426264317634,-0.0756681776200105,0.3369339243658889,-0.0298305639663437,-0.0007128626522939,0.0001094403444807,0.0187103978721985,0.9998244677841552,-0.0138006402900591,0.0078999813938974,10.706147145238296,-0.1064470131525403,-0.0193304992143312,0.879661185295577,-0.7357981378108864,1.0475376436513186,0.2495920315420409,1130.6465227161711,1211.3779103039617,1192.7393082051472,1145.6498897980448,-323.45741556168895,854.8351394563285,-1407.8438592693628,134.9734080045894,162.2003483324726
0.0724999999999999,0.2631353176044263,-0.9063009453314465,0.0643785688777893,-0.0759646375951627,0.3356390899951169,-0.028443729404202,-0.0008133726967294,0.0004960518481864,0.0186556554995243,0.999825250508704,-0.0192892082178203,0.0047100548358502,10.70057042568342,-0.1074188904087894,-0.0191637222204002,0.8818674937917269,-0.7360688370048599,1.0474833285949223,0.2517960304996881,1129.8110244426516,1213.2155037436976,1189.6050305496935,1146.2244976642744,-409.9608150024332,666.9053857986468,-1196.4603477491914,376.98126943764765,162.19643532876108
0.0749999999999999,-0.3889033517638069,-1.3267121885055475,0.1062430810284939,-0.0772891452557304,0.3333044631101951,-0.0269226614458664,-0.0009185745302774,0.0008901089556918,0.0186041965138512,0.999825785753196,-0.024223976426553,0.0009500044623327,10.694018086435053,-0.1083871573052252,-0.0190176948478773,0.8840670396591274,-0.736340972142876,1.0474290837732927,0.253998140436137,1128.5967186411588,1214.7124372329547,1186.7570064664012,1147.534796145233,-496.2018608326612,431.9016015197117,-905.6450164021944,582.8146445279339,162.1914649720449
0.0774999999999999,-0.8254023105948635,-1.6404158003430127,0.0635565831187389,-0.0787191504710387,0.3299918123651117,-0.0260075506831781,-0.0010310713424596,0.0012865476170707,0.0185580913991689,0.9998260421852035,-0.0285480088778345,-0.0033579097116807,10.68646408501852,-0.1093373295391839,-0.0188969121847991,0.8862619102971203,-0.7366133368934074,1.0473749715599536,0.2562010794975254,1127.3300151384883,1215.375011751296,1185.0768054676828,1149.138570886914,-568.0454929627554,148.62794026776086,-557.9461178893775,736.1484765938706,162.18710564639352
0.08,-1.157498584955332,-1.9138623831123565,-0.0315313890281673,-0.0803390994638157,0.3249764853835249,-0.0257449050713864,-0.0011542701141143,0.0016776167599043,0.0185202590605055,0.9998259751296252,-0.032162395594684,-0.0082080584763948,10.6778951022301,-0.1102512022400027,-0.0188073041500761,0.8884536059233469,-0.7368852454927476,1.0473212170199009,0.2584085842842259,1125.7564911763452,1215.4555769342935,1183.9672758769543,1151.2155385282024,-758.5295742549526,-86.23772360465402,-398.99895035564407,1001.5974667671334,162.18253493587588
0.0825,-1.4343304927516327,-2.1981404284072807,-0.1636962534288049,-0.0833132254130699,0.3180501557349327,-0.0263318161212973,-0.001285309754611,0.0020597397408025,0.0184900765185145,0.9998256067407972,-0.0350684130534802,-0.0134595834590001,10.66831025287338,-0.111118519787838,-0.0187444572456029,0.8906413384875334,-0.7371567021287699,1.0472689160248487,0.2606219208630157,1123.5373672672135,1214.9438231332729,1183.0818107159043,1154.1465582207495,-855.8947627810985,-272.1622941145595,-280.80389987262583,1128.9749683183336,162.1768221326016
0.085,-1.5522152478192155,-2.411662610847498,-0.2581527638963093,-0.086908189296363,0.3123301515805898,-0.0274605183042915,-0.0014226221805904,0.0024312220008926,0.0184626457437075,0.9998250359336748,-0.0373182249431985,-0.0190002462971166,10.657725619696004,-0.1119330653061774,-0.0187072097501214,0.8928220687429104,-0.737429031856558,1.0472185523629491,0.2628423099055805,1121.4770173624397,1214.0947654637207,1182.5632563775912,1156.860413369794,-843.110523729728,-395.3159360431524,-191.1691905062069,1116.1423783080854,162.1718827072635
0.0875,-1.5336918520595904,-2.625680487876936,-0.3073941442699882,-0.0911631257475601,0.3067769035236896,-0.0289411024296843,-0.0015577525585346,0.0027915022400224,0.0184369789383455,0.9998242966748913,-0.0389902675803725,-0.0245723762318622,10.646175588517952,-0.1126913517940575,-0.0186811327039382,0.8949911126904072,-0.7377037914115817,1.047170410784095,0.2650710010636069,1119.321814648565,1212.967243453057,1182.1259647633735,1159.72727011229,-854.2651427389517,-465.2175395978256,-175.89063366122025,1149.4073801031868,162.1667698718894
0.0899999999999999,-1.3905419443441709,-2.8572810471562935,-0.306569796955425,-0.0955966315671568,0.30112869136664,-0.0304580861613105,-0.0016866099099772,0.0031375106980678,0.0184133468570527,0.9998234026556811,-0.0401131089607414,-0.030015915584263,10.633717995404844,-0.1133865590270068,-0.0186590508622897,0.8971428024369008,-0.737981101651857,1.0471236706133067,0.2673095602474366,1117.2056916487447,1211.7686777657318,1181.683803209285,1162.60745027031,-805.6611768369763,-455.69498781260415,-187.1165233044852,1122.8831224766075,162.16152138348477
0.0924999999999999,-1.0942519364980432,-3.119996174179592,-0.2423610938486279,-0.0998773664473794,0.2950167832224096,-0.0318141442960285,-0.0018098846107486,0.0034682372446491,0.0183874526376948,0.9998224452622382,-0.0407602587713298,-0.0352769103889459,10.620434845575923,-0.1140168082940652,-0.0186428490653455,0.8992699699459228,-0.7382593785487278,1.0470776146003644,0.2695584800518311,1115.29350876438,1210.688768513994,1181.190382146851,1165.3416857246732,-754.0024353096662,-407.2598584143176,-233.56001472129697,1124.4460218754275,162.15611808953062
0.095,-0.580333522224844,-3.464006697913603,-0.1026800923404285,-0.1039131423180511,0.2867437092712007,-0.0329126222354201,-0.0019273129369639,0.0037835655901527,0.0183542707155728,0.999821538304896,-0.0410183329541247,-0.0402862114783318,10.606432611311982,-0.1145832776826396,-0.0186323522970898,0.9013650975110672,-0.7385368348185501,1.0470321060033099,0.2718161112128779,1113.4356794721966,1209.7323784736602,1180.5160031356786,1168.2296803796871,-581.7452209133529,-282.0579092397563,-261.57888498400985,963.5212325636977,162.1494651535382
0.0975,-0.0527518821937639,-3.754432883035324,0.0495564598803133,-0.1054973363796477,0.2788797533007856,-0.0330871198323132,-0.0020380617365342,0.0040840135659157,0.0183128074990522,0.9998207322832284,-0.0409772369120231,-0.0449683143790529,10.591842642960048,-0.1150899408406798,-0.0186249491640216,0.903420957042634,-0.7388125273046448,1.0469861905800875,0.2740810837536065,1112.3847826598133,1209.2784789677953,1179.882487721931,1170.1592918874917,-291.7456775076059,-121.97953058375776,-267.3008379526889,647.6125756083087,162.1437865559161
0.1,0.521202422663507,-4.009795742050724,0.2145835766930171,-0.1048005116111388,0.2694703002075807,-0.0323772526021795,-0.0021420731186184,0.0043683156318061,0.0182638535256929,0.9998200639038712,-0.0406768466420137,-0.0492721119251857,10.576821229772547,-0.1155389916609871,-0.0186186817680884,0.9054315053103548,-0.7390855829090847,1.0469392495406067,0.27635122537159,1111.9769510846584,1209.1224808207414,1179.1794989459152,1171.4677432577287,-44.9876946701806,-40.04343899523516,-291.06105935870767,412.2374063723779,162.13797483779544
0.1025,1.086343864748706,-4.201922021586568,0.3735080500686026,-0.1022884125189633,0.2584920414476099,-0.0310619248424948,-0.002246123342032,0.0046386825654071,0.0182082500899823,0.999819554037873,-0.0402184736815705,-0.0532977113925643,10.561547715981444,-0.1159401845969412,-0.0186236522634306,0.9073905832524573,-0.7393554575594087,1.0468925506290545,0.2786261549311145,1112.1598441864624,1209.0782617728191,1178.4271824251375,1172.2204789193536,217.2384113730008,-37.61473842500897,-309.7140637427407,170.17798403312585,162.13205692328197
0.1049999999999999,1.5892683121037188,-4.286030294275896,0.5126431785923466,-0.098095305474688,0.2463782438641384,-0.0293644413123257,-0.0023539781833376,0.0049000533119325,0.0181478651445688,0.9998191974698836,-0.0397427829825273,-0.0570885864382828,10.546221278067328,-0.1163088454143181,-0.0186441694101941,0.9092924815514988,-0.7396222055879272,1.0468486997076467,0.2809059392976577,1113.0631431415236,1208.9344071286164,1177.6309286272015,1172.3186331778943,549.0735648854308,-147.32600690013015,-354.75235282078825,-91.59361048823502,162.1260157028742
0.1074999999999999,2.070337625784717,-4.252517068512136,0.653112124121731,-0.091747702992404,0.2322638931693631,-0.0272533247434339,-0.0024669207307292,0.0051574544510927,0.0180855175747721,0.9998188882065496,-0.0393731128525627,-0.0606446383365876,10.5310587965906,-0.1166606708556908,-0.0186796328205609,0.911132490975662,-0.7398854530679416,1.04680699901442,0.2831900402865133,1114.9052120108895,1208.3416317383185,1176.6534206610336,1171.7625108669124,780.016122092774,-319.56926636298675,-356.0137320792361,-299.0162340573531,162.11862964320568
0.11,2.345292540172927,-4.130133665480504,0.7525089711655871,-0.0856354563306643,0.221711144370882,-0.0256167628384481,-0.0025831831687076,0.0054135638169801,0.0180237940215664,0.999818525629118,-0.0391642315482641,-0.0639118960668971,10.516291914984068,-0.1170067440835172,-0.0187235545412523,0.9129074461906248,-0.7401454994210142,1.046765541886122,0.2854780134314964,1116.9632237519875,1207.3365607968015,1175.8508599668053,1170.8235520076075,896.4353895149989,-520.4871507105504,-308.0546135252004,-453.2137776997384,162.1123650044955
0.1125,2.475739010867132,-3.9475494526075368,0.8415150624920824,-0.0788245776402619,0.2127501791749982,-0.0241549129048905,-0.0026971715586216,0.0056689808066091,0.0179685655115636,0.9998179868937564,-0.0391085542573143,-0.0667662562606757,10.5021629906194,-0.1173536166696389,-0.0187612081996639,0.9146156294723068,-0.740403303179098,1.0467223913992811,0.2877707395533477,1119.3873889584645,1205.7391959847655,1175.1131475934076,1169.4964419784137,1103.2855217628355,-817.9683689572805,-292.46483822566887,-653.2579502892071,162.1059915762364
0.115,2.4693344513618767,-3.7002716427610856,0.9401245130753312,-0.069761062674011,0.2031414146522361,-0.0222826507485305,-0.002801869383578,0.0059253503867489,0.0179272452419459,0.9998171344087952,-0.0392049423380434,-0.0690630470376273,10.488920200078145,-0.1177086539776748,-0.018774442110131,0.9162559156607872,-0.7406594111746171,1.046676792763775,0.2900683912256231,1122.4796513608017,1203.246718952015,1174.3885357756767,1167.5572622561615,1128.3535520799878,-975.0668860076065,-222.96611384567748,-755.7954572749614,162.0982233606728
0.1175,2.349858064141385,-3.4873146933035635,1.0107195438666752,-0.0620045034028067,0.1953458582345095,-0.0203635414229344,-0.0028897509512393,0.0061825852684319,0.0179055550254855,0.9998158849449534,-0.0394035844246148,-0.0706567795748551,10.476813109291754,-0.1180746394850457,-0.0187445377709976,0.9178284493147209,-0.7409152029091601,1.0466289069471084,0.2923718282880048,1125.0291567188644,1200.8638615547277,1173.9983170241792,1165.717464692039,975.388575727813,-965.0881424633571,-89.85196401754382,-763.1950819788486,162.09165386883868
0.1199999999999999,2.1676345231808174,-3.2696133576096598,1.0550732822686393,-0.0562421217130409,0.1873454955917362,-0.0179772822221059,-0.002956688200477,0.0064344666935607,0.0179021828882594,0.9998143147065344,-0.0395192065864143,-0.0714835562301373,10.466088274778537,-0.1184415247399634,-0.0186611713113028,0.919335696640532,-0.7411713430316103,1.0465801718550642,0.2946814734026992,1127.3565942394407,1198.4212782396983,1173.9392759555892,1163.7412868462673,872.3937792696704,-950.4487112716125,47.09050002024933,-791.8360809780567,162.0849896437239
0.1224999999999999,1.990888237203148,-3.043219336734694,1.0634786373553993,-0.0528036030542703,0.1795187310445855,-0.0152784541008796,-0.0030022599339026,0.0066718779853649,0.0179116825255654,0.9998125871418216,-0.0393022141748797,-0.0715639137223985,10.456982681728247,-0.11879245707924,-0.0185226048595158,0.920781987620496,-0.741428115800903,1.0465316060951086,0.2969983052397657,1129.3911256152128,1196.1116179983696,1174.2337695242804,1161.7582842871486,730.2457650293484,-859.826933837393,215.33955445720477,-760.0712165093676,162.07825052551243
0.125,1.8809765223157615,-2.8014476192482136,1.0118706378308713,-0.0506165418787533,0.1725274506019415,-0.0121314512817339,-0.0030292293535971,0.0068880195733529,0.0179268513228373,0.9998108768488057,-0.0385505988396398,-0.0709874828404333,10.4497164664444,-0.1191135499930848,-0.0183342268387523,0.9221727382675512,-0.7416849830482451,1.0464833333861572,0.2993222339028826,1131.0078230645875,1194.1221435705113,1175.0159737278752,1159.9409307637204,618.029506303946,-779.7356137657055,455.8567260471132,-712.5530265231184,162.07142557534578
0.1275,1.86282722117094,-2.4894412872678213,0.867744960398453,-0.0478741124292648,0.1650302349566845,-0.0081828736480858,-0.0030418783196904,0.0070824868808169,0.0179399700561353,0.9998093218352052,-0.0371972362951893,-0.0698743493155891,10.444485690094188,-0.1194015606227347,-0.0181051650237122,0.9235140424651892,-0.7419425500073955,1.046435258870744,0.3016519335312142,1132.4812731467323,1192.212939929541,1176.513053154516,1158.195519154533,477.5447112601337,-615.9308678104929,626.0878772529388,-536.9098726334864,162.06314228693856
0.13,1.9358920727331803,-2.207520455028022,0.6819894972626934,-0.0445736832351733,0.1592123747198912,-0.0055285086617778,-0.0030471207712704,0.0072575336712866,0.0179441163200034,0.9998080195230163,-0.035234758332315,-0.0683976229870004,10.441456996808858,-0.1196572852365068,-0.0178502376177091,0.9248139146146408,-0.742202315990445,1.0463878972299583,0.3039848448485906,1133.395546620888,1191.0424892314588,1178.14641311414,1157.2563814005528,326.9335227411372,-380.6718893957165,698.42513309195,-246.65382879920773,162.0561661397111
0.1325,2.063223622334352,-1.8989512457549664,0.4468569367701418,-0.0396215872211933,0.1536996087840026,-0.0041418276185697,-0.0030479413773518,0.0074193308345987,0.0179365950526481,0.9998069732605156,-0.0327415762757925,-0.0666441248585367,10.4407611655355,-0.119888075003835,-0.0175769984961082,0.9260824010888926,-0.7424649562079361,1.0463426118434238,0.3063189735577247,1134.1159407604382,1190.3095804825623,1180.0051788199755,1156.9622500105368,276.4836218422713,-217.9694549494796,747.8315518639185,-7.490696923105126,162.049119168699
0.135,2.199753769252039,-1.5700053914913643,0.1905441865718527,-0.0336946887821184,0.1485892302883651,-0.0037044956985597,-0.0030467536621587,0.0075768650686204,0.0179184210233395,0.9998060996414618,-0.0298625839738808,-0.0646837248962284,10.44248857101347,-0.1201063166202576,-0.0172919341524282,0.9273315270759842,-0.7427297335905355,1.046300043427432,0.308652666816196,1134.7779647300995,1189.9526419567114,1181.8855708734595,1157.2189279159375,271.22349058436134,-40.88229397052597,717.6459269088803,224.43807094778077,162.0420176046441
0.1375,2.3114991186315055,-1.2303756587265515,-0.0696281863808256,-0.0271703270260849,0.1445634203388211,-0.0039906969194379,-0.003042675004404,0.0077391099423226,0.0178926963987931,0.9998052867692258,-0.0267513612661215,-0.0625125875788363,10.446685573932845,-0.1203244406305566,-0.0169955745196296,0.9285756247189744,-0.7429950516713434,1.0462611433878934,0.3109842044538472,1135.47205821336,1190.10516901271,1183.59340845452,1158.084440365276,331.39948580751445,209.2130097167226,669.4432221498113,493.7337511879373,162.03485539960923
0.14,2.390415852259244,-0.8443081005915756,-0.365986579089449,-0.0191890054948557,0.1414434474032582,-0.0047975649643838,-0.0030359113561087,0.0079097435011657,0.0178633274218058,0.9998044426321908,-0.0234631938640848,-0.0601461472485584,10.453353219357384,-0.120545407304497,-0.0166906868986859,0.929831725052718,-0.7432593363583835,1.0462262890561327,0.3133120712875535,1136.434962159137,1190.998707005295,1185.2327869842084,1159.6875966718771,383.4868092929352,466.52062576245,512.5812517920161,655.9657245678403,162.0261976224641
0.1425,2.406113545545853,-0.5711008289506218,-0.5889235827326387,-0.012767352008181,0.1401396338980082,-0.0058121905705344,-0.0030314909363051,0.0080867275188591,0.0178296017246938,0.9998035825993152,-0.0199491523572139,-0.0576973142485578,10.4624466792093,-0.1207618222513865,-0.0163900159866919,0.9311186038191184,-0.7435228315531727,1.0461950700954044,0.3156363312760212,1137.3894922598247,1192.437772141522,1186.1563147134802,1161.364268988115,420.38626905960166,738.8019765778641,269.67401935603567,708.2409489531107,162.01893544210395
0.1449999999999999,2.379305969187313,-0.3821840888475361,-0.7743979548841499,-0.0069467059424916,0.1397804583525194,-0.0074607034760981,-0.0030310211251778,0.0082686194384077,0.017792791080114,0.999802690644086,-0.0161839411039182,-0.0552023995797422,10.473874391140953,-0.120967448622058,-0.0160987839158104,0.9324545427723868,-0.7437861963822262,1.0461668072055144,0.3179573285361578,1138.536893504435,1194.6927168881843,1186.5811570809888,1163.2288014166427,553.3447281900889,1184.4406653934639,85.18222352818195,828.2297676689305,162.01163034292088
0.1474999999999999,2.317010692778229,-0.2797803618589725,-0.9379021654405332,-0.0007200898441518,0.1399175389834245,-0.0100362905788762,-0.0030297936892327,0.008458986494482,0.0177540660510171,0.9998017305659552,-0.0122574311949115,-0.052559496808786,10.487499911916744,-0.1211652520789503,-0.0158091685065573,0.933855303430858,-0.7440500177532253,1.04614022573374,0.3202752931497993,1140.1562159007751,1198.3599754684894,1186.5822258311211,1165.5054178264595,632.0758483846924,1489.4030879650459,-61.57410836831326,821.6511857562629,162.00282173562914
0.1499999999999999,2.2511757816637936,-0.3058802273668249,-1.013962740457172,0.0042034647745064,0.1401413560427145,-0.0124467050434047,-0.0030212534845227,0.0086630052311257,0.0177168308028331,0.9998006193088164,-0.008304537566011,-0.0496240726305028,10.503147526260788,-0.1213613771529161,-0.0155079314278016,0.9353337454235918,-0.7443150545904266,1.0461133465489274,0.322591342601928,1141.6972727463583,1202.1397323280096,1186.2732865391472,1167.337057345424,645.3261176824975,1619.238669149307,-152.77679106588934,707.6038638480434,161.995450967634
0.1524999999999999,2.1755428954850435,-0.4417126404468162,-1.0157966103124507,0.009416389961206,0.1400578926089553,-0.0151788282963733,-0.0030027038470291,0.0088784757279387,0.017680903461469,0.999799387364894,-0.0043185920586731,-0.0463330377171776,10.520610163213345,-0.1215485488360533,-0.0151887168384856,0.9369008982429954,-0.7445812738521754,1.0460839030387488,0.3249099667181734,1143.3828464891876,1206.456168814236,1185.8183418757917,1169.0434371457,684.1812399323766,1766.8442998438406,-180.6498009902041,662.319626903672,161.98805489343152
0.1549999999999999,2.0907433360779977,-0.6530399135718519,-0.9494033554700186,0.0148915859279821,0.1393979612223293,-0.0180860836366001,-0.0029754232018479,0.0090969814617845,0.0176483154260937,0.9997980689990644,-0.0001720724966331,-0.0427088797020137,10.53965628173888,-0.1217085336109915,-0.0148512886623014,0.9385652041828512,-0.7448477310776098,1.046050867590903,0.3272362238489191,1145.1181789460204,1210.9739538272288,1185.370037534196,1170.6486554799424,686.5414441188926,1784.6647001911588,-155.0693412629697,623.9021478494118,161.98064239137955
0.1575,1.9954615156223887,-0.9256922056055295,-0.7990261616307646,0.0200120115201721,0.1376597865920828,-0.0208401179341753,-0.0029414788400962,0.009306589036648,0.0176171682635213,0.9997967989357452,0.004329668346921,-0.0387928988478605,10.56003680577275,-0.1218170498231627,-0.0144974482207882,0.9403321165623282,-0.7451134824519515,1.0460152430409406,0.3295724038749368,1146.815553709782,1215.3794923151916,1185.0429951694769,1172.162947884947,718.9919612382703,1823.699221113428,-102.93908575245032,650.1755350205707,161.9732156225609
0.16,1.8753040252758435,-1.2782835569618451,-0.5313435622323871,0.0251234092001746,0.133980713052459,-0.0236388627019793,-0.002903369442688,0.0094997640724199,0.0175845953250097,0.9997956909222324,0.009284575114736,-0.0346358050891653,10.581492025880836,-0.1218587732327587,-0.0141299965153594,0.9422028347892528,-0.7453783847868362,1.0459794302376852,0.3319198682157277,1148.7131387522115,1220.092449932796,1184.855342105434,1173.8995331550452,669.4361572582233,1584.7233949422375,-38.430168649347216,620.2965591753122,161.96429424522444
0.1625,1.773745677360948,-1.5620059247701228,-0.2527299541646942,0.0285977744738623,0.1296401783139767,-0.0252205403304303,-0.0028641362336383,0.0096704917105909,0.0175496580725744,0.999794813742779,0.0147569434064527,-0.0303020343683973,10.603759642779467,-0.1218220790286669,-0.0137527342077089,0.9441758960433309,-0.745643290179071,1.045945063160104,0.3342778136069932,1150.1627344960732,1223.3031092899027,1184.85084432623,1175.2644306808236,565.3223050244828,1115.327111916621,10.860867757537552,516.9675209790962,161.95685741408695
0.165,1.6636961968033313,-1.8099958493337536,0.0518274203991095,0.0318853995888668,0.1245082445995372,-0.0255576011067186,-0.0028237028091122,0.0098134048019356,0.017511788325994,0.9997942372644608,0.0207990203589083,-0.0257925269193704,10.62658123808024,-0.1216973354337823,-0.0133639896347459,0.9462483975614872,-0.7459082492925116,1.0459119336779732,0.336643973205549,1151.539750277334,1225.669085492379,1184.9096464442216,1176.4843707599407,558.0412396281185,822.80604321163,12.352893937531906,451.222327132245,161.94942465687157
0.1675,1.5301813773387607,-2.0224779019791446,0.3492122879228521,0.0356167834336538,0.1189961216757875,-0.0247888625684865,-0.0027795222545298,0.0099238535473046,0.0174718787996412,0.9997940055835448,0.027451560485161,-0.0210578519196831,10.64970832912363,-0.1214772058659414,-0.0129574770311238,0.9484165679481448,-0.7461710911101775,1.0458802468928143,0.3390139554722724,1152.9529406942136,1227.4171395059611,1184.9126087959175,1177.5205423164848,598.6488228604679,598.5591297715013,-39.63392706136798,354.8293329091845,161.94200024914053
0.17,1.341570081380854,-2.2006624584299534,0.6047776136366326,0.0401687624048877,0.1130994890457122,-0.0229449923388055,-0.002736155001723,0.0100083283517141,0.0174317068030196,0.999794011016838,0.0345194528497318,-0.0161978708218919,10.672908635717436,-0.1211767425424676,-0.0125401788394107,0.950673093101204,-0.746429367997505,1.0458498391804791,0.341387304364203,1154.5329943916363,1228.6618811412363,1184.7114768089148,1178.2585174244866,751.4485861205678,500.78522489425217,-158.93811791593163,240.77450145709892,161.93459210005895
0.1725,1.028539393863681,-2.4029314579697183,0.8306720293338467,0.0457302884780679,0.1063370010733826,-0.0197955422253211,-0.0026967284744728,0.0100792806796505,0.0173930310048921,0.9997940909764768,0.0416844819276783,-0.0112821027655611,10.695970010203972,-0.1208231377261981,-0.0121165475529769,0.9530084744884152,-0.7466823455075879,1.0458196833992333,0.3437662225152808,1156.7101836248166,1229.9210656304324,1184.117918206338,1178.7244148237703,840.8785292701841,457.4480949968798,-277.71171945914807,94.77269352951215,161.92572938443814
0.175,0.6996695748551338,-2.589115784409252,0.939119166346884,0.0492343725672083,0.1014314593047808,-0.0165291043970602,-0.0026636890719835,0.0101463277162977,0.0173544153075975,0.9997941706785514,0.0486925428504266,-0.0063676011116988,10.718704450036284,-0.1204385026788777,-0.0116909721691812,0.9554130159088432,-0.7469308537450233,1.045788826659911,0.3461534119859368,1158.7373870379874,1230.9491216162207,1183.322918211619,1178.732380892134,829.7036035463444,413.55096899042303,-361.68594091737026,-76.38732008217666,161.91837259266467
0.1774999999999999,0.3324194214040072,-2.8179029779559324,0.967286922933725,0.0505219365160901,0.0970609186913584,-0.0130687305132027,-0.0026403266507406,0.0102149705323856,0.0173155898208581,0.9997941954694975,0.0553829992003314,-0.0015321082912347,10.740950448977964,-0.1200369790998744,-0.0112699345888893,0.9578772678522072,-0.7471763073652419,1.045758230122946,0.3485511893584091,1160.8587016425483,1231.9888204753845,1182.3094885017513,1178.3424782233594,911.5273960789679,425.7133448611532,-455.2221370228402,-253.3468954676676,161.9110534541898
0.1799999999999999,-0.0995268565035552,-3.1354357839652973,0.9359597682233626,0.0498057355491867,0.0912698720598063,-0.0097231311630595,-0.0026245363041579,0.0102857145907014,0.0172812265502427,0.9997940883065008,0.0617122610453146,0.0032592824941043,10.762572523416228,-0.1196224545376794,-0.0108494202558805,0.9603929043842908,-0.7474196258783367,1.045729228677726,0.3509601266518283,1163.2950240183823,1233.0776883405267,1181.0468075265048,1177.4656464147959,844.1699379078718,331.52455342196816,-434.5959951819618,-373.3021931625896,161.90232342434558
0.1824999999999999,-0.4191931825262904,-3.399139852424456,0.8877125725937577,0.0479646405677011,0.0846436858726714,-0.0082043647897525,-0.002615066040917,0.0103564225908711,0.0172593134940351,0.9997937388659808,0.0677014613926537,0.0080218891334749,10.783462186789537,-0.1191929582912952,-0.0104271532484917,0.9629526657823528,-0.7476620172465224,1.0457029258085828,0.3533796116709831,1165.0795513320877,1233.6464432424943,1180.1365085258415,1176.4759672575465,637.4090037604668,108.12496474782156,-293.43396535909926,-420.6771014473812,161.89509959314128
0.1849999999999999,-0.6761944755033161,-3.5882497159431654,0.8531533075120399,0.0451248009219528,0.075132333422353,-0.0078058821354355,-0.0026051854644486,0.0104274676792824,0.0172566036431101,0.9997930464389484,0.0733264820497809,0.0128910348659612,10.803535533157584,-0.1187502443958874,-0.0099910402540186,0.9655499544373604,-0.7479041717016855,1.0456810194536534,0.3558071716038445,1166.4820690371846,1233.6183131642658,1179.579637699709,1175.3622609075587,492.2240266271269,-134.67588892681295,-140.44689260722396,-440.7817449237878,161.8879372494098
0.1875,-0.8831124019727022,-3.6582625585138007,0.8428940782298752,0.0417719685180376,0.0638495849772362,-0.0073862995792893,-0.0025894128039327,0.0104971378413003,0.0172738944025643,0.9997920323782712,0.078612404026265,0.0179769711621046,10.822732881058068,-0.1182912470917199,-0.009532860432824,0.9681801730120648,-0.7481466306079602,1.045663877491606,0.3582399028338122,1167.540671465223,1232.9730637978603,1179.4342740628051,1174.2720585329275,352.8518494675605,-411.329117536297,55.45804259909341,-401.0265892872209,161.88083184530595
0.19,-1.0549198012738064,-3.543664532264828,0.8523455058423148,0.0389205185752249,0.0523827439492397,-0.0061295907817761,-0.0025661425413064,0.0105563141875882,0.0173068860320064,0.9997908726099785,0.0837477671054573,0.0233050973286983,10.841016822066347,-0.1177980415827032,-0.0090528416560679,0.9708419603612036,-0.7483895310915394,1.0456515637025443,0.3606775817379578,1168.2463282845224,1231.5616675765843,1179.8569279127048,1173.3571279611228,264.97363770936295,-769.0764123427919,314.3639519846144,-329.9882564691413,161.87380193188244
0.1925,-1.27168732621215,-3.1940527685429783,0.8512747165217908,0.0369246775449008,0.0403031912308028,-0.0036201668742922,-0.0025358669516677,0.0105985737194308,0.0173464269424573,0.99978979417148,0.0888665327530129,0.0288567418534738,10.85836946715512,-0.1172575639885692,-0.0085553162559627,0.9735346489973756,-0.7486331978012442,1.0456424363014407,0.3631209452924381,1168.86553965377,1229.1276817361463,1181.0060938227284,1172.6221172505818,222.57121746820283,-974.5317625274755,512.3805295227153,-190.206810837344,161.86546169902942
0.195,-1.493896753369843,-2.7613009838989804,0.8089787233188453,0.0360889759237276,0.0323865723481356,-0.0006760138503303,-0.0024988226245222,0.010621106145347,0.0173859900030507,0.9997889431997546,0.0940304167802625,0.0346169887238172,10.87478935457234,-0.1166638307843806,-0.0080420965755578,0.9762579044427642,-0.7488776656850716,1.045634047474318,0.3655695742930142,1169.3591843718634,1226.6890087639467,1182.4188305603184,1172.406093906936,228.1438097267708,-1000.499697935219,630.5624130170594,13.059786534495275,161.85859705846164
0.1975,-1.7675345934865023,-2.246646604125981,0.6951147516578565,0.034717688546617,0.0267764058712607,0.0026278890715677,-0.0024543779597169,0.0106336053266263,0.0174248670466023,0.999788231304316,0.0990359858446085,0.040588851457209,10.890289478227066,-0.1160358072915354,-0.0075101480148355,0.9790094637613252,-0.7491225294289267,1.0456252730277875,0.3680220825037187,1170.006258702404,1224.1251832464702,1184.1589058878135,1172.6874161832543,340.828868377275,-1091.6737420901416,804.0617073100741,248.6281875238544,161.8518278755982
0.2,-2.1112823425131038,-1.613597681628252,0.4688411336518804,0.0305435779998889,0.022294275487031,0.0057730700911189,-0.0024039226547061,0.0106469265527767,0.0174636047896643,0.9997875310093872,0.1036577939736541,0.0467260032087545,10.904895392975522,-0.115395841204225,-0.0069587498174438,0.9817874027646244,-0.7493660425161311,1.0456148872042674,0.3704768675787754,1171.0633287137496,1221.2306400534962,1186.4391390968688,1173.6492348445552,431.6984213055544,-994.3532946431777,842.5067612235573,453.37584309613663,161.84382261390607
0.2025,-2.3514575184585165,-1.121986582969744,0.220082301573599,0.0246176055320635,0.0201549385549428,0.0070266622832356,-0.0023475057937922,0.010660287911521,0.0174995015368127,0.9997868946411328,0.1079276501623919,0.0530014349617249,10.918641090338804,-0.1147445120053234,-0.0063846482580953,0.9845925895571592,-0.7496058694782662,1.0456019215996675,0.3729352782622595,1172.1647508089316,1219.1534167732543,1188.3714396939315,1174.9542953987348,466.17826283377286,-732.7983552593189,753.8677125961377,606.8078173503176,161.83725495780632
0.205,-2.468169743200578,-0.7078585951841733,-0.0601490966911376,0.0171493159918294,0.0192298730899732,0.0066975942329867,-0.0022893025010137,0.0106733369023256,0.0175275064261979,0.9997864024524205,0.1118705709757028,0.0592920277876304,10.931569937069662,-0.114084250927837,-0.005792712982069,0.9874252030289128,-0.7498414689623296,1.0455855758962291,0.3753998641966055,1173.3942200279187,1217.5666482771996,1190.2084776598494,1176.6832739313068,492.2897301491953,-541.0776142232403,705.4370392073445,735.1419978911047,161.8308009658848
0.2075,-2.4396753965235134,-0.3725274104233415,-0.3433162003389962,0.0092790385989076,0.0189417703675665,0.0055098853242268,-0.0022316267571396,0.0106887717464921,0.0175440442229145,0.9997860841073832,0.1154507509096611,0.0655089218422111,10.943732049893324,-0.1134240737960061,-0.0051839333564509,0.9902839369023932,-0.7500718752914192,1.0455666554351413,0.377872250286399,1174.6261994596775,1216.448028702138,1191.8986248899682,1178.6300053881905,471.8789849608606,-326.30345528900915,633.9301676587213,787.2128960254976,161.8244461402271
0.2099999999999999,-2.212365029032705,-0.1323569256170687,-0.6112702454123273,0.0015752911055357,0.0190601767296673,0.0039233555202306,-0.0021804024535493,0.0107147978596057,0.017548017848316,0.9997858594521382,0.118515134614803,0.0714792297364565,10.95518568477683,-0.1127843026874724,-0.0045666113221216,0.9931653469457308,-0.7502963755790198,1.0455467692243197,0.380352276904146,1175.7536149527227,1215.9351310007546,1193.378128498143,1180.6193384114345,459.06515188339864,-80.8245696173348,609.3518795636584,821.5260326217542,161.81821708894313
0.2124999999999999,-1.7201463681067648,0.0622621853617493,-0.9020568643567332,-0.0067079170621352,0.0193669494078253,0.00193995477426,-0.0021424551789027,0.0107522872917794,0.0175364676797859,0.9997857559215156,0.1210727701220724,0.0770029685387195,10.96599429190147,-0.1121704863334284,-0.0039529035853743,0.9960669068747806,-0.75051581034691,1.0455281460220966,0.3828403784790692,1176.9215252190947,1216.0439058540514,1194.9453842877865,1182.7376355512993,402.208366917284,158.74743814260896,557.041348177017,687.9960113077681,161.8108959899631
0.2149999999999999,-1.165560341728464,0.1656545219188864,-1.1108485168209679,-0.0123454810855307,0.0196400190757843,8.949229571393819e-05,-0.002117737347648,0.0107962178212476,0.0175131012191263,0.9997857593665682,0.1232691156341186,0.0820229419364039,10.97622279961538,-0.1115752907463757,-0.0033417434262976,0.9989868628882592,-0.7507313949006321,1.0455117767219015,0.3853373004394477,1177.7646567873091,1216.7288681914677,1196.163335239028,1184.0593184679733,330.69602012665166,385.2035682439688,498.45440848112,398.4889471963921,161.80492956906403
0.2174999999999999,-0.5430694454176466,0.2335661813502582,-1.2692771643896388,-0.0156210780898175,0.0198676283121135,-0.002368001303531,-0.0021028197905957,0.0108434303065416,0.0174794926101218,0.9997858817750012,0.1252095218914533,0.0865569528293836,10.985938542635612,-0.1109935477785403,-0.0027271738806073,1.001922606088752,-0.7509456268008541,1.0454974689813936,0.3878439645196973,1178.575005319728,1217.9699236952713,1197.437656330192,1184.7300802872812,339.62847918428423,569.2799442155315,539.7885133430459,150.10650634576436,161.799110646622
0.22,0.0520827329549594,0.2896044436694152,-1.368024360722793,-0.0155213610356894,0.0200465421778942,-0.0056297989805957,-0.0020970576105285,0.0108944799859847,0.0174378333291606,0.9997860802320964,0.1269149453173766,0.0905644502224932,10.99521272873416,-0.1104261478159226,-0.0021099336315563,1.0048705143520555,-0.7511605956770401,1.045485611482524,0.390360523008254,1179.4627991832308,1219.575267912545,1198.8622778057431,1184.809850999702,397.50103030487446,691.8266033669619,616.1882880693605,-94.33901231204791,161.7934202054325
0.2225,0.5096037444787699,0.3469214191329463,-1.3708569793826253,-0.0116942837208147,0.0201733445919276,-0.0099051429601098,-0.0020957855861542,0.0109474542210014,0.0173947658495506,0.9997862681844886,0.1284599443290897,0.094094122050611,11.004115576644535,-0.1098676498277102,-0.0014831303277968,1.0078277553717825,-0.7513766760436189,1.045478263492843,0.3928857252588359,1180.5625104712524,1221.429056712106,1200.5185977705387,1184.2583852257208,553.9503345504268,808.3524789058166,765.4129943377477,-330.118354053229,161.7878924622573
0.225,0.8054977458633085,0.4260941747819148,-1.2442506633631378,-0.0058455243710123,0.0204002236099191,-0.015417379782152,-0.0020984078232809,0.0110006635822674,0.0173541566364865,0.9997863962733806,0.1299054859810246,0.0971115038645191,11.012717980264695,-0.109312311035935,-0.0008495251105113,1.010791897145136,-0.7515940982781073,1.0454768317780647,0.3954191730583183,1182.2325508559827,1223.6170303070744,1202.689342777432,1183.159259229436,677.341183679618,745.5329912859717,793.5157728173174,-411.3445146343107,161.78145708538096
0.2275,0.8181127210319777,0.497191128400999,-1.0338880095475715,-0.0015738241962859,0.0209722375058124,-0.01943350497903,-0.0021044383099074,0.0110564983674689,0.0173181780977686,0.9997864007976788,0.131214301849495,0.0995881567998829,11.021088372741675,-0.108762220565792,-0.0002126927266288,1.0137602765538127,-0.7518118607438641,1.045482489372224,0.3979598862491197,1183.9492163896505,1225.156721668536,1204.4861766346255,1182.2016626525494,751.719058144635,508.0018493787516,665.473480462378,-303.62765574100166,161.77626576483988
0.23,0.6080613793141518,0.5585638855768064,-0.7418290662350167,0.0015041923536749,0.0223821164733416,-0.0221358516056721,-0.0021171651300816,0.0111127596673393,0.0172821785466736,0.999786378609078,0.1324367953191377,0.1014202156776551,11.029290634777036,-0.1082103327376961,0.0004149506618483,1.0167319481076436,-0.7520294785664196,1.0454936704387376,0.4005083895287485,1185.991146146706,1226.157039553968,1206.016710179744,1181.6411209507307,959.2943126423044,292.16403504160525,563.3833417710771,-66.29076721210362,161.7712594726264
0.2325,0.1617750038200683,0.5996060460239567,-0.3481394627761934,0.0036793036403903,0.0253618933409194,-0.0235525286218325,-0.002140470284963,0.0111627027948857,0.0172411043930005,0.999786483141752,0.1337139035695932,0.1024959278774047,11.037380141778385,-0.1076405906315344,0.0010204897664985,1.0197077374411103,-0.7522465315762077,1.045508162768912,0.4030668630378376,1188.745687952862,1226.617541843744,1207.303093343481,1181.870208816489,1043.5114315653655,57.47671037429422,365.21189442723846,272.1906284196846,161.7654730262655
0.235,-0.3099306997866609,0.5998970872994348,-0.0246934743767459,0.0039854531751752,0.0286268995901963,-0.023378797488136,-0.00217771736598,0.01120665469448,0.0171964276273429,0.9997866754562702,0.1350243450172747,0.1027214326837741,11.045402189595684,-0.107051667353995,0.0015949275860092,1.0226879411948264,-0.7524618995277477,1.0455237694001567,0.405634484825145,1191.2087033045327,1226.4444231058396,1207.84276965188,1183.0020740928292,993.3817111846557,-139.49266522158712,117.21460317230584,649.8514752308432,161.76083993190187
0.2375,-0.8007366797358341,0.5817155136623404,0.2523466158990945,0.0020644491593016,0.0310871222951478,-0.0222997648524098,-0.0022278788245482,0.0112463712808395,0.0171517042229179,0.9997868758808092,0.1363084382549265,0.1021052782466764,11.053386836209167,-0.106445556942804,0.0021401429195535,1.025673840086116,-0.7526741137864159,1.0455383690309783,0.4082095035925191,1193.7125965087853,1225.920078517636,1207.8891663593424,1185.1194661926431,986.6072184550419,-219.2642361722402,-37.82956869004028,979.4714552378128,161.7564078700015
0.2399999999999999,-1.2444391912372799,0.5796889563432248,0.4689010347447544,-0.0019726459376125,0.032082939930663,-0.0207647518595272,-0.0022872743087714,0.011283285911919,0.0171103376743492,0.9997870194481204,0.1375054582370803,0.1007198817829886,11.061346873662476,-0.1058240098958421,0.0026646810930254,1.0286681843076435,-0.7528826551823358,1.0455501802239555,0.4107908222814325,1196.141739396808,1225.3481019249784,1207.65362180843,1187.8994313690184,930.2760644443468,-179.2928427199976,-126.35201794987609,1204.8431606033375,161.75214565605935
0.2424999999999999,-1.5722395642043547,0.640127507106971,0.5972787965980715,-0.0076133628893725,0.0319640153370473,-0.0187728026477012,-0.0023528854876989,0.0113214316950412,0.0170698424999355,0.9997871108097826,0.1384857241297279,0.0986313877403186,11.069277571280963,-0.1051945240988079,0.0031754601366135,1.0316744769138295,-0.7530875644033366,1.0455583315379926,0.4133764325488982,1198.3639768310068,1225.023614304036,1207.257406269593,1191.1436819956596,909.2257691248042,-25.441375186210255,-177.48363032528667,1430.6951505467607,161.74809146487485
0.2449999999999999,-1.7943756825351909,0.8191111581447523,0.6434909947494579,-0.0144989216608634,0.0317889321348434,-0.0158854793131276,-0.0024289840567417,0.0113682401056219,0.0170304216949809,0.99978705065872,0.1390350627615292,0.0957495269640925,11.077158063341859,-0.104571994767598,0.0036649322941944,1.0346965135964636,-0.7532893838886126,1.045563369747976,0.4159646061171965,1200.687868242432,1225.2208950490472,1206.7662036568036,1195.0529071217522,787.6945118673568,189.92845449420184,-173.25415997734112,1361.973254543726,161.74347058764533
0.2474999999999999,-1.8375828447890048,1.0570938156335357,0.5992719756490472,-0.019705958235345,0.0323352442061583,-0.0132561013158708,-0.0025198992465502,0.0114236473691009,0.0169932989360258,0.999786806713985,0.1390991120673475,0.0919841635057787,11.084945727083944,-0.1039557543083745,0.0041244093493944,1.0377400766207945,-0.7534887974011701,1.0455675618499891,0.4185562793160264,1202.3024493903436,1225.973256576507,1206.3911354697063,1197.9535482683784,576.7547044750239,413.3794294170908,-149.1783947436032,1016.5070360546896,161.73982578271253
0.25,-1.7559197220786829,1.357007416582872,0.4949014248762188,-0.0243869567227261,0.0342029780492798,-0.0111123339204092,-0.0026273851373779,0.0114875539545255,0.0169608814730863,0.9997863355488537,0.138620789660265,0.0873070271074156,11.092576257468892,-0.1033446576878593,0.0045492895532027,1.0408106728261393,-0.7536872761846914,1.045574415806956,0.4211533209534006,1203.5716417648073,1227.2877921961328,1206.0203116830855,1200.1354423020257,449.84982183445896,590.228863163565,-160.58690705276587,723.4964042279892,161.73639747368298
0.2525,-1.5955843858152134,1.6677111189792209,0.3726340100278593,-0.0287395686624828,0.0374236963617466,-0.0100718065257304,-0.0027418139626663,0.0115630834653532,0.0169330461906829,0.99978562757732,0.1374712033769869,0.0819508937968847,11.099961823157736,-0.1027436683240856,0.0049568655731988,1.0439122938280267,-0.7538862244031881,1.0455875350184018,0.4237565242585015,1204.551698499516,1228.924400892325,1205.5882009344425,1201.5710302895184,318.1718723559694,680.6422544535957,-203.3648694422025,388.51489700787135,161.73315063096135
0.255,-1.3756621505437117,1.9314652804444457,0.2735214853159452,-0.0323861065141982,0.0424779533237629,-0.0103905260233405,-0.0028498424243,0.0116530884173354,0.0169097973103161,0.999784685203598,0.1355272315802552,0.0762384256805525,11.106995813639283,-0.1021571208499751,0.0053713723933106,1.0470478578007076,-0.7540858851974014,1.045606853755978,0.4263676594265852,1205.1625011265871,1230.6910034684008,1205.0034873358743,1202.078016787065,170.7171853267026,732.368304560395,-299.22185539076025,38.0384384737226,161.7301248153931
0.2575,-1.0920318733300147,2.121094802537008,0.226814552429523,-0.0355759599428108,0.0502998182598549,-0.0113397447043817,-0.0029464103436335,0.0117516456048349,0.0168920573093865,0.9997835715236726,0.1328586294644615,0.0703126283814206,11.11355875025922,-0.1015716178295065,0.0057993753722208,1.0502209410550647,-0.754285189262166,1.045631233402854,0.4289901590252964,1205.4052844261496,1232.586242415127,1204.0920916574887,1201.7612224818868,-5.1906813365803774,604.1969314573629,-357.5278004178013,-225.66584718101677,161.72675203417998
0.26,-0.8734412510119856,2.1374181141396598,0.2635054038836658,-0.037505683364951,0.0574357960261389,-0.0119369256080277,-0.003029812737691,0.0118502164678694,0.0168776780559378,0.9997824247402112,0.1295944921809909,0.0642497215520266,11.119520351598425,-0.1009689591762082,0.0062400100574821,1.0534347511537177,-0.7544842370966705,1.0456586412507245,0.431625928481104,1205.1365477199042,1233.7119881256876,1203.2158483337855,1200.94968755116,-216.67229682570883,301.45878317098294,-339.2021099241444,-365.1172109373416,161.7241583794801
0.2625,-0.7073494624958905,1.9952298161825757,0.3750423827172105,-0.0386125445873286,0.0643158244707,-0.0121874446695566,-0.0030983060820751,0.0119467883980636,0.0168652619733612,0.9997812962721526,0.125725892727204,0.0581357182788293,11.12474321869853,-0.1003454873858725,0.0066934501803028,1.0566908729703368,-0.754682797163715,1.0456876841330667,0.4342733569935512,1204.321922942021,1234.0935363309818,1202.396081107868,1199.9356364272003,-481.08741294713536,-48.41499995636691,-285.6400873971322,-397.42947915815387,161.7217920459028
0.265,-0.5947741610809965,1.6705978828442327,0.5673478837819322,-0.0387317526704978,0.0714159271536224,-0.0118714554027013,-0.0031483949144654,0.0120465024788096,0.0168577799691551,0.9997800855048968,0.1210966584053322,0.0521024312408925,11.129086298005866,-0.0997137690785222,0.0071653295095264,1.0599897587596772,-0.7548803840338458,1.0457180690782204,0.4369270745779167,1202.7311106551683,1233.4699131259058,1201.7876478967999,1198.9625401553692,-664.9734535764304,-422.0834159523288,-110.96285239682392,-251.6565034539324,161.71921777110575
0.2675,-0.5761681777005208,1.3177096641501769,0.7422101235837036,-0.0382219641712663,0.075911242319966,-0.0106479212561883,-0.0031791359970244,0.012151808557771,0.0168561461408101,0.9997787523706296,0.1156211773154406,0.0462294202158774,11.132409483367473,-0.0990823874002684,0.0076561518158492,1.0633328434687892,-0.7550756455721375,1.0457499310138516,0.4395818312926547,1200.997055674139,1231.98311925122,1201.8412668458839,1198.6773539099306,-731.2123830387457,-780.0680152824946,186.52593831493488,50.41651228702899,161.71729572052558
0.27,-0.6104680375079664,0.9541284286116088,0.8815667726787806,-0.0382889711132563,0.0783529052978536,-0.0079727758866422,-0.0031943038760924,0.0122625012387054,0.0168619658309108,0.9997772636284592,0.1092871037647355,0.0404930752885359,11.13457941951404,-0.0984560292141938,0.0081570607539827,1.066721891751493,-0.7552672297575256,1.04578368575862,0.4422357341081888,1199.0750487399748,1229.569573049493,1202.7202775883743,1199.2146227168043,-752.9167890104867,-1080.384026023511,505.92669374855126,367.84096042338166,161.71560809444853
0.2725,-0.6485075514724649,0.6423656690444292,0.9553252932423488,-0.0397447317702035,0.0787364451113036,-0.0041612678189474,-0.0032039443664775,0.0123811054788644,0.0168740643191572,0.9997755788943384,0.1020363537490709,0.0347336234644199,11.135476132384872,-0.0978469253028605,0.0086459869252653,1.0701567811597927,-0.7554542111109437,1.0458194846229003,0.444891197266988,1197.2324717290865,1226.5811991211024,1204.3709003146266,1200.5165587120475,-658.7753018449342,-1255.6512273798023,834.6148822632122,689.3003646464871,161.71411717599253
0.275,-0.631978199421282,0.4521916835459459,0.9241682600394676,-0.0428134956221945,0.0772658927655535,-5.8829243600303166e-05,-0.0032168358679438,0.0125059912755324,0.0168959387020601,0.9997736327997232,0.0939260807285053,0.0288159944716267,11.134996413188018,-0.097259416860248,0.0091047294676922,1.0736355903147887,-0.7556362992775829,1.0458579143348865,0.4475515869370014,1195.78117223075,1223.2913169125943,1206.8933519996904,1202.6611245400368,-485.6249693085824,-1390.6973680985618,1254.2656470462123,1074.1604659429859,161.71286657563715
0.2775,-0.4895728613710081,0.3964682983228855,0.7668326121997051,-0.0469992818043405,0.0754460867927404,0.0037826561558086,-0.003235504860141,0.0126295836665721,0.0169253131494341,0.9997715479301252,0.0851680335615918,0.0227424655761137,11.13305955859494,-0.0966856209204037,0.0095280349959009,1.077154010741399,-0.7558133978283773,1.0458985529405072,0.450220223448085,1194.8043468825435,1219.6277122806096,1210.6422285498577,1205.8873610417625,-203.72374342236964,-1202.000392183162,1430.762744994307,1220.2028286958,161.71164812657696
0.28,-0.2516773883645251,0.4791791359346322,0.5582161947806904,-0.0499440521262487,0.0753138902813196,0.005670380666382,-0.0032609950829637,0.0127446068938331,0.0169575089765752,0.9997694893002224,0.0759893032552352,0.0165458104418733,11.129616379618406,-0.0961183924348288,0.0099144542152584,1.0807038643184124,-0.7559851958930358,1.0459399456886567,0.4529019746890444,1194.7625535136383,1217.2813149516785,1214.047165724662,1208.7621386835156,148.46332910637997,-702.5326786183081,1333.7810553305633,1089.077441444896,161.71087152380218
0.2825,0.0947865278980717,0.6472220433044505,0.3079653152811487,-0.0515780315836984,0.0772280737575762,0.0062174689253648,-0.0032925874602098,0.0128504325240072,0.0169895784267025,0.9997675148365446,0.066491735171862,0.0102950844955194,11.124655390119772,-0.0955645280004197,0.0102679454625335,1.0842721649087734,-0.7561512419648448,1.0459814460999952,0.4555981819071066,1195.5466635280754,1216.1150488875182,1217.3111338265105,1211.3327482489867,507.2644803095495,-190.60037471781453,1312.358328834806,953.2953500811336,161.71034716335873
0.285,0.5808284518464417,0.8844980050721871,0.0025048180360239,-0.0513614898579471,0.0809841695239536,0.0060042059206953,-0.0033286176677027,0.0129554879678267,0.0170173900262425,0.9997655886535508,0.0565955952245063,0.004078263757713,11.11820732189476,-0.0950498474102489,0.010595628131081,1.0878414224344,-0.7563113229206714,1.0460216620535339,0.4583088311415377,1197.298875915186,1216.3283130780894,1220.608957368836,1213.5286154339215,736.3280431375636,340.5545418759627,1056.0359356050403,601.6472939136742,161.71001368125695
0.2875,0.9890698142303243,1.0794580849695488,-0.2324201480099661,-0.0491818299471102,0.0842707672379322,0.0055447345775992,-0.003366436629372,0.0130641733871543,0.0170375955415508,0.999763716131122,0.0463288284399748,-0.002003021072989,11.11034782529969,-0.0945903713429808,0.0109074300897627,1.091393030426812,-0.7564660860960206,1.0460590144836175,0.4610341258485277,1199.2283037437633,1217.817821596898,1222.5913135045355,1214.340984718555,800.8559120553027,816.4352850378318,599.2714082075115,88.88937264159813,161.7099839537204
0.2899999999999999,1.3325099438007448,1.2524046747290187,-0.4250794649818928,-0.0449899911643376,0.0870846239363035,0.0047103905776224,-0.0034065563389394,0.0131767654530288,0.0170496973740126,0.9997618974083416,0.0358242935597298,-0.0079260207429116,11.101199901345211,-0.094191553216531,0.0112068460316469,1.0949082518323807,-0.7566166973294886,1.0460936132721788,0.4637755603797497,1201.3031554754623,1220.4104895032783,1223.6053144098737,1213.9730622971294,795.3712393444755,1159.8993548425487,237.94937459734015,-328.5768921377018,161.71021214695105
0.2924999999999999,1.5814947461153992,1.3996829086619311,-0.5679920641971941,-0.0396020281616712,0.0896301662604366,0.0033572055741032,-0.0034519896448095,0.0132919980578738,0.0170546675221901,0.9997601200201968,0.0252574976227457,-0.0137296262546239,11.090932724256636,-0.0938534255779465,0.0114915383320381,1.0983687671210716,-0.7567642549061225,1.0461264465041356,0.4665355057590027,1203.2051599404856,1223.6173183711107,1223.7810603775224,1212.6981002578668,651.8894624960916,1349.513318912567,-119.14572303676312,-676.65389902404,161.7106531381896
0.2949999999999999,1.6925754973547615,1.5024198388444234,-0.6348819216739878,-0.0339783773296838,0.0923781377572577,0.0011750225988153,-0.0035023409171395,0.0134121021552278,0.0170540871073828,0.9997583264817284,0.0147317705038259,-0.0193795312650934,11.079756693720448,-0.0935812240864588,0.011765799033003,1.101756923343923,-0.7569100433345273,1.0461578366663808,0.4693133258182358,1204.5626027879428,1227.1580560978412,1223.0095857946899,1210.5897928020092,408.0510232445701,1537.4170177281926,-516.8749802291582,-1021.593183386084,161.7113478080356
0.2974999999999999,1.6708413580467567,1.5428757697415352,-0.6161881834941678,-0.0279484857451389,0.096608292104387,-0.0021628038464091,-0.0035561059492849,0.0135426623166466,0.0170463340251039,0.9997564734488096,0.0042748313734904,-0.0248168927028357,11.067917848591412,-0.0933853274369048,0.0120345258067318,1.1050572097565294,-0.7570549418305371,1.0461870547200012,0.4721046570020864,1205.2454150567085,1231.3044034597517,1221.1966854763766,1207.5901343409364,72.75056522198604,1444.5712172294848,-765.8083206215443,-1095.1802193179892,161.7124688453404
0.2999999999999999,1.5456477843920535,1.4782270537947,-0.5244297742456033,-0.0236872378645876,0.1011109656254094,-0.0048700830866476,-0.0036118741410625,0.0136871580052624,0.0170314481602196,0.9997545184580524,-0.0060443839409539,-0.0299861370380704,11.055690608723149,-0.0932692506966186,0.0123007154060393,1.1082583670108772,-0.7572009309357419,1.0462156230587318,0.4749038489733591,1204.926355614053,1234.3809121839888,1219.180544191582,1205.1138917054193,-300.8450836102381,1101.020659531604,-841.2612323393652,-892.1058725376489,161.71363683490017
0.3024999999999999,1.347038167859946,1.2826414363810033,-0.3831181706438162,-0.0201627469805921,0.106220945163178,-0.0063692814361058,-0.0036641085763153,0.0138436899339287,0.0170117644291592,0.9997524682282684,-0.016046750322401,-0.0347408238651956,11.043368318751291,-0.0932223750131918,0.0125744906484681,1.1113542983224127,-0.7573495501254529,1.0462475037156647,0.4777086782036017,1203.7411896386573,1236.8095067574095,1216.9903793146796,1203.129604978248,-586.8026044890479,841.1496067763429,-848.310092416613,-658.3117519922774,161.7150391073034
0.3049999999999999,1.118815897690486,0.9732427269008072,-0.2345666648669982,-0.0172360973212364,0.1110268238269517,-0.0063204930916158,-0.0037056349815899,0.0140086046438464,0.0169925364632964,0.9997503101845812,-0.0255286051216471,-0.0388957827193832,11.0312529376919,-0.0932283937370792,0.0128679790050523,1.114343304240543,-0.7575014062033866,1.0462859601266339,0.4805195698947015,1201.9923425916077,1238.5866602178703,1214.938993729499,1201.822332945458,-781.5954050904559,545.9581421978778,-724.6167871514892,-324.3659063297852,161.71662890922892
0.3074999999999999,0.8926089057044777,0.549824087903715,-0.1151057118795373,-0.0153047642790418,0.1141181216751313,-0.005079334311235,-0.0037342328907701,0.0141806765058492,0.0169747473367604,0.9997480531737823,-0.0343613951678019,-0.0423687016250392,11.019643823904191,-0.0932757050755149,0.0131802602390411,1.1172271665539748,-0.757657123276619,1.0463333468265383,0.4833368215756004,1199.8332126132048,1239.5392974683991,1213.3672953789223,1201.5077754465992,-971.9033436908819,246.3335284702223,-522.0796217451601,93.92810609892867,161.7184371720717
0.3099999999999999,0.6663719761895536,-0.0278353839712381,-0.0287765277310231,-0.0143184356544765,0.1148723731099807,-0.0039085086132854,-0.0037505413900573,0.014358528540448,0.0169600543507467,0.99974568865479,-0.0424347843510486,-0.0451350896014646,11.008825995129536,-0.0933521570154879,0.0135036263690373,1.12001137610453,-0.7578168245835138,1.046390603101291,0.4861598746597911,1197.1328258731533,1239.8183278602216,1212.3285956207733,1202.2919734759523,-962.961561154997,-8.699325105544622,-220.542557194676,454.69715431559007,161.72085068125685
0.3125,0.5359045773389594,-0.5125741141052403,-0.0014147251430298,-0.0142213854829966,0.113026571462109,-0.0037513218850327,-0.003752767003416,0.0145339066597096,0.0169529937486624,0.9997432648398216,-0.0495073404507897,-0.0471151848193444,10.999059657791696,-0.0934303572964208,0.0138367585319442,1.1227060819746373,-0.7579784371557681,1.0464561834606692,0.4889888963753975,1195.01840480743,1239.4958008428714,1212.2645825929487,1203.7812612181772,-780.8357053411775,-187.03875765154393,129.40415541938808,713.2754595129875,161.72305907098183
0.315,0.4695795780242046,-0.9466762329735184,-0.0053673711846525,-0.0139045446905535,0.109337526191812,-0.0040908216658911,-0.0037422434675855,0.0147020100969337,0.0169540836381946,0.9997408373676115,-0.0554376129401091,-0.0482937995128996,10.99056842899964,-0.0934917583427177,0.0141728314318628,1.1253241151681233,-0.7581409599998701,1.0465264096165516,0.4918242585124548,1193.2286473464471,1238.883134071964,1212.9756163978702,1205.8583507735175,-696.3613449124745,-262.1587708676541,435.10589006536935,970.66053973408,161.72546588181825
0.3175,0.4449324039485464,-1.380023122537602,-0.0301607540925204,-0.0125088468077945,0.1041482099537996,-0.0043459981955524,-0.0037245385608106,0.0148595311836494,0.016959956226078,0.9997384934071432,-0.0601399710592927,-0.0487483275324271,10.983530276596971,-0.0935227412248556,0.0144977449273385,1.1278812454194047,-0.758302973942364,1.0465978747597664,0.494662969493632,1191.5365980828676,1238.1850069885331,1214.4401120432758,1208.6345639168476,-550.72796031427,-200.94955866302357,574.8039796058033,1008.9578248182067,161.7285772499637
0.32,0.4505138862110713,-1.6715601138182985,-0.059391502360855,-0.0106255044298327,0.0997784312564625,-0.0041800124587294,-0.0037069852476938,0.0150027971813669,0.0169689516430738,0.9997362928755078,-0.0635398921101384,-0.0485992031012825,10.97806991493918,-0.0935103284389248,0.0147967406049959,1.130396162214222,-0.758463293682277,1.0466672204360012,0.4975024179155114,1190.475007544876,1237.8783862786488,1215.8496362958992,1210.9031398976083,-377.2840028843799,-25.247877529864105,517.2284836601189,843.5599019805513,161.7313521507824
0.3225,0.4674004203324347,-1.914241288382128,-0.0871399783727406,-0.0088738347725979,0.0955254950241699,-0.0039877185607654,-0.003695599335233,0.0151251053517743,0.016975929659651,0.999734404628026,-0.0655131139076582,-0.0479465660831855,10.974253461205317,-0.0934361884700029,0.0150602850147553,1.132890227286564,-0.7586212582339189,1.0467320179760926,0.5003422215500871,1189.6501780684457,1238.0587676008838,1217.0262544615764,1212.8523634267503,-316.09281117885047,163.7644169490612,376.54064465873455,700.4584801488356,161.73431207469946
0.325,0.4913802925372652,-2.138765584737908,-0.1019115819208175,-0.0077610254215966,0.0913372709857948,-0.0041093801285871,-0.0036908190692851,0.0152252102010935,0.0169805448529125,0.9997328539827124,-0.0660662410028141,-0.0467779830867998,10.972082495140244,-0.0932952027411946,0.0152947889939059,1.13538486603453,-0.7587769981772539,1.0467912393269467,0.503180488590581,1188.8945434889815,1238.697208363394,1217.7323395191927,1214.4054322983527,-313.32808773008736,352.36590772024067,130.8217190220147,513.1855322194947,161.73742283701085
0.3275,0.5258992434526418,-2.3628060099238586,-0.0832515329672661,-0.00713248233311,0.0869143981121605,-0.0046034244997646,-0.0036859465323566,0.0153047825738087,0.0169868101373479,0.9997315742593662,-0.065277799046526,-0.0449380509058656,10.97149357315771,-0.0930895569254091,0.0155252553257663,1.1379008941274766,-0.7589300094038007,1.0468445016594787,0.5060155161841121,1188.0835376297953,1239.820597139485,1217.6803630566865,1215.4182910878478,-389.0758662160348,558.7341524812014,-199.6460277120148,324.8912102924348,161.7407126454171
0.33,0.5752183428346057,-2.641758488428412,-0.0014322194818196,-0.0060957457841267,0.0808122407896181,-0.0055233937739326,-0.0036772291950557,0.0153665775081426,0.017000915577086,0.999730434151574,-0.0632598981284653,-0.0423518261268051,10.972361699716995,-0.0928248648261138,0.0157710473293019,1.1404578118079796,-0.75907987158797,1.0468923049581316,0.5088478625152496,1186.9491641579016,1241.4908791258,1216.7341093806328,1216.0298883498149,-440.15838177042457,616.6433716872683,-464.3354203961276,136.01075110805127,161.74486405748016
0.3325,0.6122739688508133,-2.8765965890761556,0.1248088524641833,-0.0046330739670241,0.0749839182818066,-0.0063979673148584,-0.0036649028728142,0.0154146705986992,0.0170214718687568,0.9997293942483616,-0.0601638875252436,-0.0390471466929713,10.974504957870924,-0.0925108707699316,0.016040986754513,1.143072393842044,-0.7592266750575086,1.0469348395705484,0.511679566593284,1185.8827457209431,1242.9038139979211,1215.3586859547058,1216.098344843388,-427.68962141726627,506.65320257580737,-613.8699666775659,-46.45038222911349,161.7484910455231
0.335,0.6289152662159349,-3.0923269796124706,0.3072365748694235,-0.002595144205601,0.0683432413166527,-0.0070093321918316,-0.0036523278872774,0.0154540835696984,0.017046731455747,0.9997283961112368,-0.0561690154783339,-0.03513569362959,10.977691562771582,-0.0921600145560312,0.016335388149267,1.145757534892542,-0.759370237611315,1.0469729437468012,0.5145136602925772,1184.8107160508152,1244.0241451386792,1213.664759547245,1215.797636438669,-399.2020781510743,360.1643989887631,-682.2291477386436,-171.49423907881086,161.7522894651194
0.3375,0.6198926221097387,-3.267464658596951,0.5195669610268954,-0.000302358250993,0.0607000836409476,-0.0068672574325899,-0.0036424064196034,0.0154867264148704,0.017073106418711,0.9997274637080668,-0.0513913561416616,-0.0307339264061722,10.981649262503899,-0.0917777583341961,0.0166530039039885,1.14852204517004,-0.7595103837219456,1.0470097776714282,0.5173537761940188,1183.8867353301875,1244.7046359928652,1211.9475402160126,1215.240873647994,-289.21828430620707,138.27545092358366,-641.3247126168238,-280.89062440508286,161.75622841719897
0.34,0.5795946188575347,-3.360038566983743,0.7327819113373716,0.0017479021877575,0.0516809207869638,-0.0052432825377601,-0.0036355602748775,0.0155130830273259,0.0170993600281558,0.9997266134326492,-0.0459184330245249,-0.0259158368789873,10.986074726687779,-0.0913658365591403,0.0169958533802513,1.151369916768917,-0.759648056773436,1.0470491565081403,0.5202048585157945,1183.3646246292842,1244.715522393297,1210.458135984161,1214.393183316644,-82.02888433838771,-154.8274647891047,-555.7314777359347,-445.7442364707727,161.76033504432735
0.3425,0.5083630230896711,-3.3443539031210956,0.9382373174714712,0.0032636056311064,0.0401497723698598,-0.0018002488038108,-0.0036272114542456,0.0155350904137445,0.0171243997193684,0.9997258543668966,-0.0398716130353136,-0.0206530433971182,10.990643225896019,-0.0909286114165324,0.0173748483409242,1.1542999423146532,-0.759783821058085,1.047093641283775,0.5230689818913999,1183.4765909084958,1243.9304986689197,1209.1688828273327,1213.01215246564,192.74390451255368,-404.046875281119,-372.6751186409271,-573.2587309480091,161.76545475530267
0.345,0.4436096726493378,-3.221606033408844,1.036884984124083,0.0039583418519652,0.0310361889345574,0.0016868490138016,-0.0036173871548696,0.0155597271569524,0.0171508496713515,0.999725034077232,-0.0334877371211435,-0.0150217197962569,10.995020485341964,-0.0904815178483607,0.0177887630688402,1.1573060879997483,-0.7599176445118525,1.0471443159933287,0.5259469659840178,1184.3283441518467,1242.6952880168915,1208.5947603909563,1211.5268896619039,508.2665670811816,-581.0280047536247,-126.45432174676885,-664.3803743720576,161.76987960277452
0.3475,0.3851456039245139,-3.003905018097344,1.040798207658125,0.0044877163162527,0.0233221052538601,0.0051405740958329,-0.0036055325286,0.0155887627220179,0.0171812870994332,0.9997240828580936,-0.0268927592963154,-0.0090891732959258,10.99887453572372,-0.0900272898169665,0.01823586343827,1.1603801273993015,-0.7600490739984064,1.047201180867163,0.5288367676822414,1186.0179237439015,1241.0253586451515,1208.536611218599,1209.6902505937799,911.1134587107235,-797.3300586190355,69.8423083269517,-872.5625609642058,161.77446740069283
0.35,0.3263880716155883,-2.670590106762718,0.9357659662956072,0.0053428903674519,0.0157221826867985,0.0087881284331117,-0.0035935301884186,0.0156230987786158,0.0172133570066338,0.9997230215012952,-0.020199611463936,-0.0029752799728123,11.001884859790591,-0.0895661460958028,0.0187071283024528,1.1635117472096288,-0.7601788021985705,1.047263072508802,0.5317365991794879,1188.8839114454004,1238.7086377237963,1208.943971932591,1207.1640768570828,1147.5399703813882,-885.01992527541,200.19049129687323,-954.2952956787856,161.78015958998503
0.3524999999999999,0.2856005895292534,-2.358599723783174,0.7681572460459343,0.0064215952812462,0.0104424949690328,0.0113643724237423,-0.0035846940963375,0.0156654814283392,0.0172437355231411,0.999721856846354,-0.0135664902285586,0.0031719255169686,11.003750273769628,-0.0891018330817666,0.0191898994349914,1.166688583498167,-0.7603088409778876,1.0473289960508216,0.5346462910717024,1191.7556235958086,1236.6002590187743,1209.5375636750834,1204.918774115386,1178.2714484841683,-877.8480078873233,248.94639103831904,-886.1028388737486,161.78505773229313
0.3549999999999999,0.2534042152022641,-2.030944246205617,0.540843126201701,0.00750269495655,0.0056141270347533,0.013568602150185,-0.0035846545830845,0.0157176816958533,0.0172704281592819,0.9997205800702847,-0.007134074557311,0.0091563337988772,11.004196720567595,-0.0886351572248982,0.0196665025708819,1.1698971502745077,-0.7604404625277149,1.0473981116435138,0.5375670099783953,1194.7752686878212,1234.3193976843595,1210.1887038877824,1202.733562662714,1175.1932056307385,-947.4437314048365,239.41798943137636,-832.389435553113,161.7901152403118
0.3574999999999999,0.2333587436772923,-1.6971468416613344,0.2888433074626455,0.0081444526365067,0.000813773301833,0.0152805586416611,-0.0035937304398225,0.0157703731765567,0.0172894222098111,0.9997194031598704,-0.0007998501162677,0.0148988451744118,11.002982161517163,-0.0881404314042778,0.0201315772207423,1.1731247835866905,-0.760574445954529,1.0474696472527647,0.5405020266404987,1197.6315896239623,1231.8630403617503,1210.7346536222403,1200.7568269376204,1042.9560177115936,-1029.7890979799822,164.21134533079552,-709.7661992930164,161.79530409113056
0.3599999999999999,0.237886727563317,-1.3632760668029695,0.0472891442508654,0.0085763917430676,-0.003233060072967,0.0158253325570084,-0.0036089240615114,0.0158190462158731,0.0172990694967931,0.9997184320546916,0.005433644020468,0.0203983156424024,10.999898187772382,-0.087602997016572,0.0205890762745966,1.1763575460498863,-0.7607112128978,1.0475433403912868,0.5434516360604351,1199.9900487763791,1229.1704521944598,1211.0097606144363,1199.184731666249,870.5413035082522,-1227.4384894455568,39.414812194809166,-575.5212396220481,161.8006503830893
0.3624999999999999,0.2837005869566933,-0.9789799893464842,-0.1708993671888413,0.0095032329415487,-0.0059561551258823,0.014565911758098,-0.0036253465825179,0.0158665207202099,0.0172999288943635,0.9997176268407444,0.0114051623203413,0.0257001598577012,10.994772543980362,-0.0870260463962364,0.0210492473106566,1.1795807497702435,-0.7608506444541873,1.0476179982332607,0.5464128503699169,1201.9842961415036,1225.7258479145223,1210.9317276832144,1197.87922073951,577.2400495185587,-1273.3530310351387,-95.67303123039885,-378.5780206458636,161.80724675807346
0.3649999999999999,0.3646206600333283,-0.6833517607471002,-0.2547410437643556,0.0103258916434136,-0.0065473389690041,0.0119873034485005,-0.0036373401765174,0.0159127024850416,0.0172938831237966,0.99971697512285,0.0170223193041862,0.0308666056524784,10.987471460184924,-0.0864074342190066,0.021525536336996,1.1827815394964478,-0.7609922894358649,1.047693338424221,0.5493829288147107,1202.876249023972,1222.803687039284,1210.5313954582844,1197.2918415630195,206.8025698690688,-1133.9449157730076,-213.13623755709136,-141.13273296156865,161.81289355327615
0.3674999999999999,0.5025438530639206,-0.4096787800551056,-0.2166842624970914,0.0105088501198856,-0.0069297611140076,0.0086716794089695,-0.0036436879618494,0.0159559482445786,0.0172884188133613,0.9997163761747576,0.0222342814524914,0.0358601938105123,10.977900378530755,-0.0857434655022428,0.02202280336326,1.1859491752443845,-0.7611328119403464,1.0477689239496168,0.5523583635854569,1203.0183089908487,1220.0561233356575,1209.8660464954287,1197.1735570747023,-72.78707450841459,-1109.3447150272812,-321.2527908347508,29.95593069972526,161.81869478786075
0.3699999999999999,0.7395871291727517,-0.0781468898615877,-0.0581972293188334,0.0103302434158758,-0.0084977447891709,0.0060608488849149,-0.0036476008520239,0.0159962034326087,0.0172898020379724,0.9997157098158868,0.0269639412754209,0.0405462808716644,10.966002394040254,-0.0850370045293625,0.0225362624398529,1.189074390679689,-0.7612684100514172,1.0478444284816206,0.5553392570538442,1202.51231365143,1217.2569634641477,1208.9251315041108,1197.4416212165183,-261.80684118116886,-907.2809469307223,-340.2963094865751,140.15830249486487,161.82583351565123
0.3724999999999999,0.9827801732703728,0.2225797271110672,0.1143193005071839,0.0109722625496302,-0.010122034797395,0.0066169380254472,-0.0036512346217768,0.0160400600068442,0.0173025550830151,0.9997147839988384,0.0310024170561618,0.0448152676064321,10.951754379965992,-0.0843092642090609,0.0230643551828501,1.1921480282032002,-0.7613971348721876,1.0479184616206716,0.5583280335994424,1201.709274784943,1215.519718601004,1208.164564947996,1197.8743485871767,-360.133223712182,-548.396390981588,-264.73968891036725,182.3397682438097,161.83192915003687
0.375,1.2308737775303187,0.553392026143312,0.2535326741362283,0.0136640228069626,-0.0103885920690608,0.0095373460895035,-0.0036539738357685,0.016093136127666,0.0173274275054152,0.999713498562439,0.0341793805809236,0.0486178648555241,10.935164345349127,-0.0835813083529362,0.0236119520867105,1.1951621424068475,-0.7615180001283915,1.0479897047379647,0.5613257964825294,1200.7116475328692,1214.5149815092395,1207.6014330595588,1198.3533200577372,-412.2834811828849,-282.5274401452132,-169.2523164856992,176.69822364300654,161.83817574032582
0.3775,1.4414484606318403,0.8931825902764409,0.326531898186659,0.018019807215758,-0.0088556955910004,0.0126008063285494,-0.0036528448281783,0.0161519320759651,0.0173624232959599,0.9997119549107836,0.0365430763332412,0.0519529374919639,10.916268803475088,-0.0828537259784015,0.0241886934368904,1.1981114622484583,-0.7616305956931169,1.0480579868628592,0.564331952613355,1199.6478573790287,1214.1070814002778,1207.3183033655675,1198.7578397053917,-437.6507924281664,-44.179071776352394,-25.414617983324185,124.5358982243032,161.84454643681462
0.38,1.5655179650593318,1.2136922973380744,0.3097349071487647,0.023409896389013,-0.0055491881104037,0.0144006869401146,-0.0036426779070092,0.0162060866034187,0.0174057585248628,0.9997103691256872,0.0383115322487666,0.0548645713839251,10.895129436592676,-0.0821107765276317,0.0248084783334734,1.2009931222199615,-0.7617351763910484,1.0481254211551712,0.5673446057500235,1198.5233935707283,1214.294086150358,1207.4743599696424,1198.975999548859,-525.0303410389729,168.08486674176478,178.47783331135344,38.85270004784612,161.8510653417061
0.3825,1.591132630887922,1.5438545207380228,0.205171197726099,0.0297779662355278,-0.0010075944701759,0.0150347271266322,-0.0036154833696994,0.0162497740193339,0.0174563895515176,0.9997088812854708,0.0396233869420818,0.0574608261400146,10.871829460474403,-0.0813467078242036,0.0254910264668682,1.203804734248942,-0.7618326278439062,1.0481941174444243,0.5703622896410968,1197.0227056738336,1214.9475057339866,1208.2106925321243,1198.9521032056307,-594.6813113252568,268.3266927343991,348.31653167925623,-60.6299844112072,161.85905727814423
0.385,1.5162804165109407,1.7588134309170456,0.0684941978061536,0.0343070743108355,0.0026384188014699,0.0149057320882916,-0.0035652162707147,0.0162868394249325,0.0175118706950052,0.9997074888867002,0.0404233420049245,0.0598142545572887,10.846472534716952,-0.0805778206018353,0.0262501542329627,1.2065435988462736,-0.7619248532365668,1.048266242236489,0.5733826765267696,1195.549987014102,1215.63571961403,1209.2159426280386,1198.6728496268029,-654.3662887013392,260.0013034593301,439.04947654227686,-167.89513286212227,161.86585656465536
0.3875,1.3689360028704107,1.895254351159312,-0.0999180073518695,0.0378011581297854,0.0066586606301078,0.0148358643677752,-0.0034927075989098,0.0163181383974349,0.0175628782491983,0.999706329065456,0.0407321996670547,0.0618548513360681,10.819182995543128,-0.0798120974768239,0.0270806814581454,1.2092085974462436,-0.7620149489569514,1.0483433217973683,0.576404153538775,1193.750874230327,1216.2475122512833,1210.4059399148357,1198.1126275413203,-778.7466329979445,208.79795256141716,453.2547102437544,-273.4989052579292,161.87279823585445
0.39,1.1877732604649827,1.950292126322462,-0.2834794746412924,0.0410251664060256,0.0115227251974773,0.0149872647230626,-0.003400898612428,0.0163363078954332,0.0175996941999582,0.9997056688254682,0.0407605853634195,0.0634730670053826,10.790103089013828,-0.0790356414581527,0.0279707599793418,1.2118000980783807,-0.7621047855805348,1.0484255660242363,0.5794272511831409,1191.6562538491123,1216.679709376837,1211.4822161792574,1197.3053551005132,-900.6937701606595,117.24342085744856,325.17027294843473,-388.39738192336847,161.87985611578023
0.3925,0.9993497618447617,1.88665773835468,-0.4675139608991075,0.0441175260579406,0.0172763652702369,0.0147283958358026,-0.0032899842624877,0.016336621308054,0.0176172851805463,0.999705657413605,0.0406736649996463,0.0646297803529114,10.759389989657455,-0.078238377698301,0.0289151692868403,1.2143171803067383,-0.762194338944274,1.0485114441701353,0.5824543835465665,1189.2474053795236,1216.8337293555703,1212.0317912795779,1196.1706406317035,-1105.4172844025732,5.336111376755065,26.02796897449477,-582.5235622024132,161.88705159390793
0.395,0.8143925523526374,1.6615646172191512,-0.6534442946920102,0.0463198894064961,0.0242463337393897,0.0131519433269454,-0.0031667030595542,0.0163210358490708,0.017612669998603,0.9997062740729522,0.04049696624894,0.0651607278355263,10.727218345805376,-0.0774247866377551,0.0298930062828833,1.21675699400353,-0.7622850542678604,1.0486000128635908,0.5854886182309165,1186.1291674270994,1216.7063899337209,1211.61235602413,1194.3927372895012,-1153.0053937408854,-88.84859159220461,-381.3864217482202,-723.1725169943721,161.89584157388305
0.3975,0.7318346684401296,1.3608062620420167,-0.748453215572122,0.046310384215134,0.0293524946429029,0.0107391701999126,-0.0030379012878518,0.0162989798925135,0.0175854689280975,0.9997073298500903,0.0401011763040757,0.0649181969772779,10.693777847110711,-0.0766160570100632,0.0308835548890369,1.219114252090062,-0.762378091196022,1.048690608705727,0.5885313471794956,1183.4823784108191,1216.3894863976095,1210.1248591708368,1192.5547780467316,-1030.3627174493604,-155.84501441971935,-849.1343568774473,-803.4273552502774,161.9032930743768
0.4,0.7491871440825348,0.9807105637489512,-0.7505294561615117,0.0452748866988412,0.0328587594183354,0.007561901914725,-0.0029120608137935,0.0162822957097128,0.0175397134511761,0.9997085181990956,0.0393098351117686,0.0637375769130651,10.659273699087263,-0.0758384048488072,0.0318626292074234,1.2213823678430038,-0.7624743083340344,1.0487827660405455,0.5915816007761691,1180.9773538398526,1215.9271648616223,1207.3666842397427,1190.3756005132495,-1027.7189043762507,-223.58399259569504,-1474.211591067568,-1018.1012304554304,161.9108719302355
0.4025,0.8651875045454193,0.5000778371478882,-0.6325379451963272,0.0449097874048324,0.0343466681132342,0.0038712719724001,-0.0027957861723601,0.016279885418533,0.0174847683857357,0.99970949926509,0.0380132941978206,0.0615114732703769,10.623925107017415,-0.0751104543426321,0.0328109893481888,1.223554387793866,-0.762571269807537,1.0488747055740104,0.5946402557250801,1178.343783888938,1215.271566434631,1202.7538012154987,1187.4642718944544,-881.0377387045256,-250.90756585409483,-1854.3687063114232,-1093.3399349493802,161.92010873332418
0.405,0.9899994479323558,0.1294983310209413,-0.4442200331894824,0.0468358420103224,0.0332709536645595,0.0015616867763314,-0.0026914194259537,0.0162926957473969,0.0174322769686212,0.9997100437348504,0.0362715120701052,0.0582395106250803,10.587963768105336,-0.0744315221824487,0.033719502485746,1.2256239216506273,-0.7626663737517171,1.0489659723159876,0.5977092536486595,1176.57216514633,1214.6726270323516,1198.0948407081855,1184.9089008385029,-608.9316216119181,-244.3982308285283,-1946.666386451623,-1012.3922143374776,161.92792090914426
0.4075,1.0613974485788693,-0.1705600652301929,-0.1953107702586411,0.0510708148831557,0.0311099664618123,0.0003881970596494,-0.002599011884106,0.0163164536306926,0.0173923275423804,0.9997100567194503,0.034249537498233,0.0539877877200179,10.551633045777136,-0.0737887652836319,0.0345837970182287,1.227585339905699,-0.7627576663949525,1.049058172040138,0.6007866563115886,1175.2991257808785,1214.0495752804884,1193.0204692832408,1182.402310822767,-430.88054989925655,-247.88811422522463,-2029.6768203986608,-965.452132534664,161.93584856178222
0.41,1.034729189546938,-0.4078202861018975,0.0698298164980182,0.0557390951678768,0.0291163111640416,0.0002180771331759,-0.0025153195980993,0.0163498416205361,0.0173698357887474,0.9997095194948312,0.0320415038744352,0.0489129856668864,10.515185167948387,-0.0731773248601822,0.0354065447162149,1.2294330330047976,-0.7628437697026768,1.0491534895604095,0.6038687062345317,1174.4177623968335,1213.4331864612257,1187.9464566061922,1180.0816401758295,-279.69495903948854,-238.4133519652549,-1954.0302278309791,-854.2481929000124,161.94386975441165
0.4125,0.8544514712064935,-0.590254889289262,0.3102334489029148,0.0596318115350177,0.027624627055899,0.0012611206675268,-0.0024384649501091,0.0163921513745921,0.0173645005268329,0.9997085216483148,0.0297184555052667,0.0431616685401426,10.478879954862732,-0.0725944774403358,0.0361859931822688,1.2311623713985815,-0.7629245027444302,1.0492527905873719,0.6069553634004349,1173.900650985681,1212.857508520662,1183.250318144086,1178.1310698582668,-188.4547534473766,-240.65286348768473,-1904.1784702296795,-750.414987834028,161.95200171460473
0.415,0.4520835178435443,-0.7871555130797752,0.5194743036943739,0.0634154696139981,0.0263538508794857,0.0038406380404868,-0.0023712449784337,0.0164397727560518,0.0173715446805825,0.9997073062882756,0.0274006072293161,0.0367985857183925,10.442982233531149,-0.0720306106985272,0.0369080078398581,1.2327705354349379,-0.7630016069112057,1.0493574408464887,0.6100459864295912,1173.4754886295968,1212.2299221437872,1178.4255642550438,1176.3295652366592,-163.1521507838459,-225.9541431055391,-1600.5177257246196,-566.5220074585308,161.96188629259933
0.4174999999999999,-0.0214591068794938,-0.9607421955193992,0.603133099193401,0.06585917457856,0.0255204122680287,0.0068618531007293,-0.0023203220370182,0.0164938252794475,0.0173879674211658,0.9997060477102346,0.0250996527427178,0.0298238467691221,10.40775643783732,-0.0714871000115544,0.037549467391855,1.2342554073172824,-0.7630769100503851,1.0494684113475037,0.6131412246219442,1173.0848902317618,1211.7277378051344,1175.2477295154629,1175.2984598209744,-209.2167690283098,-219.90132080313967,-1082.7695263654389,-320.49460242401767,161.97022783270708
0.4199999999999999,-0.5892660477045008,-1.1614989996260159,0.5873589182613332,0.0669748768012878,0.0243722102049052,0.0100118099734387,-0.0022892070979699,0.0165580089613488,0.017414081903619,0.9997047933219632,0.0227676725347231,0.0223154943160304,10.373459485234603,-0.0709704611341877,0.0380962772983963,1.2356154733525513,-0.7631521439086763,1.0495853722508264,0.6162412471309477,1172.4294047844553,1211.1304155397715,1173.0117166232167,1174.727092224539,-331.087345350397,-283.93751657822554,-746.8392055175165,-161.00073558036442,161.97867736953236
0.4224999999999999,-1.174406367686964,-1.380752041969624,0.5069119902727073,0.0660018296644635,0.0226323570378639,0.0123441510142977,-0.0022769863502568,0.0166332002921838,0.0174539104109666,0.9997033339194664,0.0204099895516986,0.0144487793771227,10.340335436679604,-0.0704790355673535,0.0385470864673853,1.2368506446492422,-0.7632301224657069,1.0497069861945263,0.6193469618913864,1171.4294535050099,1210.3080502222433,1171.5135334878753,1174.4934561430723,-494.55513911716434,-425.3439534638342,-450.8437043616592,-25.540175760943363,161.98721656764565
0.4249999999999999,-1.6845153113687872,-1.5965232900174229,0.390678576273185,0.0613232582133207,0.0196693150878284,0.0130532285224509,-0.0022782649595945,0.0167107213094171,0.0175046671074836,0.9997017296541701,0.0182203458881793,0.0064917223623457,10.308610367194367,-0.0699875987544707,0.0389127732521387,1.237963428150774,-0.7633124940629792,1.0498319969877696,0.6224584206425745,1169.9566290888695,1209.0036957724524,1170.7574981014084,1174.5993913457346,-742.6317182924315,-731.4247458746642,-215.57144594144097,102.98525637322192,161.99586418049768
0.4274999999999999,-2.090116124907387,-1.7999377472343132,0.268983032041978,0.0521592998982339,0.0142532793697345,0.0126185460190493,-0.0022838190015533,0.016786084882732,0.0175615785582081,0.9997000587722435,0.0162979200407116,-0.0012110342686502,10.278485504447072,-0.0694817478750498,0.0392164268458918,1.2389573736525563,-0.7633983981920922,1.0499569031972196,0.6255753592879554,1167.7162949135477,1206.65092649287,1170.435676258168,1175.0083824249386,-867.5097521318995,-1010.259655056824,-64.4829886720799,175.56642179893046,162.0063664458692
0.4299999999999999,-2.199579292830692,-1.884212778798072,0.2145393648739584,0.0436519104805122,0.0086155146325783,0.0120391859131809,-0.0022826754293443,0.016849351693683,0.0176202261226269,0.9996985264488594,0.0148478141090656,-0.0082909458018978,10.25013218100192,-0.0689347791508179,0.0394881348624878,1.239838996599911,-0.7634841138057401,1.0500789748225403,0.6286961998469848,1165.61908032821,1203.9523974971682,1170.435083158048,1175.4772234547293,-826.3396823886972,-1222.3424506338677,8.869713666945238,180.4035325631501,162.01522176085362
0.4324999999999999,-2.0598599184436353,-1.8477179669444008,0.2270200148042808,0.0361701558647716,0.0028077078499346,0.0113553020505452,-0.0022704085928538,0.0168925381096444,0.0176760828021958,0.9996973209240634,0.0140268166045416,-0.0145272823414127,10.223686313300915,-0.0683269749718374,0.0397443435427532,1.2406176766389896,-0.7635666430167638,1.0501973014440629,0.631819350439725,1163.5845965016042,1200.5392142397006,1170.4800248265028,1175.9104000877544,-799.0082046586841,-1617.2741636250962,-2.9395685252438826,134.39802666071034,162.02418253237065
0.4349999999999999,-1.6516929525770672,-1.6541595614573454,0.3145062181760192,0.0292402840274015,-0.0037350313529747,0.0103626340243249,-0.0022453555664867,0.016909557940738,0.0177275882643683,0.9996965626077504,0.0139492087758811,-0.019772885521749,10.199241162095344,-0.0676451340443793,0.0399968775663113,1.2413055235625845,-0.7636445086056368,1.0503106366269908,0.6349419033461383,1161.6240393049163,1195.8660266790428,1170.4203853154215,1176.1492135880328,-585.6337023380087,-1755.1889434173956,-46.31967760656149,5.582946295135111,162.03505400257353
0.4375,-1.1720716197250791,-1.3789663180048055,0.4248363921689249,0.0254832361628187,-0.0086473040610965,0.0101647271137901,-0.0022059128447883,0.0169025343620485,0.0177754921654591,0.9996962076094094,0.0145612035688022,-0.0238992015016826,10.176840877897392,-0.0668979024344553,0.0402590629030402,1.2419161551570794,-0.7637157049940045,1.0504189587359776,0.6380615755274934,1160.656427989914,1191.7632695226137,1170.24842643847,1175.93831481923,-210.69780122411407,-1610.7707556645423,-80.2649958860001,-199.58559048050105,162.04420909489548
0.44,-0.6335424660636955,-1.019490289505056,0.5250410475095841,0.0240508479713769,-0.0124312979636241,0.0118862701042899,-0.0021564802030135,0.0168784077200351,0.0178232981890044,0.9996960757087228,0.0157105631761817,-0.026920551443826,10.156477823496909,-0.0661070384904566,0.0405299742844872,1.2424651774657596,-0.7637789391163278,1.0505234072567171,0.641176893757257,1160.570550298796,1187.81217290072,1170.0190603359915,1175.1512856356303,112.14978760690418,-1503.213409812996,-82.12704567868052,-415.878182887354,162.05345858109436
0.4425,-0.1085097793234975,-0.6296088245388405,0.5759116787051513,0.0244785357079304,-0.0144931626751729,0.0153320012507259,-0.0021030844113998,0.0168444377007456,0.0178713468079382,0.9996960393381568,0.0172392405722129,-0.0289055940886511,10.138089879646724,-0.0652957223313432,0.0408037769793925,1.242969719302617,-0.7638339175256244,1.0506256070658204,0.6442862448337717,1161.2171769279487,1184.2472024735487,1169.8377912100766,1173.8589239047933,397.19311922076446,-1283.871557394376,-39.89004642212418,-620.4035027979893,162.06278209974013
0.445,0.3409470299222236,-0.257931556654227,0.5386169151477901,0.0265704650042095,-0.0141739602552156,0.019368683550552,-0.0020541313709223,0.0168094354895867,0.0179201258402993,0.9996959384616164,0.0189581137257895,-0.0299930550254156,10.121560133645353,-0.0644903978989771,0.0410676527174509,1.2434473687751735,-0.7638813062904989,1.0507271833050915,0.6473882586466289,1162.5565158948998,1181.392815113748,1169.8196101038811,1172.0492681216404,659.5009501864746,-1055.4871257304503,38.50395431159082,-867.2346474155795,162.07218903060453
0.4475,0.7481329505557311,0.1109905467524009,0.4036873557382245,0.0298830846956359,-0.0121572854006346,0.022742022985964,-0.0020111354968761,0.016778847440343,0.0179690585174348,0.9996957016058516,0.0207481435336934,-0.0302050049470771,10.10671754859748,-0.0637072779643524,0.0413242305692132,1.2439149114260044,-0.7639236664886808,1.0508300432799047,0.6504835064954482,1164.514681678881,1178.9697668448964,1170.0303109816343,1169.5227506677152,694.7668174338554,-716.7841177772509,103.04973092515856,-943.2801770196413,162.0835657453783
0.45,0.9676484709373648,0.3363556261495364,0.25605978199596,0.0327013179770807,-0.0103457243944995,0.023554891467559,-0.0019728097026909,0.0167518115119645,0.0180148562988394,0.9996954164005564,0.0226153583632613,-0.0295298026590093,10.09334141429998,-0.0629446319279532,0.0415811269618062,1.2443877860165031,-0.7639649660418796,1.0509352854165164,0.6535749192043356,1166.030349982069,1177.808894524862,1170.3348587585067,1167.332867236542,487.9690715856664,-303.36599412048565,110.65883721234958,-850.9090089521569,162.09311389220932
0.4525,1.0701634976019812,0.4822233195368795,0.1337587103849689,0.0354447331304225,-0.0092405249970793,0.0223919238787732,-0.0019345977174045,0.0167254660160528,0.0180514933976463,0.9996952576303456,0.0246010571046853,-0.0279095417462395,10.081166253230094,-0.0621932371497398,0.0418525247523505,1.244878490295464,-0.7640081757874703,1.0510434712856511,0.6566658685528186,1166.9545270368092,1177.452936874294,1170.5836051676963,1165.2682056229546,190.82358223713507,-10.904697080286487,35.6883662682321,-854.2043046942573,162.1027245258257
0.455,1.0777314160094276,0.5867957751950345,0.0707070748282487,0.0384525276444449,-0.0086835341074093,0.0199895746838427,-0.0018901019597027,0.0166992664322693,0.018077376459106,0.9996952819736588,0.026693429265201,-0.0252673027460833,10.06988864138714,-0.0614468385722067,0.0421567542866104,1.245395620911328,-0.7640546991684891,1.0511537161631983,0.6597587398614715,1166.9844678932548,1177.7543710394605,1170.513300589848,1163.0618457130709,-195.47333990585668,194.10236758626507,-130.86711736737004,-764.4914414956468,162.11432020614083
0.4575,1.0035899031202629,0.6254398244394971,0.0997835060377223,0.0403216245970292,-0.0080833528715012,0.0185256427638411,-0.0018342762483892,0.0166719247639954,0.0180899046752587,0.9996955716922556,0.0288856558177203,-0.0215688934006651,10.059176034963055,-0.0606957831420839,0.0425080548901524,1.2459443987390515,-0.7641045204872877,1.051264959715482,0.6628549002549553,1165.97716033728,1178.4234487122253,1169.9292695808595,1161.4457484154764,-608.6995575977647,303.6865445717464,-378.6816872625419,-619.5663818817133,162.12402857623835
0.46,0.8583673720185542,0.6113063672444472,0.1942153750349695,0.0417325758565229,-0.0064871650967507,0.0185010502722639,-0.0017657683452832,0.0166433599421343,0.0180931718195932,0.999696058021173,0.031136630930439,-0.016868919945508,10.04867603521558,-0.0599320718368495,0.0429116181733154,1.2465268111395584,-0.7641576746535039,1.051377145337624,0.6659557861039612,1163.940970105266,1179.2728037623192,1168.6198921535351,1159.9640138036623,-951.9945570000792,330.0478882735203,-650.8907168608852,-591.92667638822,162.13377501657865
0.4625,0.6540726980136774,0.5460506768886088,0.3143575375968692,0.0435241948181456,-0.0043262650968612,0.0194720287493994,-0.0016844543337104,0.0166112789059955,0.0180939587310909,0.9996966580838732,0.0334403655883572,-0.0112589959357103,10.038025633147743,-0.0591418710217684,0.0433693126057173,1.247142226619162,-0.7642146336133517,1.0514904974340369,0.6690631403097858,1161.2171875522797,1180.073688153593,1166.674815996555,1158.4861150335353,-1192.2795938457955,261.9038997923324,-911.3712948636014,-613.6908083364227,162.1435459719194
0.465,0.3720254231933775,0.4166690244352114,0.4308333383242579,0.04599011481717,-0.0022978344714914,0.0212387195277323,-0.0015876286811486,0.0165700277221024,0.0180968354006238,0.9996973895337458,0.0358507215664919,-0.0047882708003276,10.02685992044393,-0.0583037329408245,0.0438888409499894,1.2477877813908056,-0.7642752570353489,1.0516053385353548,0.6721761063719539,1157.9795721360367,1180.5823232612809,1164.0630356792171,1156.89555976198,-1447.4493154219076,103.0836718876798,-1247.455455778662,-739.2723504433427,162.15333767146956
0.4675,-0.0512077068897308,0.2005398935749189,0.5346938035414172,0.0485590221989257,-0.0006143321067675,0.0237963262856071,-0.0014756232575134,0.0165173645777866,0.0181079033876625,0.9996981806238304,0.0383466806926349,0.0024270596661462,10.014821964668572,-0.0574062739633878,0.0444704386138111,1.2484586550387984,-0.7643390855926835,1.0517218060836055,0.6752913117062043,1153.97994097517,1180.5891065130313,1160.4375387176617,1154.7897532813183,-1415.699976600898,-126.29970246503024,-1357.7631853242551,-796.283195457908,162.16510042850538
0.47,-0.4492223801268203,-0.0096165480826153,0.5814581906044007,0.0493373553108634,-6.600157768078863e-06,0.0258373820843842,-0.0013475066996504,0.0164586107150893,0.0181334009451475,0.9996988333264504,0.0407544931374475,0.0102938103053455,10.001570684908245,-0.0564592847143168,0.0451178091360154,1.249147573109494,-0.7644035122981372,1.0518391998232044,0.6784058020997477,1150.9010722530325,1179.9508247489557,1157.274219752596,1152.9141437846906,-1109.4659018698612,-402.67739187038353,-1229.058324951801,-741.4363494703133,162.1749052912749
0.4725,-0.8378573935825104,-0.2177557147703975,0.5895180261354936,0.0477095218271303,-0.0003146959235389,0.0273271855477216,-0.0012089490368501,0.0164029309148146,0.018171149554917,0.9996992270280108,0.0428219869720299,0.018587563970791,9.986791211984372,-0.055486209422556,0.0458177599240745,1.2498458798073029,-0.7644652042237094,1.051956066018708,0.6815201206848814,1148.4326114658209,1178.5757195536792,1154.2922470929027,1151.0825715339668,-853.8865470149623,-664.1424925773657,-1119.8971613971016,-687.0083037968919,162.18470340663296
0.475,-1.1672396431264107,-0.3969517039970849,0.5729219412086772,0.0439383433244806,-0.0014300226408005,0.0283089741145197,-0.0010694739588187,0.0163562130511312,0.0182134846474634,0.9996993891952136,0.04436702046463,0.0270069482489673,9.970202531403682,-0.0545061462113463,0.0465468902690994,1.2505439232498807,-0.7645212924787753,1.0520725538642277,0.6846377401484545,1146.6316395179576,1176.6301122860689,1151.6747339456103,1149.479102265706,-551.8450530375499,-884.3987663363342,-922.296506161637,-537.1747497100382,162.19448899344545
0.4775,-1.3738457516617588,-0.5115685514032315,0.533005504812803,0.0390492295802081,-0.0035193741958362,0.0289467532978076,-0.0009371040466144,0.0163255985294072,0.0182599880224627,0.9996991968678596,0.0451967152368103,0.0352807756609381,9.951562823805263,-0.0535434202214216,0.0472858572174101,1.251230108634542,-0.7645697628585995,1.052188623926205,0.6877610618795615,1145.673386200633,1174.1537257219975,1149.6807645620945,1148.3966977854168,-258.00235516194596,-1152.6197288712071,-710.5217356740086,-309.06637953521886,162.20425116843947
0.4799999999999999,-1.4459596990336558,-0.5507012757793587,0.4550677339790779,0.0336813081813469,-0.006870583959074,0.0299319328906818,-0.000820857372649,0.0163146144849022,0.0183124681426782,0.9996985471200788,0.0452064343175171,0.04312014195143,9.930675871394849,-0.0526153265898083,0.0480122734896884,1.2518920712426087,-0.7646101819713887,1.0523043783498989,0.6908905877452703,1145.341627742148,1170.867013641713,1148.1221252672403,1147.93377036803,-31.935789019690088,-1209.3848971388193,-435.7512202088445,-19.71539402070468,162.21592804228044
0.4824999999999999,-1.3552037775535473,-0.5019153890428378,0.3551544127966698,0.0296901401648247,-0.0097255865501429,0.0314181054813472,-0.0007238430490337,0.0163200382358772,0.0183742659920482,0.9996974263728956,0.0444467204649162,0.0503568494532915,9.907393528579936,-0.0517231457104985,0.0487175563588481,1.252516950720068,-0.7646422323857234,1.052421157229468,0.6940238486874097,1145.5137072555347,1168.1068012363037,1147.5020084610503,1148.2981208153133,91.08437173927075,-1058.7496795411416,-134.12770613795135,279.90695670105174,162.22561954759988
0.4849999999999999,-1.1168562633982215,-0.3956541580581245,0.2082388805267837,0.0258723037336784,-0.0114408364313114,0.0336633724819277,-0.000642824268925,0.0163335123388372,0.0184488696865684,0.9996959089496584,0.0430912575518384,0.0569539514760292,9.881618479788914,-0.0508553432185603,0.0494078943426307,1.2530915999085237,-0.7646661067755269,1.0525402465638563,0.6971590665894736,1145.7970496008443,1165.5732652440072,1147.4514867365508,1149.3333051515351,67.9229297466008,-1028.888916339246,53.67280879800087,546.4433697769887,162.23526110193154
0.4874999999999999,-0.6867003269815618,-0.256572356125123,-0.0123356927246458,0.0218488403643801,-0.0115349750621479,0.0361778428531074,-0.000573376872289,0.0163491356533289,0.0185316339713537,0.9996941781194202,0.0412811961262775,0.0629095126554804,9.853307574554089,-0.0500067371580124,0.0500912249715871,1.2536024846706804,-0.76468325978882,1.052661596609694,0.7002958859565882,1145.8533219042677,1162.9623566546074,1147.7703725050403,1151.0303376641982,-75.7610122325786,-882.2229341883933,128.59832391186487,633.8311340494778,162.24676277241588
0.4899999999999999,-0.2420192014524459,-0.1705030277278103,-0.2008328787763311,0.019777174678285,-0.0104109370338546,0.0368650948760393,-0.0005079732038067,0.016363952381403,0.0186190725839901,0.999692350194436,0.0391184568115012,0.0682927091810855,9.822472213646826,-0.0491779562719927,0.0507827903483438,1.2540355880496532,-0.7646957838080832,1.0527855731397069,0.7034344754416825,1145.4182445396812,1161.1621505730652,1148.09447835611,1152.5024608217827,-309.4931954763976,-660.0994932939096,75.73063905733754,516.5276837894903,162.25628328156446
0.4924999999999999,0.2343833926771395,-0.1423009963519777,-0.3320176175797722,0.0203376460232138,-0.0093227016168617,0.0350735616690202,-0.0004404695555614,0.0163808438481991,0.0187080750376159,0.9996904396986974,0.0366057384425217,0.0731573372773542,9.789179582670068,-0.0483824505252162,0.0514941213285962,1.2543766939790286,-0.7647049292880492,1.0529124196414568,0.706576143802735,1144.3058559268857,1159.661859188138,1148.149025700327,1153.6129760831457,-562.1835932595327,-574.0833973405183,-68.54289143907403,324.8056118423844,162.26572855191614
0.4949999999999999,0.6905944660772007,-0.1621891685898124,-0.3690372973953765,0.0231531019704376,-0.0090492375503279,0.0316395911403405,-0.0003678897140223,0.0164012729034,0.0187922433186487,0.9996885455569336,0.0337848286319835,0.0775064514397651,9.753552471605463,-0.0476284740122423,0.0522282034944868,1.2546125488475113,-0.7647121782143198,1.0530422359196212,0.709720820785461,1142.6073265733835,1158.2917335863626,1147.7517638989148,1154.1264888809947,-799.855971387523,-546.5595993672646,-308.6402079116394,6.328679733269377,162.2751051752038
0.4974999999999999,1.083708647835315,-0.2240915313820345,-0.2646604986838207,0.0271134361604084,-0.0096527065237575,0.0279305609007737,-0.0002936009083073,0.0164216856468716,0.0188671036918431,0.9996868097594171,0.0308029685761277,0.0812293218767617,9.715768651361756,-0.0469095918673421,0.0529718373681321,1.2547318613143992,-0.7647192104804249,1.0531748854967966,0.7128660911822448,1140.306576069948,1156.9290611913016,1146.6058246607688,1153.644619481812,-1097.706951996496,-625.1369669572335,-701.151722074473,-479.286326895453,162.2843916117192
0.5,1.467654034221157,-0.3222631640857892,0.0044196632135843,0.0312388201339777,-0.0104656422083435,0.025126006624602,-0.000218017670266,0.0164356853720692,0.0189315048749441,0.99968536077802,0.0278687506578709,0.0842843343052314,9.676054256514691,-0.0462096478375608,0.0537193429329815,1.254724287545764,-0.7647269952282548,1.0533098712320357,0.7160091059145512,1137.1187918134012,1155.1660487515765,1144.2460052885424,1151.7300572465172,-1190.717430462868,-674.7756852831036,-1022.8078349884858,-923.7159969089932,162.29542165460683
0.5025,1.7189544441015638,-0.4070995966544415,0.2985941506118032,0.0340597339102087,-0.0110576580928558,0.024838833646782,-0.000138808914805,0.0164354161912472,0.0189891685640307,0.9996842614674,0.0252205080561474,0.0866939140319212,9.634679476388813,-0.0455063697780362,0.0544723410456465,1.254580151389296,-0.7647359835857948,1.0534464960245686,0.7191506904707462,1134.3529889176336,1153.555182764886,1141.4917854858263,1149.0260394972668,-1072.8052979110987,-667.285698725936,-1230.9582948726973,-1279.417906049456,162.30451183753755
0.505,1.8990127193964448,-0.4729319908045562,0.5836030473579167,0.0373723554801524,-0.0120221092586515,0.0267597566897606,-5.7017536635859766e-05,0.0164163846578499,0.019040612476761,0.9996835806490272,0.023023605171353,0.08842929272044,9.591955288134207,-0.0447850409538998,0.055224311339832,1.2542904014974576,-0.7647457253927814,1.0535854196684675,0.7222933823969591,1131.7547653238455,1151.8296202579468,1138.091213814179,1145.33296771627,-980.7079354051427,-697.6625956382571,-1427.2386141193224,-1598.644876890556,162.31348878400365
0.5075,2.0070719762225786,-0.504020174714672,0.8002207886736787,0.0418134673913974,-0.0133387395403863,0.0302366889387734,2.418884468757217e-05,0.016377929807865,0.0190877477229062,0.9996832996950898,0.021361354892551,0.0894338048140507,9.548226813281044,-0.0440395367843775,0.0559641129657151,1.253846495858648,-0.7647557372425468,1.0537272228053467,0.7254368956260042,1129.449449240608,1150.0668697866947,1134.3555924152297,1141.0328151128142,-836.0277070769818,-700.7650206031025,-1518.4171904124,-1801.2219053803603,162.32236636919131
0.51,2.002860326430977,-0.4707019672142065,0.8815905723089996,0.0475776687062892,-0.0151306008670015,0.0348263957075602,9.840184384831408e-05,0.0163289020687962,0.0191311774764853,0.9996832663711748,0.0201242887592462,0.0896041530800062,9.503866167127631,-0.0432872365403681,0.0566735235054312,1.253240263314418,-0.764766023891633,1.0538712920320394,0.7285796308633348,1127.5746267884608,1148.3257951549313,1130.499127862117,1136.3268581893683,-734.9815744828604,-755.2311541648285,-1654.7483745460236,-2075.4069648363825,162.33111822400812
0.5124999999999998,1.8433303659104412,-0.3355174320827107,0.7993129926020539,0.0545730824294356,-0.0178934435220258,0.0399341357149107,0.0001639252539958,0.0162783556129473,0.0191705823566894,0.999683342197374,0.0191913140949375,0.0889373545042807,9.459262092641865,-0.0425454870035992,0.057346952706212,1.252464097646304,-0.7647760125061027,1.0540162184339723,0.731722549815764,1125.7745413681937,1146.2907140158707,1126.0818505424995,1130.6557802886325,-609.067582815623,-744.455838286057,-1543.506894557912,-2023.6102382388235,162.34146836634105
0.515,1.578943917415245,-0.1424891866879292,0.5979945539212496,0.0595112569120574,-0.0199474713390168,0.0427941664089881,0.0002190971640253,0.0162367695910716,0.0192097098657786,0.9996832867918684,0.0184054445843877,0.0874383695838635,9.414812925016337,-0.0418345180407765,0.0579800137176232,1.2515115761684852,-0.764785284353418,1.0541603953830154,0.7348659760425466,1124.5292888743827,1144.6035159635007,1122.781593389327,1126.208806998174,-483.9818628136522,-692.812023593296,-1210.607215499748,-1666.3618437689347,162.3499624688934
0.5174999999999998,1.1919066074082758,0.1114521024667988,0.3081764341647139,0.0634320391759853,-0.0206838708528559,0.0440275162045929,0.0002640821514611,0.0162062195853964,0.0192469845867403,0.9996830936493027,0.0177547431821097,0.0851507549242453,9.370917038835175,-0.0411539642369643,0.0585729428022443,1.2503784317017568,-0.7647943323406821,1.0543035140735653,0.7380110355704566,1123.3546320541254,1142.826653897904,1120.028814465001,1122.3239710697878,-544.2747842205786,-826.6905360221692,-1075.4664252941884,-1547.440445858409,162.35831617822979
0.52,0.6171843891167154,0.4373196591680018,-0.0704440880081069,0.0671374246907771,-0.0197673981869486,0.0439223051326024,0.0002935389885906,0.0161897384502714,0.0192804531841474,0.999682749054674,0.017193017403476,0.0820199595835328,9.327964406938856,-0.0405063261008745,0.0591126388466386,1.2490631007666655,-0.7648041182713473,1.0544463019208932,0.7411575779691014,1121.8079149532798,1140.47006328339,1117.4042612628564,1118.471604768882,-613.0257160306422,-908.8253303348656,-857.9854237059399,-1277.3072110428063,162.3681740538285
0.5224999999999999,0.0803530510487581,0.6861818785591174,-0.3609583126415796,0.0691353599683474,-0.017667579902186,0.042508433931586,0.0003034748018805,0.0161935393533839,0.0193092023111745,0.9996821688464688,0.0166024794409507,0.0780222196214657,9.286322478029135,-0.0399022779468971,0.0595897384896088,1.2475664542102023,-0.7648157269895905,1.0545895936788492,0.7443066894987784,1120.2895034739722,1138.2825272462298,1115.7388873464713,1115.9374350145736,-665.7847002501505,-909.145772261717,-581.1022627273354,-895.7253929689606,162.37624753599877
0.525,-0.4592204273237308,0.8711915319336381,-0.5763734463882279,0.0689201686059559,-0.014465015628376,0.0399941850616792,0.0002952318598979,0.0162177561440303,0.0193356800833387,0.9996813006556172,0.0159695627244158,0.0732328247596708,9.246323945208168,-0.0393374701738397,0.0600080181241517,1.245892916417939,-0.7648281955070959,1.0547336508940324,0.7474588273603249,1118.478991452029,1135.9243344220815,1114.4987499492197,1113.9929778040373,-766.9612892951584,-947.6153751667872,-447.7463901007464,-706.7551663074021,162.3841718373464
0.5274999999999999,-0.9487494084068732,0.986152181389182,-0.7071912703321473,0.0661388239436939,-0.0107986968725609,0.0369777946907582,0.0002754982954649,0.0162581684601266,0.019363378075774,0.9996801413610196,0.015351363591286,0.067824585675961,9.2082551292234,-0.0387975931558783,0.0603842283386817,1.2440512269600819,-0.7648396237502322,1.0548782212946723,0.7506111600315223,1116.4546970274964,1133.544450370396,1113.5001553959676,1112.4036591830368,-840.1661602859796,-920.6944647765331,-367.86395327271714,-583.1026760431081,162.39197148323615
0.53,-1.321506284730052,1.0171093827867872,-0.7309843935254347,0.0609663131401747,-0.0075495845840334,0.034075701361262,0.0002505499003856,0.0163067547915814,0.0193926227058489,0.9996788115347056,0.0148624934165242,0.0619609419641811,9.172346940996222,-0.0382608555050973,0.0607334692309213,1.242055869760346,-0.7648482846010306,1.0550234308957351,0.7537582524935859,1114.2781606505991,1131.3208620981989,1112.659430182856,1111.0774644238215,-954.4336346081301,-902.2994929074675,-360.70936654264153,-554.267371591322,162.3996209026522
0.5324999999999999,-1.5977373178447078,0.9795459572037406,-0.6552260525059687,0.0541812720994644,-0.0049445404588455,0.0314160259922645,0.0002282494504579,0.0163551202722165,0.0194228995315229,0.9996774548090406,0.0146153580476782,0.0558333013006743,9.138763809778158,-0.0377061552222161,0.0610743229914429,1.2399268601938231,-0.7648525475323371,1.05516989857425,0.7568949638737856,1111.6825288544555,1129.0329529058583,1111.6966085632544,1109.63232232508,-918.732912029781,-758.9679569382035,-356.2855281262269,-516.7966802669521,162.40862819924328
0.535,-1.6915277416700256,0.906492116063548,-0.5315031987749033,0.0492042006082251,-0.0036716516352298,0.0300071893429009,0.0002147077584496,0.0163963624803679,0.0194548759249106,0.999676169210649,0.0146883345774695,0.0496000417754736,9.107596391219154,-0.0371173360405258,0.0614206684521964,1.2376895764558644,-0.7648527322370101,1.0553182372888763,0.7600156217301087,1109.6844960904502,1127.5260223135078,1110.8780025422247,1108.493481022487,-733.4102311057898,-517.3150968561908,-330.7743625398868,-442.2113567779885,162.41599324568287
0.5374999999999999,-1.6779970972829947,0.8038788271701893,-0.3804330539109084,0.0454286997911405,-0.0024114272677424,0.0293499321347238,0.0002147992048943,0.0164249923127591,0.0194914401223508,0.9996749878817865,0.0151307437726588,0.0433963045932066,9.0788556739703,-0.0364823719089371,0.061783070100775,1.2353735153868128,-0.7648492829375939,1.0554693576774623,0.7631161049876293,1108.0154776989268,1126.4463774215776,1110.0427367505547,1107.4212655411902,-634.4911671738822,-391.2564985368132,-357.5178753992528,-446.1271629651488,162.4232159051589
0.54,-1.5856398710525967,0.643752693120961,-0.2037349999900864,0.0415930725003779,0.000186994719767,0.0292932136510637,0.0002301722377041,0.0164382859558424,0.0195369030609223,0.9996738718663308,0.0159399604068557,0.037298974172779,9.052471033385991,-0.035796429717098,0.0621641101433127,1.2330105554297623,-0.76484273560711,1.0556238262754871,0.766194558203298,1106.5120402545808,1125.5697398208235,1109.0904131652287,1106.2628452076613,-462.30553231598566,-270.4634054809956,-327.1828561004437,-394.6643547903474,162.43172461865117
0.5424999999999999,-1.4728450285112828,0.4748907686672909,-0.0789168046507936,0.0383810665866386,0.0030785207432518,0.0297443567652639,0.0002602618471281,0.0164364336622751,0.019592285240171,0.9996727986474654,0.0170602128611424,0.0313466064852251,9.028291248309776,-0.0350623243114209,0.062561105487815,1.2306325197497896,-0.7648339398102111,1.0557805318770228,0.7692512917872335,1105.7039500373469,1125.0940603941726,1108.4068224700527,1105.4479437672385,-239.94540419153037,-164.78455817405103,-239.3775266252758,-290.040383205496,162.43868848727564
0.545,-1.345134393872494,0.2804801869701493,0.0129358235340793,0.0353179467920705,0.0054569558912315,0.0303747008828999,0.0003044631330656,0.0164263571068464,0.0196567158382489,0.9996716706558514,0.018317053844999,0.0255796641228975,9.006089047545942,-0.0342992850186917,0.0629720189016074,1.2282682394400324,-0.7648237535727046,1.0559385857889372,0.7722887096677311,1105.3123132336232,1124.7458170299535,1107.8935255321023,1104.8126432916335,-106.301715427844,-139.67899753029076,-178.1192924157038,-228.45136903033543,162.4455279617128
0.5474999999999999,-1.216475164130294,0.0925849597474083,0.0799464477662202,0.03278025341569,0.0063648918815263,0.0308173475651678,0.0003626133477517,0.0164142076930959,0.0197293910266984,0.9996704023569908,0.0195550585069458,0.020045471577368,8.985571124897811,-0.0335240257358122,0.0633965030123605,1.2259418412117824,-0.7648136254593617,1.0560974898141953,0.7753100604027469,1105.1724414602077,1124.3956654065212,1107.516226007974,1104.3056869220868,-30.511309092753407,-164.91639001596909,-133.88768027612048,-185.98948083381384,162.45226961925027
0.55,-1.0936153564066422,-0.0394878916783623,0.1279188964576231,0.0306988663069249,0.0049772298267032,0.0308575091694261,0.0004315061501481,0.0164027324581141,0.0198101468465061,0.9996689532597832,0.0206840723884629,0.0147338884138408,8.966392014376419,-0.032744487387565,0.0638272885850633,1.2236715436381145,-0.764803074288758,1.056255791785787,0.7783192305195287,1105.1597566881594,1123.9212350798737,1107.2240871307215,1103.8826958874647,-32.68864663614292,-264.5356710744634,-144.48760746981847,-190.2271614618256,162.45889923130883
