t,ang_acc_x,ang_acc_y,ang_acc_z,a_vel_x,a_vel_y,a_vel_z,quat_x,quat_y,quat_z,quat_w,acc_x,acc_y,acc_z,l_vel_x,l_vel_y,l_vel_z,pos_x,pos_y,pos_z,mot_1,mot_2,mot_3,mot_4,dmot_1,dmot_2,dmot_3,dmot_4,vbat
22.905,-0.0794565925492273,0.1870078120986371,0.9025718400197252,0.0535024306702248,0.0314525311746741,-0.1374916197628328,-0.0252578422317245,0.0096901802124717,0.9930617890625234,0.1144383982720772,-0.1381610313197932,-0.0685030178604161,9.78798724626426,-0.0636561989797082,0.0380353019623808,0.0082094821345052,3.578426032340325,4.937130393095488,2.012578487700154,1140.279529146242,1130.1298494319508,1126.5811099582431,1142.559146049966,334.2486150783071,264.89725835427447,-272.06628173563286,47.43190358236495,148.90999898622755
22.9075,-0.286362088375908,0.1551859460031095,0.7039237039501861,0.0524751876192136,0.0323849605770941,-0.1348518405559118,-0.0253034782867902,0.0097245814473559,0.9930391591930668,0.1146215517844678,-0.1370965492797154,-0.0653518620230797,9.78756049896296,-0.0627997921973011,0.0377138783219914,0.0081594077232299,3.578559913629761,4.937007006005121,2.0126086669128855,1141.0651806000876,1130.881231205413,1126.3970246762294,1142.7013714236227,286.29357149126247,334.7998181188116,62.34861371700721,62.10688314446414,148.91208049884276
22.91,-0.460315068033184,0.1102424064408194,0.4767643845743143,0.0510030460409888,0.0329657857224527,-0.1335764148261769,-0.0253537184320075,0.0097590126096173,0.993016655355162,0.1148022962322789,-0.136169482147425,-0.0622153531775623,9.787306369584803,-0.0619268485825506,0.0374087638227153,0.008105546035306,3.578691071115643,4.936882544683954,2.0126368966498265,1141.710997003698,1131.8038485225445,1126.892853026828,1142.8696804656884,215.83628931764775,420.3589704123384,316.3391230909584,68.97443288772702,148.91414245898198
22.9125,-0.6273399688138712,0.0496570588456077,0.2358198900259193,0.0490518415543238,0.0328545541449228,-0.1334540477869192,-0.0254056530774781,0.0097961151241113,0.9929946246570032,0.1149780379376093,-0.1353845938550334,-0.0590842961381818,9.787243574207345,-0.0610374880245048,0.0371169709762405,0.0080504656551893,3.5788201220328943,4.936756874323681,2.012663141072723,1142.1443620466764,1132.983026057476,1127.978720291685,1143.0462435880615,86.32478296769376,430.6154298531002,430.29529260356327,52.23508624290974,148.9165875934362
22.915,-0.735347223355795,-0.0003668781269223,0.1026012613199215,0.0474121546639072,0.0323871554770905,-0.1345136058238658,-0.0254560940882588,0.0098344051506433,0.992972988704607,0.1151502779154249,-0.1347282263240474,-0.0560209504007552,9.787387239668163,-0.0601323960499502,0.036834745295612,0.0079967302735144,3.578947666331288,4.936629622752175,2.0126881039705253,1142.1426209185363,1133.9569256718096,1129.0443294898455,1143.1308558969029,-79.99883054009615,377.97603674201366,403.3426935953578,12.774143464733056,148.91859600211785
22.9175,-0.8181304210175734,-0.0496640475756409,0.0701320356740715,0.0458779973676314,0.0320160249742098,-0.1362258233327978,-0.0255027018486803,0.009871387606389,0.9929516521247932,0.1153205754298192,-0.1341960613531361,-0.0531010870887091,9.787748470463228,-0.0592126440838517,0.0365585147874554,0.0079462799955251,3.579073922652817,4.936500984564542,2.012713009422204,1141.744367893976,1134.8729062411855,1129.9954337596614,1143.1101143053852,-254.12568560341884,383.82403097956205,341.43253088255545,-36.78756538645695,148.9205684273375
22.92,-0.8934101161368184,-0.1163958367509301,0.1475909798355913,0.0438881673853766,0.0318746901972757,-0.1378680275475596,-0.0255472877493539,0.0099008121428272,0.9929303879540544,0.1154910309897822,-0.133849447548299,-0.0504746033631883,9.78833371272939,-0.0582799579898103,0.0362851283255588,0.0079002317694642,3.5791987132153777,4.9363724164852645,2.012738533353193,1140.8719924905188,1135.8760458267084,1130.7514921442591,1142.9469180699705,-366.4790881877072,348.6479447892418,191.1076472915209,-78.2817987205973,148.92288785131575
22.9225,-0.9347394816760471,-0.1860701023249871,0.2844196433859731,0.041707856195088,0.0319199611635338,-0.1383267795074622,-0.0255919778948908,0.0099189497518928,0.9929090103772996,0.1156631124649282,-0.1337535950681602,-0.0482353690981487,9.789145930342393,-0.0573367292248828,0.0360123596119681,0.0078588397686606,3.5793211282543145,4.93624568126792,2.0127654478861623,1139.9119724530378,1136.6161459651316,1130.9509719961188,1142.7187053117823,-401.2432326323849,272.00499430992704,-15.111725133832175,-94.9394025933732,148.92477747383032
22.925,-0.9489922478655016,-0.2756327139270119,0.4454329800647172,0.0389695030053951,0.031782677366137,-0.1374824754694459,-0.0256330819208796,0.0099286754840638,0.9928873001813568,0.1158392814424346,-0.1338661522503056,-0.0463282007631838,9.790186454730403,-0.056386080371577,0.0357388392650072,0.0078219878847397,3.5794405017147635,4.936121983598838,2.012794359672071,1138.8657763273573,1137.2360707982575,1130.67593351859,1142.4722210570037,-407.21559691830487,224.16600217991245,-178.3828570909915,-84.11151476284675,148.92661861591765
22.9275,-0.9399318957987836,-0.3805580219600273,0.5816385978209311,0.0362992750176464,0.0312202784121105,-0.1354829748449532,-0.0256657126821454,0.0099311306621101,0.9928648277851788,0.1160242161787879,-0.1341070816488343,-0.0447219183649932,9.791454229958312,-0.0554319209787527,0.0354636005588833,0.0077896760967587,3.5795559988280563,4.936001877847575,2.0128249428672453,1137.8758944684453,1137.7369759760315,1130.0590577106634,1142.2981477379678,-355.2055834941054,165.28023301351473,-303.91016701961826,-29.20126676891085,148.92841742064047
22.93,-0.9083415702669076,-0.4979661870913599,0.6395215285247395,0.0341327109555043,0.0301382322695518,-0.1323324620779109,-0.0256853494911138,0.0099322849868836,0.992841525497038,0.1162189917299293,-0.1344039464542287,-0.0432871896146721,9.792944902849818,-0.0544783127313855,0.035186591676366,0.0077616274038927,3.5796673382779565,4.935885024346608,2.0128561977247976,1137.089748409887,1138.0624719633252,1129.1563826834922,1142.3262147231592,-275.3543066606292,92.4561753398577,-422.08778556231874,81.66154001821073,148.93016326162467
22.9325,-0.8548199377323058,-0.6440836869673388,0.5811930111739009,0.0319308173292447,0.0282829522740813,-0.1282402137394271,-0.0256924466491906,0.009935337329499,0.9928179843841676,0.1164181736449247,-0.1347644177848167,-0.0419562148402027,9.794649892006674,-0.053529014676862,0.0349085299531964,0.0077377116698327,3.579774356808289,4.9357714274568245,2.0128871642295407,1136.4991229351424,1138.1992568527307,1127.9486187828522,1142.7064554380588,-151.51112541032776,0.8078479777397449,-432.03561050522194,202.79867200897056,148.93219541786215
22.935,-0.80271762037817,-0.764998446318119,0.4245264633634847,0.0302823849016331,0.0263118251498619,-0.125613890041924,-0.0256953667185167,0.0099414898500151,0.9927948387766417,0.1166143719024016,-0.1353350894535871,-0.0407143308127905,9.796555301183146,-0.0525874953974316,0.0346301288721424,0.0077177189080057,3.5798775965246,4.935660248517516,2.0129170818679585,1136.3321927828356,1138.0665112032138,1126.9962046309663,1143.3402080832038,-5.104202932580953,-108.44028689304989,-335.1840171781744,308.54897279479474,148.9338359185752
22.9375,-0.7443787172559329,-0.8829770995170824,0.181830262955764,0.0287134041765075,0.0241370998873066,-0.1244591666955059,-0.0257002474980544,0.0099530474819984,0.9927722120555356,0.1168049521536094,-0.1362117379217892,-0.039516055968341,9.798644775536498,-0.051656910736631,0.0343512970615206,0.0077020825502075,3.57997828524103,4.935550553535856,2.01294582767528,1136.4736019204795,1137.6570554182658,1126.2726986969617,1144.2492003020325,112.93661786297568,-239.50718266502489,-234.66449121653383,428.58680764043936,148.9354212793353
22.94,-0.6626655288318776,-1.0240240933059184,-0.1590152444401063,0.0267743311086067,0.0216394535274658,-0.1245779395885087,-0.0257055600386788,0.0099705623386065,0.992750067668504,0.1169904802189513,-0.1373283197928408,-0.0383291250934805,9.80090144454241,-0.0507397071033096,0.0340712236984249,0.0076924622355179,3.580076857600948,4.9354416912998955,2.01297259546782,1136.8968758721508,1136.868975289888,1125.8228821748833,1145.4831421214071,177.61752444547605,-327.9160190993223,-82.01674480339345,439.15571059910326,148.93725988495947
22.9425,-0.5792217050558763,-1.143277245368926,-0.4458735392423358,0.0251194652604004,0.0196339862062354,-0.1255161155881072,-0.0257056471213722,0.0099977687216775,0.9927283127331444,0.1171726424901155,-0.1385389333821286,-0.037047514268149,9.803306454065568,-0.0498374796337934,0.03378870671354,0.0076907454927662,3.5801737280232215,4.935332471908666,2.0129974921118508,1137.3616895427067,1136.0174753227695,1125.8626149729448,1146.4449788550276,186.25817759601955,-361.54060953970566,104.7506043711318,321.7197985483566,148.9387386940475
22.945,-0.4741261642139004,-1.2605712806478653,-0.6931950498039448,0.0234328358563079,0.0174508649036025,-0.127278947334528,-0.0256949604653343,0.0100351978662217,0.9927068538858856,0.1173533894240439,-0.1396875855310777,-0.035626395128356,9.805838458548493,-0.0489510230695354,0.0335022488177264,0.0076988757047056,3.580269074821774,4.935222664983662,2.0130206062012808,1137.8281667601307,1135.06127224219,1126.3466351967388,1147.0917411141484,186.51111397443407,-418.23835486135494,303.2949779990116,164.62789394600568,148.9401617529387
22.9475,-0.3228529296072783,-1.3815948543680767,-0.9018448019935604,0.0214615393481537,0.014235369244606,-0.1304518419619787,-0.0256695755759117,0.0100828817513518,0.9926857317505884,0.1175332407138687,-0.1406460192045529,-0.0340342934585085,9.808473318415338,-0.0480803449732293,0.0332104807428849,0.0077182465980625,3.58036277017796,4.935112628338612,2.0130433939514973,1138.2942451125791,1133.9262835484617,1127.3790898629406,1147.268118324758,148.2746138847528,-396.18209671369794,436.62962868715607,-51.72146984924557,148.94180434705052
22.95,-0.1837757181018371,-1.4450365849852407,-0.9791452538135126,0.0202491632023864,0.0106414001445578,-0.1338845734966622,-0.0256253217823956,0.0101440827330699,0.9926650617638572,0.1177118716208088,-0.1412878814512918,-0.0321771357945156,9.811184882764355,-0.0472247906167076,0.0329123843638192,0.0077494511307795,3.5804547241514806,4.935002583113317,2.013067350540939,1138.5695398295543,1133.0803617586218,1128.529783340174,1146.8331337649024,85.72142267509548,-301.9586949427467,494.66111933371224,-284.39966070010286,148.94311834914197
22.9525,-0.0513637283232359,-1.4426623318493408,-0.9446940005478528,0.0201052745982175,0.0060205998991913,-0.1375937182433305,-0.0255593100310543,0.0102191006598144,0.9926445980750692,0.1178919876690522,-0.1415058943454294,-0.0300230027903811,9.813945734078484,-0.0463834150400039,0.0326070008502009,0.0077926750765189,3.5805446734104214,4.934892889103663,2.013092107465598,1138.7228522259547,1132.4164900737483,1129.8523954596087,1145.8461200212575,43.88393524971008,-227.99095023890163,537.9052177843254,-456.4767141564455,148.9443745593026
22.955,0.0569666225730426,-1.37372240946637,-0.8251251541816836,0.0208139203976005,0.0011329738793587,-0.1409421391263536,-0.0254771236151027,0.0103036260815011,0.9926243792013736,0.1180724400882324,-0.1413505752185484,-0.0276536752566438,9.816725697447362,-0.045554701758834,0.0322941930003027,0.0078473632676027,3.580632575118189,4.934783386460699,2.0131173451371,1138.7889595058027,1131.9404070074268,1131.2193094290972,1144.550750194119,9.470983826078802,-138.78101598877979,537.564801308297,-538.909640980335,148.94558205392093
22.9575,0.1199616933638698,-1.2302785594677499,-0.6318260814046824,0.0217798660059511,-0.0032312980875036,-0.1433045526626838,-0.0253896176625276,0.0103895314566517,0.992604623652218,0.118249749126975,-0.1409712537546897,-0.0252432428386294,9.819493604388793,-0.0447366562132221,0.0319746402714407,0.0079125613422252,3.5807190401237854,4.934674706211,2.0131423981051224,1138.7702071450851,1131.7225849938045,1132.5402194661497,1143.1515718163566,-25.277452638607,-27.456244024284395,552.9731303637809,-567.1319138828712,148.94672976783178
22.96,0.1363652102707372,-1.0062333542097788,-0.3691824473870054,0.0227555454734537,-0.0068980607515629,-0.1444961510773274,-0.0253074138731505,0.0104700980815711,0.9925849356958552,0.1184255323106949,-0.1405217887283328,-0.0229436349053886,9.822219206821105,-0.0439272580122886,0.0316493703641292,0.0079870082555561,3.5808048831826143,4.934567074829173,2.013167396851051,1138.66257224261,1131.8031257873051,1133.9841750809155,1141.7150906247052,-54.44339581355905,93.58711165845976,499.96332804805087,-444.0674156263869,148.94803673107594
22.9625,0.1044510422642279,-0.8129749052452138,-0.1675805808505045,0.0233756021661506,-0.0081739739221387,-0.1441146897907057,-0.025239252047894,0.0105420109588236,0.9925650185765574,0.1186006978409456,-0.1401345860639208,-0.0208441355061291,9.824873917851107,-0.0431241838428289,0.0313203637172365,0.0080691154900865,3.580890243502626,4.934460786814459,2.013193246361539,1138.4979901660172,1132.190520552097,1135.0400361063912,1140.9312347382236,-84.02733670470148,227.7586889948905,393.41544254933615,-202.8851804551272,148.94906661270647
22.965,0.0365191734323103,-0.652313145856785,-0.0245073451402082,0.0237490662257154,-0.0082309330152815,-0.142956706533957,-0.0251880119188683,0.010601585906998,0.9925445273341325,0.1187778504980064,-0.1398347729551173,-0.0190361852872044,9.827432843132398,-0.0423250705825738,0.0309902496217761,0.0081575817081283,3.5809746324849296,4.934356365544628,2.01322013303824,1138.2424355590863,1132.9419192322796,1135.9512522936618,1140.7006647224296,-135.0023370426966,412.813370136146,378.69424517328554,17.328491475476575,148.95003440353247
22.9675,-0.0679184163130505,-0.5160456368786416,0.0577159843051422,0.0237783941246454,-0.0084979277537401,-0.1415196136685325,-0.025150623945932,0.0106481539537059,0.9925233846251628,0.1189583624808528,-0.1395468655764086,-0.0175481134629711,9.829874461485945,-0.0415274730900798,0.0306625307142944,0.0082512297843691,3.5810575977885337,4.934254463213536,2.0132478165979,1137.8229784808038,1134.2545874027771,1136.9335073322572,1141.0178771956007,-170.90753653764057,538.18558956006,351.8619591364559,187.66597714597177,148.95112356255714
22.97,-0.158534475192942,-0.443493956269492,0.0534181301124296,0.0233192357908648,-0.0094990081747569,-0.1406102478991562,-0.0251215444018533,0.0106819406160441,0.9925022169758596,0.119138172914193,-0.139157952025509,-0.0163953407270717,9.832179672265958,-0.0407287284775808,0.0303416932480855,0.0083489892234955,3.5811388131892934,4.93415645186999,2.013275780643875,1137.3878978763985,1135.6328471800791,1137.7105620893435,1141.6389946081595,-186.56520016669748,582.3171866286224,310.014426235164,278.05606913990306,148.95197091690997
22.9725,-0.2356279971411271,-0.3953648276838109,-0.0084027480705788,0.0223207987579604,-0.01122921643266,-0.1401697680704629,-0.0250969463581171,0.0107052532884355,0.9924815177558298,0.1193137869353389,-0.1386018577464916,-0.0155653725247673,9.834330026522403,-0.0399263814579894,0.0300323873467103,0.0084495701682978,3.581218718200601,4.934062933968727,2.0133042729137944,1136.8901524799703,1137.16617333592,1138.4835794634328,1142.4081575413,-225.89271456565524,662.6479238220575,336.72873218884934,326.64948767912045,148.95275576688925
22.975,-0.3001118910484527,-0.3509062471444051,-0.1159198503818839,0.0209525046538764,-0.0133030367937671,-0.1402583374833496,-0.0250773545959711,0.0107179958966908,0.9924615427143884,0.1194829890315868,-0.137899757434372,-0.0151103024437778,9.836307098684925,-0.0391182260527037,0.0297388367924176,0.0085516768842849,3.5812984268800903,4.93397405453105,2.013334200091827,1136.2584343035696,1138.946086799191,1139.3942057502888,1143.272242046556,-232.76221481428448,602.6751477470333,321.89002448137256,287.10390709203494,148.9536256537226
22.9775,-0.3286790864661792,-0.325310676878279,-0.2059017386000916,0.0201638313340937,-0.0142848112897834,-0.1408743323999646,-0.0250650020087799,0.0107227260616893,0.99244220429103,0.1196458215939203,-0.1371198174712306,-0.0150398619514182,9.838092115199151,-0.0383023572836138,0.0294643441059755,0.0086540097965281,3.5813779107186936,4.933889329494126,2.0133656954327424,1135.7263414058991,1140.1795490746545,1140.0930295858393,1143.84367707676,-210.40703200987633,397.9401852951351,252.9958631444564,193.21383761229504,148.95429102021842
22.98,-0.3335366390722706,-0.3206781067835737,-0.2651933714373455,0.0197901273951091,-0.0143099196959891,-0.1420433234889996,-0.0250581812337723,0.0107264524754981,0.9924233450597544,0.1198033239256726,-0.1362703384400283,-0.0152706948561077,9.839666863511546,-0.0374771088323798,0.0292109373371239,0.0087557451104289,3.581456558884,4.933807224368446,2.0133980119618458,1135.2063991435205,1140.9357877256666,1140.6591850660109,1144.2383112346172,-203.44956546849568,201.64394779779883,197.15534299279088,135.68593779170777,148.9548952631531
22.9825,-0.318488535660387,-0.3373912573722978,-0.2808604653947435,0.0194606889788563,-0.0140007092538174,-0.1435715256550913,-0.0250526546114197,0.010733464243187,0.9924047071111058,0.1199581351624089,-0.1353092909803969,-0.0157665991959582,9.841013558331293,-0.0366412205840432,0.0289788178027041,0.0088570444133047,3.5815337016823188,4.933726393198648,2.013429694260555,1134.7090935785563,1141.187768813644,1141.0788063008035,1144.5221067657187,-187.63641046893193,-26.278274049178208,133.5140987953575,98.63093175156024,148.9554494659907
22.985,-0.2727399130754944,-0.3711653300033534,-0.2331777312502332,0.0188146287153095,-0.0143120925739045,-0.1452112365581859,-0.0250419313994734,0.0107475245106076,0.9923859093011757,0.1201144289527079,-0.1341536246951698,-0.0164930519908459,9.842113818964343,-0.035793907129054,0.0287662578000008,0.0089588503810867,3.581608566384757,4.933645541414455,2.013459803414123,1134.268217091176,1140.8043963554207,1141.3267555599875,1144.731465893375,-167.16573599531927,-293.58038474457703,84.76340675803709,82.5344477323761,148.955944280102
22.9875,-0.1693065901522977,-0.4051173511592688,-0.1076190487556998,0.0174082110298582,-0.0159061788523412,-0.1468765009207193,-0.0250240521843255,0.0107696464403181,0.9923665573437332,0.1202757783080377,-0.1328053711086991,-0.0174738123542704,9.84294637376624,-0.034934872508517,0.028569754900477,0.0090624121740734,3.581681029406805,4.933563369648168,2.0134884903044026,1133.87326489858,1139.7198668899211,1141.5026233345939,1144.9347790043807,-108.3657335779108,-467.8961049420075,62.07702579360109,62.68209216006175,148.9564708436674
22.99,-0.0372497022767539,-0.4079839338583612,0.0363110781671696,0.0160587882634949,-0.0177152756349139,-0.1476653167839348,-0.0249990482240931,0.0107995609846371,0.9923462744228568,0.1204453147890564,-0.131304034576926,-0.0187532108753488,9.84348746264037,-0.03406428248598,0.0283843082896796,0.0091691339528619,3.581751433083538,4.93347889904619,2.013516360676665,1133.726388423286,1138.4649158307095,1141.6371406889557,1145.0448763541751,-2.8267810775110935,-522.2880454508996,72.32441563252524,17.525076324094545,148.9568548423512
22.9925,0.1345080722248842,-0.3712156363989977,0.1862107031327997,0.0154675284775814,-0.0193871465227722,-0.1473597912936764,-0.0249683995967532,0.0108375348170638,0.9923249471522448,0.1206236510210599,-0.1297190210175234,-0.0203571647745475,9.843710867952371,-0.0331826909341436,0.028204007743199,0.0092803002429574,3.5818193202791964,4.93339170720098,2.0135435443991554,1133.8591309931924,1137.1084266626672,1141.8642454127564,1145.0224043860012,139.32006974585462,-558.4917340587455,134.7700955185969,-60.959843180138094,148.95718357373394
22.995,0.3585611955314849,-0.2825039529993909,0.325859676576953,0.0160248329684749,-0.020860753296638,-0.1456640705963986,-0.0249348144601907,0.0108808081128054,0.9923025404783554,0.1208107684691929,-0.1281354030130328,-0.0223599926802562,9.843588867397603,-0.0322912048314954,0.0280223324809219,0.0093971712190965,3.5818837466043885,4.93330261050992,2.0135702293630136,1134.4229887720153,1135.6724571604163,1142.3109911665483,1144.7400771382747,279.1862932120794,-458.032331274808,190.9974312787579,-156.83301560464707,148.95751625911439
22.9975,0.5339971006376429,-0.1806991960246282,0.3801867194684547,0.0172716183405661,-0.0215322187855075,-0.1436820808020096,-0.0249011389416508,0.010926817114303,0.9922796475847122,0.1210014254387764,-0.1266393512210322,-0.0248185698048205,9.843092859103011,-0.0313911818071229,0.0278330100068745,0.0095207259405769,3.581944210533872,4.93321249438661,2.0135966028605203,1135.2550624592525,1134.8182650062938,1142.81923256915,1144.238239307978,403.5288228691008,-243.47576970608608,215.45416801618296,-256.9768532482214,148.95774372664525
23.0,0.6672768966673225,-0.0655924050187542,0.3524201280964285,0.019141600192121,-0.0216847725528522,-0.1418661010253796,-0.0248688626099272,0.0109695735598697,0.9922569507397908,0.1211902284377872,-0.1252789920415564,-0.0278381298347629,9.842195231858865,-0.0304843386253321,0.0276300181102785,0.0096518615616191,3.5820004546197435,4.933121762831705,2.013621670188012,1136.4406328863604,1134.455078311886,1143.3882620066292,1143.4551928720339,585.1290992600487,-36.2218301850404,234.6069732914366,-392.30387021014326,148.95792201872112
23.0025,0.7498415313123971,0.0699948006342185,0.2255092759011975,0.0221278416853156,-0.0214076821916499,-0.1402687647995659,-0.0248394253025033,0.0110070379227294,0.9922345251060712,0.1213764137472539,-0.1241063739517743,-0.0314306211167055,9.840869341269023,-0.0295728255257923,0.0274077947922473,0.009790694873362,3.5820531538014966,4.933030659905359,2.0136457238818695,1138.1807079555542,1134.6371558553683,1143.9922674356078,1142.2767199569264,670.4519796895935,164.50166628959414,185.6497902741836,-449.90833691431214,148.95808272188827
23.005,0.7418337149156166,0.1703229143270528,0.0537158720977106,0.0248781878150291,-0.0209479363782357,-0.1394988882496585,-0.0248151968957577,0.0110399378813908,0.9922122133733396,0.121560688082662,-0.1231934820508506,-0.0355418648452236,9.839090939305326,-0.0286588575008697,0.0271617235647582,0.0099364228217475,3.582102992701509,4.932939929518296,2.0136701825809644,1139.7928927848077,1135.277586643334,1144.316510958,1141.2056511874628,648.5475269140733,338.1085131372619,72.26070106341086,-416.970751015416,148.95817539078843
23.0075,0.6540506999948249,0.2484055339020339,-0.1637380765309883,0.0271691536941356,-0.0203273667399009,-0.139345334741022,-0.0247956029005002,0.0110685795206358,0.9921895674193356,0.1217467805248113,-0.1225484453390617,-0.0401059934889675,9.83684133483109,-0.0277445715725171,0.0268882074327951,0.0100876429145602,3.58214957615355,4.93285043100478,2.013695589969256,1141.423445590124,1136.3276984210545,1144.3535709409248,1140.1918662018495,631.8137859327586,465.35729536329944,-39.14778820510762,-376.62586976438257,148.95822955193267
23.01,0.5102674598404774,0.3031491922620481,-0.3974231152943624,0.0287678763018163,-0.0195355266797451,-0.1397631174026509,-0.024781014720051,0.0110941809329898,0.9921660899879964,0.1219385523807723,-0.1221949443548647,-0.0450314511007689,9.8341077613003,-0.0268318108569495,0.0265849608819246,0.0102421210220062,3.5821930595212703,4.932762601241349,2.013721836141507,1142.951961714473,1137.6043731201516,1144.1207720169743,1139.32252183864,562.845831435946,533.1670817406272,-154.3059597010904,-299.565280571383,148.95825543417843
23.0125,0.3173882653966812,0.3258275733928592,-0.6206038633546357,0.0294985113099822,-0.0184548004409835,-0.1410111297293668,-0.0247741813244634,0.0111129327416381,0.9921416809402668,0.1221365977632081,-0.122186468145785,-0.0503235792005135,9.830884946006991,-0.0259218217323368,0.0262510623981526,0.010397186295215,3.582234525163725,4.932676697976908,2.0137486182182087,1144.2376747473031,1138.993533829757,1143.5820411424195,1138.6940397989931,491.4776995329771,597.096525853504,-291.46979071166584,-221.8811902948333,148.95825216475023
23.015,0.0518404534692262,0.3157153255621667,-0.8358059118803273,0.0295339991970525,-0.0168104973679486,-0.143652627781251,-0.0247786271759071,0.011121193075605,0.9921164587004556,0.1223395672191381,-0.12258771919101,-0.0559815764714709,9.827176364469489,-0.0250152296000109,0.0258869105960011,0.0105495688427844,3.5822749300855388,4.9325931774504586,2.0137757188771355,1145.4093502121375,1140.5898557494183,1142.6634230634163,1138.213115887166,365.8278121760252,548.5493073725061,-365.8477113300652,-144.871954933677,148.9582216017002
23.0175,-0.1860071671595785,0.2825430064045362,-0.9450891464061008,0.0290469994584243,-0.0153298584792626,-0.1467975365680319,-0.0247961092310363,0.0111201936585983,0.9920908198796776,0.1225437630096122,-0.1234368981526754,-0.0619031908098404,9.822995832238544,-0.024112021313069,0.0254941981189775,0.0106952792399665,3.5823148874654525,4.932512615135443,2.0138034348998644,1146.066813808184,1141.736280366621,1141.7528025857682,1137.9696800243244,204.58142510178251,397.84322656868153,-374.0445483619458,-91.97322145998453,148.95817948171808
23.02,-0.4334257977769799,0.2426178261810266,-0.9628871274745044,0.0282791199235937,-0.0142956452817118,-0.1504369347881523,-0.0248241024703832,0.0111101630725227,0.9920647948288986,0.1227494068179654,-0.1246821338864818,-0.0679944018272516,9.81836946696768,-0.0232119439620155,0.0250752491218783,0.0108300818820638,3.582354552430038,4.932435567099608,2.013832609907967,1146.4322573376462,1142.5790718822616,1140.7932003216067,1137.753249779866,105.69287407690636,285.1575114276442,-412.3071340680692,-122.64942599615716,148.95812675801756
23.0225,-0.7363530220147698,0.2210204105173944,-0.8817048142010078,0.0270407089707665,-0.0140651958287616,-0.1542363574134226,-0.0248608627657925,0.0110921427926338,0.992038044298137,0.1229594890985736,-0.1262849823069075,-0.0741484451353314,9.81333435803104,-0.0223147258823656,0.0246328155382442,0.0109493032032912,3.582393953953368,4.932362083234337,2.0138649381711806,1146.5952781785686,1143.1620679237587,1139.6912669154283,1137.3564328943437,19.459256515837343,138.9776232351067,-382.9100890506057,-186.87273571562844,148.9580586905283
23.025,-0.987605184368924,0.2501981763426098,-0.7471957938658385,0.0255349387135359,-0.0146058288276164,-0.1564405098696407,-0.0249045840536884,0.0110660309766045,0.9920105928865126,0.1231741753641618,-0.1282003256124577,-0.0802847231147958,9.807938605521004,-0.0214199677903935,0.024169949384871,0.011048305511889,3.582432904071529,4.932292012487436,2.013901009318812,1146.5295536202254,1143.2739599984375,1138.8786498763527,1136.8188861012875,-68.227996875762,-26.859455306344785,-291.8060963834376,-266.1765235423975,148.95800318873273
23.0275,-1.2227708354056408,0.3463159626953487,-0.575457100841482,0.0234592671109107,-0.0152809487576101,-0.1577667277735818,-0.0249471851412106,0.0110358737035121,0.9919824804741408,0.1233943830128813,-0.1302678067252171,-0.08623127920839,9.802242442767028,-0.0205273817416587,0.0236896421074207,0.011122901595758,3.58247087152163,4.9322250023658,2.013940449108948,1146.2541381941899,1143.0277706472273,1138.2322364335112,1136.025550276632,-148.94901958962927,-146.15131165226737,-226.21826700246808,-353.2462560280485,148.95795491954289
23.03,-1.426623020426038,0.496048966021556,-0.3972914962996695,0.0207838012456668,-0.0155905353370895,-0.1585161289798279,-0.0249799816384125,0.0110052939459453,0.991953998044713,0.1236191769552702,-0.132311931056732,-0.091828948082788,9.796315319670665,-0.0196369386882721,0.0231945357807362,0.0111698807462117,3.582507762676321,4.932160523546073,2.013981614481953,1145.7848085222774,1142.5432034401763,1137.7475585413408,1135.0526548211476,-239.91114596710983,-231.10168962530275,-153.77390937990967,-411.15473076405567,148.95791690636656
23.0325,-1.5632438738683896,0.687943031792937,-0.2358783108322813,0.0169241443315274,-0.0149416035619458,-0.158603218745124,-0.0249987656528277,0.0109797548708755,0.99192563741291,0.1238449494414295,-0.1342464938456925,-0.0969003359562786,9.79023235455882,-0.01874907858711,0.0226867821999625,0.0111870946197166,3.5825432206874246,4.93209753652292,2.014022293789471,1145.0545824643543,1141.8722621991008,1137.463366886612,1133.969776622812,-382.70996855424863,-310.98501168450457,-82.12237186586931,-466.1181544010578,148.95789617389127
23.035,-1.6107038962437892,0.9184759425748308,-0.0823329215462355,0.0106749981597827,-0.0126927834420769,-0.1581662456622178,-0.0250015266802823,0.0109652840063144,0.9918977459355196,0.1240687795902492,-0.1360261782251367,-0.1012689335189906,9.78407279706104,-0.0178648994912539,0.0221678172775571,0.0111737310558667,3.5825759003179596,4.932035121150243,2.0140608494229086,1143.8712586795064,1140.988278381754,1137.3369466820116,1132.7220640491428,-478.13303653295503,-320.92511101370246,-14.964707772825552,-423.89974573740034,148.95789731703607
23.0375,-1.5368708261529531,1.0697313958593315,0.0067966554156611,0.0048497392192575,-0.0098134153457028,-0.1576646175613145,-0.0249882809110127,0.0109657841186717,0.9918703900225732,0.1242898007409134,-0.1376361132512063,-0.1048109817764549,9.77791754551729,-0.0169861721004694,0.0216383772615996,0.0111302964370012,3.582604096561561,4.931972143818864,2.0140964674317323,1142.6639172816883,1140.2676366440317,1137.3885433477478,1131.850277894124,-509.60945821162704,-273.2383037949237,48.796774313823946,-291.7376934001948,148.95792411704846
23.04,-1.3548637085493316,1.1338917778455575,0.0604330664667514,7.933819886339068e-05,-0.0061121330904285,-0.1572938209066339,-0.0249639267160295,0.0109802021710302,0.991843323523854,0.1245091154699907,-0.1391402277863243,-0.1075175404303533,9.771845551390989,-0.0161151776185612,0.0210987594509444,0.0110583377530307,3.582627842229772,4.931908722644129,2.014129602681849,1141.3232113884487,1139.6220868627795,1137.5809305535806,1131.263375582142,-586.3316269864556,-263.7113107989605,117.38941194291844,-177.7665990628874,148.95798211226204
23.0425,-1.0576430084795168,1.0753246918911556,0.0985806696376762,-0.0031723902586236,-0.000849912696768,-0.1570560891372131,-0.0249371651415335,0.0110034879240182,0.9918164472127852,0.1247262580417882,-0.1406634791086635,-0.1094740430141006,9.765931873312525,-0.0152542122194948,0.0205493857317989,0.0109600837301347,3.5826476186658205,4.931846051294452,2.0141611209027017,1139.7322591467569,1138.9490800900371,1137.9754904074623,1130.9614448988095,-551.4543211740508,-233.3459371964352,176.96051698808375,-37.31894222017127,148.9580915783084
23.045,-0.7860037021992711,0.9079402646336012,0.1213714741812285,-0.0040075357317117,0.0034782097590892,-0.1572061221582449,-0.0249141362400666,0.0110350208640064,0.9917902696970315,0.1249360454069765,-0.1422904271922833,-0.1106823535120036,9.760248376123377,-0.0144050270011348,0.0199914271323712,0.0108379768506002,3.5826640784563697,4.931784835845761,2.014191665791195,1138.5659397825773,1138.4553571767967,1138.4657331385215,1131.0767808710411,-402.62632481598126,-191.13988438170216,238.75732578926744,129.2273255860239,148.9582178862719
23.0475,-0.5258494187423377,0.6414974614388697,0.1467143358311434,-0.003674720190427,0.0065578701107213,-0.157633247823923,-0.0248957053484619,0.0110755275720422,0.9917650734640938,0.1251360379900414,-0.1440045595660988,-0.1111133358841231,9.754863186415564,-0.013568823953769,0.0194266897612186,0.0106947268205124,3.582678081660704,4.93172580018626,2.0142219001064063,1137.7191275226771,1137.9933806681288,1139.1692770364084,1131.6075815267395,-278.2440101451001,-203.25745317508745,365.80507469073376,337.40469588885736,148.9583817438113
23.05,-0.2350703762158931,0.2684041909144686,0.1817330553745409,-0.0035420887387461,0.007882727980975,-0.1576688509333413,-0.0248770376063022,0.0111233201111664,0.9917408276077972,0.1253276393395656,-0.1456720379763632,-0.110779085948362,9.749839557329043,-0.0127460936258558,0.0188575798310529,0.0105333957805947,3.5826900869023417,4.931669784789811,2.014251027046509,1137.174719731852,1137.4390699109215,1140.2947585119748,1132.763804350485,-121.1979386228739,-204.028279951249,456.867356386686,512.7766388824617,148.95862177647695
23.0525,0.0039178339412235,-0.033561221046334,0.2076986192642057,-0.0045443972761529,0.0069890919787083,-0.1569000072881657,-0.0248594565183323,0.0111743594063755,0.9917178465915562,0.125508491900772,-0.1472746719420172,-0.1097622914347834,9.745230745278231,-0.0119364618715138,0.0182872058536637,0.0103570698409621,3.5827007860033375,4.931616724941096,2.0142782861252218,1137.1131378295627,1136.973239268372,1141.453613818343,1134.1714647211531,36.403226331602085,-180.95932317745755,493.01193035913263,648.5676854465436,148.95885711748355
23.055,0.2595845985980999,-0.2727808267038344,0.2209051556184298,-0.0058281680363557,0.0045013206052342,-0.1556280041630271,-0.0248470017400473,0.0112209575821915,0.9916962389324256,0.1256776511638019,-0.1488399639664084,-0.1082323467255437,9.741080622983837,-0.0111387761257957,0.0177190617597023,0.0101688640499426,3.5827117723556245,4.931566745134906,2.0143040666564564,1137.35673586351,1136.5342732950346,1142.75981816377,1136.0066427777172,119.37482753535377,-162.4426553749668,524.0423505482473,789.9716117527739,148.95912702504702
23.0575,0.5302719911010225,-0.4401165855362424,0.2228369756481997,-0.0061361510022794,0.0015751709846868,-0.1545213091266145,-0.0248376708398134,0.0112598024802886,0.9916759986261148,0.1258358785780351,-0.1502927088597936,-0.1062687787718872,9.737426984769332,-0.0103510485419093,0.0171570075571613,0.009971614539593,3.58272365886992,4.931520128591185,2.0143295266634027,1137.710011967239,1136.1610259914971,1144.0738255710835,1138.1213227799165,122.74001932680844,-122.28399295966187,489.0634103429029,881.6636685470646,148.95942323780747
23.06,0.7993654832904397,-0.5282219717992592,0.2202794863089098,-0.0047912256906358,-0.0008726589921007,-0.1538821786615513,-0.0248286568775977,0.0112922892412642,0.9916571507873332,0.125983429589477,-0.1515589455128439,-0.1038678767054382,9.734299587759212,-0.0095707417057536,0.0166050219228731,0.0097677170522811,3.5827365478600632,4.931476781555538,2.014354801951749,1137.970435960144,1135.9228533302364,1145.205135215484,1140.4149611204516,34.07170650644498,-64.89215504117436,399.60771662489367,995.7451459417989,148.9597474757977
23.0625,1.0818154334804753,-0.5837403248112519,0.2298290652255866,-0.0011922564404542,-0.0026674380598778,-0.1537664355182527,-0.0248143053525403,0.0113232907328163,0.9916391313493342,0.1261254353427579,-0.152523112342069,-0.1009600978568972,9.731720935368433,-0.0087952163702227,0.0160667698399131,0.0095592435577651,3.5827500876194533,4.93143603435752,2.014379534385434,1137.8803704997715,1135.8365652162915,1146.0718641542076,1143.1000485096245,-134.0583166923121,0.6363061648695675,197.87579722273105,928.2191254499847,148.960163362023
23.065,1.2586915820046516,-0.6284936102903792,0.2590417286547279,0.0027731473290912,-0.0031556387554067,-0.1540129890829161,-0.0247932984688535,0.0113520221306714,0.9916216695381544,0.1262643526631406,-0.1531466659295769,-0.0976041691275995,9.729703570054971,-0.0080218962327771,0.0155452985157767,0.0093481899668469,3.5827632023566207,4.931397789235033,2.014403575014355,1137.300144376682,1135.9260348610608,1146.194514201598,1145.056056747704,-355.10064602292704,58.82695226579278,-107.52103854044753,672.8746717425995,148.96052763083887
23.0675,1.361605498237669,-0.7130740672439762,0.3125898799330172,0.0064412588423191,-0.0030281523742304,-0.1539173353999294,-0.0247660987058591,0.0113750143204032,0.9916047133548916,0.1264008086819493,-0.1534258083133674,-0.0939217396711084,9.728251612561726,-0.0072484671087659,0.0150428908881787,0.0091364022775805,3.582775172980168,4.931361950839271,2.014426792380789,1136.1048672696572,1136.1306999776205,1145.5342589615057,1146.4644218683368,-652.7209774465452,97.16244329694861,-481.32026516769224,449.0524378085394,148.96090408188843
23.07,1.4021985573680456,-0.8804369419005539,0.3928952868374384,0.0104698039635543,-0.0033697985665027,-0.1531294851996542,-0.0247335114924527,0.01139262604259,0.9915878824007472,0.1265376002897376,-0.1533787234923155,-0.0899659213672162,9.727361930774432,-0.0064730815698099,0.0145609953462356,0.0089253690595837,3.582785925032196,4.931327618216238,2.014449320479327,1134.03653948945,1136.4118470775454,1143.78791287576,1147.301318936746,-829.3066892724106,94.81851417312707,-784.6875070401062,149.52086529562249,148.96136190066818
23.0725,1.372800665064507,-1.0657777309891063,0.4590232870347612,0.0140299677218049,-0.0047653972732849,-0.1521931246268717,-0.0246964329302678,0.0114094751149485,0.9915708111257372,0.126677008796232,-0.1530420613902879,-0.085711001308796,9.727024609960173,-0.0056943192994068,0.0141002208594221,0.0087162301710245,3.582795326400788,4.9312941032407345,2.014471876605879,1131.958333823293,1136.6047925484863,1141.6108214263031,1147.2120261948153,-844.4747958031119,57.73606755798267,-978.5933477918336,-191.39856923097057,148.96174209027163
23.075,1.2870155224002215,-1.267082051709738,0.5055225665351716,0.0175048820213557,-0.0076757738932793,-0.15091123697474,-0.0246537967701109,0.0114296345205444,0.9915532068994476,0.126821171524076,-0.1524188338359477,-0.0811382330684028,9.727224130317612,-0.0049112045240504,0.0136602962315652,0.0085099917059868,3.582802453853045,4.93126129629487,2.0144943313335526,1129.8141655104353,1136.7005274153353,1138.894946136802,1146.3443260905915,-882.5813020304787,19.22877058960167,-1247.1591138541703,-518.3108176482741,148.96211262586607
23.0775,1.1351683174273979,-1.482131038322314,0.5175758839666371,0.0207305109352906,-0.0125158130711743,-0.1486922848928881,-0.0246099739543592,0.0114531075079293,0.9915349551666516,0.1269701161878152,-0.151612181774386,-0.0763206500857579,9.72793726555579,-0.0041232728973754,0.0132401374608644,0.0083076504855789,3.5828068601995167,4.9312291619402755,2.0145165245855607,1127.5454273131415,1136.7009364014343,1135.3750258570335,1144.6204721065744,-733.7401625394134,-11.185403034545478,-1273.0807807472356,-694.1622353615999,148.96253575971923
23.08,0.9803501127389916,-1.6126464533252463,0.4812211272767574,0.0227091270711062,-0.0169682234401781,-0.1467336756569566,-0.0245655790769476,0.0114792894351986,0.9915161979039976,0.1271226412646661,-0.150655473825491,-0.0713319702040498,9.72913702810688,-0.0033303561253218,0.0128380760803162,0.0081102277772075,3.582808304446288,4.9311975004798345,2.014538590532445,1126.1454646977363,1136.6446004001623,1132.5295422330623,1142.8735149137815,-421.36613345209497,-19.39787174783691,-1048.3893123523824,-688.3256560414799,148.96286278478794
23.0825,0.8046047836415554,-1.6739332808000351,0.3965298681474376,0.024533661900781,-0.0213791149418859,-0.1452218809102011,-0.0245159249200937,0.011509406083059,0.9914970249807696,0.1272788163842493,-0.1494872796073919,-0.0661940802730168,9.730793550403234,-0.002532492679465,0.0124520711735779,0.0079187499956355,3.5828064221719806,4.931165983173287,2.014560353176917,1125.4385966458815,1136.6039470426952,1130.1330792952726,1141.1788438263677,-157.97925645432275,-2.8660743060760314,-839.8169349951182,-615.0164371826436,148.96315457662683
23.085,0.6123264303840993,-1.67198905610403,0.2795089960449712,0.0264759571170569,-0.025707947028697,-0.1439926409172983,-0.0244557622215935,0.0115432661360428,0.9914775096132395,0.1274390876698978,-0.1480342693917104,-0.060950627013197,9.732872813837787,-0.0017298110705199,0.012079882216584,0.0077343533014411,3.5828018224021445,4.931134847490256,2.0145812017764606,1125.3555684154649,1136.630270028632,1128.3304575580878,1139.798432727869,109.51966408841908,33.13070470865693,-544.8061282228023,-430.16993812517103,148.96341112100808
23.0875,0.4007531159959428,-1.5931378587323244,0.1396901261498398,0.0283215144661735,-0.0299440447617476,-0.1430940500312453,-0.024383819989674,0.0115770454412737,0.9914575781847336,0.1276046122611353,-0.1462926759101517,-0.0557205209878885,9.735335667169318,-0.0009224482606413,0.0117192554728665,0.0075583280008378,3.5827945549971294,4.931104111921947,2.014600701763563,1125.9861949663239,1136.7696005662383,1127.4090486541572,1139.0279941357408,414.52243573216094,83.2510271426765,-191.9025945927769,-178.96318616175373,148.9636184138344
23.09,0.1345145038464307,-1.4155525101629243,-0.0256683346271798,0.0296093318247198,-0.0350557605924071,-0.1428874657950219,-0.0243044260764095,0.0116076632820047,0.9914371860913356,0.127775181062193,-0.1443702739825267,-0.0506177131250676,9.738137641209711,-0.0001104083202255,0.011368189449793,0.0073919662083093,3.582785317999936,4.9310739679453475,2.0146191226928956,1127.4281805941253,1137.0465251643454,1127.370944585124,1138.9036167970603,614.5762835285353,108.54228096302336,147.22338219224386,69.20347048941507,148.9638022038522
23.0925,-0.0826697482922282,-1.2099055639869034,-0.1373203979769939,0.0295820499774454,-0.0391747362971353,-0.1436072718037019,-0.0242211461143786,0.0116340615398287,0.991416423564125,0.1279495113543757,-0.1423661642496242,-0.045710840201516,9.741231571477993,0.0007065829541291,0.0110250991522909,0.0072364572347175,3.5827748564018727,4.9310450589634565,2.01463649532326,1129.059076383966,1137.3123119710535,1128.1451655651183,1139.3740114881875,703.0150571747106,94.73425168782408,433.08727764746874,253.7778085998575,148.96389587483725
23.095,-0.2744251115299602,-0.9716042823900422,-0.1972868593994924,0.028619175081303,-0.0423003762029669,-0.1450462943571062,-0.024139072162601,0.0116556653906347,0.9913955484132276,0.1281247073387867,-0.1404106766602766,-0.0410591115980002,9.744567406416964,0.0015290251735668,0.0106888340440619,0.0070928497437393,3.5827635395540023,4.931017798833378,2.0146530002948126,1130.943255879998,1137.5201964227845,1129.536380973361,1140.1725058400596,841.6096073280497,56.890631004591754,683.1869403959895,344.9586955969384,148.96392200445803
23.0975,-0.4577616062018238,-0.6949834034938523,-0.1974262048531185,0.0268734444873655,-0.0440234286829005,-0.1467318948839835,-0.0240644263638085,0.0116710515311587,0.9913749458746715,0.1282967667083862,-0.13865371601661,-0.0367375682863353,9.74809307569145,0.0023575391033833,0.0103586117295868,0.0069620196156976,3.582751791211104,4.930992333377284,2.014669099853276,1133.2671244206051,1137.5967651260764,1131.5611002670976,1141.098804966172,831.3088889811136,-11.24902175042159,743.7059054569379,276.52875842872567,148.96386929955338
23.1,-0.5665664660042751,-0.5065433869451997,-0.142679957020571,0.0253526272165531,-0.0438375281810637,-0.1471026620924672,-0.0240008445519894,0.0116793095462086,0.9913548596414566,0.128463230464313,-0.1371953048219918,-0.0328016865088145,9.751756218666095,0.0031927074031519,0.01003395567296,0.0068445774125935,3.5827398203787766,4.930968447052145,2.014684487120472,1135.0998003249058,1137.4639513140323,1133.2549105006476,1141.555149632204,681.9340674880542,-97.68648900646565,613.9492945165641,68.01694687339011,148.96375146245148
23.1025,-0.6311859597474359,-0.3843571658034156,-0.0442387345445681,0.0239952154518832,-0.0428829207720081,-0.145978048820394,-0.0239471038759116,0.0116862148968056,0.9913357250209986,0.1286204442720194,-0.1360565540702878,-0.0291631947972188,9.755504756539507,0.0040349538556369,0.0097146619835684,0.0067406913271086,3.5827273851252945,4.930945782976181,2.0146997272181486,1136.6767947580447,1137.1083326810442,1134.6308467396796,1141.4388897005388,616.254532655498,-201.5806431207185,476.0856517979884,-200.4742922517324,148.96355287540007
23.105,-0.6617498581897742,-0.3026196092707302,0.1235327198037499,0.0223637794238274,-0.0425077422947813,-0.1445718561070788,-0.0238986523858196,0.0116949569029142,0.9913177311970824,0.1287675047315292,-0.1351845759315556,-0.0257730250628129,9.75928789511557,0.0048842436934877,0.009400628569314,0.0066502510365566,3.5827139272251287,4.93092407609328,2.0147151815544175,1138.1810729881827,1136.4560480984287,1135.635338759637,1140.5527781709454,485.5266391790582,-267.43419647345905,240.7050021755045,-432.99889944638056,148.96321728518643
23.1075,-0.6491242142188818,-0.2580941810545814,0.3213924967329773,0.0207068157227742,-0.0434833338123306,-0.1448330525201666,-0.0238535620345225,0.0117064187735718,0.991300604517865,0.1289068001010826,-0.1345673594380312,-0.0226313109042512,9.763054948633089,0.0057398304808174,0.0090918714221956,0.0065729595438675,3.582698854737711,4.930903114538558,2.014731205783362,1139.1044279539415,1135.7711616986762,1135.834371750558,1139.273895203306,311.2753457243053,-290.7686777568084,-47.83858650131193,-577.7610930383856,148.96285417785776
23.11,-0.597386408839909,-0.1949667787319494,0.6022374297443089,0.0185461987953092,-0.0454614226582718,-0.1466059203878409,-0.0238123771180234,0.0117170179813815,0.9912838325385788,0.1290424944854445,-0.1342246372763017,-0.019829652897578,9.76675641559816,0.0066002011800317,0.00878854564839,0.0065084833735042,3.582681558116679,4.930883488403288,2.014747919857036,1139.737449716804,1135.0022047096452,1135.3961458271303,1137.663972705754,218.6208571727528,-313.31789410598367,-257.8544328709144,-654.6432461618163,148.96240219926557
23.1125,-0.5179275296009692,-0.0943361095276594,0.9475498826408216,0.0162099413878348,-0.0474983355349752,-0.1484167296453815,-0.0237719633531259,0.0117252811835646,0.9912667614455702,0.1291803189104281,-0.1341044271133361,-0.0174087230138115,9.770345708796526,0.0074631513388806,0.0084910853271547,0.0064563864240437,3.5826615254031315,4.930865675959041,2.0147647485175697,1140.197532239805,1134.2045722281466,1134.5450995862036,1136.0006789724976,161.24784181170915,-317.94950244058884,-395.73327564474073,-628.1011100081257,148.96187527638844
23.115,-0.4232818324448964,0.0547768114920574,1.3167086281544325,0.0143589585804865,-0.0487591490999031,-0.1478973174462588,-0.0237291745305835,0.0117309935774178,0.9912489978917576,0.1293238927530597,-0.1341514292774604,-0.0153846411146893,9.77377859124927,0.0083258983049748,0.0082001185461001,0.0064162946338196,3.5826381515868246,4.930850134610682,2.014781160513513,1140.5436889258629,1133.4124571974414,1133.4174794489059,1134.5234671557118,148.5311577291054,-336.21646088265476,-494.6037352523565,-563.609860639893,148.96125700341435
23.1175,-0.3320847585290389,0.2662726435156613,1.663170410909279,0.0137311042096462,-0.0486674188712103,-0.1419200650627292,-0.0236825044984252,0.0117346874329982,0.99123061123998,0.1294729124918619,-0.1343374333254096,-0.0137632682541683,9.777013245492464,0.0091852856949864,0.0079163367967834,0.006387964930575,3.582610962144124,4.9308371672790505,2.0147962532670807,1140.9401880284504,1132.5234899237337,1132.0720809099423,1133.1826296692986,154.19950028916327,-303.9553656952344,-447.19646420307777,-409.8050462905026,148.96040885647608
23.12,-0.306441992438472,0.4417159126517106,1.7754638810631056,0.0145038432839159,-0.047060179294036,-0.1331403648426544,-0.0236325341309433,0.0117351750880534,0.9912117106533904,0.1296265413852204,-0.1346634757832208,-0.0125883423357551,9.78001104529616,0.0100380171376404,0.0076403849955684,0.0063712589980165,3.582579969366659,4.930827423195372,2.01480971839592,1141.3146864273083,1131.8926803689656,1131.181497127891,1132.4744419242595,164.95904435317797,-209.01520238685015,-268.9398431758571,-211.67276739510845,148.9596134504145
23.1225,-0.35500681011147,0.5869912883341137,1.6412348323170436,0.0153409681143741,-0.0446441836521928,-0.1242077844749227,-0.0235821285300521,0.011730285217724,0.9911922379295248,0.1297848971993479,-0.1351658506076645,-0.0119269906832642,9.782736995747022,0.0108809782838195,0.0073727227898728,0.0063659807261956,3.58254597077067,4.930820877626954,2.0148215997517767,1141.764983250216,1131.4784139117996,1130.7273816940633,1132.124265832323,211.12958191215165,-103.76672945946912,-79.21200981869998,-106.96247049288412,148.95872615335475
23.125,-0.4917180903018836,0.7126367039865862,1.2210586745963812,0.0151451650428053,-0.0422527300930992,-0.1169313500591979,-0.0235349692067276,0.011717631974964,0.9911722647398832,0.1299469776583942,-0.1358905266374445,-0.0118506820992639,9.785160704327264,0.0117115941133324,0.0071133668718917,0.0063716490229364,3.582509678491322,4.930816787593245,2.0148323265743286,1142.370334336869,1131.3738467216683,1130.7854370787975,1131.9396295717954,223.05256275888,44.38317563151489,117.94511264673352,-56.90641177345059,148.95755548358665
23.1275,-0.6484508732241421,0.7779173317652078,0.7262134542425687,0.0136793239337711,-0.0407167284001875,-0.1142425519101823,-0.023492647293038,0.0116982973554868,0.9911518645469714,0.130111830086718,-0.1368471706543881,-0.0123551807337446,9.78725739382228,0.0125280418572491,0.0068617563240192,0.0063872217718095,3.582471143607082,4.930814248941604,2.014843155217627,1142.880246064011,1131.700329789957,1131.3171072572973,1131.839733773456,189.10735287994737,223.11576072947793,290.6975663245826,-53.065209777070415,148.9564920442043
23.13,-0.816921367694113,0.8053348599257079,0.1902062523397426,0.0111739100524941,-0.0389749422611488,-0.1144795672418228,-0.0234538676470343,0.0116741607771998,0.9911310335435882,0.1302795426076212,-0.1379882389257633,-0.0134090007158877,9.78900923068362,0.0133293617151621,0.0066166421952319,0.006411040940659,3.5824304410294365,4.930812531815748,2.014855048359905,1143.3158711012686,1132.4894255253155,1132.23892491042,1131.67430352291,155.1160764439682,437.2172526567243,456.20054659625544,-92.46774500476953,148.955338015922
23.1325,-1.0037317652105364,0.794236416616343,-0.3842173450179069,0.0079575259369831,-0.0364866898372538,-0.117167007067233,-0.0234183958946644,0.0116486202836831,0.9911099927932102,0.1304481636019884,-0.139289206692808,-0.0149487749983139,9.790404599455966,0.0141155012155552,0.0063760190115411,0.0064410220295602,3.582387979070267,4.930811043038124,2.014868673881587,1143.6558264462308,1133.8864160532405,1133.598109990278,1131.377395048432,82.2262343726868,559.883774557634,509.26710341187896,-110.36267184948694,148.95384941153276
23.135,-1.1343797864733915,0.7482219535757236,-0.7438205012593326,0.0054243430876171,-0.0342561623254355,-0.1206772048943431,-0.0233842512905337,0.0116235092183296,0.9910890837074842,0.1306152818089792,-0.1406877267505635,-0.016930670294279,9.791439928092636,0.0148873194687422,0.0061372166499419,0.0064748074976653,3.582344536251224,4.93080961572,2.014883420378765,1143.7270022731323,1135.288844398105,1134.7852604274808,1131.1224901636624,-24.727866460994306,568.3143256984971,453.84227096365,-70.05415465311246,148.95252328803352
23.1375,-1.2289070184115245,0.6684118232237392,-0.9415311691067004,0.0025930704148767,-0.0323534961040078,-0.1248183584527708,-0.023349122827289,0.0115984682735194,0.9910683911017424,0.1307806908509941,-0.1421108249927282,-0.0193449728767493,9.79211958694295,0.0156464312415242,0.0058971011936072,0.0065100008610363,3.5823007967173313,4.930808065216348,2.0148986176569847,1143.5321871139258,1136.7279876817324,1135.867321345096,1131.0271242751667,-124.2288352074658,551.3160906350737,399.3048271281053,16.718696945011885,148.95110951177375
23.14,-1.2860134920282196,0.567702271517262,-1.0034638376860268,-0.0006839977346217,-0.0309380328550069,-0.1289673457193724,-0.0233126396115586,0.0115763622678593,0.991047796589718,0.1309450871793137,-0.1435342454950184,-0.0221163711206942,9.792454426666287,0.0163949782322596,0.0056522494707492,0.0065443192452436,3.582257256910704,4.9308056377105505,2.014914296507445,1143.105858097095,1138.04542485128,1136.7817845631207,1131.2060836483874,-223.48411552481983,472.4620497561175,318.5304242431092,164.87038521409636,148.94962418358264
23.1425,-1.2912663992645874,0.4514877221509557,-0.929569249847392,-0.0042664736868646,-0.0300806016016743,-0.1324213148309005,-0.0232739259211782,0.0115578449829212,0.991027001970748,0.1311108132494033,-0.1449219644028539,-0.0252029464598697,9.79246315504696,0.0171353632175517,0.0053991029397497,0.0065756308699117,3.5822133657154613,4.930801758596004,2.0149304183572814,1142.4147665363012,1139.0902979305142,1137.4599734663122,1131.8514762012376,-355.34253646231053,387.40473753813126,249.68477893012695,407.7930236203785,148.94805443188068
23.145,-1.2368700203623224,0.302187175596032,-0.7477204610701259,-0.0083994668921736,-0.029508688281289,-0.1348955676425817,-0.0232293387744887,0.011544856738999,0.9910057048343704,0.1312806248834683,-0.1461919197055653,-0.0285227817698245,9.792172256059247,0.0178699757802849,0.0051342535223592,0.0066018897040273,3.5821685559724643,4.930796315673436,2.0149464557065278,1141.3291454147839,1139.98244853897,1138.030208457771,1133.2450487664887,-429.7285172991851,276.86476610107144,180.14557789264416,609.404627322768,148.94607625553115
23.1475,-1.1470099288064695,0.1700231684741815,-0.5734486214856114,-0.011331354475305,-0.029264953760134,-0.1354027807311215,-0.0231748431097762,0.0115376521861964,0.9909839414854376,0.1314549364354198,-0.1472550386375071,-0.0320186620278672,9.791615022267434,0.0186009474297735,0.0048546379223379,0.0066212378563322,3.582121894746376,4.9307903519846645,2.01496207800069,1140.2661239498057,1140.4746217610193,1138.3607013557753,1134.8984993378508,-442.2392744412275,169.3293257680623,119.37602620744914,738.9471618288411,148.94435185776993
23.15,-1.0224571599367087,0.0239798081120723,-0.4321553252117626,-0.0138849641423273,-0.0291453413890351,-0.1348105487129922,-0.0231124165165652,0.0115358109600714,0.990961773187874,0.1316329566420768,-0.1481420894621538,-0.035655687915649,9.790828441915298,0.0193299280725715,0.0045578677937539,0.0066322086900013,3.5820731907397083,4.930785248388972,2.0149773235083073,1139.1179490425764,1140.8290951678107,1138.6270885888089,1136.939784575635,-507.3249277582463,154.10405514797614,120.3191341242712,940.5442630799876,148.94255264847052
23.1525,-0.8469864217296365,-0.1786399399329234,-0.3361997526019515,-0.0166256704737473,-0.0291300067567268,-0.1338998981995944,-0.0230429186629327,0.0115398774783046,0.9909389844763226,0.1318160884194326,-0.1488687350313087,-0.0393719229827815,9.789854519066163,0.0200581400514775,0.0042425514981116,0.0066334187972474,3.582023064975496,4.930781701722398,2.0149925475801185,1137.7294993110147,1141.245142036759,1138.9622970263963,1139.6012206532498,-501.3427553652125,165.0466606720657,134.49313350472895,969.7534174346058,148.94031254675207
23.155,-0.6897048401614926,-0.3779150658110505,-0.3192052055157184,-0.0183996050220725,-0.0293082621573568,-0.1335192138658576,-0.0229684164933444,0.0115457976671023,0.9909152781683211,0.1320065372908903,-0.1494658176566726,-0.0431939863859422,9.788738990753918,0.0207863926347817,0.0039081993537847,0.0066236535811534,3.581971552300236,4.930779992083897,2.015007581635176,1136.611235265751,1141.654328471171,1139.2995542563324,1141.788551662807,-433.3096584220537,178.97046813708508,151.6710435144734,818.1747303466444,148.93838276468207
23.1575,-0.5334566926252647,-0.6124039747088341,-0.3458740463076931,-0.0195723358381834,-0.0298983428627313,-0.1337896500781974,-0.0228888892860802,0.0115505636850855,0.9908910046533012,0.1322019103899614,-0.1499299012072298,-0.047121055927426,9.787530654818186,0.021515163873981,0.0035550033537306,0.0066017038038715,3.581918347093094,4.930780320172351,2.0150226131296733,1135.562951018905,1142.1399943774443,1139.7206522439687,1143.6920943049822,-444.60587469816096,216.7465778091786,202.4679776772648,720.7687082413555,148.93639359375507
23.16,-0.3580573496143167,-0.9274873984235928,-0.3855195573572554,-0.0204872056903292,-0.0314321379603383,-0.1351209917885824,-0.0228035851076692,0.011550322685871,0.9908665731615665,0.1323995837499009,-0.1502435223651135,-0.0511659492913834,9.786279793830355,0.022244566392852,0.0031838782178742,0.0065664233388379,3.581863546139381,4.930783123087537,2.01503766844607,1134.3882058922607,1142.7380613602168,1140.3118941447185,1145.3923952040132,-419.49353959572727,203.29500839669493,224.24351191964328,499.38946697981834,148.9339457658955
23.1625,-0.2259597208407914,-1.2048580619237244,-0.3917245387190906,-0.0210353841338904,-0.0336458411354189,-0.1369374150775552,-0.0227121794749414,0.0115433097299183,0.9908421936257156,0.1325981885796533,-0.1504042637171806,-0.0553023481148733,9.78503609547643,0.0229743661178498,0.0027964211523483,0.006516809515781,3.5818073705770006,4.930789322241102,2.0150533824254686,1133.4654833209252,1143.1564694194283,1140.8418698035675,1146.1890416398824,-361.8614379422335,126.39835739612649,205.66818530628095,176.8797760137556,148.93186150072495
23.165,-0.1094195350017093,-1.4747413964807878,-0.340047153161594,-0.0215386832943073,-0.0369354250255674,-0.1389477616107106,-0.0226152021541383,0.0115302891662533,0.990818209288802,0.1327950031391134,-0.1504337650542413,-0.0594587765130019,9.783846966933735,0.0237040450512981,0.0023945691742488,0.0064521393419492,3.58175002752453,4.930799171921568,2.01507077309534,1132.5788987025498,1143.3700531471973,1141.3402350712497,1146.2767940840815,-351.46667279530163,37.94930585191496,180.83310418582144,-75.39143251575886,148.92973930224855
23.1675,-0.0060480293276105,-1.7197069585163431,-0.2304741551409811,-0.0220373899563799,-0.0409840745024615,-0.1406650409873117,-0.0225171043861781,0.0115072394255251,0.9907946554969094,0.1329893503158843,-0.1504169422887263,-0.0636689560320091,9.782755221161098,0.0244328018866249,0.0019803690087041,0.0063723387010315,3.5816909466528495,4.930812040624327,2.015090243363192,1131.7081499569492,1143.3462159486878,1141.7460353244965,1145.8120844773039,-345.5285725684513,-70.09586276345597,125.41800301976714,-290.6913751855759,148.92759225147051
23.17,0.0775246339470512,-1.9145075189713112,-0.0554049814080222,-0.0223814914828193,-0.0456424992156264,-0.1416134279348995,-0.0224230952134792,0.011469746387514,0.99077163350833,0.1331799761706906,-0.150451693114944,-0.0679791956422685,9.781798008652835,0.025159659940869,0.0015556472439215,0.0062781654342595,3.581630368350658,4.930827519257084,2.0151114550599942,1130.8512558397067,1143.0195738333798,1141.9673250863489,1144.8233372081531,-369.91217100710946,-198.78227314465536,46.00898730855994,-501.2544711318784,148.92542384792122
23.1725,0.1420499810162091,-2.0699909544019777,0.2093243577563715,-0.0221766339377861,-0.0516680767351667,-0.1417436391752445,-0.0223321389404985,0.0114178553741609,0.9907495767988382,0.1333638197623015,-0.1505255329141431,-0.0723364430595487,9.781007343466493,0.0258836052913152,0.001121814481584,0.0061711911846707,3.581568162015174,4.9308449622025226,2.015132297622931,1129.858589101914,1142.3523045829647,1141.9760802610392,1143.3058121216447,-350.1135494099586,-269.5788507299849,-34.53195728016686,-565.9649276889684,148.92280901703697
23.175,0.1527802208984617,-2.123486128775381,0.4537971622427155,-0.021210497123312,-0.0571483875069476,-0.1411572402150071,-0.0222411331250992,0.0113541200795197,0.9907288173786092,0.1335387156865847,-0.1505908556880962,-0.0766367499490275,9.780407216153256,0.0266035711260483,0.0006798618460707,0.0060541297349035,3.58150405694011,4.93086373361449,2.015150520795588,1129.1006880926573,1141.67167957973,1141.794665299948,1141.9935125697089,-273.545569095446,-270.12272697092885,-91.66127684666064,-484.5193330876349,148.9206286686559
23.1775,0.1073856952451115,-2.0913672688186495,0.693476098903722,-0.0195096669309461,-0.0630389439814691,-0.1398695424115473,-0.0221508952881529,0.0112846737905293,0.9907093427327452,0.13370409316371,-0.1506834850484014,-0.0807200341329507,9.780010154955363,0.0273184281795897,0.0002303971266829,0.0059310084550089,3.58143812481227,4.930883524493299,2.0151650900699134,1128.490861256436,1141.0016909481092,1141.5177738768057,1140.8832154562056,-213.7955362476503,-267.04785234320155,-109.3881804644515,-399.89844771019995,148.9184587192712
23.18,-0.0042255105617002,-1.9603820394662976,0.9384119720924008,-0.0177212840315364,-0.0697693001356091,-0.1373655950146542,-0.0220626560498525,0.0112125537650885,0.9906907612260598,0.1338623865226575,-0.15083680825372,-0.0844901909489578,9.779817753719584,0.0280271194702809,-0.0002262772944794,0.0058065668538662,3.581370347819059,4.930904474287416,2.015176064584028,1128.0317104114192,1140.3364403180144,1141.247724397626,1139.9940203311583,-111.56507667740188,-211.88526570649293,-63.52198153910094,-237.01302919116807,148.91588073097063
23.1825,-0.119726973312308,-1.7905018462144715,1.080088797672235,-0.0176382239248959,-0.074438354627446,-0.1344133085392341,-0.021976957247288,0.0111408618437902,0.9906724835563842,0.1340176114226802,-0.1510689824232863,-0.0878510595072653,9.779820572822745,0.0287287497613289,-0.0006901063802361,0.0056857347031231,3.5813007076623804,4.930926185708318,2.0151846168922067,1127.9330358730492,1139.9422646195771,1141.2001639691102,1139.69815031025,22.99810689451536,-126.37077523516167,38.12072428668974,-27.43715155229984,148.91376365672934
23.185,-0.2152499406384833,-1.584920527170708,1.1307431180960177,-0.0191258057595789,-0.0778447425125874,-0.1307902142880313,-0.0218897715095906,0.0110747091637776,0.9906540416077608,0.1341734730497537,-0.151313458240224,-0.0906588371721096,9.779999844268946,0.0294226884879874,-0.0011612447218091,0.0055730238951016,3.581229206791591,4.930947861459631,2.01519141498956,1128.1467009458916,1139.7045864418387,1141.438328019059,1139.8568345733968,155.4340099815672,-82.857336442583,174.3579124283207,151.29074806144044,148.9116895663504
23.1875,-0.2654714547570017,-1.324388976325728,1.0720711491281556,-0.0214001382299969,-0.0813009030663406,-0.1263353562389488,-0.0217949697559904,0.0110176070655758,0.9906350106079812,0.1343338395649752,-0.151457643321364,-0.0927987367859789,9.780327552800177,0.0301085784095666,-0.0016398664181764,0.0054723346015655,3.581156050223247,4.930968981552128,2.015196527539424,1128.710205922957,1139.5279779373643,1142.0719535312517,1140.454604050557,243.30775494032707,-60.3981600809366,279.0438324306643,259.35902004285174,148.90926140947107
23.19,-0.2402358491851174,-1.1074119747438407,0.9276557385701452,-0.023096556236245,-0.0841469034345623,-0.1231582853300019,-0.0216867604029338,0.0109674911809358,0.9906153583381424,0.1345000858220721,-0.1513807163655447,-0.09426924265385,9.780766989000822,0.0307863046517308,-0.002126078745389,0.005386807977716,3.581081062404784,4.930989899939797,2.0151999404312364,1129.363239720594,1139.402595641434,1142.8335471812131,1141.1536296736117,281.6556848286033,-58.2277583587372,328.5612705210241,282.4131451343071,148.90729586742336
23.1925,-0.1494849726076604,-0.8988249444899317,0.7042969039796892,-0.0242185108583356,-0.0866227651506903,-0.120958539409982,-0.0215661660148014,0.0109220592918282,0.9905953240942574,0.1346704963716796,-0.1510938492880276,-0.0950965131923216,9.781272433052642,0.0314559056298047,-0.0026196298470301,0.0053190532676047,3.5810041761413687,4.931011858187173,2.015201811268953,1130.1184843470996,1139.2368391455707,1143.7147598838565,1141.8666697762283,309.8133215534451,-74.69779922704797,351.37004480022995,259.3660463965596,148.90539824544487
23.195,-0.0187849309812909,-0.7034097320424406,0.4374225275197782,-0.0245965979189519,-0.0884987759072141,-0.1195590096242247,-0.0214412365229114,0.010882847401089,0.9905751286086057,0.1348420285544298,-0.1507552474829352,-0.0952568287249922,9.781791706015186,0.0321175991044664,-0.0031195765455271,0.0052710571774388,3.5809261206250222,4.931035373023523,2.01520262129124,1130.9123063283607,1139.0291066452987,1144.590397405214,1142.4504599055942,321.3671216528103,-83.81760890129304,327.2621624531584,176.5768336344542,148.90356210029177
23.1975,0.1365601194183873,-0.5317366571523073,0.1467965192849675,-0.0240154936791172,-0.0896716817592544,-0.1189783440937819,-0.0213156835353693,0.0108540575096073,0.9905546441706858,0.1350146684439758,-0.1504462562589287,-0.0946700978974101,9.78227322380595,0.0327719524430586,-0.0036239347743591,0.0052433423193636,3.580847026867343,4.931060659738602,2.015203185088929,1131.7253199553645,1138.817751101064,1145.351070696123,1142.7495539444008,358.3038689959525,-73.74762161890987,289.695855688445,50.83449573086101,148.90180551647487
23.2,0.3244743527277494,-0.3599160246232178,-0.1933009687071786,-0.022701370577593,-0.0905304777659114,-0.1190963327935822,-0.0211924490118396,0.0108368738291708,0.9905339661494266,0.1351871389363657,-0.150226789461584,-0.0933208280410084,9.782667557941469,0.0334198121531021,-0.0041300113451536,0.0052350256204937,3.5807674257377857,4.931088435756676,2.0152043966806694,1132.7038256733404,1138.6603685372042,1146.038876683656,1142.7046323842485,355.4628705624307,-29.57721296052702,209.07882962005328,-79.4304655241989,148.89979559211503
23.2025,0.4695365936804163,-0.2458364592448701,-0.44406110338852,-0.0214217544651745,-0.0910196167916852,-0.1198830720682662,-0.0210719465397085,0.010827055892945,0.9905133769940098,0.1353576282034041,-0.1500948375550406,-0.0913009335203298,9.782930991086529,0.0340622661789272,-0.0046344808601205,0.0052436792429338,3.580688089256007,4.93111976725178,2.015206520412044,1133.5026343081763,1138.6698650362612,1146.3964648442231,1142.35240161678,307.7764834528597,34.49806526521624,100.59203539194041,-186.3317842648896,148.89820595081233
23.205,0.5949851306161968,-0.1578831256096745,-0.6314215534460988,-0.0200130703397846,-0.0914861316059369,-0.1215065346234335,-0.0209528199641054,0.0108226918057173,0.9904931953006262,0.1355241617256449,-0.1500216449104079,-0.0886619342572543,9.78302802420858,0.034700512892852,-0.0051335371357411,0.0052656169674147,3.5806092400331293,4.931155249192926,2.0152100834840008,1134.2427080906054,1138.8328588635304,1146.541836860616,1141.7729734629236,297.2908830166626,87.36240992427075,27.149640460589524,-276.4500985507861,148.89670834521658
23.2075,0.7191418724683336,-0.0753592452022819,-0.7528409678925416,-0.0180083885746283,-0.0920926039294089,-0.1245524428079508,-0.0208345978222271,0.0108224156523346,0.990473690972688,0.1356849475284453,-0.1499982630830712,-0.0854567303598984,9.782932670246064,0.0353356883147026,-0.0056232611088002,0.0052962441794662,3.5805309955168734,4.931194675423384,2.0152161686408867,1134.989088723259,1139.1066770858827,1146.532213046526,1140.9701511240264,237.4613690311907,87.21635784406233,-21.0737547226514,-292.61594991145466,148.89502061453106
23.21,0.7995437341066796,-0.0222105648294727,-0.7542321208608703,-0.0159700307176604,-0.0925176767098778,-0.1278988072800714,-0.0207139916021789,0.0108224969396255,0.990454745840694,0.1358416524261804,-0.1499551084082157,-0.0817857749142237,9.782631552261554,0.0359687850376993,-0.0060998149898906,0.0053300556938464,3.580452517945868,4.931237354743929,2.0152253259334545,1135.4300149357612,1139.2689406527506,1146.4364680870028,1140.3098937133664,125.50476379536067,15.48474132345408,-38.69066769860022,-249.8619278553264,148.89370681911683
23.2125,0.8575306794142628,0.0144667277235462,-0.655999743292793,-0.0136827652506379,-0.0925385828098303,-0.1313634451483288,-0.0205916272603965,0.0108180264201573,0.9904362953471396,0.1359950474114615,-0.1498960469988011,-0.0777916705820341,9.782122550872854,0.0366004071158035,-0.0065600695364908,0.0053615381608666,3.5803728975830498,4.9312822359064175,2.0152378388641625,1135.6166125422365,1139.1841007925,1146.3387597080327,1139.7208414847491,15.35117542985368,-126.09753815329675,-22.675956329117035,-245.18075988562816,148.89249013444524
23.215,0.908494506344926,0.0357803551411951,-0.4622758964467401,-0.0113067200011393,-0.0921376906696353,-0.1340250095530407,-0.0204689993121169,0.0108059575667637,0.9904180866325678,0.1361469979894891,-0.1498464698510791,-0.0735910201412062,9.78141617753273,0.0372307666908556,-0.0070016086439601,0.0053855203058109,3.580291532854483,4.931328113234952,2.0152525971966906,1135.5067708129104,1138.6384529619843,1146.3230883053573,1139.0839899139387,-94.4875441585015,-281.482987177707,24.540955640809777,-231.702465863146,148.8911424459156
23.2175,0.9420565053345744,0.033796984775179,-0.2850679205024951,-0.0098649263639652,-0.0919234598702745,-0.1342758722161569,-0.0203423210740361,0.0107887114318299,0.9903997737752062,0.1363004055858806,-0.1497431360706143,-0.0691869544791083,9.780537098756506,0.0378597616207808,-0.0074226886461713,0.0053972487180625,3.5802081470091967,4.931374515212129,2.0152683876083928,1135.144174821444,1137.7766858566115,1146.4614644862368,1138.5623291554336,-190.24562345702327,-414.0975036894274,96.92886262398241,-220.00200824918292,148.89011235367198
23.22,0.9669985504611348,0.0137808151753202,-0.1497490242880929,-0.0081748897845825,-0.0919492426394883,-0.1329105417085815,-0.0202087725313255,0.0107714092857975,0.9903811904269556,0.1364565083503476,-0.1495477638359595,-0.064538215244071,9.779520628741182,0.0384869305147299,-0.0078223462178886,0.005393039146804,3.58012297328881,4.9314217347848395,2.015284329983253,1134.5555426956255,1136.5679654435376,1146.807732618477,1137.9839798726928,-258.2445760571832,-513.1657954837121,173.3894445806872,-246.03179182836703,148.88917737830852
23.2225,0.976724922845959,-0.0189569321846517,-0.0777569139290307,-0.0056206640270321,-0.0918597540349301,-0.1310546161068108,-0.0200737031251594,0.0107556426601923,0.9903623733986496,0.1366141079347722,-0.1493693439150274,-0.0596977413976984,9.778408721107976,0.0391114294673214,-0.0082003945186018,0.0053707837011025,3.5800363968672926,4.931470129999214,2.015300524962708,1133.8529519411584,1135.2108568791937,1147.3284117091403,1137.332170196292,-285.31612040959726,-533.0270666092475,240.3902121274903,-275.316386162781,148.88832006800985
23.225,0.9559237689576444,-0.064122410145171,-0.0867296364419996,-0.0023138378973934,-0.0916247396105693,-0.129782466726888,-0.0199411671546488,0.0107430766852616,0.9903433351741804,0.1367723657473306,-0.1492892031148502,-0.0547159566536382,9.777251159007871,0.0397322073725291,-0.0085570874793524,0.0053294042820847,3.579948213910447,4.93151927878989,2.0153165152101775,1133.1289620935768,1133.90283011049,1148.0096836791151,1136.6073979418784,-291.9428174597341,-506.51234827301846,313.40045920462086,-321.2710812182379,148.88755497609188
23.2275,0.8930243358544769,-0.1244935297149047,-0.1629856321636587,0.001529060837778,-0.0915520113303065,-0.1299145982730912,-0.0198086701683169,0.0107367923306717,0.9903239175285932,0.1369325344648401,-0.1492621951354168,-0.0495991785229403,9.77610488024036,0.0403481267520576,-0.0088928740261943,0.0052684840334536,3.5798578126070644,4.9315683735749,2.0153313902080967,1132.39323785386,1132.678295137829,1148.895414005163,1135.7258147902012,-228.05203871002948,-361.9021879219682,315.7092912099134,-311.25251191653484,148.8867416865276
23.23,0.8211284108941973,-0.1696169069622263,-0.2491560260856677,0.0039934052763745,-0.0918346891188861,-0.1312084385121449,-0.01967222743755,0.0107388843507945,0.9903041054769228,0.1370951405289446,-0.1492084689965146,-0.0443684809783703,9.775029785675647,0.0409579347004452,-0.0092084769592135,0.0051884793688924,3.579765141578556,4.931617231287476,2.0153442591219095,1131.9887019000269,1132.0933191708805,1149.5882301351644,1135.051135382296,-105.31656306192485,-133.33852432203912,246.1919643686647,-243.42886322816688,148.8861500360787
23.2325,0.7552672948797123,-0.1941236115026752,-0.3261663660835161,0.005266604798382,-0.0924598992678739,-0.1328184577052227,-0.0195283989109927,0.0107483889921515,0.9902842624443902,0.1372581485623662,-0.1490473568727876,-0.0391041111891159,9.774085786687083,0.0415603021551993,-0.0095048492947501,0.0050906057452605,3.5796707276867035,4.93166697441621,2.0153550008502696,1131.86665503855,1132.0116025162183,1150.126373827007,1134.5086704740595,9.53246485173812,59.49998419397436,186.07271407398977,-202.79260053739048,148.88564630287186
23.235,0.7117941582195164,-0.1832912549922169,-0.3881248886042962,0.0061664179853565,-0.0933587081732483,-0.134367045993868,-0.0193803522997856,0.0107629086059329,0.990264730038846,0.1374188519059729,-0.1488188696120416,-0.0339290370244134,9.773328347947347,0.04215388720557,-0.0097828721553298,0.0049771103228874,3.5795747142085688,4.931718919007789,2.0153645375402047,1132.0363642242855,1132.3908190918503,1150.518593705534,1134.0371723796093,102.10020244014441,187.5806163194202,99.00910575636013,-148.88601962296212,148.88514186933475
23.2375,0.7148428016475962,-0.1321197250507508,-0.409360240974657,0.0071116962005062,-0.0941385314129085,-0.1353137961622352,-0.01923707851676,0.0107820211481305,0.9902457320512404,0.1375744157209677,-0.1486778064960141,-0.028939804255951,9.77280634916454,0.0427374500581769,-0.0100433173866446,0.004851152713114,3.5794773526246555,4.931773817685774,2.0153739837154028,1132.3771560507507,1132.9495055978155,1150.6214193557887,1133.764240375945,153.88477857446873,229.7096282367609,0.4635655543095156,-101.31245899059924,148.88480376737215
23.24,0.75546950661621,-0.0326606969049364,-0.3966467730582605,0.0084203887809044,-0.09483644764947,-0.1360762036085827,-0.019107993750471,0.0108027886360511,0.99022716836667,0.1377244860803902,-0.1487774239675773,-0.024277911016713,9.77256260908624,0.0433100703966187,-0.0102868471385911,0.004716191843079,3.5793790814858006,4.9318314119604025,2.0153831994523674,1132.8057881171583,1133.5393672330347,1150.5209115333057,1133.530610084656,180.8566844272169,221.1952825896318,-76.99269213582451,-118.69976533732913,148.88454963033342
23.2425,0.8313253900768209,0.1383482195198172,-0.3374012935007712,0.0103596038528838,-0.0950923599214004,-0.1371487735701887,-0.0189995760583667,0.0108216883723356,0.990208817067843,0.137870056568409,-0.1492103609494974,-0.020082370478036,9.7726332966028,0.0438712138779392,-0.010514327614223,0.0045757801481058,3.5792803980199914,4.931890580033637,2.015392015489726,1133.2814394728866,1134.0554820107632,1150.2364558951097,1133.1707415492583,154.2500877666805,134.97195179773328,-119.81429720465366,-160.3186574090933,148.8843394325253
23.245,0.9000898444557545,0.3149980313456805,-0.2465823003941542,0.012585623275506,-0.0946458905171255,-0.1382353678324136,-0.0189108068532234,0.0108369901988161,0.9901904228820791,0.1380132580843156,-0.1499276530906069,-0.0164303278707265,9.773047890574697,0.0444207374854481,-0.0107270037507369,0.0044332425725039,3.5791811350494585,4.931950326582467,2.0153997408369007,1133.5770385559915,1134.2142269920232,1149.9218400472823,1132.7290167976107,94.03315335022904,-2.9147488918630526,-130.91979912904083,-213.5436506210196,148.88424092555329
23.2475,0.9534216032742404,0.5131326608051162,-0.1102339276497708,0.0152268226183032,-0.0936911574432773,-0.1392316427065966,-0.0188315978955458,0.0108511994138606,0.9901716802738038,0.1381574862888611,-0.1507157499431569,-0.0132844097293411,9.77382843189652,0.0449588153268519,-0.0109265236354705,0.0042915317863852,3.579080810650608,4.932010300099813,2.015406022311365,1133.7516052396377,1134.040908266304,1149.5818568994644,1132.1030232961537,57.295397026393886,-119.83823766715996,-136.63599989788952,-276.47259850001365,148.88421846119982
23.25,0.9817455869589662,0.717891223235202,0.0599350784481195,0.0177711276318153,-0.0923874623490311,-0.1399223262568926,-0.0187547132744278,0.010867274866778,0.9901523530015716,0.1383052115016545,-0.1514181282521361,-0.0105972069241107,9.77498553995012,0.0454857314848137,-0.011115120481757,0.0041539655303612,3.5789790829253865,4.932070638305062,2.015410285520237,1133.8635155411234,1133.6150358036875,1149.2386600477932,1131.3466538051107,47.28293389709816,-213.32623054038777,-140.20737701900643,-318.7483496828651,148.88425585157387
23.2525,0.970080677043616,0.9156765157265724,0.2571412764884515,0.0200677148037218,-0.0905972907918686,-0.1400591419024123,-0.0186820339375316,0.0108866058014182,0.9901324596551276,0.1384559366476586,-0.1520520711830682,-0.0083667223026828,9.776516639010051,0.0460017858472675,-0.0112957381024625,0.004024517771517,3.578875926397303,4.9321313044220485,2.0154124725216676,1133.9880199091233,1132.9742771136016,1148.8808200143692,1130.5092815477385,82.97535824373713,-296.32851740381267,-169.34408360970068,-362.86845709549135,148.88436084977968
23.255,0.8989035727014043,1.122643003254956,0.4963026514940546,0.0226959761210117,-0.0875824210986503,-0.1393683049814874,-0.0186167090657646,0.0109111953700724,0.990111902062478,0.1386097748626295,-0.1526633182352737,-0.00657228821204,9.778408807151513,0.046507465917986,-0.011471606035734,0.0039069925880656,3.5787715271903324,4.932191955679628,2.015413155499508,1134.278392332342,1132.1333932166688,1148.391939629745,1129.5323115196338,143.79976536063756,-288.8598006031436,-196.0637576812068,-338.2036478717273,148.884558223278
23.2575,0.7834082849970226,1.2528438803087054,0.6706923823181417,0.0248792026362485,-0.0841196280655832,-0.1379309206116289,-0.0185582110269827,0.0109408654271231,0.9900904869150294,0.1387681867264834,-0.1532236003611978,-0.0052150535716304,9.780641842989821,0.0470035312349543,-0.0116460738517329,0.0038042735954555,3.5786652331847377,4.932252392150498,2.0154131533483204,1134.7070187359263,1131.529978110586,1147.9005012259631,1128.8182633083802,214.25328416446925,-182.4226045363024,-217.98337410202964,-254.53999357069443,148.88477660303235
23.26,0.6003897956334849,1.3250119622102068,0.7849380722940599,0.0270569084814952,-0.0799488089511522,-0.1355160161379743,-0.0185029464070676,0.0109747052501368,0.9900684619856148,0.1389299512677283,-0.1536473734768868,-0.0042917239551619,9.783189086566455,0.0474909550130021,-0.0118228278965475,0.0037182847215761,3.578556923354697,4.932312621859464,2.015412463153865,1135.3496587531647,1131.2212801939868,1147.3020227592342,1128.2596115517797,317.4810060438353,-30.47041113387119,-283.5562541424788,-210.2287800242229,148.88504384058774
23.2625,0.2995543012398401,1.3462314426506,0.820551763539237,0.0295369284665403,-0.0752144656274874,-0.1317801804445219,-0.0184470554214224,0.0110095551126219,0.990046188665274,0.1390932503518108,-0.1538425843595249,-0.003831905761752,9.786018218956436,0.0479710344424972,-0.0120055265095889,0.0036501106729545,3.5784469864591415,4.932372554811246,2.015411578170103,1136.2944237661452,1131.3776260549168,1146.4827199552512,1127.7671194082593,353.5668729825168,160.57499029937856,-308.2656433614988,-157.6274071546181,148.88541332739817
23.265,-0.0103524986029797,1.3236510894209987,0.7553991174412367,0.0310149470801991,-0.0720074277390186,-0.1286502960418626,-0.0183887695302313,0.0110424190457768,0.99002379211194,0.1392576599105626,-0.153763557013334,-0.0038585527075884,9.789091681854396,0.0484454862307589,-0.0121974048809,0.003600272023153,3.5783360944104188,4.932432227352056,2.0154106402476746,1137.1174931180772,1132.0241551454835,1145.760694542427,1127.4714745160068,304.5473527701949,364.08114259615576,-282.26692637194105,-104.87145648302521,148.8857570469419
23.2675,-0.3543805046302575,1.2827277733949967,0.5998447518487914,0.0309161820333708,-0.0695044032342333,-0.1263971794430203,-0.0183264121767846,0.0110717745714321,0.9900014551026828,0.1394222172417401,-0.1533765042633642,-0.0043583049889575,9.792368845091772,0.0489164063917165,-0.0124012799429162,0.0035686052767378,3.578224961801858,4.932491569879265,2.0154098192582723,1137.8171605299967,1133.1980317678983,1145.0713853233908,1127.242762125844,245.14848221442992,608.9287401834856,-278.18528043090816,-92.56319385846861,148.88613306758134
23.27,-0.7599393154166701,1.2336175593858243,0.337742618522003,0.0284540426423132,-0.066875233814835,-0.1247770163255746,-0.0182581343800201,0.011094108803043,0.9899789402618172,0.1395891231560736,-0.1526451528418639,-0.0053492574954751,9.795808381984916,0.0493862685920861,-0.012619055598393,0.0035541253128545,3.578113941526201,4.932551049592067,2.015408833252652,1138.343235529149,1135.0687988464003,1144.3697681402728,1127.0086585467143,123.7319153682866,726.3321709495439,-226.23385480355816,-77.29714370949924,148.88661713991593
23.2725,-1.0604723254501467,1.1982756714520784,0.0836899836358691,0.0251788723653595,-0.0646835821558656,-0.1241399237447243,-0.0181858983594004,0.0111068324663327,0.9899557951532404,0.1397615288219094,-0.1516161673065766,-0.0068370105624233,9.799367956669377,0.0498576760220749,-0.0128518116408421,0.0035555230139717,3.578002975412951,4.932610910264752,2.015408135176794,1138.4358201068383,1136.8296926226456,1143.9402160493732,1126.8562764072965,-42.02686225314788,692.4807474014056,-133.5380262380794,-39.39046887819845,148.8870453912252
23.275,-1.3005416809620671,1.1627762259683547,-0.1723562222070799,0.0215357481729836,-0.0620391098708413,-0.1244274332286944,-0.0181124773076173,0.0111063991259994,0.9899321743033898,0.1399382466106365,-0.1503559265804876,-0.0088448335584554,9.803006942061964,0.0503330708536568,-0.0131002983888561,0.0035708498588212,3.5778916821862343,4.932671717990824,2.015408548411697,1138.1331012178832,1138.5312025834091,1143.702078009082,1126.8117062023234,-183.177143199182,629.6143922008812,-64.00028588801797,16.391727221074312,148.88749734824245
23.2775,-1.4866890583411072,1.1168225953851518,-0.404097981056506,0.0178133844259124,-0.0588807146034509,-0.1254643376450099,-0.0180400936965644,0.0110910870395923,0.9899083487146866,0.1401171898062197,-0.1489311105985587,-0.0113576332662879,9.80668748488293,0.0508146824847014,-0.0133645915248683,0.003597612054797,3.5777800983884167,4.932734266806905,2.015410904641677,1137.5199343908423,1139.977764583649,1143.6202146199332,1126.9382350434018,-308.81010063541686,474.9458060186079,-0.4392347648264113,115.00569799898145,148.8879680732858
23.28,-1.612495174346474,1.0478023290514042,-0.5791004979866113,0.0141809533436848,-0.0556791771455328,-0.127026027446097,-0.0179716247007719,0.0110596879543951,0.9898843229684648,0.1402980367036135,-0.1474275849564555,-0.0143523069363011,9.810375009210825,0.0513044869252008,-0.013643912353225,0.0036330673863438,3.577668994042447,4.93279918353508,2.015415612327738,1136.5890507147064,1140.9059316135017,1143.6998818352579,1127.3867346923182,-463.54806615795616,253.9054726279624,62.282984110982966,295.98110207445166,148.88846104407267
23.2825,-1.7023958682167935,0.9354300046459262,-0.6953606167358656,0.0099689074297647,-0.0525995795462998,-0.1293653799073544,-0.0179097059064353,0.0110133826555363,0.9898603320578094,0.1404786827047589,-0.1459373064129243,-0.0177604252680163,9.81403850078944,0.0518039914087809,-0.0139371591127724,0.0036745405908791,3.5775578194919015,4.93286597639106,2.015422627364827,1135.2021940600532,1141.247291946789,1143.931629540488,1128.4181405537738,-536.5154768154456,-8.90531377804286,99.52769072676509,467.6908572040268,148.88907779822364
23.285,-1.7289354578651197,0.8208403929170731,-0.6990129804201551,0.0061687498007026,-0.0507807566098407,-0.1317541569777782,-0.0178537700639929,0.0109547590380181,0.9898362992192904,0.140659522584047,-0.1444964817864429,-0.0214802524950396,9.817651497312152,0.052314248139058,-0.0142426554818366,0.0037194377601729,3.57744572381564,4.932934248825228,2.0154315054684178,1133.9064733306295,1140.8614050446115,1144.1975202888916,1129.7251889783379,-523.1069554223775,-272.37880240163287,111.94347192334774,607.4163313167521,148.88961179645534
23.2875,-1.7019303057625856,0.6881563166482156,-0.5973697522159924,0.0019396423810341,-0.0494876718563845,-0.1344572118527077,-0.0177998773956778,0.0108876924540624,0.989811654392576,0.1408447576325724,-0.1430801713320934,-0.025379458974806,9.821191562236947,0.0528358352746688,-0.0145581085764626,0.0037655140786441,3.57733300945186,4.9330037914655325,2.0154408450576686,1132.58665928294,1139.88539793478,1144.491346900105,1131.4552222103591,-553.6770057068871,-510.26750523943673,126.02815232014795,826.8525785719983,148.89016466361772
23.29,-1.6022067729826375,0.5041933006223684,-0.363674171950207,-0.0032882420269978,-0.0481023105523843,-0.1375737016890902,-0.0177425421060943,0.0108153602730509,0.9897865085088668,0.1410340475767338,-0.141631262050852,-0.029339687666641,9.824638973088913,0.0533685713782736,-0.0148815540187499,0.0038111280165857,3.577219745750305,4.933074754500915,2.015449706198537,1131.1380883020959,1138.3100675184148,1144.8276610504922,1133.859451871197,-484.7952719109399,-592.6551930654838,115.42355949948183,900.4146011921393,148.89084668122604
23.2925,-1.4628681530552403,0.3221042921165362,-0.1014524660310927,-0.0075681380557694,-0.0468292495719884,-0.1394095469465212,-0.0176784953130939,0.0107405809107204,0.9897612508194984,0.1412248508394222,-0.140132892074223,-0.0332608024339875,9.827974220294065,0.0539115011289428,-0.0152111796821674,0.0038556361056275,3.57710565887022,4.933147977780877,2.0154580432414595,1130.1626829233855,1136.9221219694532,1145.0684646976024,1135.9572952163187,-319.63612823889906,-508.8968108837105,85.46126687051756,808.9905740215225,148.89142748453602
23.295,-1.2735558175535333,0.1004036899710423,0.1778249539279804,-0.0114470408242121,-0.0453745109376002,-0.1397930133917043,-0.0176077673986039,0.0106667915314744,0.9897362346049507,0.1414144279306908,-0.1386306244558481,-0.0370450240468466,9.831176267195769,0.0544629236027665,-0.015545235136148,0.0038994886435278,3.5769907743196785,4.933224327124689,2.0154662802332126,1129.5399076609003,1135.7655834639947,1145.254967384845,1137.9044047413067,-181.1052603541972,-399.20831151438256,71.10142928460441,769.5815727537758,148.89201681716224
23.2975,-1.0114160060732331,-0.2095697807923869,0.453114177816203,-0.0151485246768873,-0.0438973295425406,-0.137964476188695,-0.0175292964872791,0.0105997849755703,0.989711630830959,0.1416012809200352,-0.137150341515028,-0.0405507381605704,9.834222593628295,0.0550204959160376,-0.0158820890394818,0.0039438219906989,3.5768747544014587,4.93330391874408,2.015474765756884,1129.2571566216147,1134.9260804118817,1145.4239718440251,1139.805203080087,-29.702971400235125,-191.41730011514653,56.10349916238399,598.6118080388051,148.89272777851525
23.3,-0.787513446073183,-0.4866727530631712,0.5763973902639304,-0.0171265881028853,-0.0436941746005881,-0.1343806690441184,-0.0174436868292861,0.0105426262779653,0.9896872103445123,0.1417867176762502,-0.1357364434519324,-0.0436986664427418,9.837087713521363,0.0555813598712397,-0.0162203444678668,0.0039905009124428,3.5767562199270095,4.933385642170552,2.0154825437134294,1129.3913928038994,1134.8084969634194,1145.535484880657,1140.8974637815,113.86118547969632,83.25261627888099,42.79102148841587,324.0231890413432,148.89331838235293
23.3025,-0.5876020698895547,-0.7422943431850278,0.5486013835465013,-0.017981490118909,-0.045348160044573,-0.1298091337438929,-0.0173539480038137,0.0104975959404102,0.9896630672570365,0.1419695579085068,-0.1344714290954953,-0.0464358078892976,9.839741820007164,0.0561421476669935,-0.0165595759555789,0.0040422361045813,3.576634142528169,4.933468037996861,2.015488671600788,1129.8264625490135,1135.3423434932763,1145.6379269514675,1141.4253190252944,204.92432620744225,314.6959690152642,41.581498811055184,123.48976161599876,148.89390103174955
23.305,-0.424219406059342,-0.9433977873325352,0.3993410924762117,-0.0182576296961119,-0.0484092000932184,-0.1260440956768093,-0.0172622084385479,0.0104625205742765,0.9896398044745874,0.1421455134003757,-0.1334013623496588,-0.0487972040926411,9.84215162323768,0.0566992679507779,-0.0169003944270938,0.0041018756999773,3.576509108044247,4.9335506298184235,2.0154925421669567,1130.4160144349364,1136.3819768084954,1145.743392374712,1141.51491258958,247.36512354989287,515.6153209592164,43.26522907777822,-51.01584290651877,148.8944728851957
23.3075,-0.3123032142716758,-1.0436543379139642,0.1519141191713743,-0.0184758761207977,-0.0525525403839147,-0.1244919701427411,-0.0171708866146568,0.010432518275146,0.9896179237061568,0.1423111773669106,-0.1325630777859164,-0.0508744790724764,9.844279727360233,0.0572493132317612,-0.0172437985158544,0.0041722898160433,3.57638139064968,4.93363312304555,2.015493713027929,1131.0632881667627,1137.9204200980719,1145.8542530968564,1141.170239810762,269.5014168190109,750.2838416659088,47.522882725670925,-222.0110940732398,148.8950270617621
23.31,-0.2321191702224653,-1.03055650024139,-0.1641272996556279,-0.0192270296997036,-0.0579094736976614,-0.1254495052429373,-0.0170841907886789,0.01040270595445,0.9895976879310776,0.1424645901123786,-0.1320213568871665,-0.0527667462575272,9.846084440596675,0.0577892933948302,-0.0175908365314771,0.0042562749102842,3.5762514010367115,4.933715284859963,2.015492580535851,1131.7635215190312,1140.1333960168242,1145.9810067883404,1140.404857119214,231.1358543239299,835.6523806259999,41.39556857186022,-318.6693136802384,148.89566615399164
23.3125,-0.2019466445805005,-0.9225179447339952,-0.3737228942447536,-0.0202659495427358,-0.0618061316512312,-0.1282084239966251,-0.017003075009172,0.0103678780640727,0.9895786349226728,0.1426092418584234,-0.1317700269739087,-0.0545721855048136,9.847522457912593,0.0583169904391558,-0.0179418603726217,0.0043555957971204,3.576119442415305,4.933797472208454,2.015490266468369,1132.2189674383824,1142.098682001201,1146.0612309397156,1139.5768932423612,153.23839433878112,765.3431181207175,19.216246824443434,-351.768510163358,148.896173513396
23.315,-0.204052446842513,-0.7598607017216435,-0.4690505680560173,-0.0212446816275669,-0.0640540417553701,-0.1318417453938184,-0.0169297576978512,0.0103235667745738,0.9895604714849924,0.1427472467419403,-0.1318250638955154,-0.0563801033612793,9.848548854195146,0.058830797064409,-0.0182970585659501,0.0044712431561505,3.575986322493873,4.93388036098811,2.0154882702447448,1132.5297134907255,1143.9601116074296,1146.0770880224627,1138.6460145683964,116.7886786158538,748.4187591875195,-19.256558751616655,-418.3754029238039,148.8966508330113
23.3175,-0.2478572484228031,-0.5738238238997571,-0.433415212542861,-0.0218799923142402,-0.0646006146401879,-0.1355123942176587,-0.0168692090532051,0.0102654858202704,0.9895431355079692,0.1428787746720758,-0.1322535994804877,-0.0582859441446182,9.84911852521452,0.0593297229013053,-0.0186563836437785,0.0046034699368479,3.5758525928301887,4.933964640837421,2.01548720491162,1132.8029108314615,1145.840775797138,1145.9649481459576,1137.4850162277423,101.27008258616311,606.6760082368844,-70.63714484339967,-423.3726273357594,148.89718497158776
23.32,-0.325176095445092,-0.4729369622216747,-0.2977852646492676,-0.0220224626967122,-0.0637734768303917,-0.1372726561506568,-0.0168243260259402,0.0101919907974351,0.9895264468823232,0.1430048664747787,-0.1330879757556058,-0.06032969055866,9.84918966828391,0.0598135157930066,-0.0190191777088113,0.0047514245157176,3.575718379184579,4.93405135531697,2.0154867340554934,1133.0360639036562,1146.9934916486136,1145.7239022982455,1136.529151431718,118.69951819115452,361.59269335980446,-131.2983239415427,-364.7427024648503,148.89759539944586
23.3225,-0.4481792341972079,-0.4567640157811815,-0.0985081425627797,-0.0222414740934158,-0.0629119564512455,-0.1374652101562598,-0.0167929394613051,0.0101057649057169,0.9895101495521637,0.1431273705056643,-0.1342737587594376,-0.0624546242238259,9.848726897370499,0.0602826588088575,-0.0193842659314705,0.0049129670812208,3.5755839290768283,4.934140730126057,2.015486551478861,1133.3964084224176,1147.6487392639378,1145.3084565262495,1135.6613027154172,211.4926280865313,176.63599010028395,-218.6575984175741,-335.7018265178098,148.89796730030042
23.325,-0.6396353639402668,-0.5261619269742109,0.1542084239460282,-0.023204396332231,-0.0633245699518654,-0.1361518294855303,-0.0167682809179336,0.0100117926434156,0.98949395825626,0.1432487084712717,-0.1356747531945516,-0.0645482265018708,9.847703487495249,0.0607383406344032,-0.0197501862882065,0.0050846421943455,3.575449362994729,4.934232263079712,2.0154875786555086,1134.0935270440887,1147.8766715991148,1144.630614306158,1134.8506422991293,309.47305528804253,3.068772697907362,-269.4450323429091,-236.05599042443973,148.8983666688905
23.3275,-0.8208324113759708,-0.6319226490220076,0.3415597933449838,-0.0247881637879299,-0.0649449049498111,-0.1342776501309382,-0.0167440625793084,0.0099134460920109,0.9894775287542028,0.1433717591731208,-0.1371624598211108,-0.066532867065714,9.84610197435987,0.0611823687727198,-0.0201154188919138,0.0052621098932033,3.5753144430384247,4.934325410391128,2.015490697902111,1134.9437736988575,1147.6640831274271,1143.9612313645353,1134.4810227632954,396.7804262373891,-146.18391383534595,-274.3586557937721,-59.63585963651572,148.89865901757216
23.33,-1.0015943438935695,-0.7518229737485109,0.483175434998413,-0.0270815939498154,-0.0671920736481625,-0.132507368986184,-0.0167094410250447,0.0098137357778428,0.9894602442282072,0.1435018202419332,-0.1385223524976,-0.0683271266625251,9.843917414527677,0.0616172398601066,-0.0204782455080554,0.0054398151525427,3.5751789147848982,4.93441952143804,2.0154959843821527,1136.0774291752766,1147.1457520299375,1143.2588210271883,1134.5524630009463,493.21503677952734,-239.31793590909575,-273.1576462173596,111.71650948715472,148.898908174761
23.3325,-1.1645348350738831,-0.861861010332368,0.584147797296923,-0.0298069374178741,-0.0696484132172298,-0.1311561743577735,-0.0166592476547469,0.0097153587387351,0.9894417713015972,0.1436415697636938,-0.1396550621177585,-0.0698737267839561,9.841155211267148,0.0620457748940715,-0.0208373930983898,0.0056124184258471,3.5750430956221404,4.934514187937891,2.0155029248095446,1137.4098488827547,1146.467493447882,1142.5954431334487,1135.039605310731,563.8824549670729,-289.3278630087146,-237.8350143539156,289.8093040428315,148.8991209427614
23.335,-1.2868421784118276,-0.9425755860663622,0.6394370913348528,-0.0328682799784129,-0.0723154113941714,-0.129879686366764,-0.0165930580159453,0.0096187053235337,0.989421949860858,0.143792090445751,-0.1405527915562168,-0.0711754854748476,9.83783212632391,0.0624710660797824,-0.0211918930853487,0.0057748070454038,3.57490807679434,4.934609549264128,2.0155108950296463,1138.8968414501114,1145.6991127148945,1142.0696459554192,1136.0015095211604,658.8484306582626,-339.39150407241783,-173.73202133781183,502.30591814258094,148.8992895270079
23.3375,-1.3647497247232474,-0.993371519087666,0.6560168451728194,-0.0368909343316018,-0.0757240734440958,-0.1276650314176581,-0.0165169920614563,0.009521980751246,0.9894005424630375,0.1439543745495272,-0.1413342413309172,-0.0722976817440433,9.833975768353122,0.0628963138288423,-0.021540868728963,0.005922471318832,3.5747752160573647,4.934705957833619,2.015520197202852,1140.7040910360477,1144.7705359275192,1141.7267830267592,1137.5511349014453,638.1274074897098,-333.38116897573207,-58.156982387856914,598.74568791418,148.89944085048444
23.34,-1.358431929083104,-0.9958085149206942,0.6313869440693382,-0.040622196335471,-0.0784405087877049,-0.1254226202905414,-0.0164339632063588,0.0094273638475183,0.989377607537263,0.1441274679169629,-0.1420717450928318,-0.0732201951826532,9.829627278783235,0.0633244886222511,-0.0218837556321393,0.0060508640320505,3.574644732412084,4.934803389590875,2.015531298168433,1142.087478487559,1144.032206870016,1141.77886104348,1138.9952379607307,490.51266607253393,-283.9570432218462,111.64805523328543,561.1374937579719,148.8995249023535
23.3425,-1.2670760825388068,-0.962255353137532,0.5787581728696343,-0.0443378387519147,-0.0804635100472024,-0.1235905364410506,-0.0163416571885837,0.0093372111575138,0.9893528415946276,0.1443134831923408,-0.1427394578881264,-0.0739052972799796,9.82484128916792,0.0637581512485042,-0.0222197883165389,0.0061551036185276,3.5745154107314567,4.934901632923703,2.0155447421320467,1143.1566543664098,1143.3507507114102,1142.2850233029255,1140.3568223702343,357.22065492630287,-285.0091952341812,341.8073994740778,528.837573049546,148.89956624014337
23.345,-1.0574631715321177,-0.8869549788462469,0.5082613055268654,-0.0482689538538617,-0.0823978301363808,-0.1223468306880533,-0.0162395553102006,0.0092514766112677,0.9893262312942948,0.1445125000078305,-0.1433420153608468,-0.0743673036222825,9.819682092333617,0.0641987734310343,-0.0225487453865771,0.0062308994711255,3.574386377568152,4.935000659906021,2.0155607742851647,1143.8735817621905,1142.6071608938455,1143.48789804085,1141.639425825978,147.11267733449148,-257.8415036141963,539.835862245007,384.99339293419706,148.8995680775101
23.3475,-0.8057353119388991,-0.7932733114650057,0.4625529278864695,-0.0511463562130199,-0.0842877917156827,-0.122052263854414,-0.0161305381365211,0.0091707324376208,0.989298776848926,0.1447172215482816,-0.1439530889468466,-0.0746178222648631,9.814220921246248,0.0646462026066419,-0.0228716437833316,0.0062752628614103,3.574256637690569,4.9351006373124005,2.0155789763514287,1143.892217753082,1142.0615431933395,1144.98420261415,1142.2817893349052,-121.12730781298691,-196.49970002082176,684.6601792337104,155.96018391730675,148.8995313299578
23.35,-0.4907269368747624,-0.6591727814907216,0.4437336579840382,-0.0534384600426662,-0.0864360402807706,-0.1221279984095768,-0.0160172070188187,0.0090969554367903,0.9892717200691896,0.1449186513948011,-0.1446430694007924,-0.0746396124443457,9.808534730425613,0.0650988433591613,-0.0231899908559215,0.006286446395501,3.574124711242992,4.935201300554338,2.0155982041775324,1143.2679452231253,1141.624662393741,1146.9111989370203,1142.4192267455649,-346.60483915893184,-150.33676865167115,817.7582772599898,-21.600514935475736,148.8994570888429
23.3525,-0.1443809465883644,-0.4868257477475937,0.444748248308443,-0.0547886585175317,-0.0883515577001535,-0.1220624371198694,-0.0159016502565127,0.0090343578641385,0.9892460584899164,0.1451093968963701,-0.1454743617503867,-0.0743695329823008,9.802703475738209,0.0655538856816176,-0.0235052639642405,0.006264195586619,3.573989733832836,4.935302438957901,2.0156169062902034,1142.1591935572878,1141.3098593500813,1149.0729940004492,1142.1737867602278,-529.7619462093425,-90.70217750815559,879.3441717927565,-164.1655313461669,148.89935373827083
23.355,0.2042593125079432,-0.2697169744935203,0.4505364252588343,-0.0548077217338817,-0.0897168856624669,-0.1215050042817222,-0.0157854135032849,0.0089826269799769,0.9892220290337642,0.1452876173152699,-0.1464791910053365,-0.0738295024783541,9.79680742067446,0.0660077522057776,-0.0238183028514971,0.0062093532088732,3.5738515933350614,4.935404746698803,2.0156344824615378,1140.619135492079,1141.1711515062002,1151.3079197959833,1141.598399088834,-722.459045385443,-20.881022764240928,938.1593601776078,-280.3006613230012,148.89921806094216
23.3575,0.5734084488508909,0.0309887754559911,0.4243569552081045,-0.0533996203664472,-0.0906271482039535,-0.1200018265489065,-0.0156715453833824,0.0089388475873532,0.989199921244504,0.1454511399696427,-0.1477041997634608,-0.0730945962491822,9.790923470808035,0.066456127877395,-0.0241299210210736,0.0061241256432159,3.5737101909694124,4.935508726578649,2.0156502440562902,1138.5468983303588,1141.20545423626,1153.7637908013396,1140.772283453612,-754.6191048139145,37.86934660561953,819.5686632682549,-285.18567395850584,148.89902194165848
23.36,0.8028494940296697,0.2999067412780814,0.3445224544029712,-0.0509072601774758,-0.0907466078871451,-0.1179151310428371,-0.0155562198083361,0.0089022996656741,0.9891795334159796,0.1456017806427422,-0.1490603136435252,-0.0721761663757954,9.785125337568466,0.066894641946474,-0.0244401966520236,0.0060111553597296,3.5735649026685246,4.935614289391546,2.015663285829766,1136.8460399680102,1141.3604982392283,1155.4057631123237,1140.172470719042,-631.7704308145387,71.01616019446331,533.7161935081137,-177.81056781563066,148.89883402968903
23.3625,0.9161717483600352,0.5618448548082138,0.1796639733337219,-0.0471685551843977,-0.0900971901154126,-0.1153647976384928,-0.0154373807692081,0.0088690373656363,0.9891600946574024,0.1457453103037459,-0.1504747750881109,-0.0711516232474383,9.77947846647988,0.0673192256306814,-0.02474847080324,0.0058739159086698,3.573416441088604,4.935721533248347,2.015673045463046,1135.3880461762867,1141.5605350372323,1156.4323717688796,1139.883230614534,-554.1782851056616,77.45684644865507,288.5045017197969,-22.98889472070829,148.89862454880583
23.365,0.9042272205742732,0.8286160336065445,-0.1126092084310181,-0.0422393743801674,-0.0882080731894953,-0.1128873962769886,-0.0153143924105524,0.0088339613218671,0.9891411983530124,0.1458850786040185,-0.1518914627208718,-0.0701231016461671,9.774038335909337,0.0677262287237149,-0.0250541576026979,0.0057164169458186,3.573266037125361,4.935831133294511,2.0156802145714665,1134.0751485424803,1141.7477824714715,1156.8482856209234,1140.0575262454383,-400.86287854641125,51.503202373634174,19.17800153101252,155.53219358856407,148.89835183522052
23.3675,0.7863168379816745,0.9789541872950704,-0.4044580452064797,-0.038837620847885,-0.0855611067280021,-0.1124092711384883,-0.0151888353159949,0.0087940210167878,0.9891227943331072,0.1460218671418881,-0.1532962759145584,-0.0691577926322494,9.768848862601184,0.0681127107046787,-0.025356808703619,0.0055431555468053,3.5731148255722895,4.935943265053185,2.01568564228404,1133.383731783555,1141.8180510491004,1156.5282617765347,1140.6608915824768,-199.56326714545287,14.053945921662557,-246.1601267377808,316.3015550764787,148.89810871258626
23.37,0.6021344639790708,1.0195358881678611,-0.6847800821492382,-0.0368663527727503,-0.0818695668871737,-0.1142124022348258,-0.0150652202195499,0.0087477333661546,0.989104896125138,0.1461558611599219,-0.1547305835364545,-0.068299503250657,9.763941566292447,0.0684766992075741,-0.0256560263984348,0.0053589090886214,3.572964241264556,4.93605772910924,2.015689367553726,1133.0773322067535,1141.81805220108,1155.6174849872348,1141.6390340208204,-66.23047247459407,2.025603493939746,-504.2621934055754,466.6556998910001,148.89785057694894
23.3725,0.3753894332648946,0.9197303011063666,-0.9302732754289972,-0.0360629807077321,-0.0770452001485121,-0.1182702089561081,-0.0149433619766902,0.0086977224778721,0.9890869214541518,0.1462917820972414,-0.1561522150402114,-0.067498216468748,9.759338246382784,0.0688175244265808,-0.0259509506761174,0.0051677472567337,3.57281444563825,4.936173604454721,2.015692147940084,1133.052579421182,1141.82817906657,1154.006950809507,1142.994170081931,30.577756975850832,20.16089538197267,-654.3782983817374,481.7893461513044,148.89752408168363
23.375,0.2322798656257647,0.718100237763631,-1.0160246017632273,-0.0367545610813307,-0.0736647289243568,-0.1225276931774521,-0.0148219603433637,0.0086484252703416,0.98906845315938,0.1464330626381157,-0.1575011125054947,-0.0666644849762915,9.755050348983437,0.0691353566462621,-0.0262412551903405,0.0049732058952013,3.5726647289754783,4.936289752641946,2.0156953064235648,1133.2302209916327,1141.9188566779899,1152.3455934953267,1144.0479807515765,94.4580959267995,61.72266999302818,-710.4551633296982,355.2098668246801,148.89723781437772
23.3775,0.1808646907240495,0.4256584651853121,-0.9555524951584184,-0.0386055431236118,-0.0716935716212302,-0.1270396073009503,-0.0147003071341564,0.0085974269169067,0.9890496263722504,0.1465782242333733,-0.1587101442310592,-0.0658412087798708,9.751079810906113,0.0694308745937999,-0.0265277561747898,0.0047778927931437,3.572513982339152,4.936406097169382,2.0156987415400165,1133.5248699008164,1142.1367924165352,1150.454674992857,1144.7702194160556,129.15100787393223,103.09486377552508,-782.0486394970623,206.202345865354,148.89693570157365
23.38,0.2154811988999172,0.0951499921019363,-0.7822714803936703,-0.0405769518932446,-0.0710567387082454,-0.1310621362157771,-0.014579403343236,0.0085431593060066,0.9890306284454008,0.1467250998664995,-0.1597500434829503,-0.0650583155279744,9.747419675503282,0.0697054071734695,-0.0268116729419569,0.0045842655428425,3.572362245395752,4.936522442382433,2.015701283990715,1133.8759760310022,1142.4343309968674,1148.4353502978422,1145.078992480903,151.16174280031652,118.96017288329496,-820.2924291936409,8.434392788059855,148.89661907063217
23.3825,0.3302240255937517,-0.2316819886144447,-0.5138359349737273,-0.0411609527371679,-0.0719938085738097,-0.1333356484561674,-0.0144615716617936,0.0084859708613656,0.9890114726189686,0.1468727247919196,-0.1606266494332928,-0.0643113973263653,9.744055844578634,0.0699610626746021,-0.0270942128149255,0.0043946790775542,3.572210183889611,4.936638784540952,2.015701971896324,1134.2806786148178,1142.7315932809515,1146.3532128468896,1144.812391379996,191.7484980422088,97.90213771197608,-895.459579775885,-244.21354148599917,148.89628347177094
23.385,0.4960095576119905,-0.564151444983201,-0.1587821119342102,-0.0391905731964579,-0.0746781437659208,-0.1332638825458349,-0.0143510288763037,0.0084284537900581,0.9889921196572024,0.1470204148223734,-0.1613947244866171,-0.0635574181883379,9.74096873496755,0.0702006638567751,-0.0273765501470336,0.0042113601533902,3.57205893578115,4.936754464835513,2.015700562355087,1134.8347185212135,1142.9238416854275,1143.9580523989605,1143.8579247734724,214.78064994662145,20.896055964207854,-827.1297753305414,-433.3364625382681,148.89585861721645
23.3875,0.6066038147706716,-0.7652469691033664,0.1092613664503879,-0.0359160903522616,-0.077766322802198,-0.1313641456171854,-0.0142478682494374,0.0083729038520155,0.9889725674560635,0.1471678460574989,-0.1620361377339114,-0.0627470151743854,9.738137763599827,0.0704276658748727,-0.0276596717007568,0.004035217794265,3.5719089918647526,4.936868863768448,2.015698161084872,1135.3545818645507,1142.8360735607728,1142.2175639702375,1142.645709067305,214.23086581075663,-102.05731444191072,-600.5730303348457,-527.530345923847,148.8954873939695
23.39,0.6501151406263417,-0.8797051787182577,0.3065285896344634,-0.0324230399958799,-0.0808010945478955,-0.1290334898934471,-0.0141441193843402,0.0083183816198886,0.9889527690953436,0.1473160769376669,-0.1623765952639064,-0.0618705168892672,9.73554518900618,0.0706459867787247,-0.0279440405588458,0.003864924712114,3.57175920255082,4.936982512618806,2.015695727448003,1135.905872850267,1142.413555113218,1140.9551872472869,1141.2202730438537,232.50663162540988,-260.337216970223,-409.29543343920136,-612.2132763663153,148.89510154577735
23.3925,0.6215947739814295,-0.9348613288875514,0.4525883420214227,-0.0291729582527076,-0.0837541079131233,-0.1267646771680105,-0.0140320920142179,0.0082653522994,0.9889329773373504,0.1474641260158069,-0.1622607735340899,-0.0608929008709986,9.733174730500147,0.0708595063704266,-0.0282298316389209,0.0036983230365171,3.571609808123773,4.93709624833399,2.0156940808110786,1136.5171150226784,1141.5343874759208,1140.1710868030407,1139.5846426854719,197.50067685685573,-367.4686520037816,-159.6385455755216,-539.3992543552649,148.89462747570843
23.395,0.5505960323310031,-0.9347626766552048,0.5118753279760047,-0.0277305978605345,-0.0858299998591851,-0.1255293019470107,-0.013905405211531,0.0082143058393756,0.9889132214012846,0.147612440495154,-0.1615678255191996,-0.0597845318957345,9.731013068266792,0.0710720910211248,-0.028516298368408,0.0035325713517513,3.5714617083507174,4.937210742991608,2.0156938817038483,1136.8933762345512,1140.5762118531995,1140.1569945194094,1138.523276772078,100.23056211987016,-396.079698050186,105.30649496274512,-316.3786207078094,148.89422889447496
23.3975,0.4646459646626896,-0.9144627298605504,0.5308794375822578,-0.0274702560440911,-0.0875397128904199,-0.1246978399246357,-0.0137647619607082,0.0081615900881864,0.9888933708016604,0.1477621117951015,-0.1603101844121548,-0.0586187717191973,9.72904943804531,0.0712873288100033,-0.0288018725021814,0.0033648049801631,3.5713152382538684,4.937326200002246,2.01569501760948,1137.0182678332776,1139.5539889856705,1140.6976192778543,1138.0027495819331,-21.369941172395535,-417.3619141223892,311.5883191068631,-81.96756417251335,148.89383512164443
23.4,0.3743127773279065,-0.8918197775872521,0.5321697995625025,-0.0276483523813,-0.089145103150705,-0.1238140480305325,-0.0136165082768458,0.0081048647004277,0.9888733906399316,0.1479129881667166,-0.1586206923687779,-0.0574633908333962,9.727276969960734,0.0715081700240175,-0.0290844745442369,0.0031926340779462,3.57117071796775,4.937443289413009,2.015697453016991,1136.7865265286891,1138.4894022825863,1141.7149361149443,1138.1134389512151,-151.93945206313697,-332.1040906967688,386.90533275638205,151.8380819220358,148.893380037653
23.4025,0.3169464920533777,-0.8833791557557908,0.5269568630502773,-0.0276584550976873,-0.0903321507038812,-0.1232435076893286,-0.0134651232267377,0.0080441531493334,0.9888532107386908,0.1480651964137069,-0.156609661055763,-0.056339373888249,9.725696061139834,0.0717367765687242,-0.0293614558130776,0.003013499638683,3.5710278448260366,4.93756285610409,2.015700926618624,1136.258570572962,1137.8934685321867,1142.6321459416358,1138.7619399915432,-271.14527601730447,-153.87523085758735,331.11603342801794,329.27799724659235,148.8930248657456
23.405,0.2701210108825801,-0.8818685483404936,0.5188064814610124,-0.0271903005918631,-0.0917540557970095,-0.1226474186016289,-0.0133152221429694,0.0079800094001806,0.9888331391027324,0.1482162918413182,-0.154396942384164,-0.0552618322048352,9.724313787147235,0.0719740994787024,-0.0296302898561466,0.0028250379216405,3.570885369180498,4.937685832806394,2.0157051184759887,1135.430800148603,1137.7200261282987,1143.3705162820843,1139.7598289374475,-364.39368378026273,4.526592088633143,241.2061644863595,405.2212770385164,148.892705737282
23.4075,0.2188510169014179,-0.8729117805519764,0.5023804311358684,-0.0263130012868195,-0.0936341331587092,-0.1217322189757904,-0.0131700368306663,0.0079140953903718,0.9888133710266443,0.1483646428022805,-0.1520823446981109,-0.0542245290398615,9.723143899798355,0.0722199858311785,-0.0298884394816372,0.0026251302168686,3.57074198292731,4.937812204169855,2.015709716142181,1134.4366021540611,1137.91610149263,1143.8381767640672,1140.788046376735,-410.45124053952327,153.43686006807144,112.81119694128816,348.3771617976128,148.8924241539902
23.41,0.1467544184925424,-0.8323842183220933,0.4617967893880366,-0.0251170649402482,-0.0961861328646095,-0.1202888151052983,-0.0130298141679907,0.0078487889474686,0.9887939695551928,0.1485097246784628,-0.1497120530439673,-0.0532020765206289,9.722206339516642,0.0724733051022622,-0.0301336786581212,0.0024118349842965,3.570596180675892,4.937941219644444,2.0157154244942745,1133.378543945906,1138.4872104286387,1143.9345722667906,1141.5017147464355,-443.5733240426548,299.1505657205669,-29.57655010285031,163.35815102134632,148.89219633983836
23.4125,0.0271249624333376,-0.7221548084171416,0.3676806963437083,-0.0237426644813363,-0.0998349179461175,-0.1179006957150326,-0.0128961492715464,0.0077851491922383,0.98877489894588,0.1486516183307776,-0.1473546488895354,-0.0522003779704768,9.7215243060514,0.0727321849521562,-0.0303644358477449,0.002184003779581,3.5704474735985605,4.938072742761447,2.0157218382205713,1132.2187355338467,1139.4118543212337,1143.690294013553,1141.6048371318425,-384.76043577341824,340.5381354156584,-124.70064796655357,-121.37058889754967,148.89199512359573
23.415,-0.0947157538254216,-0.5726862948485509,0.2477880865023253,-0.0231149113654186,-0.1027294364186921,-0.1157718399985504,-0.0127709756196912,0.0077245354643561,0.9887560378185316,0.1487909236574775,-0.1450851311859246,-0.0512211295251367,9.721122632125299,0.0729944066071137,-0.0305799735087758,0.0019414862940859,3.5702964905700822,4.9382066030030805,2.0157278434860006,1131.4547417670392,1140.189901105717,1143.311069026958,1140.8948618019479,-247.550296851936,263.1133690428283,-147.97508375216455,-449.8780331499333,148.8918941702227
23.4175,-0.2194115337426311,-0.376856659873718,0.1004061024305718,-0.0234253139968617,-0.1042010117552939,-0.1145255103965686,-0.012653362814712,0.0076700289322658,0.9887369603234792,0.1489304163100303,-0.1429264718413402,-0.0502237236929713,9.721026615420582,0.0732579064091684,-0.0307802806539101,0.0016849375081328,3.570143604921447,4.938341852897408,2.0157333279322045,1130.9809840495873,1140.7274211664476,1142.9504185947924,1139.3554469660933,-137.94720947969145,129.88916290053288,-105.37846510059418,-817.6981562999482,148.89186951314272
23.42,-0.3409580350115251,-0.1212618005081765,-0.0671216643837391,-0.02484568021582,-0.103953342886616,-0.1148565123776646,-0.0125423351412756,0.0076233479644243,0.9887173255403948,0.1490723792253074,-0.1408946357984773,-0.0491908050011331,9.721259004007583,0.0735209112791584,-0.0309665478735962,0.0014159704839922,3.5699888209323447,4.9384774209702575,2.0157373773553435,1130.7650057196404,1140.83934692022,1142.7841767014547,1136.806371020446,-26.566375816906486,-72.68152767348137,13.10086578310153,-986.849500621125,148.89193523511165
23.4225,-0.3990140473795318,0.0881690190172257,-0.1653282413083092,-0.026509125380525,-0.1028747768137365,-0.1162105657725167,-0.0124383644724874,0.007583114560613,0.9886968553470554,0.1492187102750066,-0.1390220546677046,-0.0481644023791077,9.721837456705511,0.0737821746885404,-0.0311411021821914,0.0011371515205235,3.569832346288531,4.938612243581962,2.0157392986399376,1130.8481521705028,1140.3640135280802,1143.0159229237079,1134.4211994629886,74.49604210329771,-316.3511247206945,188.8397153517793,-916.517858177031,148.8920738266073
23.425,-0.3994499721609255,0.2856692694263503,-0.1922931442860705,-0.0280795792104491,-0.1017376514300356,-0.1177688933149945,-0.0123405671063523,0.0075494669409768,0.9886756602525774,0.1493687636497824,-0.1373173434078833,-0.0471477056770344,9.722773097647057,0.0740409982743542,-0.0313075394766315,0.0008518372373565,3.5696751017501653,4.938745563504803,2.015739217901974,1131.1374859301568,1139.2575912966167,1143.7283752782134,1132.2237817295616,157.85547113024333,-614.4344631140069,418.0920503353853,-826.1934266369601,148.89230351964562
23.4275,-0.3332193693302288,0.5183190659982804,-0.1325795881647731,-0.0295477350216218,-0.1005078144435381,-0.1192922108026614,-0.0122469839956887,0.0075257636743083,0.9886540330290942,0.1495206121168435,-0.1357757972171874,-0.0460723709565248,9.724068564507972,0.074297343132949,-0.0314702436966037,0.0005641479436182,3.5695174580391047,4.938875954414108,2.0157372881840887,1131.6374295261544,1137.2918412125086,1145.1063831753859,1130.2902323298017,198.70318206648648,-799.3374071990045,566.5975961703898,-543.3457519057528,148.8926876618662
23.43,-0.2289792708171493,0.7206988651681931,-0.012996598085466,-0.0304096648140505,-0.0995010641432736,-0.1200949459929849,-0.0121569932541919,0.0075143705542489,0.9886323384358404,0.1496717925887146,-0.1344137869947507,-0.0448862975602885,9.725716339151456,0.074551778687247,-0.0316338489817625,0.0002787458176491,3.569359967893512,4.939002723609357,2.01573355933376,1132.131001840489,1135.2609042606225,1146.5613632590648,1129.5070529700336,206.88154679614425,-850.4535810876732,593.9806095485254,-122.95049722195188,148.89309949323754
23.4325,-0.0859434510692383,0.9431507185168504,0.1585132426578286,-0.0309563914659145,-0.0983184385687669,-0.1203160222588835,-0.0120701416953941,0.0075110820848544,0.9886109151572378,0.1498203233050857,-0.1332301549008348,-0.0436579388908552,9.727698948268182,0.0748053408625899,-0.0318025410520162,6.422687649350154e-09,3.5692030465533398,4.939126882040493,2.015727801736819,1132.671837260135,1133.0395733070711,1148.076286223128,1129.675479843692,223.6989682795856,-884.2608911986584,568.4368163643505,207.51847352793936,148.89360682331036
23.435,0.0779826832358371,1.1830153187113452,0.351217906926486,-0.0312566304461809,-0.0968003779120757,-0.1199879341160701,-0.0119834046052811,0.0075101278986992,0.988590121602745,0.1499643809089052,-0.1321680652533989,-0.0424729442829335,9.729989299385663,0.0750592322392061,-0.0319796123781531,-0.0002681505281606,3.5690467632709786,4.939250260417038,2.0157198899559807,1133.2494966818867,1130.83959980463,1149.403547340886,1130.544645337673,242.65854964237687,-832.0817566700334,429.3239740729804,463.58907501585367,148.8941926507894
23.4375,0.2500133309684595,1.4311330871917107,0.5380601673188212,-0.0311653979089438,-0.0945154899493167,-0.1188894700569408,-0.0118954946683121,0.007505243140124,0.9885698727658864,0.1501049569932671,-0.1312006292645439,-0.0414277296692094,9.732549720389745,0.0753147398042599,-0.0321667555030001,-0.0005218046122049,3.568891350514804,4.939374012897908,2.0157098555774646,1133.8851300083463,1128.8791645237216,1150.2229060934924,1131.9934252187709,295.7206861602878,-758.3737029128527,187.94748471954725,680.4167254401975,148.89487117304205
23.44,0.4380633000113649,1.7042181523243405,0.713089029172824,-0.0302964646803551,-0.0904930765332935,-0.116575021224317,-0.0118096349832254,0.0074937396730836,0.9885501305787904,0.1502421969221396,-0.130396057546514,-0.040560731597033,9.735331826379813,0.0755727915980014,-0.0323645362420789,-0.0007565349678829,3.568736977165201,4.939498491211082,2.015697219406648,1134.7281001126887,1127.047731290064,1150.3432847644842,1133.9467289648755,320.37217126659925,-557.7216663525378,-118.05180301978528,684.2837082597722,148.8957886276091
23.4425,0.5562497463640071,1.877562650708216,0.7902054524298106,-0.0286671748100136,-0.0860302903299405,-0.1138895075102349,-0.0117307819750993,0.0074750839020977,0.9885311366197944,0.1503741665067163,-0.12985963251234,-0.0398734510625815,9.738279196312064,0.0758336745316744,-0.0325726359429106,-0.0009681985190158,3.5685836209515567,4.939624364619856,2.015681535802719,1135.4869908646792,1126.0905561919596,1149.6326470783936,1135.414843760069,305.6141236554748,-247.545287419238,-442.3082957825016,489.8897292864669,148.89663557177977
23.445,0.60974725003432,1.9530874501284767,0.774034855831633,-0.0262402039470067,-0.0805644122174917,-0.1107992218308676,-0.0116616813975208,0.0074512972435335,0.9885128684008374,0.1505007226026472,-0.1296579847303177,-0.039313271550491,9.741330715067443,0.0760970914630145,-0.032789402658976,-0.0011537797108364,3.568430976526184,4.9397522389695245,2.0156634804752045,1136.256170730966,1125.810004852968,1148.131743285572,1136.3961776113076,321.19456037523315,30.66644680996683,-792.8496223962646,280.83328629294743,148.8975634840955
23.4475,0.5860898176542326,1.8940480288529944,0.6436986016721946,-0.0232031918238561,-0.0735244381955146,-0.1072153255098958,-0.011598693482535,0.0074284485623253,0.9884951961629108,0.150622722675766,-0.1297422238277793,-0.0387339388827314,9.74442424524467,0.0763619596536554,-0.0330121991592185,-0.001312163918762,3.568278502523345,4.939883064902844,2.015644468201497,1137.0929636665562,1126.2438884260096,1145.6683989664102,1136.8190101915343,275.16333866911754,270.3622730119688,-959.51499370336,28.43232719192767,148.89876531325925
23.45,0.4985486334970588,1.7085852323604227,0.4580163469527747,-0.0211016944315341,-0.0678219884778138,-0.1047314788288674,-0.011535282266514,0.0074112153215638,0.9884775131440376,0.1507444457639564,-0.1299981416761966,-0.0380119655850587,9.747498896849,0.0766265423020226,-0.0332372957844332,-0.0014443052128375,3.5681251568643604,4.940017203775656,2.0156259574454074,1137.631987424311,1127.1618162180275,1143.3341683170563,1136.5383392472672,163.815564074899,444.6620083242553,-921.5532502382771,-216.752001903294,148.89983662319912
23.4525,0.3628292111925025,1.3901112865419476,0.2309476685403046,-0.0197346534143533,-0.0626638110060643,-0.1031881469199249,-0.0114732707832179,0.0073970251662629,0.9884593193099908,0.150869157993345,-0.1304454882164987,-0.0371933239042595,9.75049502840147,0.0768882913658304,-0.0334608448426453,-0.0015521280901431,3.567970365651004,4.940154724761168,2.015609494666442,1137.9120414869303,1128.4671984676304,1141.0606327152195,1135.7352501820183,50.77666894992166,602.0851292883539,-914.924562743577,-421.65734736914857,148.90097582342986
23.455,0.182091571088416,0.894257338010429,-0.0248612611519301,-0.0190654634432905,-0.0578259572234107,-0.1030398572331381,-0.0114163442251541,0.0073793723885563,0.988440640179684,0.150996723373679,-0.1311223657039135,-0.0364109406323484,9.753358605559656,0.077143879881781,-0.0336796229689353,-0.0016389118756288,3.5678137133331087,4.94029572072338,2.0155952727652315,1137.885870769061,1130.1722418644708,1138.759545503336,1134.4300525104204,-69.58813335887973,597.7871855281417,-735.6296053341437,-495.0588125380439,148.90241609733363
23.4575,0.0459873834270265,0.435245455220322,-0.1726454640483157,-0.0194143321049152,-0.0556924163097604,-0.1046063873361096,-0.0113634676246763,0.0073581999117329,0.9884216127243064,0.1511263114902823,-0.1319887851006601,-0.0356652768224283,9.756044448072156,0.0773896483431866,-0.0338910034379646,-0.0017089364365961,3.567654567902313,4.9404392984035885,2.015582810992099,1137.5641008201362,1131.4561343952705,1137.3824846885495,1133.2599561193283,-179.30058726305035,430.50409548240555,-416.9939824879213,-446.5724823482539,148.9036735286443
