t,ang_acc_x,ang_acc_y,ang_acc_z,a_vel_x,a_vel_y,a_vel_z,quat_x,quat_y,quat_z,quat_w,acc_x,acc_y,acc_z,l_vel_x,l_vel_y,l_vel_z,pos_x,pos_y,pos_z,mot_1,mot_2,mot_3,mot_4,dmot_1,dmot_2,dmot_3,dmot_4,vbat
0.005,1.785942478634496,3.727436526925728,0.6840571558912235,0.003430064110719,0.2332243765680277,0.0076751939393849,-0.005552668014603,-0.0079417654452461,-0.3650462347056937,0.93093931392754,0.2105784997054105,-0.1449941533573994,10.880146911922859,-0.1147008426430919,-0.0087439530382366,0.804528023509612,5.919221390068373,1.7093060042349286,0.1564662999522015,1199.4744102693578,1156.8376907478237,1204.5629819688188,1150.5747453956667,331.75270730243943,933.1308649140738,-1041.3510425463755,-1070.290126829332,156.00800568140244
0.0074999999999999,0.7107477220781085,3.9285985877274943,1.152854462469798,0.0058429474722678,0.2428298252627557,0.0112992586877917,-0.0054661083828069,-0.0075519061734002,-0.3649870730765052,0.930965957901466,0.1960340723522166,-0.1435514867364024,10.88374632956895,-0.1152187420030772,-0.0090143325474916,0.8070546445845296,5.918973888861507,1.7095185989092652,0.1584773550771736,1200.303792037614,1159.1705179101089,1201.9596043624529,1147.8990200785931,187.96736115218664,810.6400895240314,-859.844875262752,-934.2363421431857,156.01101229998847
0.01,-0.1523433347093599,4.081762083524293,1.4309369355105863,0.0045959425660886,0.2525936471461112,0.0167211763475998,-0.0053839202744456,-0.0071574829343392,-0.3649370159495283,0.9309889224924808,0.1814164697067766,-0.142184053387085,10.887273014069487,-0.1157502907246083,-0.0092979501081975,0.8095923677319556,5.918729152493136,1.7097285957436044,0.1604909099382878,1200.4142470751187,1160.8908911954438,1200.263757592505,1145.9035636849508,-121.94414703330946,604.5713389566116,-591.8344600006093,-691.868349389142,156.01326823151305
0.0125,-0.9080541129065512,4.1584057802212175,1.526948339367664,0.0013655422636639,0.2636607651990836,0.0227329625293927,-0.0053065024289609,-0.0067614047772002,-0.364893750204596,0.9310090313562887,0.1667855498037107,-0.1408521286138834,10.890687702261957,-0.1162932741754335,-0.0095934044174954,0.8121468688197808,5.918485604945896,1.7099365254743584,0.162506786972561,1199.6940713024471,1162.193374604892,1199.0004320624498,1144.4396783316477,-516.5302136806076,439.70984110897007,-493.34415178518617,-474.4124937048583,156.01527058425216
0.0149999999999999,-1.6472279961023963,4.105318667300095,1.4072077684277713,-0.0037873048040122,0.2775691792191329,0.0296990340865475,-0.0052332399698426,-0.0063592031493177,-0.3648575605871974,0.9310261492896554,0.1520478126629727,-0.139549904929018,10.89394462667853,-0.1168567540814881,-0.0099026709256054,0.8147214581084259,5.91824144316662,1.710143251658766,0.1645250281196628,1197.8315960067157,1163.0894404009887,1197.797036833579,1143.5315012164265,-827.5030570438956,197.256564302188,-425.1037382701269,-174.54880596005748,156.01738545661254
0.0175,-2.1137416941570777,3.919425682511781,1.1273629283270967,-0.0086426236941275,0.2890641765163488,0.034865804235991,-0.0051592679262252,-0.0059426722538084,-0.3648292311823564,0.9310400028472702,0.1370048255114797,-0.1382128450954193,10.89699263628192,-0.1174574910469971,-0.0102235745598802,0.817316992490725,5.917996381422074,1.7103499573814687,0.166547050370204,1195.5565560172279,1163.1796574264029,1196.8749133710992,1143.5669343018471,-1016.0986114657588,-112.2650912112476,-393.75519966592947,179.21866779115587,156.0189111339475
0.02,-2.4270281229602824,3.5917795014521268,0.7161051815546507,-0.0139574104736452,0.2994692169033114,0.0383198387743887,-0.0050778712392465,-0.0055049864839553,-0.3648085740263158,0.931050712779585,0.1214765338770886,-0.1367272523930206,10.89977505509506,-0.1181108738389437,-0.010549994482592,0.8199326352990302,5.917751048977977,1.7105577254902624,0.1685745460964555,1192.751102949387,1162.5281149449324,1195.8282608352495,1144.4275945553823,-1175.6608957497526,-380.7143144040312,-461.4547796742502,468.8777035546993,156.02019474647523
0.0224999999999999,-2.6163763461156506,3.171850440927665,0.2593139143916182,-0.0195459194274649,0.3082490377832242,0.039341596040136,-0.0049830086613267,-0.0050474884167803,-0.3647948295226284,0.9310585825797076,0.105459953145655,-0.13492875425471,10.902230657381835,-0.1188191120475918,-0.0108716468761116,0.822567252651591,5.917505387485374,1.7107668321195608,0.1706085928055411,1189.6782515384791,1161.2760858543827,1194.567639472728,1145.9113228196209,-1259.5852073137391,-624.8213949433192,-564.7466474679729,716.7738675362215,156.02128027364787
0.025,-2.654975692962105,2.6868333071278423,-0.1679295209603712,-0.0249519994969682,0.3145917869865841,0.0372123646076049,-0.0048764822010218,-0.0045753763505043,-0.3647902170496446,0.9310627021236908,0.0891000975934852,-0.1327832870342535,10.904296019900505,-0.119573433539096,-0.0111884130031477,0.8252188368370279,5.917259282132305,1.7109768676744903,0.1726514083404541,1186.4531769128182,1159.4040079702158,1193.0045275979096,1148.0114638930631,-1421.4347082619495,-918.5298104536739,-746.5738646002136,1019.9520874187326,156.02213006036774
0.0275,-2.5109988068156905,2.087512624804639,-0.5637444317119693,-0.031637527161077,0.3197285770351608,0.0327583677260389,-0.0047618560299304,-0.0040907283232899,-0.3647934532486414,0.9310635727212152,0.0724991954551386,-0.1303216107968289,10.905911812119005,-0.1203686083224377,-0.0115034451389532,0.8278826671587011,5.917012795951397,1.711187357671259,0.1747057062004167,1182.5710779971691,1156.6834368021143,1190.8347701497269,1151.0110832567143,-1407.3456487996289,-1029.611021715937,-825.4660008396972,1139.5845014553747,156.02288118803523
0.0299999999999999,-2.209092812372325,1.6009629250124873,-0.7718912003161916,-0.0381461665036319,0.3229990850283276,0.0291369232287985,-0.0046453994925864,-0.0035918017068744,-0.3648024428463128,0.9310620609332974,0.0557109838381213,-0.1276650608009514,10.907024519168216,-0.1212036046185018,-0.0118257222284287,0.8305516840280245,5.91676458476701,1.71139952570192,0.1767734361886649,1179.41644866882,1154.255952861636,1188.8771975937111,1153.7093864003402,-1227.834227612129,-944.5945402517734,-789.0641302013134,1068.181774542563,156.02328605361564
0.0325,-1.691664968774908,1.1376422290713035,-0.866280544952064,-0.0455200463672441,0.3259233519586549,0.0264959163676401,-0.0045356111127087,-0.0030900191407694,-0.3648114823678522,0.9310604230733268,0.0390819470234913,-0.1248821458682718,10.90758723133172,-0.122055870689027,-0.0121582781174266,0.8332212697020966,5.916514137014412,1.7116135747611243,0.1788548898931606,1176.4319068591087,1151.9604641008555,1186.8894494987203,1156.3519921294271,-1256.959616269022,-919.4847356655821,-864.4781611249518,1087.4612928431352,156.02346464975219
0.035,-0.8285367550733027,0.6038261518442273,-0.8915427838438151,-0.0533932149240301,0.3286394960277279,0.0243022178121589,-0.0044366508374059,-0.0026020665859767,-0.364814338055769,0.931061148909032,0.0230396165383679,-0.1219189129498094,10.907563831167987,-0.1228976087597492,-0.0124934794468976,0.835888051296135,5.916260949192135,1.7118291622359034,0.1809494191876268,1173.1316505874747,1149.6585291833082,1184.5548067880864,1159.146692864556,-1151.806157967031,-737.0952503816627,-848.9360393777592,918.6233507565709,156.02342095521695
0.0374999999999999,0.0428091328210583,0.1731500509799314,-0.8736258453103941,-0.0571703551869401,0.3299530421835718,0.0229575306068354,-0.0043460288540759,-0.0021443616792125,-0.3647999563451604,0.9310685797843216,0.0079613223989271,-0.1185970963365551,10.906929136496796,-0.1237062350980551,-0.0128114837026171,0.8385494573064397,5.916006616620658,1.7120435893323125,0.1830558287870472,1170.6728760692736,1148.2749878489471,1182.6447693018315,1160.94510888321,-909.456251147049,-421.46024136523033,-773.2196672182912,564.4046484239427,156.02317212349624
0.04,0.959848823402052,-0.2434270172964797,-0.8468770820147581,-0.0559680788801928,0.3301252449623722,0.0218706533042875,-0.0042584487660831,-0.0017293760233695,-0.3647608085066527,0.9310857398233126,-0.0058685788429537,-0.1147223643394003,10.90566570891905,-0.1244678731060832,-0.0130907277562171,0.8412038927987717,5.9157521552824575,1.7122541620165213,0.1851710191993891,1168.5843693317397,1147.551227976482,1180.688708451995,1161.9687161066756,-764.5048446025605,-176.14243652214992,-807.8348235090282,255.69724000079052,156.0227060636987
0.0425,1.8111280774731793,-0.6446110837991647,-0.8253567491453051,-0.0502732827765393,0.3292610486686844,0.0210685429640647,-0.0041691017429686,-0.001362711375242,-0.3646994830103555,0.9311117694463612,-0.0182915623188124,-0.110176008346479,10.903760038202043,-0.1251796897450624,-0.0133169785067733,0.8438506894958888,5.91549882090306,1.7124595875834638,0.1872916134282966,1166.8503518462608,1147.3942756663364,1178.6055951842864,1162.223595083214,-600.769990522804,66.30147990085791,-881.5472759515164,-99.1758799372747,156.02206251055804
0.0449999999999999,2.4759359718549154,-1.0192378016204828,-0.8083416429169908,-0.0412501510546037,0.327043941779659,0.0202932025301249,-0.0040713850339665,-0.0010380941351643,-0.3646222684921541,0.9311444497295636,-0.0293970129888988,-0.1049089948909679,10.901199391382692,-0.1258589487936867,-0.01348155303332,0.8464887006422106,5.915248228556179,1.7126600101740392,0.1894149093639017,1165.5805193791257,1147.8827353759864,1176.280972072237,1161.4728367069893,-452.22016279076365,340.8705226650456,-1085.0781156992075,-557.3445724694013,156.0212084141789
0.0475,2.983517265688361,-1.428457189588934,-0.767269435655184,-0.0299087226007292,0.3228663298194607,0.0185069088334298,-0.0039601754806909,-0.0007489584618861,-0.3645393552580586,0.9311800853905589,-0.039262843603485,-0.0989161060859772,10.89796920898108,-0.1265222168888865,-0.0135797804257608,0.8491188488525082,5.915000094862748,1.7128567545315452,0.1915387960246376,1164.5892510323067,1149.0986282796616,1173.1802046057903,1159.4368722208671,-284.1521175652813,525.2761774790083,-1177.9463704753186,-910.0370737852692,156.01994497819635
0.05,3.15779446680857,-1.7340511885365444,-0.6856304594768386,-0.0211657831874885,0.3185199363016242,0.0160297501837289,-0.0038345821659987,-0.0004953951775676,-0.3644614101168167,0.9312147861364162,-0.0477958301497432,-0.0922355491511215,10.894052218498109,-0.1271719473150695,-0.0136103529284078,0.851745244798058,5.914753292895912,1.7130515897769807,0.1936623720331339,1164.1597587912993,1150.5091162633814,1170.3912402198607,1156.922651338063,-109.69669231835728,606.9553170502788,-1128.1545493458002,-1120.0098486254778,156.01869718772164
0.0524999999999999,3.1017711493874773,-2.0103211764430817,-0.5216572865502377,-0.0133935803690587,0.3140555853752106,0.0126470589528458,-0.0036938759826068,-0.0002691603068298,-0.3643950552083765,0.9312462268435932,-0.0550720832483918,-0.0849835440235251,10.889427205384171,-0.1278222190205237,-0.0135770403982298,0.8543702548716662,5.914507245353708,1.7132459344064468,0.195786768286769,1164.0407675707152,1152.133404864913,1167.539431859061,1153.8368229777395,-10.2161225324835,708.257614942568,-1221.3849324910832,-1402.451279523303,156.01725197791635
0.055,2.81848820144518,-2.3220906865704176,-0.2199999899920861,-0.004845106942459,0.308730253224263,0.0086814744989089,-0.0035352962038726,-5.441521844281853e-05,-0.3643423959273035,0.9312737863190143,-0.0613427646860908,-0.0773018892693147,10.884069217003177,-0.1284988162141039,-0.0134846551781518,0.8569935168345222,5.914261756177289,1.7134407632471087,0.1979141190533064,1164.1086781786369,1154.0504043380943,1164.2843155574053,1149.9103949404464,38.34989859192316,653.5040969006326,-1129.725366180036,-1406.5807547338395,156.01529559400217
0.0575,2.440612977467464,-2.569898141418787,0.094519473232066,0.0020791791073767,0.3038077357260609,0.0071523781451209,-0.0033607591676934,0.0001688153900123,-0.3643036779904281,0.9312974024769824,-0.0669140469704299,-0.069464808209337,10.877950379522792,-0.1292294792002918,-0.0133482941148142,0.8596124881953919,5.914015966392038,1.7136375793139236,0.2000473779511996,1164.2325170636748,1155.400925349416,1161.8908050281611,1146.8039192040703,41.52197658536354,439.22676263055126,-856.4355184964375,-1129.4732286745334,156.0134847956825
0.0599999999999999,1.96555454227251,-2.7963655830400915,0.4137648847767476,0.0082671303947904,0.2977460136305122,0.0087261824532985,-0.003175800605637,0.0004124756080022,-0.3642771677191301,0.9313175280488049,-0.0719128984858077,-0.0617589316009154,10.871044000319584,-0.1300250997855685,-0.0131839718243377,0.862225061854832,5.913769549804888,1.7138368166007807,0.2021880486355453,1164.3162880615637,1156.246538151247,1160.0021379649231,1144.2630287970735,15.0400013964827,225.6601380927351,-657.1030686787711,-876.3931562989914,156.01149218933
0.0625,1.4565822422824468,-2.989867582303582,0.6872752427607368,0.0128120091116789,0.2905941195712818,0.0122033400047627,-0.0029848669477129,0.0006784704956332,-0.3642622952876087,0.9313337985914366,-0.0762879494729754,-0.0543706314556731,10.863327984030544,-0.1308793311600802,-0.0130004846817506,0.86482976128975,5.913520557256895,1.7140394759059332,0.2043361716396587,1164.3077170706572,1156.5292260398799,1158.6052896847673,1142.4219534225756,-33.02307847729932,-38.64586902168408,-440.040177157152,-535.8706006095413,156.00935288735477
0.065,0.9727989919512984,-3.1240439758615084,0.8690788533154697,0.0146039336372644,0.2824342183010566,0.0160944828070344,-0.0027923610324871,0.0009632063408751,-0.3642580905317754,0.9313454948892792,-0.0798972756152362,-0.0474413820033564,10.854786794833874,-0.1317754376387935,-0.0128032797638822,0.8674248226866955,5.913268062125645,1.7142454724224625,0.2064912773481259,1164.1511726691772,1156.0533088061386,1157.8019370791371,1141.583675794026,-102.227554192359,-372.8367315833108,-239.3366238022734,-131.6096121583995,156.00704155319195
0.0675,0.4979298478312048,-3.202427750581748,0.9752642686261483,0.013730064228225,0.2723878373998859,0.0197381430464283,-0.002605722092364,0.0012648591073595,-0.3642606813996255,0.93135235877457,-0.0826341498503967,-0.0411854057120484,10.845412909098757,-0.1326965876296919,-0.012603254257259,0.870006704834308,5.913011968101041,1.7144538204366608,0.2086544178383259,1163.7965792996952,1154.6650423819633,1157.408606565756,1141.7639053617836,-149.30635805799267,-612.7835516883346,-80.24494388573649,242.40738365588163,156.00407528624459
0.07,0.220655280170258,-3.2001508389963327,0.986144529679942,0.0114651222856025,0.2643925259527613,0.0217370245730861,-0.0024332368481333,0.0015841506306644,-0.364261930289765,0.9313549772720204,-0.0844617345866125,-0.0358493135855385,10.835209009060328,-0.133629100944749,-0.0124134634831737,0.8725698932406346,5.912752927208467,1.7146633713461297,0.210827350965463,1163.4046408788872,1152.9893910476967,1157.4007123597087,1142.7957127123054,-158.40258642560943,-720.1819525492297,17.036755509252576,544.4148039217463,156.00144734125703
0.0724999999999999,0.0547445891207864,-3.138731100337796,0.9390722636619864,0.0095615512446604,0.2569441040447943,0.0234223488691618,-0.0022790512128669,0.0019215982732941,-0.3642550736495199,0.9313538566473732,-0.085397609974069,-0.03158846180314,10.824189914653754,-0.1345615280833651,-0.0122409083386665,0.8751075768479661,5.912491225531546,1.7148745903635652,0.2130116037076543,1163.0045663675671,1151.0641326192172,1157.493790343302,1144.4859793813923,-150.59996969948799,-834.9952989737646,14.798444556345231,812.3559733965992,155.99866274848665
0.0749999999999999,-0.0854753393403659,-3.0115370650737407,0.8316988436828109,0.0101597446259926,0.2483443655424906,0.0259017198130132,-0.0021453579145636,0.0022747219806342,-0.3642360883271146,0.9313527771268428,-0.085439971813219,-0.0284874077586452,10.812383691987309,-0.135479088097849,-0.0120884038378587,0.8776131078945557,5.912226677633014,1.715088131217194,0.2152066913799845,1162.6516410303896,1148.814414552828,1157.4747045824904,1146.8574925792884,-89.52432515097817,-777.0151655318833,-51.447504629732016,857.6091379770323,155.99514629783744
0.0774999999999999,-0.2159868830284457,-2.8693898504854567,0.7067903534294764,0.0129236844558331,0.2415264443564573,0.0279006369374663,-0.0020300421222033,0.0026400870461405,-0.3642088428357622,0.931352795461108,-0.0846265142486196,-0.026528031501998,10.79983140372385,-0.1363687573560982,-0.0119539785131984,0.8800799719287049,5.9119601674123965,1.7153046580917377,0.2174126539927433,1162.5569447418125,1147.1790567915575,1157.2365528201535,1148.7740250712775,16.19729734343308,-585.3630295326178,-144.438126466366,674.6950777775504,155.99207462583067
0.08,-0.4041804711458819,-2.6958887656270965,0.554078463434125,0.0154635261243901,0.235345869076775,0.0292602704543778,-0.0019295750134819,0.0030010110723655,-0.3641781887660586,0.931353814420832,-0.0827623282349503,-0.0255490692178121,10.786588024161873,-0.1371978045925189,-0.0118258037371284,0.8825059242462774,5.911692824720236,1.7155234041833611,0.2196288802166753,1162.7326275171067,1145.887599405165,1156.7525139501583,1150.230967968176,112.58836419756324,-463.86688901729906,-218.5418789270896,459.90565025813294,155.98886164753395
0.0825,-0.632076421324149,-2.4965716577479617,0.3850815624263286,0.0161854048945799,0.2296251637581785,0.0302474432787407,-0.0018444748340183,0.0033363220789759,-0.3641469313337358,0.9313558914211364,-0.0795510599477239,-0.0254234439820292,10.772719853690148,-0.1379248334145065,-0.0116957390560476,0.8848917951885776,5.9114258976672875,1.7157435115284747,0.2218535382833631,1163.1198865628003,1144.8597223464712,1156.143843425518,1151.073553322568,186.82727539594435,-365.47509047068127,-239.2046599083185,160.63132415524692,155.98553550045943
0.085,-0.8581072166163987,-2.2588472609297767,0.2025001817503566,0.0139175185793826,0.2241149779968563,0.0310231312788205,-0.001771661345015,0.0036365513718691,-0.3641144567745377,0.9313598818575928,-0.074976217606199,-0.0260304731462205,10.758300367355488,-0.1385315562782526,-0.0115566689733215,0.8872370244983147,5.911160574945214,1.715965073404569,0.2240840737036653,1163.6667638940867,1144.0602239528116,1155.5564906506168,1151.0341245889524,238.8626965385354,-321.54786677319834,-205.03858051356457,-214.360182882592,155.98207776688596
0.0875,-1.0514863869116335,-1.9135638221039504,-0.0247998100032677,0.0082174091074249,0.2174745576410727,0.0317736455404504,-0.0017047576029326,0.003895699773635,-0.3640793605352913,0.9313665870638876,-0.0691280113865131,-0.0271968060978686,10.74340920079302,-0.139009217986256,-0.0113982546255798,0.8895419102977022,5.91089699503447,1.7161879297372835,0.2263177914439472,1164.3142000454927,1143.2519830126053,1155.1186505229502,1150.0017524081552,204.7037630651634,-279.0754376487717,-88.42455699909824,-509.6982848536764,155.9777827186198
0.0899999999999999,-1.113478078333641,-1.5671141406267,-0.2119664962353876,0.0026678562839396,0.2121734502402496,0.0320065480392448,-0.0016368631514719,0.0041198467096037,-0.3640437642926576,0.9313751468668592,-0.0623484326780665,-0.0288189918616128,10.728129397432877,-0.1393710717844968,-0.0112181233999219,0.8918052497890134,5.910634544561903,1.7164112789292332,0.228553077101962,1164.6902827094125,1142.6648467645675,1155.1143678656215,1148.485633164684,83.90625213751278,-213.78855496382167,86.52103174645178,-682.8264480634983,155.97408672141083
0.0924999999999999,-1.077899112693942,-1.1631477730980655,-0.3782975642853298,-0.0014878844115671,0.2078739997226103,0.0312333981271769,-0.0015637235342404,0.0043175278307967,-0.3640112483752164,0.9313839772841273,-0.0550077065358058,-0.0308505954595391,10.71254690450898,-0.1396345399549457,-0.0110202023692081,0.8940266173250245,5.910372446511058,1.716635249781704,0.2307896578802223,1164.7337313061803,1142.183040237786,1155.5512556816825,1146.5876201678377,-82.66746433305336,-174.1951386160052,280.02094429907606,-848.6086917572258,155.9702751527792
0.095,-0.9765025573524988,-0.6387363877401366,-0.5277511188451943,-0.0047996914541422,0.2048577355930752,0.0290881497319379,-0.0014831688028869,0.004501202669315,-0.3639875458735787,0.931390565091425,-0.0475327691544027,-0.0333020063343923,10.696748992183142,-0.1398240331795896,-0.0108149236521501,0.8962052878746459,5.910111753584397,1.7168597316202023,0.2330282203687328,1164.2769453877472,1141.7938710714875,1156.5144725871169,1144.242589705898,-258.9703943166112,-101.08909355858476,398.6910678667752,-824.6176149962131,155.96557432548593
0.0975,-0.8955401590024916,-0.1984399844848417,-0.5968893630669188,-0.0066310058180602,0.20421443349121,0.0268554909645916,-0.0013969904715472,0.0046832446264754,-0.3639717277287238,0.9313949726258116,-0.0403076439652847,-0.0362469680531276,10.680823373537208,-0.1399631893854157,-0.0106171400565602,0.8983408814984696,5.909853899651616,1.7170831573018164,0.2352701420473991,1163.4388793345975,1141.6775947699932,1157.5447110210164,1142.4645320928566,-423.0481622887506,3.198274880787719,414.9306305924253,-636.6621514983302,155.96155605473538
0.1,-0.8793681613545427,0.2102518598187659,-0.6058011359414847,-0.0072559516273071,0.204786360531442,0.0248318661885507,-0.0013102938093449,0.0048700906428468,-0.3639641513974058,0.9313967932082802,-0.0335587043298283,-0.0397649818176772,10.664857462715707,-0.1400650961144415,-0.0104434878148412,0.9004344546418173,5.909599526493226,1.717305513063772,0.2375169754061344,1162.1617045763035,1141.8098624458917,1158.5891257400788,1141.0592789484062,-567.652049397429,93.37498078803027,387.0535161048334,-485.48586981169086,155.9574386534448
0.1025,-0.9511510949314969,0.5722614112915199,-0.5722627261300888,-0.0069004243204029,0.2060591012951883,0.0232219789556393,-0.0012269005188186,0.0050569291203149,-0.3639612712250699,0.9313972182505592,-0.0272826633835341,-0.0438106226047723,10.64893789440848,-0.1401259518686285,-0.0102995132745728,0.9024893611389472,5.909348971309867,1.717526155601293,0.2397705228131568,1160.6006190876103,1142.1444696739331,1159.4799786015403,1140.037102743798,-663.7207827565829,175.3673780084231,290.6303864302123,-311.32985301146675,155.95324303387335
0.1049999999999999,-1.1390075169131813,0.8599942345283668,-0.5024828045329259,-0.0060015909780221,0.2081229008511144,0.0221354981079863,-0.0011477695049762,0.005250279517816,-0.3639616665700837,0.93139657431448,-0.0217052667169674,-0.0483594525352068,10.63314956589628,-0.1401633895974824,-0.010193383152051,0.9045051041224536,5.909102169053459,1.7177446121628155,0.2420310396206502,1158.8431006625203,1142.6866993359336,1160.04227767223,1139.5026296833487,-775.8387353375853,270.2480061309421,158.41702810994352,-124.97035087608334,155.94895767792394
0.1074999999999999,-1.4517970491166083,1.1027905655994317,-0.3955854803523054,-0.0066258680007081,0.2113455634360638,0.0211132522406581,-0.0010733510424275,0.0054591157959251,-0.3639627650517562,0.931395657802481,-0.0170840990784323,-0.0533880526435206,10.61757643127212,-0.140199722073056,-0.010132959146614,0.9064801334847956,5.90885834680326,1.7179604573973803,0.2442981560701058,1156.7214254109224,1143.495709704588,1160.2720637420903,1139.4122509894175,-750.7100485730455,307.2498487554182,19.422900828340044,53.934293799738896,155.9437171720275
0.11,-1.707985863822607,1.2120219155321357,-0.2977864447383691,-0.0109938006015448,0.2145676967249201,0.0201113937073569,-0.0010038423780311,0.005692466086955,-0.3639611179203466,0.9313956339625457,-0.013658221393123,-0.0588628437528303,10.602301813623038,-0.1402572715438343,-0.0101246971713606,0.908412739066088,5.908616242850643,1.7181743171455968,0.2465702061942322,1155.089550419655,1144.2229485797109,1160.1393921763715,1139.7723011523476,-597.6691093171661,281.58417637582687,-91.42339546660867,227.09515071514923,155.93927231797866
0.1125,-1.8506452738853447,1.2219136285268384,-0.2029018733699528,-0.0195717081127049,0.2181424569179024,0.018948387353219,-0.0009335166120749,0.0059533775062663,-0.3639544160640054,0.931397277766218,-0.0115730092440705,-0.0645839458634609,10.587409339375743,-0.1403514976636254,-0.0101606371264867,0.9103022932463876,5.908375794625883,1.71838658833207,0.2488460645630057,1153.7330798643363,1144.9036305864672,1159.8149467647572,1140.5477267429935,-515.6623509638389,268.84349808919956,-141.6975539759277,426.4697503570456,155.93475127944544
0.115,-1.8165653212123452,1.1275822547224323,-0.1139477739521467,-0.0303404021097212,0.2224258225018082,0.0182670356841879,-0.000863292286665,0.0062404859617568,-0.3639418855129108,0.9314008117043344,-0.0108157026351602,-0.0704482660717358,10.572981983738629,-0.1404850028479303,-0.0102408358051811,0.9121498093354364,5.908136597565071,1.7185972901383328,0.2511262659275876,1152.511238664836,1145.5671660701569,1159.430904406492,1141.9046499041328,-376.2028025530068,208.86260908850977,-106.4894682735029,559.3383776523747,155.92924298883105
0.1175,-1.6265009546487523,0.9766900718374651,-0.0817768306113682,-0.0366696717355546,0.2254214138498537,0.0185383951023324,-0.000797749520362,0.0065501290990369,-0.3639260987042148,0.9314052473126728,-0.0112821229870411,-0.0764084473704061,10.55910237590212,-0.1406527933313866,-0.0103703338022785,0.9139570247111912,5.907898268186856,1.7188068129053933,0.2534115111125327,1151.8520658515715,1145.9479436319095,1159.2824994233897,1143.3444186312552,-192.57198468230888,114.22831757627156,8.289903114155113,627.9685158818677,155.9245871338487
0.1199999999999999,-1.3371576030372667,0.7801987838664404,-0.1157187940517527,-0.0389839624399793,0.2273369903159835,0.0194308412782825,-0.0007398910808734,0.0068729893399405,-0.3639089613569568,0.9314099072391188,-0.0127534218781575,-0.0823467505898535,10.545853829352028,-0.1408399562462354,-0.0105468941050585,0.9157268599286597,5.907659999886154,1.7190161344727632,0.2557020705698315,1151.5483787414244,1146.1383076580382,1159.472353922063,1145.044492483542,-70.19080947761735,48.55273619605223,145.3360057766534,713.7906667610437,155.919867602068
0.1224999999999999,-1.0253801155915532,0.5700402606276485,-0.2114919684915298,-0.0389583704220831,0.2284317997337329,0.0204929163301036,-0.0006910043714041,0.007198770508037,-0.363889113478725,0.931415384471962,-0.0149918257567925,-0.0881113439868092,10.533320653114364,-0.1410297540745637,-0.0107630970160116,0.9174622243652072,5.907421118418414,1.7192259634218292,0.2579978265309004,1151.5011118041834,1146.19070731289,1160.0091794522727,1146.9133719650606,28.92060822891833,-2.885737466522184,298.73561423983085,776.6587217246063,155.9150987854787
0.125,-0.7281463694131631,0.3671353294109435,-0.370691101640218,-0.0385727119374662,0.2289453883762691,0.0209102041805126,-0.0006536849642831,0.007521591107187,-0.3638628118773496,0.931423150799828,-0.0178253065115219,-0.0936189391180719,10.521587502093062,-0.1412110264202364,-0.0110153616267527,0.9191649078034924,5.907181309803351,1.7194360103854158,0.2602990225537812,1151.6929817825692,1146.1238789707056,1160.966031993262,1148.9277860921652,118.1543834644798,-43.045298999732,501.5078666833683,904.4989397106739,155.91027507281945
0.1275,-0.3893785675986503,0.1513507415416049,-0.5957715849835341,-0.0393968312029446,0.2293088511167989,0.0198798693043368,-0.0006287603607881,0.0078375036778786,-0.3638310412415053,0.9314327969092449,-0.0211232876917296,-0.0987757271148665,10.51073943958597,-0.1413762332024047,-0.011299143629049,0.9208361031082286,5.90693908504218,1.719645440547338,0.2626056064942987,1152.0918837215058,1145.9754808178911,1162.5167187856898,1151.435866663614,158.41449367208028,-56.23014842831248,615.8650048169416,922.4337884686967,155.90442940799943
0.13,-0.1006884323275698,0.0023160138542646,-0.772976822636711,-0.0407281640280254,0.2293496307920489,0.0177533134577318,-0.0006133236781181,0.0081356163758129,-0.3637952772175433,0.9314437528279333,-0.024639645481889,-0.1033731447649161,10.50086216420122,-0.1415079548157523,-0.0115985147625485,0.9224787954093278,5.90669405485007,1.7198527981808291,0.26491688481522,1152.4850542509296,1145.842728228564,1164.0453570173468,1153.5399550345087,154.3683265543676,-43.850011804170165,633.1006202079145,827.3545387501592,155.89951522041005
0.1325,0.2193893200444546,-0.1095582642975239,-0.895221400139034,-0.0417185455842598,0.2289921335696257,0.0146299348593465,-0.0006032865744585,0.0084121553485509,-0.3637575219693772,0.931455196826271,-0.0282698470763578,-0.1072465798041508,10.492039723016804,-0.1416016178425311,-0.0119002960601254,0.9240942605860074,5.906446525299764,1.7200586781494651,0.2672330978806864,1152.8637253542777,1145.7562307588703,1165.6822218867292,1155.5726393573648,143.08099983295494,-16.742499536348973,651.5940192828106,785.8653571578992,155.89456281349925
0.135,0.5725202722273464,-0.1890608815010694,-0.9487086271079506,-0.0420006271706431,0.2282810290295823,0.0110853745882128,-0.0005901939771352,0.0086672430185139,-0.3637220053605825,0.9314655418268823,-0.0320124408739356,-0.1101885522604283,10.4843535527037,-0.1416624481716915,-0.0121872813820172,0.9256827595922648,5.90619837449563,1.7202640359979435,0.2695545825805064,1153.2004592500944,1145.7590157308823,1167.3033271137608,1157.469281820298,126.38808147685256,39.519883467573855,620.5106935554335,704.3315807290576,155.88958365463793
0.1375,0.9557964083411576,-0.2321011153157077,-0.910059357295658,-0.041282509280791,0.2272489077536619,0.0076303022828552,-0.0005656920668507,0.0089050657938611,-0.3636929939055532,0.931473187018344,-0.0359389673988597,-0.1120377376633624,10.477879673610076,-0.141703097124778,-0.0124456275074331,0.9272440003391011,5.905951124890281,1.720469934658982,0.2718826155614629,1153.495665761662,1145.9538301762084,1168.7847753545063,1159.09429726101,131.3878346518776,156.97207677021635,592.643567586901,623.1128428127697,155.88457853048584
0.14,1.414870150610746,-0.2537493970476701,-0.7704496067173473,-0.038917016162274,0.2260413721882678,0.0042818006000373,-0.0005208814428061,0.0091277775805459,-0.363672510389294,0.9314774449207524,-0.0400807906500252,-0.1126198014355951,10.472687128180723,-0.1417337856694463,-0.0126589339822339,0.9287790146191268,5.905705641044384,1.720676407084311,0.2742170381220448,1153.8573984233535,1146.5438761147332,1170.266544951695,1160.584846034362,142.84385768783056,296.02694965660675,478.2911335890272,450.8419354521717,155.87855046261956
0.1425,1.756013600362146,-0.2624088229169068,-0.6003175968558737,-0.0351748642104122,0.2254882025416724,0.002256582142563,-0.000454414375205,0.0093460746857361,-0.3636580000124016,0.9314793638771176,-0.0445747840424814,-0.1119856538544341,10.468833074629025,-0.1417752463384678,-0.012828552133769,0.9302882489469536,5.905462202015781,1.7208827571464456,0.2765563902969275,1154.209885050101,1147.4339649244914,1171.1762310224517,1161.3485069382707,155.68903441139884,458.18672196160367,281.79718547712713,190.33303878900455,155.87351447291573
0.1449999999999999,1.9978464792514736,-0.2830261488782371,-0.4123049732830236,-0.0299475556077474,0.2254369968373164,0.0009985488389911,-0.0003729962142641,0.0095672196190345,-0.3636457895450909,0.9314805215455216,-0.0494260052445787,-0.1103284952212631,10.466361742277646,-0.1418375558338962,-0.0129672342129787,0.931775093812604,5.905221589925249,1.721086341270244,0.2788986483449529,1154.6358435954107,1148.8348097245414,1171.6755308790807,1161.536511228307,197.82543022956904,743.6130834294579,111.3511502711395,-55.426242558815176,155.8684718238162
0.1474999999999999,2.1149400127490035,-0.3395685996900403,-0.2145464240716368,-0.0229475988782207,0.2255034318301025,0.000531846961672,-0.0002825198688443,0.0098000396370611,-0.3636319149418187,0.9314826206685716,-0.0546734643123267,-0.1078482436598486,10.465303593337731,-0.1419344713007119,-0.0130872962221652,0.9332438082725756,5.904983130564864,1.721286171416526,0.2812419312139326,1155.1990122012487,1151.1520303416387,1171.7329867738072,1161.0713757254769,206.8349492403284,949.2330706327712,-77.04034506778035,-279.0711517905036,155.86241996836054
0.1499999999999999,2.0368400153753945,-0.4162761789128817,-0.1062523881104397,-0.0167255003547984,0.2252995160748157,0.0010614992901553,-0.0001890857551528,0.0100518578881586,-0.3636112898979754,0.9314876923297728,-0.060323568735134,-0.10474766292321,10.465673920746479,-0.1420770074579203,-0.0132001269405929,0.9347001588499576,5.904745503439469,1.7214827932954984,0.2835848920296897,1155.6700183416124,1153.5809750777053,1171.290329153742,1160.1411554693543,183.78005281479076,1047.7147896497163,-283.49762522661854,-464.83618609586256,155.8573810529193
0.1524999999999999,1.756897458285693,-0.5146925721779387,-0.0852903486910125,-0.0100930292126124,0.2245130169091089,0.002482575356416,-9.667678892440719e-05,0.0103211623899049,-0.3635822807031962,0.9314965237407182,-0.0662255621987163,-0.1011300103516712,10.467473210798405,-0.1422617360698143,-0.0133085896432434,0.9361527292040392,5.904508351340824,1.7216769301539054,0.2859272557536016,1156.117912465323,1156.3906042898873,1170.3154986476743,1158.7471947949975,180.66648465601233,1150.8638551887989,-474.6145576145405,-611.6250583642335,155.8523521103204
0.1549999999999999,1.3155711522679416,-0.6175549049309467,-0.142377869251172,-0.0035059530586841,0.223052026420256,0.004216875456277,-1.3716047465697709e-05,0.0106015846810082,-0.3635471164982913,0.9315083450093135,-0.0721006248211331,-0.0971564302392459,10.470685404099354,-0.1424729082903459,-0.013421466891942,0.9376117345106442,5.904270906105173,1.721869629121431,0.2882707431706075,1156.5733507648924,1159.3352943536493,1168.9172563656691,1157.0830301775331,202.97681519364212,1151.414625985716,-642.7805187448024,-694.4597281842101,155.8473353558476
0.1575,0.7250590994929865,-0.7077174365750767,-0.2726024390388584,0.0018808367138563,0.2210051566580986,0.0050692745722763,6.09515037409708e-05,0.0108805401538843,-0.3635164496117875,0.9315192219433696,-0.0776232293990873,-0.0927607502951087,10.475280223639215,-0.142689376146061,-0.0135294546594064,0.9390877766455518,5.904033606112993,1.722062000856212,0.290616977654266,1157.132796541291,1162.1476774198159,1167.1015960539503,1155.2748961540765,303.1960551069912,1125.3361901579856,-847.2566074423858,-770.6315991463263,155.84233782886298
0.16,-0.0399103759562354,-0.7838662534249439,-0.454172649660583,0.0042613168101016,0.21862776653513,0.0038239280480216,0.0001331172760695,0.0111550745420884,-0.3635003104991093,0.9315254473677826,-0.0826955755106685,-0.0878661594745023,10.481210176325233,-0.1429091730254255,-0.0136219959682963,0.9405875824610394,5.903797103050731,1.722255723695094,0.2929673387116172,1158.0893310404272,1164.9619753044392,1164.6809733284574,1153.2298721818015,419.11685387308313,887.757778000877,-875.2700257648477,-678.8284490164182,155.83636865615367
0.1625,-0.6097825793926362,-0.812498936764933,-0.5749957037708507,0.0014912723066557,0.2167764520745155,0.0012847331515235,0.000209115980489,0.0114197454752788,-0.363501054191346,0.9315264061005524,-0.0871825016925976,-0.0823719234634369,10.48841276646609,-0.1431258658511447,-0.0136840164615541,0.9421175932834904,5.9035625042618385,1.7224505525419596,0.2953235939081502,1159.2283808106563,1166.5864663098203,1162.725245925126,1151.8807539089944,535.6323641780814,464.40559384727703,-693.3826107045201,-400.444279433577,155.83142151560426
0.165,-0.9803993678367254,-0.7964962856478414,-0.6154938180606822,-0.0047319190249907,0.2145313115602717,-0.0014884498822105,0.0002911601274875,0.0116692904433793,-0.3635158416873159,0.9315235290705596,-0.0909292985315995,-0.0762630738611244,10.496811146885028,-0.1433300600120325,-0.0137064118709666,0.9436837550823268,5.903329395676572,1.7226453868205307,0.2976866744764132,1160.7674928613178,1167.2840032736756,1161.2140602749348,1151.2276507846339,752.4327778427953,93.8709781753004,-474.73643372691146,-52.66758310958716,155.82650712211165
0.1675,-1.112182427395421,-0.7188251627674604,-0.5429406626350763,-0.0127095241611604,0.2115344648919233,-0.0043197660553656,0.0003750280868067,0.0118949223945913,-0.3635362045241032,0.9315204367039294,-0.09367293413713,-0.0696263991987471,10.506316652122411,-0.1435012784284899,-0.0136873061143119,0.9452930548607203,5.903097058756225,1.7228386999539986,0.3000552487557313,1162.9905446998705,1167.0558212006968,1160.3515637564915,1151.6174159934465,847.9182154421316,-230.01674189258645,-108.3328249650548,382.2938074742975,155.82065279256037
0.17,-0.9606189550842354,-0.6075143889735152,-0.377213789625925,-0.017995028231146,0.209146091458914,-0.0062901307609445,0.0004541769154663,0.0120970685239242,-0.3635550979272749,0.9315199254487896,-0.0953236718503167,-0.0626659617912995,10.516829128695855,-0.1436329442821666,-0.0136356513980261,0.9469499416534508,5.902864700161141,1.7230293635158425,0.3024269246044958,1165.0070839385285,1166.1339195642126,1160.6723961501095,1153.1391198220051,791.8843467521576,-454.3967357238212,372.1433927543327,884.9746781628246,155.81581357290565
0.1725,-0.5953175552175438,-0.4628566763946542,-0.1123707177622937,-0.0208758842071768,0.2071338160923476,-0.0080763047215698,0.0005298591596865,0.0122847855509395,-0.3635649765718889,0.9315246023362486,-0.0960335067976788,-0.0555000886507381,10.528239762817895,-0.1437383663068007,-0.0135526687715723,0.9486556933324696,5.902631607286088,1.723217867135706,0.3047999228978387,1166.9499664336313,1164.7838375220776,1162.2122807202632,1156.0422893842604,725.7712311167772,-550.2359349191461,809.9062983145808,1384.1627104161475,155.81101943227736
0.175,-0.121291925783358,-0.311539924919061,0.2142044379754231,-0.0217624927171291,0.2056790788054741,-0.0094720649182509,0.0006078083793098,0.01247465644282,-0.3635641205887321,0.9315342891568712,-0.096151845148123,-0.0482159933352997,10.540433419324073,-0.1438464806449593,-0.0134390320836308,0.9504086616381716,5.90239664847327,1.7234059054464803,0.3071730615803079,1168.6359400941124,1163.3827398896167,1164.7219276416824,1160.059933374086,570.8167941088076,-502.5200496904768,1191.3467913992972,1828.4475579428172,155.806265746378
0.1774999999999999,0.3931781213586145,-0.1870616739967032,0.5699316354981225,-0.0205460887478134,0.2053818039523347,-0.009368957786846,0.0006942899525077,0.0126804159585843,-0.3635559458815552,0.9315462666861296,-0.0959940029091828,-0.0408665655364681,10.553293086188964,-0.1439810120923928,-0.0132947873015793,0.9522069129833898,5.902159951447156,1.723594370988348,0.3095465431970618,1169.804050404175,1162.2712372736253,1168.1690146772596,1165.1845271739746,357.42869058122034,-354.3306881597362,1635.4606462053275,2401.290849546524,155.8015644603442
0.1799999999999999,0.950600823156796,-0.1149475738907872,0.9497734446369456,-0.0163341556570794,0.2063543377089685,-0.0064935376402397,0.0007936809819124,0.0129121101098213,-0.3635467178924111,0.9315559857424144,-0.0958069292477361,-0.0335104300623724,10.566702894707875,-0.1441576184760869,-0.013122633430962,0.9540480374903944,5.901922699928464,1.7237843462768745,0.3119235235459164,1170.4230835470185,1161.6110864488182,1172.899230872709,1172.0663876218186,87.64936757288515,-104.57099527638992,1744.649946233538,2540.053589306533,155.79598780614
0.1824999999999999,1.3070800514251155,-0.1425061823452661,1.1662231704324089,-0.0110884057414504,0.2075009308412865,-0.0023769240988629,0.0009075578158577,0.0131697122607069,-0.363538441814057,0.9315597558938344,-0.0956358489332402,-0.0261807815826581,10.580551964672752,-0.1443723172163421,-0.01292315570086,0.9559306095349572,5.901686460542199,1.7239769651475687,0.3143068909158485,1170.2422972420395,1161.748382297243,1176.8922644084273,1177.8847951205073,-200.75739506646624,196.08131630011468,1498.0516913345568,2207.696145015778,155.79139745146037
0.1849999999999999,1.5202320998944832,-0.2665489697570428,1.2248780110862303,-0.0058579785491995,0.2081557464599484,0.0024965013782408,0.0010356696748946,0.0134514434822154,-0.3635336267505447,0.9315541084185744,-0.0954937163261214,-0.0189289935844867,10.594735603220036,-0.1446170427449576,-0.0126998929311242,0.9578518154734872,5.901451821720439,1.7241739587761808,0.316698710819995,1169.419296571686,1162.5914930303188,1180.3894893293818,1183.1048683468975,-458.41729042431285,498.383603411366,1314.1558805857571,2014.060858100718,155.7868690095294
0.1875,1.6207609401613277,-0.5056850621265672,1.088853958328859,-0.0007015889344894,0.2078351847981724,0.0087075890205634,0.0011693354527045,0.0137506916055596,-0.3635356058042245,0.9315400889546076,-0.0952466525266723,-0.0119311869664559,10.609158142584047,-0.1448697652327131,-0.0124682378081832,0.9598092659967274,5.901219308397224,1.7243744888442347,0.319101343746531,1167.950210789918,1164.2403003143,1183.463043811356,1187.955099411011,-564.7342944493171,670.39148006047,884.9065453333415,1466.4767153962644,155.78150930792953
0.19,1.5992327352228843,-0.7519058925602322,0.8172658954393406,0.0028910275734335,0.2064832199386069,0.0135477339317298,0.0012995454810921,0.0140631457854764,-0.3635476273251979,0.9315192182652466,-0.094815910010315,-0.0053845016612723,10.623733079849528,-0.1451132035420887,-0.0122456524083466,0.9617990692707143,5.900990487217643,1.7245772604329253,0.3215164524834121,1166.5956250994395,1165.9434504306212,1184.8140220560483,1190.4372519238789,-497.21051491314887,696.0710540845406,264.8233170833462,631.1392983818672,155.77710667582144
0.1925,1.4988673858011208,-1.0067283361637396,0.4392313789486417,0.0062612617513013,0.2040471379071202,0.0164966738377695,0.0014281555250946,0.0143865273092632,-0.3635665274585043,0.9314948425780152,-0.0942568690116583,0.0007147860924682,10.638382613809217,-0.1453425024630243,-0.0120291410149861,0.9638159514870832,5.900766328247409,1.7247805066839217,0.3239431273496612,1165.4641582153524,1167.7206555847229,1184.7871603967728,1191.1107959029202,-365.62170409206334,686.8549925911788,-224.9608538901155,-13.619024638546747,155.77277200840302
0.195,1.3520113933390803,-1.239599099247416,0.0422687040215023,0.0097945583159058,0.2007484154681601,0.0168920730546664,0.0015565645213497,0.0147195547012728,-0.3635857400108503,0.9314709089721338,-0.0936493329234619,0.0063549153351141,10.653037525692328,-0.1455553653691568,-0.0118151335446931,0.9658554815746748,5.900545965041852,1.7249831003873575,0.3263794062052575,1164.7675165789792,1169.377725393577,1183.689217786598,1190.369156800686,-127.89761471685767,603.6926673283227,-646.9258853307559,-568.1388123548454,155.7684947776835
0.1975,1.170175146226872,-1.418123761106366,-0.284427599121471,0.013412899933165,0.196696116543292,0.0144186952575228,0.0016813501025897,0.0150504194408241,-0.3636006334620438,0.9314501745401272,-0.0928328070570266,0.011510516234384,10.66763755578846,-0.1457278609530728,-0.0116004340409694,0.9679184844267894,5.900328542752249,1.7251833812289203,0.3288230966990062,1164.824670141768,1170.7391189213645,1181.552530970119,1188.270101841146,229.69211530189548,517.6566124276628,-1088.793421616946,-1104.8792387717176,155.76428782710116
0.2,0.9462074536430228,-1.5485094415767735,-0.5010702854697355,0.0167560456938017,0.1915802708386685,0.0097304271271875,0.0017951214754961,0.0153647136119677,-0.3636086513027015,0.9314341964094532,-0.0915668800028371,0.0160965724913322,10.682128358898439,-0.1458288090879165,-0.0113862373707492,0.9700092568084844,5.900112161550039,1.7253803982628524,0.3312710978690816,1165.9159771554887,1171.9660084557152,1178.2452506785132,1184.8447606068275,566.9381108067223,392.07721215002454,-1264.2284213368828,-1296.881164885052,155.7593217075418
0.2025,0.7862512601850207,-1.5829739744422788,-0.5031345705382366,0.0180217337224589,0.1871442297551503,0.0055632381287522,0.0018910651062779,0.0156568068751784,-0.3636094943435182,0.9314232060848888,-0.0897904822277891,0.0199690232872489,10.696457608025428,-0.1458432534445818,-0.0111782416465823,0.9721320670425344,5.89989468911842,1.725574238869736,0.333720897003581,1167.6593606958015,1172.6995049821146,1175.2313888634346,1181.7856960167207,834.911223811013,261.80907793536767,-1182.438993962977,-1140.00334624502,155.75525226698616
0.205,0.6866243977033653,-1.5471109159300465,-0.3315539052022954,0.0178021519589759,0.1823964505639617,0.0024514855586793,0.001968644391343,0.0159224630472245,-0.363603268807321,0.9314170624319594,-0.0875175240958617,0.0230946222611457,10.710573206199687,-0.145763199696841,-0.0109710003357756,0.9742923567932132,5.89967539494468,1.7257651793083577,0.3361700205494518,1170.0905332745435,1173.2750538453922,1172.3330557086983,1179.1447438756024,1157.685155325133,255.71879719063847,-1185.635237148516,-947.5575909328192,155.75125474766608
0.2075,0.6447632341425011,-1.448633994023038,0.007565324097134,0.0171662232567652,0.1770368343883099,0.0011698739548615,0.0020332121065122,0.0161618607717204,-0.3635921646291471,0.9314146316001428,-0.0848926434145742,0.025520758721097,10.724421441528946,-0.1455929502238244,-0.0107517060054749,0.9764951609174704,5.899453800977184,1.7259536010699674,0.3386178997618681,1173.4477864724274,1173.9780989680676,1169.303212677692,1177.0479080620566,1243.9512742248155,282.6720260021843,-1010.1726810998161,-532.9823931369926,155.74654093257988
0.2099999999999999,0.6510771983523467,-1.3527501390483732,0.3321111440234895,0.0178284014847662,0.1735337784337465,0.002602431783364,0.0020942765172088,0.0163710505999192,-0.3635772696410909,0.9314152444609856,-0.0820046715798901,0.0274081270556289,10.737947412479459,-0.145332653866053,-0.0104968908882307,0.9787466420588516,5.899229802142477,1.7261394753111614,0.3410645098431336,1176.3102896456678,1174.6884139754031,1167.2821923031993,1176.4798319099175,1090.8415302793903,323.7838817869958,-690.8113382522092,45.45052859521114,155.7426819643774
0.2124999999999999,0.6464901992428597,-1.2897556271676376,0.621607067915223,0.0204954464383332,0.1711067207697999,0.0062396954048486,0.0021596147254653,0.0165473576748625,-0.3635607093105275,0.9314178213397416,-0.0789464654342426,0.0288733026193689,10.751095573943468,-0.1449841226492125,-0.01018816914275,0.981052013624484,5.899004901268221,1.7263232142316862,0.3435113758503005,1178.9019941238244,1175.5970183770028,1165.849155986431,1177.2751607050327,952.5138618097108,396.60057036926406,-472.42747796853973,533.6221551538068,155.73889449073823
0.2149999999999999,0.5927892888066834,-1.2862517709965215,0.8448934421626906,0.0239418307800804,0.1692241980444181,0.010577554287467,0.0022312589536739,0.0166961753252923,-0.3635414024725533,0.9314224388052968,-0.0759167557756824,0.029856016811983,10.763811194593789,-0.1445606756186358,-0.0098238754245626,0.9834130589511348,5.898780414143334,1.7265056485233512,0.345960880414768,1181.0728589547164,1176.6714168272495,1164.9200549133564,1179.1479426856863,738.7755451852621,462.3880453119905,-245.45183334162152,959.6830468839917,155.73516591099587
0.2174999999999999,0.4545100335998244,-1.3787445749890894,0.9821270832156748,0.0268075322448118,0.1674281560779023,0.0143267819826659,0.0023065621042838,0.0168296590929995,-0.363518595600857,0.9314289802748856,-0.073201365086357,0.030153420974212,10.776042740273862,-0.1440857147285914,-0.0094176900380943,0.9858277743007632,5.898557693203019,1.7266873586669371,0.348416099004611,1182.5958718497507,1177.9089586035627,1164.621896819723,1182.0735759394527,510.4399281216497,569.7425393211684,24.83129596985234,1428.5537203791123,155.7315077226743
0.22,0.1931435035823748,-1.6061222668516548,1.0790248272379983,0.028780037587694,0.1647782449507082,0.0174388262430101,0.0023810078809938,0.0169572828604319,-0.36349261164527,0.9314370084929112,-0.0710040936469605,0.0295533888585131,10.787744874340355,-0.1435775272163811,-0.0089871524393354,0.9882924919004394,5.898338914159108,1.7268681585320238,0.3508794456672638,1183.6250585953246,1179.5201295238553,1165.0442113932058,1186.290711287582,255.28406833291203,603.0361211664962,291.64140097450365,1571.2320999941298,155.727198293203
0.2225,-0.0848212827190496,-1.8769690046056935,1.1382663318619233,0.0291644482979573,0.1619127728581134,0.019012952479457,0.0024473213632346,0.017090837283269,-0.3634648144918295,0.9314456892330276,-0.0695382649244755,0.0277808333549413,10.798880776732192,-0.1430577259466583,-0.0085588784395234,0.9908006951097827,5.898125055315135,1.7270479300961075,0.3533513161587776,1183.8722921914152,1180.9241392093952,1166.0801038245954,1189.929736439423,4.2933686368996815,563.9255350788058,554.7581294478273,1367.0221714188744,155.7236732713574
0.225,-0.3931380715735589,-2.1915274209620152,1.2085053607776168,0.0282850698919381,0.1579626333998775,0.0200845780089886,0.0025032281627313,0.0172391130621074,-0.363437042201004,0.9314540850168164,-0.0689793877675396,0.024698609741709,10.809423939270012,-0.1425468146492725,-0.0081500556282751,0.9933441195513601,5.897916966849478,1.727226675817756,0.3558321843041865,1183.6465254385091,1182.339757199249,1167.8180020404448,1193.1258221446765,-154.37790354653757,609.4865105417733,902.3471283311655,1195.0326927964384,155.72021583047197
0.2275,-0.7616447305296707,-2.5487230403046555,1.3138872668140826,0.0259662266372796,0.1513003115286217,0.0216180675170198,0.0025488714881456,0.0174001399891243,-0.3634112393737917,0.9314614384743926,-0.0692875071566818,0.0203199173525379,10.81936078827242,-0.1420475537592766,-0.0077670798162277,0.995915459723037,5.897714914379616,1.7274053814491424,0.3583233256824971,1183.1004026736823,1183.971571762104,1170.5918394662513,1195.9048999034055,-202.69742806685807,570.272401523152,1096.045236734425,798.3741881854249,155.71614363693485
0.23,-1.0468205044149197,-2.770139180510996,1.4003204060314947,0.0231998333344285,0.143956693681464,0.0236807820719964,0.0025863443749286,0.0175629485642592,-0.3633910654228172,0.9314665017395928,-0.0702384364532156,0.0147882728681561,10.828691954897735,-0.1415472935835399,-0.0074075854522652,0.9985084052079302,5.897519593287285,1.7275845819017814,0.3608268407173595,1182.6330382981748,1185.191119206865,1173.298228224117,1197.1176930856036,-143.68728342515155,433.1655164236504,1105.4138693866198,256.85940460589313,155.71281300598068
0.2325,-1.2947211627969184,-2.8491319209583272,1.4378011660555088,0.0198824639630117,0.1352576389651824,0.0270222725421358,0.0026178655943193,0.017725328533156,-0.3633779358133432,0.9314687486002076,-0.0717675399960118,0.0082014178524369,10.837431603704784,-0.1410492705323745,-0.0070751098168296,1.00111378427366,5.897331109389075,1.7277641093833171,0.3633453132956956,1182.3819662565568,1186.1373993442223,1176.1189088131844,1197.1891969264348,-40.442203926068,314.13073757494175,1097.862496765173,-122.2248036347081,155.70954626839574
0.235,-1.5081209928910655,-2.780789459798196,1.3903413123620367,0.016311596995706,0.1260894922069756,0.031487005587286,0.0026492453492313,0.0178824551012369,-0.363369240990148,0.9314692728845588,-0.0737693147545209,0.0007705630364776,10.845606992110884,-0.140553739297567,-0.0067633148151761,1.003723453344118,5.89714932059962,1.7279439728740271,0.3658789451685576,1182.4308272785445,1186.7617728947398,1178.7875407079428,1196.50656906743,105.38742068656563,156.74148440775738,976.0416682505357,-378.0748478310212,155.7063314629241
0.2375,-1.6810397135862034,-2.532993561550261,1.1947661166527856,0.0126872766883438,0.1173556104295322,0.0371429830136137,0.0026854391829942,0.0180313581272168,-0.3633588077993218,0.9314705349575956,-0.0761550830167677,-0.0073048634805473,10.85325638596012,-0.1400627328512643,-0.0064670810715105,1.0063307675394468,5.89697309241058,1.728124800704625,0.368424718536506,1182.9089033599896,1186.9211067662611,1180.999117154437,1195.2988226872799,306.92138034264786,-38.998867458758646,816.8167430539637,-541.5469812327981,155.70317802891074
0.2399999999999999,-1.8427524153943289,-2.0732381961789446,0.7679465516508032,0.0082968727110667,0.1086412125654972,0.0443450758579752,0.0027289579235618,0.0181692498467381,-0.3633444445939552,0.9314734522094176,-0.0788102581432367,-0.0158555770516966,10.860425951844636,-0.1395755197640461,-0.0061857593426565,1.0089322200241375,5.896800476413984,1.728306514691489,0.3709768308139702,1183.9654341802575,1186.566778557446,1182.8716244232128,1193.798834161266,452.6102764552,-206.23057318575871,540.5102106241,-485.1491530914722,155.6994637273341
0.2424999999999999,-1.9343095856407444,-1.6170950301260727,0.2813971157952608,0.0041029077565343,0.1036828151707556,0.0489204146737628,0.0027806909253019,0.0182919464641175,-0.3633289893700841,0.931477012356112,-0.0815714553605894,-0.0247155450076649,10.867165874619946,-0.1390861699265769,-0.0059203276235723,1.011528198415264,5.896628954083839,1.7284888245897887,0.3735307391534855,1185.1719547422656,1185.8899539003323,1183.7016682075575,1192.8730769218223,519.0910469637397,-317.009203006273,188.96168495202784,-241.32836047006072,155.6964264627168
0.2449999999999999,-1.9672424922064895,-1.178077076146817,-0.247806246721861,-0.0008033521181071,0.1015922322724976,0.0492663941526166,0.0028362377359535,0.0183922621202909,-0.3633093366510115,0.9314825891621822,-0.0841668814186085,-0.0337899236128758,10.873526444376571,-0.1385779457836106,-0.0056761133413637,1.0141234070892475,5.896456668210509,1.7286702332902375,0.3760843933222522,1186.5608894150764,1184.9817325424146,1183.8164328479727,1192.5921923589156,607.4217191340716,-408.5154171369592,-75.63286673898794,52.20112704309936,155.69344990286538
0.2474999999999999,-1.9219477389562796,-0.7708023236264628,-0.7862687251628049,-0.0070800661733014,0.1017410534795704,0.0443571240053174,0.0028952998983185,0.0184641016311777,-0.3632852819785509,0.9314903865406928,-0.0863771111059981,-0.0428980902643063,10.879553495257252,-0.1380380776177196,-0.0054504900303307,1.0167240888368247,5.896283474366274,1.728849839244257,0.3786383207917505,1188.209063337936,1183.8473768146475,1183.3235038738624,1193.134082557038,568.0157389491792,-397.1965057272424,-244.94744823386984,333.01480319710174,155.6899498303553
0.25,-1.8066581141249256,-0.5775662127536852,-1.0662000888867411,-0.0122786878393375,0.1026571765688896,0.0382317698064626,0.0029548898894,0.0185086010325401,-0.3632563972292819,0.9315005566576076,-0.0881086801574745,-0.0519642694168987,10.885284290697136,-0.1374647057577361,-0.0052497601378545,1.01933606219661,5.896109718977479,1.7290269634462727,0.3811935407518258,1189.4009681098223,1182.9957500137784,1182.5916956068036,1194.2572663749013,408.21634753028735,-305.4714826104825,-305.7539202732184,542.8971341918436,155.68709485534006
0.2525,-1.613499566000562,-0.5489448895166354,-1.1236830925601995,-0.0169442223110639,0.1030430509614685,0.0327710848278491,0.0030138063222977,0.0185378721326706,-0.3632241728018353,0.931512270046066,-0.0895084729087526,-0.0609596361078412,10.890744266997729,-0.1368776300632484,-0.0050844519571366,1.0219624929586895,5.895935755913037,1.7292018715187722,0.3837510348568191,1190.2501450755872,1182.3200194015951,1181.7947342724965,1195.8485682279972,270.91247705689034,-240.21935261216615,-291.6471363513662,665.7951665853483,155.68430716112772
0.255,-1.3660745530158067,-0.6388361976076025,-1.005000558580426,-0.0208457233167912,0.1028260918487249,0.0284649950139672,0.0030700959756682,0.0185587696411966,-0.3631858052272307,0.9315264713916052,-0.0906169353182937,-0.069830672730512,10.8959481718111,-0.1362858104876554,-0.0049608739145559,1.0246076201325864,5.895762181769318,1.7293749206250255,0.3863109369332233,1190.7555304951068,1181.7946532507176,1181.1334599250467,1197.586242207828,120.7955848240998,-178.0388892829249,-193.88473797202988,670.6704851632361,155.6815783144318
0.2575,-1.0724207324788964,-0.8273655110804309,-0.7192399233229985,-0.0237088313286147,0.101694717492242,0.0255019758834026,0.0031200584915637,0.0185809101826894,-0.3631379988211537,0.9315442483834602,-0.0915250187947467,-0.078584972955933,10.900898657746943,-0.1357018827407771,-0.0048902252720439,1.0272741099660017,5.895590138955581,1.7295468617076557,0.3888757017872783,1190.854122999708,1181.4298249551805,1180.8253105826363,1199.2019206538134,-31.38278166525194,-124.37294711316996,-20.329257715366094,625.285805161729,155.67892482509643
0.26,-0.6935041851624051,-1.0935501816898343,-0.2666109739474048,-0.0257697808623015,0.0986470200864243,0.0236024375682053,0.0031601081545507,0.0186150250948501,-0.3630796662704402,0.9315658062347758,-0.0923570000631705,-0.0872426940010845,10.905587405097448,-0.135140480714366,-0.0048846205355493,1.0299628719320566,5.895418357401248,1.7297184600760207,0.3914468617992998,1190.5986165867805,1181.1727885151515,1181.03181363647,1200.7126712336367,-134.36055327124438,-59.3136332138783,182.7967714484656,466.3327976431897,155.6758336054851
0.2625,-0.3721575547183972,-1.2918979353400204,0.1318499241193941,-0.0263258638228056,0.0943281021840751,0.0236694000156997,0.0031924014493388,0.0186596795338067,-0.3630149226101256,0.9315895413531305,-0.0930457766539016,-0.0956187825657533,10.909999935282876,-0.1345970510702478,-0.0049369959150837,1.0326757537248363,5.895245557158246,1.7298896126079992,0.3940254265910196,1190.1823202333517,1181.133256789111,1181.7392944398787,1201.5335846420292,-180.6642454573192,28.38698120331171,390.58893039255014,254.2992097937256,155.67333910024362
0.265,-0.0548394806021391,-1.41301299164564,0.4680126750162737,-0.026127080960457,0.088887967369512,0.025533797973182,0.0032198367834649,0.0187119669736793,-0.3629468926343321,0.9316142741150588,-0.0935113066647395,-0.1035131510135491,10.914115819924076,-0.1340647677822009,-0.0050371011460739,1.0354132496226955,5.895071168769825,1.7300600169991331,0.3966129524252092,1189.695295359494,1181.3147234211683,1182.9847582884327,1201.9841672826053,-187.4980597234297,111.8619005371328,573.5408884311705,153.7486156300018,155.67093368648838
0.2675,0.2610325582505201,-1.4535454019415754,0.6977513323470972,-0.0257544498861352,0.083584675880709,0.0286783314044469,0.0032481612667953,0.0187695982825618,-0.3628789761545196,0.931638717933661,-0.0937201083587144,-0.1106860609903733,10.91791092322755,-0.1335404883878009,-0.0051694351537746,1.038174000239117,5.8948963564260435,1.7302294090600607,0.3992107596410703,1189.2448299347343,1181.6925662917968,1184.6069988820343,1202.3023277201792,-154.2471426617338,193.70790983193712,712.4354350023161,147.40990132445387,155.66860525595666
0.27,0.5837014837145704,-1.4079433983103593,0.7552740645404215,-0.0253502899334384,0.0791832656176431,0.0329368270124049,0.0032834784786335,0.0188311023366395,-0.3628152725453445,0.9316613293624542,-0.0936695979148483,-0.1169120150447094,10.921359415592203,-0.1330236072577626,-0.0053184244381756,1.0409553756296228,5.894722737050579,1.73039730748159,0.4018185910566461,1188.9240596461852,1182.283262970328,1186.5469354634442,1202.7212167892276,-100.28098830007356,295.4920153838426,883.5234436796773,259.40053838712606,155.66637312161143
0.2725,0.9839307843106098,-1.2948483299367384,0.6117163275079557,-0.0245437168161328,0.0752971929307845,0.0382090792747524,0.0033327432542725,0.0188977626090678,-0.3627605162044957,0.931680303053972,-0.0934312322783769,-0.1219865794112379,10.924435462539648,-0.1325203534282899,-0.0054689539989551,1.0437534186359911,5.8945518512411645,1.730563411436569,0.4044345585573412,1188.743424993234,1183.170026368716,1189.0246161004327,1203.599330412115,-33.919971355135175,345.1409639957089,899.9902840978385,396.8437948246443,155.66381000628328
0.275,1.318801744368968,-1.1889925969516792,0.3425228598707301,-0.0230706124815115,0.0730736660592284,0.0414407304242762,0.0033981234623004,0.0189703206449567,-0.3627197297388285,0.9316938043584124,-0.0930384007282634,-0.1258164657350819,10.927114731748468,-0.1320330832889551,-0.0056147130672698,1.0465644876365947,5.894384396115875,1.730727840091915,0.4070571580569721,1188.7544597894096,1184.0089677903063,1191.0468868839334,1204.7054357633508,25.230229642056635,351.875214170104,762.692469331477,499.2217419982803,155.66177303913346
0.2775,1.622875104431821,-1.1085722926607513,-0.0086459665099761,-0.0199338735963527,0.0713198299748548,0.0418850125283477,0.0034786895739605,0.0190460739440921,-0.3626938241151836,0.9317017471368806,-0.0924410127665594,-0.128364611980042,10.929376518453669,-0.1315556245522446,-0.005751531615174,1.0493859148604776,5.894221388193688,1.7308908199293003,0.4096860866286085,1188.8695761414444,1184.9294024395665,1192.8380784470903,1206.0954391221064,52.87773530367298,429.1404304427484,696.822139981395,619.4629820324275,155.65984178704247
0.28,1.897164502294844,-1.0662828969371878,-0.4177435704980997,-0.0140109788088459,0.0692727413122515,0.0389166972881537,0.0035668187131038,0.0191208192014615,-0.3626774856924221,0.9317064964924554,-0.0915166545128247,-0.1297404643047201,10.931203712727008,-0.1310739230652566,-0.0058852147429616,1.0522157599881103,5.894062974412432,1.7310514514854116,0.4123220004596089,1189.018848465928,1186.1546699425203,1194.5309975838404,1207.8027506735127,42.73279196795553,475.31194675284456,521.4524429588432,582.9358410735944,155.65764939450355
0.2825,2.0121969773867248,-1.0808715457987212,-0.6840559588827628,-0.0080124643771669,0.0672695979806009,0.0346827692478824,0.0036467432133468,0.0191885192456342,-0.3626648648958156,0.9317103457447272,-0.0900511427908439,-0.1302260130825684,10.932583290302931,-0.1305637719210744,-0.0060354099336229,1.0550529585670272,5.893907556005361,1.7312093281630991,0.4149663540557798,1189.0832401012842,1187.3059621733307,1195.4453406618843,1209.0101183274744,6.582030459958326,485.5371317093609,242.981802336544,388.85023611492176,155.65592821920953
0.285,1.9813199752114417,-1.1404460842083959,-0.8382097688922547,-0.0020282633621128,0.0646399213281977,0.0304923004508049,0.0037078087787156,0.0192392034592723,-0.3626535146188986,0.9317142869550238,-0.0877998451507822,-0.1299880753526362,10.933509396420172,-0.1299963162507484,-0.0062087084826849,1.057896837095858,5.8937536222206255,1.731363790262824,0.4176212545283728,1189.0517586182275,1188.582355601067,1195.7459065955231,1209.7470018540876,-24.191837361013288,516.0664581413125,12.931273285539636,196.67826931181463,155.65431805939306
0.2875,1.8244680759971084,-1.2281564293799014,-0.9075285675668888,0.0035954933455868,0.0615225903098121,0.0271363732485121,0.0037456072956844,0.0192717586395128,-0.3626417291897434,0.931718877892493,-0.0847575840630025,-0.1291569951119721,10.933980748521899,-0.1293639145062817,-0.0064054782743488,1.0607442440475259,5.893599651344649,1.731514130641348,0.4202874710962142,1188.9622809144792,1189.8862944640373,1195.5099970283122,1209.9935096740335,-34.665932340067585,492.6319167376783,-214.89400694227007,-17.768398358839654,155.6528003360504
0.2899999999999999,1.5269910461717249,-1.3407042190916603,-0.912195548059268,0.0086570765481534,0.0581166349671933,0.0251182116202351,0.0037602824073747,0.019290102213263,-0.3626279087884282,0.931724567710258,-0.0810671016769628,-0.1278299918529859,10.934000810336924,-0.1286714196385991,-0.0066203106213526,1.0635912280997832,5.893443405061312,1.7316602260959366,0.4229623422274363,1188.8784289565272,1191.0455151847555,1194.6714365608116,1209.6581598622931,-7.580902793006395,422.15190008178496,-474.63628782370984,-248.82089097136736,155.65139392895523
0.2924999999999999,1.0428871455737043,-1.499060084766942,-0.900546063451344,0.0138763934155301,0.0538173707334019,0.0240739201454158,0.0037540055110395,0.0192987984040733,-0.3626099514807983,0.9317320283013272,-0.0769092233157034,-0.1260862224288657,10.933577553474544,-0.1279257447311277,-0.0068439477869841,1.066434761535439,5.893282836061323,1.7318024333474216,0.4256430923485602,1188.924376400514,1191.997053964446,1193.1368155891937,1208.7494052191767,63.87332385725125,243.5309303386928,-612.3576333485738,-378.0968955801196,155.64983401388827
0.2949999999999999,0.5759564506518313,-1.650225627364536,-0.9077903718048072,0.0169201652193706,0.050171912769284,0.0237769074707165,0.0037294337862141,0.0193038174673181,-0.3625863443251783,0.9317417049298264,-0.0725049050615685,-0.1240211558300623,10.932722107658126,-0.1271364854318976,-0.0070678825871041,1.0692727309453143,5.893117002887118,1.7319408349430812,0.4283283287624314,1189.1977955758136,1192.2631698364487,1191.6096483940687,1207.7676753843928,179.43681744404768,-16.23563614416524,-609.2077687413615,-386.8249261651723,155.64863942067112
0.2974999999999999,0.1128795967898062,-1.8218573196557253,-0.942827255734014,0.0170570894546512,0.0464905808164859,0.0230774383340998,0.0036899369524203,0.0193160942444766,-0.3625556329922601,0.9317539328075976,-0.0681880869704036,-0.1217666582834691,10.931447274877092,-0.1263237120964605,-0.0072874148033116,1.0721027917859287,5.8929455825245975,1.7320760162733473,0.4310171265972437,1189.8215604877344,1191.9158757837251,1190.090776745487,1206.8152805883508,359.57631971041303,-268.19455319064195,-612.1317201249889,-361.5609618968389,155.64755232813687
0.2999999999999999,-0.3537729689679113,-2.0458579497702782,-0.9926908407383694,0.0137363370252866,0.0414432334265569,0.0209226868152011,0.0036412180855005,0.0193365043681971,-0.3625191647471602,0.931768161571492,-0.0641097994807364,-0.1193333965705587,10.929769582554387,-0.1254898114277321,-0.0074881798384071,1.0749253955808893,5.892770012137555,1.7322088810975442,0.4337087886209253,1190.9956771743657,1190.9221970704957,1188.548989793444,1205.9598705749083,484.1657541068794,-415.19612745801135,-494.53108280354127,-245.118105154688,155.6463700829507
0.3024999999999999,-0.6293322077900445,-2.2369754634614902,-1.0084014639508323,0.0097282975804553,0.0364918751129493,0.0179644438806907,0.0035932591488941,0.01936459227641,-0.3624779555259137,0.9317839850584138,-0.0604292333508494,-0.116636446998139,10.927707183303975,-0.124638895583104,-0.0076489353633898,1.0777409324109395,5.892593611907267,1.7323407035986131,0.436405467047112,1192.2423892582688,1189.8398951464353,1187.6181213314692,1205.5896900625771,509.88549910275606,-414.75788464340405,-294.88449805285165,-78.83110622769885,155.64548579580935
0.3049999999999999,-0.7860501190216233,-2.415186642012697,-0.9592028569761994,0.006495948282822,0.0310044015974406,0.0140966123388744,0.003558877727428,0.0193931102568739,-0.3624389441854082,0.9317988192210725,-0.0571868740036249,-0.1134739162873277,10.92527997991548,-0.1237650718533784,-0.0077418392265674,1.0805506785401795,5.892420200082207,1.73247288383658,0.4391096337604494,1193.5451046698795,1188.8484076472787,1187.0745673031795,1205.56571504377,485.8246162890277,-330.7724806063558,-166.0329753080076,26.29234495202579,155.6447057623396
0.3074999999999999,-0.8720443540680068,-2.567913327309189,-0.8401963678095162,0.0047674077670205,0.02509555727659,0.0099411839873611,0.0035455582504535,0.0194157450567793,-0.3624058647327711,0.931811325275531,-0.0543948809858982,-0.1097528180362521,10.922506831005592,-0.1228617825920138,-0.0077527806572888,1.0833554063104311,5.8922524314130795,1.7326073256850392,0.4418220539204836,1194.671512339714,1188.1860327434035,1186.7879564549291,1205.7211517873375,354.7303735148031,-145.36017560321838,-76.93744414073073,61.80256565571648,155.64401231070246
0.3099999999999999,-0.9158716947192012,-2.671018358445305,-0.6444817475195526,0.0045749535842766,0.0185756393033303,0.0065161698998067,0.0035568401393358,0.0194277680548734,-0.3623814567906645,0.931820533549034,-0.0520570849945008,-0.1054607177171071,10.919405981716311,-0.1219242399578201,-0.007679147912291,1.0861552136901003,5.892092116639606,1.732745690548209,0.4445426601349476,1195.3187565374535,1188.1216067692624,1186.689880082476,1205.8747278720487,124.52608826511084,121.42129795502105,-26.70804994636453,5.272401533738953,155.64342400266503
0.3125,-0.9512935811818832,-2.715252753568693,-0.3661934610677723,0.0041870692051508,0.0102287863535524,0.0045030072645747,0.0035900698436552,0.0194256693013217,-0.3623653349881468,0.931826686364838,-0.0501400528928648,-0.1007059730094145,10.915995199203007,-0.1209469340440392,-0.0075327879857733,1.0889499782929803,5.891939276307328,1.7328886721723875,0.4472722416005721,1195.2941427810395,1188.7931392331786,1186.654416205197,1205.747513795006,-156.19801045309015,348.69866853018686,-8.902998593612203,-134.2474636656333,155.64284121325994
0.315,-0.9616699263872318,-2.6749653129210955,-0.1462856471855636,0.0027993588345208,0.0032292862830433,0.0048583874547121,0.0036378555365252,0.0194044562484204,-0.3623574969589376,0.9318299249841864,-0.0485255639673979,-0.0956632336696107,10.9122928612193,-0.11991924783084,-0.0073346412109064,1.0917401180293123,5.891793573186903,1.73303533121945,0.4500095377423668,1194.537766485188,1189.8651001119135,1186.645365089508,1205.2034905537205,-440.7901270254111,477.4528276088855,4.073362335839189,-325.29565790664464,155.64245991029898
0.3175,-0.9221707569774316,-2.5504280239718704,0.0082738904176963,0.0004098982079151,-0.0034760268107323,0.0066624740711827,0.0036925354223167,0.019361114663441,-0.3623577678583613,0.9318304171716254,-0.0471133862202767,-0.0905094601896931,10.908318592923452,-0.1188359923192458,-0.0071071679485124,1.0945256778080394,5.891654906295056,1.7331832028158423,0.4527538781146661,1193.0901921459124,1191.180403371223,1186.6747830168763,1204.1210355054727,-743.0407698966058,544.2518829523119,39.24856997959974,-580.3293168835347,155.6421896010744
0.32,-0.7738227265508872,-2.3094131558647284,0.0881680496766348,-0.0033109909840329,-0.0111084252079067,0.0090605661542891,0.0037443168775366,0.0192933505320033,-0.3623604724559451,0.9318304624098358,-0.0457789601380445,-0.0854547788181578,10.9040934164393,-0.1176932831715924,-0.0068751069458847,1.0973068800077395,5.891524357195124,1.7333287127111372,0.4555049854742258,1190.822562635705,1192.586359526675,1186.841607939406,1202.3018439693028,-860.8258235067742,419.58159865671365,97.30325750711009,-716.9140314090321,155.64199725595975
0.3225,-0.542871883756676,-2.043582137538225,0.0721805093001921,-0.0069025871662293,-0.0168082021968445,0.0105004631567321,0.0037842993183865,0.0192030062528296,-0.3623588371620133,0.93183269978893,-0.0444648065947133,-0.0807083744564702,10.899639987101052,-0.1164974374330003,-0.0066623416691945,1.1000831652401255,5.891401037072668,1.7334692371503575,0.4582608229412162,1188.7860630283783,1193.2783113645066,1187.161299304412,1200.5364653484276,-760.4115507071122,115.75606342253184,174.536783584699,-701.4364065153126,155.64194992761918
0.325,-0.1987574518155675,-1.732138071418835,0.0034417588353775,-0.010310861195609,-0.0214306523035354,0.0110758030324248,0.0038090614517202,0.0190949945595747,-0.3623463782825964,0.931839573088974,-0.0431946877007983,-0.0763794224061552,10.894983265339087,-0.1152657779120457,-0.0064815680080251,1.1028530049009329,5.891282886067195,1.7336032928809857,0.4610204977690229,1187.0205048821695,1193.1651398437875,1187.7142918573295,1198.7946619367262,-597.1188778341451,-199.02284291388224,256.4364301437761,-651.0849261263496,155.6420235901532
0.3275,0.2120517840549237,-1.40309237166157,-0.0728042639201898,-0.0125339573782735,-0.0251029268644379,0.010657527933208,0.0038196816781717,0.0189781678611367,-0.3623222628942571,0.9318512317828348,-0.0420842431736786,-0.0725055282420496,10.890150202927463,-0.1140268850065654,-0.0063379896548891,1.1056135185780238,5.891168528326352,1.7337301041532076,0.463785536676511,1185.8004686392076,1192.2831971499372,1188.4434814551307,1197.281040717796,-294.266056534934,-523.8581001370673,316.8756857370224,-510.6387080104464,155.64220055236672
0.33,0.634341386478338,-1.0773202800843904,-0.1134581659867374,-0.0121409669774421,-0.0275700200230973,0.0088586792516656,0.0038163480074263,0.0188675024317473,-0.36228930449392,0.9318662853583378,-0.0413453721612802,-0.0691841001901532,10.885168933367295,-0.11282014142945,-0.0062420081135497,1.1083601727767387,5.891056413122701,1.7338494268234688,0.4665578045287377,1185.5491745994948,1190.5458493431024,1189.2986702860146,1196.241468396674,152.19213967811797,-899.1308466890125,372.81229533477887,-318.933730629669,155.64250586994416
0.3325,1.0391819957347757,-0.7155129667121612,-0.0840800306080359,-0.0082052954970128,-0.0292737454511691,0.006001801405002,0.003803809236639,0.0187719025170956,-0.3622539734409657,0.9318820229499356,-0.0410854409386815,-0.0663692013338709,10.88007015141758,-0.1116743178590839,-0.0061886300768563,1.1110890043172752,5.890945746716205,1.7339616699393214,0.46933832779776,1186.5614293375984,1187.787542916492,1190.3075429318048,1195.6863720646477,578.1622084041824,-1056.917308036326,343.14082366622614,-86.61906359770904,155.6430258040694
0.335,1.2118442924248332,-0.4481993855449666,0.005887421510488,-0.0026640640733787,-0.0299851194895183,0.0041536951445158,0.0037862243854662,0.018706545946966,-0.3622235954327418,0.9318952717534542,-0.0415221385545276,-0.0640778591732664,10.87488517526342,-0.110628416821453,-0.0061780559040942,1.1137944654374765,5.89083457042685,1.7340686408963144,0.472127259843189,1188.4399856415157,1185.2612628029208,1191.0143744043455,1195.8083730786855,902.2376283695386,-973.3795633238051,236.0944609496071,148.24539764899768,155.6435910045388
0.3375,1.1535252899377664,-0.2160283926554791,0.1312280866737539,0.0036001572428992,-0.030374598587911,0.0039329142742523,0.0037705649315033,0.0186751159073864,-0.3622033330315856,0.9319039124670008,-0.0426555006234018,-0.0621847245837048,10.869647023445342,-0.1096973313505794,-0.0061943345945874,1.116473182291133,5.8907213072611855,1.7341724711182422,0.4749235992753284,1191.072617479446,1182.9206450998731,1191.4880152365529,1196.4275990528927,1211.7575811819722,-906.7756967644974,152.3336092024691,337.5408817951208,155.64429807474295
0.34,0.8138860060255114,0.0339079140258117,0.2621412819228554,0.0100980631458422,-0.0306059173976192,0.0058534287058925,0.0037571464913936,0.0186723297918395,-0.3621934315021091,0.9319079402758452,-0.044250969010174,-0.0606366578583225,10.864388599469248,-0.1088692757569298,-0.006227151197029,1.1191241468032826,5.890605697560223,1.7342751625036554,0.4777273950466546,1194.4987735474256,1180.7273843190983,1191.776042450358,1197.496077487661,1202.3213058821043,-666.9286555253615,70.34040900161921,401.5548517972544,155.64531636830677
0.3425,0.3502288129656634,0.2298408651337041,0.3162526821920413,0.0137650855753995,-0.030571372432081,0.0085468068795498,0.0037495308910728,0.0186843186070317,-0.3621937862579333,0.9319076428263497,-0.0459312298731167,-0.0592538588855075,10.85914256068721,-0.1081146944757062,-0.0062528612123591,1.1217480109936695,5.890488097896897,1.734377374701408,0.4805384657913985,1197.0842240088566,1179.5860018222463,1191.8397172815608,1198.4353733118787,878.1102145115246,-308.1899875719043,11.948861756673056,336.8926858217489,155.64631055297374
0.345,-0.2041689028378798,0.4245968947865392,0.2938988475025876,0.0146431558192542,-0.0301953221212928,0.0110147270081547,0.0037467622592682,0.0186974287894643,-0.3621995310550969,0.9319051728388028,-0.0472992578996176,-0.0579577771591161,10.853938711069148,-0.1073987431848344,-0.006257340410164,1.1243458778906419,5.890368821108818,1.7344795343098132,0.4833572386358598,1198.8893246199832,1179.1864343812388,1191.8357867591415,1199.1805409167698,547.3816378144415,-58.6233403864298,5.150585420642524,241.29657144712812,155.64746057837823
0.3475,-0.7415798921833985,0.6227732623854232,0.2176404666435656,0.0129300186006933,-0.0294097711774179,0.0127900296061959,0.0037485653451702,0.0187014457741965,-0.3622040860786946,0.931903279164688,-0.0480492118316292,-0.0566887807439013,10.848802388607252,-0.1066927709760031,-0.0062286307529541,1.126918452679688,5.890249010520184,1.734581021002294,0.4861844361149365,1199.8211321979288,1179.292885120314,1191.865470208664,1199.6418561691144,152.88715489168666,113.37931657649268,34.07811053425573,106.5831451724988,155.64874320543768
0.35,-1.1460276370757074,0.8236486908385198,0.1102087865031765,0.0090038255462257,-0.0279629086503382,0.0136974722439247,0.0037561296147717,0.0186979486236691,-0.362204004628583,0.931903246132649,-0.0481452458411534,-0.0554524111566026,10.843751673467873,-0.1059930453855299,-0.0061632276105465,1.129464568042252,5.890128839694025,1.7346817944456274,0.4890205169237092,1199.6537603944416,1179.7533309641212,1192.0061773118127,1199.7134566426323,-286.86530020536634,202.55518826534376,88.10532510647225,-49.93644172627734,155.65018961182847
0.3524999999999999,-1.3561166899935042,1.0586764983927668,0.0045940178654685,0.002874503612963,-0.0253716550303295,0.0135904475258616,0.0037678106581481,0.0186904960456589,-0.3621963709489007,0.9319061247750002,-0.0475919758927408,-0.0543280048966094,10.83879564982132,-0.1052971438024077,-0.0060668186752126,1.1319838372309527,5.890008806822444,1.734782154270952,0.4918643462379697,1198.386805696902,1180.3056610616409,1192.3059968341963,1199.3921739604832,-585.0804231811768,144.68025702922353,117.17280507455261,-172.41960474007277,155.652119393247
0.3549999999999999,-1.2392549596511264,1.239971417248395,-0.0184208430671576,-0.0033205436213935,-0.0225861131195466,0.012173567089565,0.0037813313930503,0.0186883066495327,-0.3621771337035033,0.9319132969018188,-0.0465280997355136,-0.0534513394140655,10.833932024501406,-0.1046138573536414,-0.0059525269176907,1.1344760586162312,5.889889202363268,1.7348831516928622,0.4947137790084401,1196.7283582785356,1180.4767322492671,1192.5920413371855,1198.851358618932,-704.4823603319394,-40.97396899387601,89.06166646479495,-258.8361358108157,155.65389256121952
0.3574999999999999,-0.7884288680492307,1.394455122614946,0.0664775779546316,-0.0104614651716482,-0.0192526687832747,0.0096445369070602,0.0037972888713414,0.0186943426047909,-0.3621491137051613,0.931923588410056,-0.0450138427673682,-0.0528449476176108,10.829146179554147,-0.1039411946859599,-0.0058250967868478,1.136943441111394,5.889770954672997,1.734985714258784,0.4975674539784603,1194.8643938952423,1180.1007912166715,1192.7513051665203,1198.0979932814291,-768.216045262124,-307.76549695424336,-6.720006064824696,-371.70082634343055,155.6558406497873
0.3599999999999999,0.0905336157676575,1.5375563311308336,0.2973615112857845,-0.0183680671293891,-0.0147409123107993,0.0071364756061377,0.0038190499439302,0.0187110062907422,-0.3621173213009797,0.9319349864394676,-0.0431451895385674,-0.0524648219957429,10.82440879766466,-0.1032786215489233,-0.0056846365396961,1.139389268799448,5.889654697108835,1.7350916119723936,0.5004245820744164,1192.8872780522252,1178.937904764496,1192.5584413068611,1196.9928544872148,-617.7497519389357,-525.1191636330072,-165.48991770432607,-436.4513615133088,155.6583842396857
0.3624999999999999,0.9946277101499306,1.6162256798771937,0.5637500543468839,-0.021080196367095,-0.0107671600608964,0.0072990692077473,0.0038469560629327,0.0187376758160789,-0.3620858020702336,0.9319459460060489,-0.0409573767165198,-0.05229771139134,10.819674275523338,-0.1026174073852174,-0.0055358825200209,1.1418184152541369,5.8895412207501625,1.7352013291035828,0.5032856134795856,1191.7756451355476,1177.4751953985065,1191.923855577999,1195.9157364738624,-279.4301729559263,-633.3663353489095,-372.7090086561472,-462.30756782292656,155.6606776553011
0.3649999999999999,1.8644819784951736,1.650185927102711,0.8386044922606074,-0.0156052861361936,-0.0068215663080478,0.0106699520657522,0.0038780636679065,0.0187719950612769,-0.3620546719394991,0.9319565243826023,-0.0384466867700656,-0.0523766421128658,10.814879790954382,-0.1019434659069232,-0.0053887652176691,1.1442367260328277,5.889431095088554,1.73531450074004,0.5061512335420024,1191.4901271874455,1175.7710730877516,1190.6948962635806,1194.6813166481,38.024300577717405,-669.7860574010514,-588.9460052272619,-518.4074166983913,155.66315341696009
0.3674999999999999,2.530844075408203,1.646682333285614,1.0729617786491976,-0.0042410378947029,-0.0027740995186785,0.0154892325901573,0.0039047343955283,0.0188103881037356,-0.3620172819492961,0.931969481500332,-0.0355666550830779,-0.0528143245095277,10.809945077928743,-0.1012375578963437,-0.0052608062654903,1.1466507008503404,5.889323545006681,1.7354287831819724,0.5090211630286434,1191.9657666384362,1174.1262651115012,1188.9791255518624,1193.3236993903706,354.7751893796882,-585.3980874180246,-782.1128290275277,-567.701660024522,155.6657813657471
0.3699999999999999,2.801731110931982,1.5985637637474264,1.2328358253787837,0.0093525591848557,0.0013200781488692,0.0200143052414556,0.003924329896055,0.018852622142064,-0.3619732241767738,0.9319851041888372,-0.0323917822934345,-0.0536387833011892,10.804773587389622,-0.100493259534203,-0.0051619662439769,1.1490657214931894,5.889217314784585,1.7355432058693812,0.5118948618925457,1193.264003134344,1172.8440826506614,1186.7843321184428,1191.8428083479776,691.9574897806791,-431.0636696719026,-1026.970545360108,-666.0333052834625,155.66859336905344
0.3724999999999999,2.6089891900872133,1.4931253531930626,1.3470240656877304,0.0235329256121045,0.0060293572690212,0.023962026443952,0.0039365029474521,0.0188932859351988,-0.3619241168446987,0.9320030407726346,-0.0289199360918759,-0.0547842060671342,10.799254502106884,-0.0996967309416105,-0.0050922435033249,1.1514875559499065,5.889112747135533,1.7356570885152605,0.514771810966856,1195.4255540873396,1171.9709467631417,1183.844272825062,1189.9935328639533,820.4000291128517,-199.58405688043953,-1081.7618952563398,-673.6315672655559,155.672180416715
0.375,2.0611668688913367,1.3713744714763996,1.3974297957065756,0.0323039235290591,0.0095213248672171,0.0260923102032533,0.0039424318252378,0.0189317508270983,-0.3618736827619191,0.9320220825278298,-0.0252621196325562,-0.0561859886077678,10.793264726408342,-0.0988475593399621,-0.0050514408853739,1.1539201136561412,5.889010492504603,1.7357701324994153,0.5176522153375461,1197.3660032799082,1171.8461623662593,1181.3755226421613,1188.4746505116495,712.2837586178314,55.92637644062956,-930.7861260192104,-579.9169421467008,155.675346114108
0.3775,1.2349245834758171,1.223766017410114,1.416865472262849,0.0374987616322704,0.0126231176744499,0.027918444478139,0.0039410287173878,0.0189649195109592,-0.361823502560407,0.9320419798624948,-0.0214618268444507,-0.0578042069670826,10.786672343009815,-0.0979401577896067,-0.0050404674829255,1.1563666776998707,5.888909949384358,1.7358815726727232,0.5205371312837721,1198.9869728804288,1172.2505786453448,1179.190342194966,1187.0939481532196,551.2373859653958,251.46121803363687,-835.9083276550328,-554.7832733955597,155.67869345253789
0.38,0.1118142906523201,1.0282860582604345,1.3937590697221025,0.0389055449925576,0.0162542309575669,0.0311760800661837,0.0039357074867128,0.0189841641159238,-0.3617763570997023,0.932062170674532,-0.0174816989103572,-0.0594645321092816,10.77934126707698,-0.0969627603911365,-0.0050446790724929,1.158829708604853,5.888811214189013,1.7359899135571073,0.5234266928468634,1200.1221902097352,1173.1034684564274,1177.195981003886,1185.700734144672,243.7229049536197,332.43731704915234,-599.2316493533502,-461.5669635913032,155.6829179270168
0.3825,-0.788960694124371,0.8610640987376356,1.3121807440346371,0.0353251551987477,0.0189587387285434,0.0352245054929894,0.0039316679099509,0.0189854020986135,-0.3617280631334782,0.9320847368925796,-0.0133810375727857,-0.060997733575446,10.771135285088429,-0.0959168160593775,-0.0050468951184735,1.1613088966823668,5.888715748185963,1.7360929165967816,0.5263211181124797,1200.2055874051969,1173.9127652305904,1176.1941839481992,1184.7861133352633,-151.34324221535266,300.49702508204035,-255.87963977600316,-321.6080053425682,155.68660966972072
0.385,-1.5091572217339413,0.7089229690890423,1.1387460366515956,0.0278454207919545,0.021027776376288,0.0398645556219587,0.0039320141821445,0.0189720538648073,-0.3616784570029607,0.9321100609817206,-0.0093408107201943,-0.0623378768386234,10.761922719818008,-0.0948198963843285,-0.0050403410414501,1.163800719965044,5.888625003228554,1.7361884304431972,0.5292215586006184,1199.3654739986584,1174.6059535818376,1175.916582805006,1184.0926941179591,-465.7331070734468,236.23796340953027,-2.357992185397959,-252.69900083439984,155.6904773051228
0.3875,-2.0187361512524937,0.5880999537603097,0.8840652365042145,0.0195016590759747,0.0224585382515279,0.0439869589568018,0.0039431452549385,0.0189497355935669,-0.3616273837469567,0.9321383016858396,-0.0055962291238073,-0.0633760626956222,10.751582226731868,-0.093698202025758,-0.0050122006900719,1.1662990787869143,5.8885396180015155,1.736275517702498,0.532128921828866,1197.8769218698296,1175.0939550476382,1176.1823939872722,1183.5226183310913,-699.8393117692552,136.04773293645837,209.1780563263908,-213.2353680221511,155.69448938646417
0.39,-2.267701641906677,0.5282673393362493,0.5510865037670031,0.0124362745698785,0.0229934459500967,0.0468722085994953,0.0039631445567027,0.0189227854853801,-0.3615744152570333,0.9321691706191833,-0.0022752608671455,-0.0641675179765475,10.740006394113195,-0.0925683454317788,-0.0049663117874049,1.1687967009642695,5.888459553629952,1.7363544885937516,0.5350440725944516,1195.866277439812,1175.28619224652,1176.962473086638,1183.0265172778484,-928.1103552130381,21.930850123135297,418.3347547309946,-210.8907001108489,155.69867398191923
0.3925,-2.313391715808239,0.5470450649393803,0.1140614246689982,0.0061088217038741,0.0229582068334941,0.0483845514032661,0.0039925472598981,0.0188922236410641,-0.3615221919528633,0.9322008525651124,0.000558669884444,-0.0646987106447457,10.727107129764516,-0.0914409185787962,-0.0048989350865311,1.1712850694838859,5.8883837720266365,1.73642704674657,0.5379681056358107,1193.2363700937644,1175.203609298254,1178.2740677609272,1182.468164830537,-950.415586938788,-70.79237796110641,512.3376090545203,-195.936352875742,155.7038928139041
0.395,-2.1871774976834217,0.6377913492742556,-0.2307188885690518,0.0017382442897709,0.0230660993164835,0.0477886960263448,0.0040278572024395,0.0188699961001581,-0.3614766026147788,0.9322296358185326,0.0026712539939378,-0.0651274760598526,10.712818599556014,-0.0903453027703918,-0.0048252958197254,1.173752688809817,5.888311211915089,1.7364959502828978,0.5409020776212161,1191.1141995051182,1174.9322303567144,1179.5241611319107,1182.0468355134697,-793.9455763300423,-136.4027151092613,499.7268130761763,-149.0005021211344,155.70840472969883
0.3975,-1.934597714237852,0.7839335836762215,-0.495483884084645,-0.0031279589637932,0.0240373790936684,0.0452439918048844,0.0040604766068613,0.0188723800822894,-0.3614390272447438,0.9322528936225558,0.0037963134300212,-0.0657554789480591,10.697099931816677,-0.0893140642103172,-0.0047755339321637,1.1761868883249575,5.88824048526347,1.736563697959565,0.5438461480372143,1189.2666422121142,1174.5215957227076,1180.772701826308,1181.7231623199311,-679.5330408738204,-180.64846936117627,477.4492904928134,-106.83409755779384,155.71308384347506
0.4,-1.6023524257029385,0.9458231676483742,-0.6619014911882192,-0.0083608708172088,0.0259548045834334,0.0414729243533206,0.0040852672068954,0.0189086608851565,-0.3614038331947286,0.932270080335778,0.0037932585018035,-0.0667695047330882,10.6799377758651,-0.0883653446982454,-0.0047660904732564,1.1785758610556836,5.888169855653121,1.7366312493216522,0.5467990643765913,1187.7165343007491,1174.0289880099083,1181.9114075843747,1181.5126650256807,-547.1040522839753,-213.39628343885104,405.51862160777966,-58.69531137409462,155.71790004158825
0.4025,-1.2108357467892898,1.0834643216909978,-0.7019636552777075,-0.012570469794004,0.0288578354990043,0.0376705224403076,0.0041020886342425,0.0189776680413856,-0.3613709716159214,0.9322791340191576,0.0027019104800668,-0.0681775814957897,10.661347043584353,-0.0874965960641934,-0.0047949663254591,1.1809096105017685,5.888097980072802,1.7366992834565735,0.5497601053034576,1186.5311219506943,1173.4546143055131,1182.8002949343468,1181.429685763061,-446.5511120904917,-268.64307137493574,308.50075610037464,-23.835814205949625,155.722879246966
0.405,-0.7378058427826805,1.1688409578992347,-0.638561754850217,-0.0151575971063682,0.0331134069509339,0.0347576828691046,0.0041128691856766,0.0190681517681757,-0.361342569674238,0.9322815817061618,0.000754889826009,-0.0698719672313825,10.64137030010796,-0.0866830800826242,-0.0048476355906043,1.1831803718824792,5.888024425890632,1.7367675568972896,0.5527279180029904,1185.4837787402967,1172.6857726530338,1183.4539113648766,1181.3934859546507,-330.5239886103206,-291.75191036797486,159.72185963860267,-21.30029966829168,155.7290391920751
0.4075,-0.3934547743706112,1.1449654717566167,-0.539111623606635,-0.015148006218466,0.0370464299060965,0.0339772977840924,0.0041185898548066,0.0191749242537436,-0.3613212592056089,0.9322789591462318,-0.0019244981975872,-0.0718125682689823,10.620076295630092,-0.0859115785351411,-0.0049175350114421,1.1853802936084537,5.8879487361762255,1.7368361764861415,0.5557014963622005,1184.8785020076427,1171.9958547536735,1183.59890423254,1181.3231842647194,-195.77927004302165,-279.8787955558962,-25.99268681169631,-56.90512118339934,155.73432353258363
0.41,-0.1499119313812365,1.0053711365030555,-0.4476099392345681,-0.0134812255418017,0.0408658424302792,0.0344248953364125,0.0041209341040937,0.0192868978994353,-0.3613062338329481,0.9322734259970404,-0.0050998999374227,-0.0739021427964976,10.597558070444885,-0.0851561719602842,-0.0049918771946591,1.1875034245973968,5.88787220536152,1.7369049505950835,0.5586800329475545,1184.5048823900815,1171.2863786752544,1183.323947930818,1181.108960348734,-119.06189231153792,-306.90747777466606,-202.9774266810362,-138.44894924582138,155.7397605077557
0.4125,0.0082133962876983,0.7100638165047021,-0.3881944957402639,-0.0110833471712595,0.0448429103162208,0.035135928097077,0.0041244762734521,0.0193981393320894,-0.3612964103146857,0.932266442391212,-0.0086588872659069,-0.0760249062835741,10.573930306946732,-0.0844051243218958,-0.0050568038033789,1.189543769982664,5.887797731209026,1.7369737086221955,0.5616639490597997,1184.283192546085,1170.4613173648,1182.5840170991348,1180.6309395184903,-50.19331343019071,-290.00211234529127,-320.6701114606855,-208.0004847372036,155.74645584410922
0.415,0.047180744279802,0.3796465577974166,-0.3876520182979854,-0.0101748560061785,0.0471988678149425,0.0348499195055284,0.0041321940197961,0.0195097182247681,-0.3612914607771484,0.9322584880298012,-0.0126142904208691,-0.0781470210930585,10.549324903244255,-0.0836616145924804,-0.0051090095593219,1.1914952561109176,5.887727005221397,1.7370429015033626,0.5646534279014095,1184.2539158229304,1169.836368113528,1181.7205973735147,1180.068957925048,8.673565325762045,-227.48225506598152,-370.66095508076086,-240.8776043399964,155.75217332829106
0.4174999999999999,0.0378518486091807,0.0071970634172646,-0.4271478878598614,-0.0110452016801119,0.0479881850468034,0.0334847148973249,0.0041422639063669,0.0196232962701503,-0.3612964449206537,0.9322476277073712,-0.0169521263927788,-0.0803263491788206,10.523886321273949,-0.0829269357018139,-0.0051576970512646,1.193353017859998,5.887660824590435,1.737112678225825,0.567649459766076,1184.3265603727139,1169.3239060894703,1180.730712323731,1179.4265514967904,34.257590974721445,-180.44815194384867,-399.41577394911695,-250.92159280734705,155.75802824172536
0.4199999999999999,0.0247360025543637,-0.356964117443582,-0.4894309796243712,-0.0125748230301121,0.0473113261779212,0.0318931569621318,0.0041508774195891,0.0197397099787686,-0.3613113695113119,0.9322339474407134,-0.0216257801653692,-0.0826493137163658,10.497767315293975,-0.0821997656556315,-0.0052153198747346,1.195113673483159,5.887599366595442,1.7371824910538096,0.5706524850352673,1184.425203777804,1168.9341273538087,1179.7235185037691,1178.8143499610112,31.16148813583092,-122.50892025704148,-391.87107165485,-213.580302096352,155.76399238849478
0.4224999999999999,0.0314558835173266,-0.6585903730090132,-0.5731040238516498,-0.0136292160661253,0.0449492994858357,0.0305666046893599,0.0041513109599497,0.0198569268380429,-0.3613336800294232,0.9322184835615924,-0.0265088754271478,-0.0852312688901,10.471124032166088,-0.0814707031139979,-0.0052977959576002,1.196776003119971,5.88754195834517,1.7372509919601964,0.5736620416742215,1184.482367813393,1168.711361488185,1178.7713569654568,1178.3586499863084,0.0698689036653376,-63.00281728199474,-394.8345933180004,-142.55418285038093,155.77008226819785
0.4249999999999999,0.0674374856157997,-0.8954565838197197,-0.6953043749472638,-0.0136729928014229,0.0407575310591644,0.0293786475269686,0.0041408486240082,0.0199707942812589,-0.3613589611747362,0.9322029086997367,-0.0314626174744002,-0.0880862960623081,10.444111959447808,-0.0807297424668969,-0.005409455139901,1.1983408389668706,5.887486988176978,1.7373161722548627,0.5766774691316406,1184.4255531223223,1168.6191132673987,1177.7493455371791,1178.1015790467593,-49.40649921090876,-16.82429060374487,-350.5927939051614,-43.47826268081004,155.77752744661862
0.4274999999999999,0.1152135274040258,-0.9696275102239574,-0.8097907722279781,-0.0129527589674095,0.0369340850506272,0.0285296802679937,0.0041219208249753,0.0200790468228122,-0.3613811768753855,0.9321894149181384,-0.0364219753826684,-0.0911365049970979,10.416880880504042,-0.0799760480198317,-0.0055438818319104,1.1998107138763123,5.887433029601123,1.737376924881417,0.5796969127695841,1184.2353353173385,1168.6272400351663,1177.0183929959308,1178.1412586729043,-109.83801294555622,-6.678029635759224,-265.0018167117193,50.01663648895369,155.78384009879272
0.4299999999999999,0.1779068825845634,-0.9205023374665005,-0.9184536739978956,-0.0123808627123984,0.0337105801198094,0.0271073854931488,0.0041029257668347,0.0201812216466622,-0.361393959275626,0.9321802676801544,-0.0413989174394592,-0.0941965577231968,10.389570284515171,-0.0792183475136221,-0.0056823394416657,1.2011900052716715,5.887380650955315,1.7374338740694224,0.5827167124469598,1183.8763630575947,1168.58572311922,1176.4243364536203,1178.351662229204,-194.71464101325165,-72.62177304805839,-228.77218567937211,85.51410634090637,155.7902576290993
0.4324999999999999,0.273652179184992,-0.7514053440289802,-1.0033497224166192,-0.0122926262846757,0.0310258622464518,0.0240030456964134,0.0040926877951635,0.0202760345423174,-0.3613951345428752,0.9321761730426978,-0.0463886690070619,-0.0970613528674505,10.362304808239548,-0.078464079375106,-0.0058046969683159,1.2024853753355316,5.887330456641094,1.7374882225114516,0.5857329293909869,1183.2617621122722,1168.264131169926,1175.874532067534,1178.568829204609,-250.33079587292357,-193.31147090024368,-175.5151124736129,31.705858472150766,155.7980707338851
0.4349999999999999,0.3710128192604646,-0.550621560421718,-1.005219863006778,-0.0121358248658638,0.0297393200939043,0.0204891569511074,0.004096960340435,0.0203645323729795,-0.3613841161929768,0.9321772675439176,-0.0514050374191727,-0.0995992513689737,10.33519026950882,-0.0777232407068719,-0.0058998718410776,1.2037047050855578,5.887282484781413,1.737540797880432,0.5887438685177105,1182.62470907823,1167.6191657647187,1175.5467608912525,1178.5101915215648,-271.9447407987898,-359.6476191212329,-109.82687730584064,-117.36682882496996,155.8046680464712
0.4375,0.4781160753046295,-0.3248563524844965,-0.9104867915247392,-0.0111128554770868,0.0292197350708692,0.0168942033281759,0.0041159413863456,0.0204468527206833,-0.3613608610691819,0.9321836274978096,-0.0564001304137787,-0.1017761769981418,10.308311585263768,-0.0769988077619138,-0.0059685350068818,1.2048565545127223,5.887236933585898,1.7375916577786095,0.5917495721275761,1181.9020384082783,1166.4658930743199,1175.3253976810047,1177.9819950604842,-297.6736090452047,-548.7037424805744,-80.62630222220825,-307.81258893266534,155.81134632248163
0.44,0.5827139199879652,-0.1010777817048322,-0.7319926876172809,-0.0093934200038269,0.0291770777056005,0.0137677842476519,0.0041517601204323,0.0205238949543074,-0.3613281386629361,0.9321943407105092,-0.0613537052935852,-0.1035235838595253,10.281732911353847,-0.0762968381322976,-0.006007960041895,1.2059483340860964,5.887195075865265,1.7376400874313456,0.5947525283950377,1181.136341033004,1164.8756470523156,1175.1436293801414,1176.9711285769015,-313.85237028425735,-726.5211112270201,-83.40177904651675,-519.4433148445564,155.81808520844203
0.4425,0.6748541444565052,0.1006166000232878,-0.4668891361573977,-0.0074511362534409,0.0296061316973823,0.011344149910988,0.004203340725893,0.0205968065747587,-0.3612872648979154,0.9322090373137256,-0.0662269427221167,-0.1048363033426919,10.255497331827547,-0.0756206301816529,-0.0060225371991823,1.2069855987071585,5.887157738039616,1.7376864060511492,0.5977557998795207,1180.3327765568567,1162.8332875181848,1174.9083887857723,1175.3847784862614,-365.40948765687034,-966.1313846118893,-150.9573374366026,-801.3270358767379,155.82488984640366
0.445,0.767530249693186,0.300579173447438,-0.088194074935229,-0.0054745237947914,0.0306489017720237,0.0095480361583624,0.0042633594341418,0.0206660861861913,-0.3612394820133484,0.932226948735642,-0.0709249548787927,-0.1058241388909636,10.229627897898512,-0.0749657192877897,-0.0060298698871995,1.2079717335605908,5.88712410526207,1.7377316297405798,0.6007639417592772,1179.3092935947195,1160.0449901292563,1174.3888426929584,1172.9644933975176,-391.780585191054,-1046.3756504107087,-257.27152002787057,-938.9111204753581,155.833122871984
0.4475,0.8297344205996987,0.4257491591038752,0.2357603124545748,-0.0041809865725122,0.0319797105948519,0.0095813320315584,0.0043286193987016,0.0207283139678893,-0.3611854903500572,0.9322475757070736,-0.075313852145491,-0.1064908530520384,10.20413160707672,-0.0743212722491323,-0.0060342186845121,1.2089079854313445,5.887092959752353,1.737776878346236,0.6037798778995324,1178.3738736309017,1157.6014092661312,1173.6220311856327,1170.6902228838846,-401.9255826000968,-967.471835328478,-402.23500567435593,-919.9315395716886,155.84003429868508
0.45,0.87030850005568,0.5075149912333046,0.5104166514525623,-0.0027279043230766,0.0337308025881332,0.011601207125975,0.004394099602792,0.0207738236387006,-0.3611245462401136,0.932271236393016,-0.0791355379914702,-0.1068334899676455,10.179001161882763,-0.0736595546847969,-0.0060374774900331,1.2097946115985865,5.887063975736178,1.737821878410602,0.6068052313674815,1177.2996656817193,1155.207630952614,1172.3776676645866,1168.3648356996591,-514.8981522471781,-1013.3668734036736,-672.1121810049675,-997.4950217884259,155.84699213256
0.4525,0.8743436100999006,0.5667426058680719,0.7264502726090626,-0.0001967499688465,0.0358923484768437,0.0154576293894327,0.0044551732077451,0.0207937703187716,-0.3610545801810146,0.9322988284610266,-0.082161571025497,-0.106854091099741,10.154216008347166,-0.0729538603168807,-0.0060401304947851,1.2106307095118076,5.887036572656507,1.7378654483823714,0.6098407114650398,1175.7993828696658,1152.5345748991128,1170.261470280608,1165.7027477749425,-586.6614257629857,-935.4177380272624,-876.2605355002497,-939.9219850705769,155.85538898953382
0.455,0.8221016732380226,0.6000621453055031,0.7907909783415995,0.0023703518608472,0.0371456142862634,0.0188903738579604,0.0045092926308651,0.0207931601248664,-0.3609786455330328,0.9323290039307592,-0.0844524698817515,-0.1066227137687349,10.129741441780869,-0.0722095141925994,-0.0060493974128199,1.2114134576596562,5.887008799252008,1.7379071121714935,0.6128830090085385,1174.3663585529043,1150.5305422624776,1167.9963649870851,1163.6652257743065,-601.4814131673114,-750.7136633820202,-989.5972080768832,-772.3357096280317,155.86242196240164
0.4575,0.694883893191136,0.6393869267490057,0.7383544318283088,0.0050971405299349,0.0375964050563605,0.0218812836627567,0.0045567784194289,0.0207835553756554,-0.3608995297096916,0.932360408066358,-0.0862248854426585,-0.1062116652207549,10.105530744479903,-0.0714483383746958,-0.0060705808921189,1.2121401143306507,5.886978972073462,1.7379462012712472,0.6159271169682577,1172.7919758038292,1148.7810065822027,1165.3134842402235,1161.8410692268023,-637.4867810983227,-659.5017183014983,-1117.787637360242,-696.2341795411696,155.86948779801213
0.46,0.5014233181917994,0.693696654612714,0.6095325892260532,0.0079230845220461,0.0378613437023117,0.0241744829886824,0.0045977361033694,0.0207822819281499,-0.3608213258844439,0.9323910838423503,-0.0878134141876377,-0.1057480022380453,10.081525587898552,-0.0707044394240684,-0.0061138196093619,1.2128086739239292,5.886945530386037,1.7379829520680683,0.6189699266110394,1171.1789246474127,1147.23303367097,1162.407426800284,1160.1840548766006,-630.1421280915741,-578.4091856607114,-1180.9360156573791,-627.9079606718363,155.87657829206603
0.4625,0.2409049145624045,0.7602415665631685,0.4272007535081218,0.0104179394473958,0.0387704272832669,0.0252752678896703,0.0046363947425533,0.0207974098720539,-0.3607493260134501,0.932418813055466,-0.0894195555137197,-0.1052227599362848,10.057660069315432,-0.0699943947329874,-0.0061715794818689,1.213419557566476,5.8869083833034015,1.7380170206416432,0.6220099177298553,1169.6412651633711,1145.8889606538992,1159.4088041619368,1158.7015294234432,-632.2843529135292,-561.2755548860146,-1293.9254628267452,-620.1467552506523,155.88369589417988
0.465,-0.1027733049941481,0.8259197720257376,0.2004001747830765,0.0119200567053005,0.0411993526633017,0.025072721774078,0.0046755323496726,0.020828958137485,-0.360688417471579,0.9324417324735956,-0.0910955048589395,-0.1046056721268488,10.033860463611038,-0.0693154665102664,-0.0062327395201511,1.2139750723620009,5.886868686647492,1.7380489437655364,0.6250478544601445,1168.017502882845,1144.42665589654,1155.9377994861504,1157.0833211003471,-549.653096030806,-526.99766328742,-1218.6633664524823,-573.1529960335133,155.8922655441366
0.4675,-0.361719686652368,0.8431107973054047,0.0364051334924146,0.0113817423231148,0.043926377553806,0.0239862231657522,0.0047165849369273,0.0208726910758621,-0.3606394621337105,0.9324596423886592,-0.0928172289363696,-0.1038706923710154,10.01004540090439,-0.0686546649887114,-0.0062858856480794,1.2144782566433983,5.886827239797568,1.7380789994579668,0.6280849443631987,1166.892999683217,1143.253972337462,1153.3154873296744,1155.8357644432756,-408.503904101644,-477.4364453161066,-958.16819438919,-488.15196011810207,155.89942904986856
0.47,-0.5195252479650316,0.7979611492796301,-0.0835759350180174,0.0088724511869026,0.0465767598309025,0.0228891273021058,0.004757772384241,0.0209306530779694,-0.3606026939435015,0.932472460466856,-0.0946661254250671,-0.1031037550532987,9.986124735473913,-0.0680112856950726,-0.0063335611931434,1.2149310910410491,5.886785103030391,1.738107475733736,0.6311223072813544,1165.9749833623368,1142.0394736699595,1151.1469585142045,1154.6425612997568,-379.68355697007576,-555.074487209276,-819.9709060512752,-528.5070125333273,155.90661403776414
0.4725,-0.5231840790519591,0.6596054445535621,-0.181365603998481,0.0044885715138,0.0494366929145409,0.0222728544526233,0.0047960134227866,0.0210017792551934,-0.3605758993077731,0.9324811244033864,-0.0966651227670605,-0.1023964408092047,9.962003164855485,-0.0673775927145475,-0.0063798178420823,1.2153354256674707,5.886744090544489,1.7381344303733155,0.6341602922833727,1164.9945818983667,1140.4785999014157,1149.215632799418,1153.1932293806087,-359.92042705402093,-587.7870182483542,-586.0518056970244,-547.8245696407153,155.91525968414015
0.475,-0.348523792671163,0.4746590091545145,-0.2363730577213515,0.0005790318673513,0.051739617869947,0.0221547411787125,0.0048301395751787,0.0210841446524349,-0.3605611718926912,0.932484911161476,-0.0988406101608368,-0.1017976133010798,9.937582043378029,-0.0667468208920801,-0.0064256226926255,1.2156924449981823,5.886705325854336,1.7381601632949408,0.6371998160960365,1164.1753812270667,1139.1005385787175,1148.2166994857191,1151.9034384515533,-347.7304884541806,-554.1957082596577,-276.56987363102394,-546.3513513006087,155.92248358796036
0.4775,-0.006375370813967,0.2311109493733801,-0.2764576201906437,-0.0024736544069289,0.053886773258585,0.0220763195036327,0.0048577793482648,0.0211729298130848,-0.3605561473102382,0.9324848874124886,-0.1011606803913702,-0.101356583755037,9.912761523415218,-0.0661058748544387,-0.0064733160946793,1.2160030552285712,5.886669607230719,1.7381844322778952,0.640240752524934,1163.255929456096,1137.7076213601174,1147.832783431263,1150.461472624106,-391.71341850060736,-544.6728864610178,-66.36522897997634,-605.7108537308129,155.92972715213844
0.4799999999999999,0.4269173056955772,-0.0367710734082747,-0.3078170904285632,-0.0038094231518681,0.055300707227798,0.0218574394149865,0.0048809028885481,0.0212636347959124,-0.3605556666683722,0.9324831651187848,-0.1036314243672983,-0.1010402951006605,9.887442842844392,-0.0654473745106457,-0.006516870091117,1.2162673380410831,5.886637962761424,1.7382083201001115,0.6432818671553328,1162.2168141345635,1136.3771741464127,1147.8848733408195,1148.8748841828992,-444.36231766022047,-498.09113381075406,96.21392407953053,-662.044362473723,155.9369869622882
0.4824999999999999,0.8787658095048069,-0.2860478705035927,-0.3252092479271507,-0.0017948673965401,0.0547706469965751,0.0213070648811266,0.0049032448322414,0.021348759956926,-0.360551771178264,0.9324829906218756,-0.1062140136908704,-0.1007555064800452,9.86153118948971,-0.0647596948624564,-0.00654456065901,1.2164850850157836,5.886611667272341,1.7382311199000202,0.6463226978886936,1161.0341178677947,1135.2171656910637,1148.3138530516603,1147.151250811737,-546.1467062157676,-450.96087947704245,228.48872462445777,-764.7088242130843,155.94426624573276
0.4849999999999999,1.3139534502480548,-0.493333696894263,-0.3189597441868198,0.0046480227992688,0.0513886420937505,0.0201696008079424,0.0049287692288281,0.0214210305116509,-0.3605396033119079,0.9324863905692647,-0.1088699638802411,-0.100396859910913,9.834937423483591,-0.0640326260439564,-0.0065453977651319,1.216655361069123,5.886590456339827,1.7382524712792482,0.6493633876886719,1159.4860806034849,1134.1223697490275,1149.0273169639415,1145.0513400618336,-582.7531051541422,-342.4474748063855,258.5675381509643,-748.854315740936,155.9530235756941
0.4874999999999999,1.5164408531165272,-0.5526128019741401,-0.2828307750248101,0.0115669361423213,0.0473398055748774,0.0189089004252507,0.0049618357488091,0.0214834713270484,-0.3605212117374322,0.9324924572681872,-0.1117436133066041,-0.0999128825643488,9.807578318737534,-0.0632800308114944,-0.0065174931067832,1.216775184558726,5.886572474137304,1.7382730627230178,0.6524047653317286,1158.1203523420243,1133.5049283170315,1149.6066907424151,1143.4069792330326,-559.3629760096969,-181.10632881489417,189.26073263646668,-603.5083535033203,155.96033944698283
0.4899999999999999,1.5216482548941177,-0.4899346928312626,-0.2106779238230145,0.0175999576983457,0.0439299531443273,0.0176783106700224,0.0050040425717471,0.0215401878331588,-0.3605013371266884,0.93249920145068,-0.1149673016207338,-0.0992983755352202,9.77938066839701,-0.0625159532531335,-0.0064664404912891,1.2168408027978563,5.886556954283312,1.7382933587913947,0.6554454430605273,1156.6892657234364,1133.216838104953,1149.973620627124,1142.0337982943172,-652.4157740866934,-53.8234110206758,76.00000237280248,-514.8244563228213,155.96767340613712
0.4924999999999999,1.3268755464212028,-0.3214505338181057,-0.0903290051051815,0.0227972002947041,0.0419125303585042,0.0168735936224207,0.0050595221595309,0.0215997287233937,-0.3604887964028449,0.9325028985849017,-0.1187577193293426,-0.0985208389381701,9.75028330894074,-0.0617668483943141,-0.0063960702772293,1.2168470816842423,5.886543983192564,1.7383138139043963,0.6584857545926955,1154.8582734715908,1133.2358112619283,1149.9866907542792,1140.8328569514183,-702.3729608230036,58.77373540320145,-85.51769234059057,-359.54394881782684,155.9764939361473
0.4949999999999999,1.0400412640389503,-0.1585833977273546,0.0255298170322892,0.0255858958301215,0.0422710161018843,0.0170433949099602,0.0051303997405921,0.0216596040019659,-0.3604887411473135,0.9325014551931554,-0.1231011893495118,-0.0974975611424759,9.720242457476722,-0.0610325340640942,-0.0063042983741918,1.2167894550976555,5.88653400325721,1.738334645421854,0.6615264182469275,1153.1774009193211,1133.510706781969,1149.5460321654211,1140.236078550228,-721.4581873365652,143.5002405668,-283.7663195814,-165.81242764123076,155.9838597918227
0.4974999999999999,0.681702691923436,-0.0360284930355809,0.1421468815281034,0.0270794604716587,0.0439114414771589,0.0176983122134131,0.005213384660209,0.0217095697972923,-0.3605028700199812,0.9324942656440908,-0.1277913457537782,-0.0961823480636847,9.689232756836326,-0.0602907218940021,-0.0061934891627647,1.216663583214958,5.886527277785472,1.738355918831166,0.6645685380725785,1151.250982534908,1133.9533124647623,1148.5678591563724,1140.0037948132124,-820.3715316111349,182.10979316627328,-484.0137750691151,-53.02578766109031,155.99124006154298
0.5,0.3034810495375385,0.0228064701976616,0.2522208397416907,0.027670503098619,0.0455715816525698,0.0184270738005989,0.0053006876229254,0.0217427284390446,-0.3605257682007415,0.9324833622274368,-0.1326382647758986,-0.0946285374899966,9.657246183045334,-0.0595231007940941,-0.006077537610078,1.2164641523915447,5.886523463008968,1.7383763592603363,0.6676128063465429,1149.0755432612657,1134.4212557478004,1147.1259632900756,1139.9709496119226,-929.9199962765103,158.81052075674043,-685.159387832201,1.9336666460276088,155.99863079126726
0.5025,-0.0602263575245785,-0.0048770245498901,0.3511122608310802,0.0271997294268555,0.0464803932121502,0.0191223058308726,0.0053809321298219,0.0217531572943076,-0.3605510340012165,0.9324712533045608,-0.1374308712430259,-0.0929554736888218,9.624293634449026,-0.0587107115672621,-0.0059778816326184,1.2161854669175032,5.8865224856478635,1.7383946671729182,0.6706594716911927,1146.6013825535251,1134.747365068546,1145.142062217211,1140.0134631464423,-1137.8905086252862,65.70832831748697,-984.502353209472,-5.189764231181465,156.00603169514758
0.505,-0.4438705382910094,-0.1263020540835437,0.4544959794093312,0.0255943672949167,0.0464216170545953,0.0200057837144759,0.0054511706104125,0.0217373865751313,-0.3605702149669846,0.9324616970147732,-0.1420470650490175,-0.0911455913727789,9.590405534111767,-0.0578477186938159,-0.0058972770786503,1.2158213324192468,5.886524795010352,1.7384094488654205,0.6737069281797418,1143.3860907181393,1134.7497973893878,1142.203451524028,1139.9450007907667,-1191.8512953685863,-89.3300486492989,-1154.4229458993857,-68.0381936545927,156.01492041138286
0.5075,-0.7037470940778268,-0.2854347721884782,0.5242458644774549,0.0237163762915043,0.0455978172207699,0.0209431631467989,0.0055109113308552,0.0217037473593482,-0.3605778558406841,0.932457132400602,-0.1465778680342118,-0.0892196669749669,9.55562791695531,-0.0569570769719042,-0.0058419127749412,1.2153645922333123,5.886530274354723,1.7384194358185698,0.6767532179768153,1140.6421260766824,1134.3007148252996,1139.3699474877144,1139.6732721781696,-1066.3284577714412,-285.95072577923,-1188.413108881285,-168.28276081700992,156.02233028516233
0.51,-0.8933267920803861,-0.4885983164244242,0.5686706152812074,0.0215840231747079,0.0442624825959517,0.0222817859868387,0.0055595099428719,0.0216692232255642,-0.3605761060773101,0.9324568652063268,-0.1512503137718906,-0.0872632170001444,9.52002162889739,-0.0560806072985287,-0.0058249210980618,1.2148078088401697,5.886537342586012,1.7384248828738256,0.6797973553859379,1138.054448429282,1133.3200437604917,1136.2613859796215,1139.1035869866816,-1048.4888657106462,-541.7951347837632,-1397.6799664173839,-319.8603022500788,156.02973748839906
0.5124999999999998,-1.037772076970772,-0.7725328961790666,0.5809571216697194,0.0186845071744205,0.0424624431312839,0.0243948756708389,0.0055964423969342,0.0216451320828183,-0.3605673046345932,0.9324601400037132,-0.1561757409751638,-0.0853268523973561,9.483664702099729,-0.055246378367156,-0.0058528984261626,1.2141448364898426,5.8865440649499625,1.7384265075229413,0.6828392309130111,1135.3996817481293,1131.5917391513808,1132.3815476556276,1138.0739706669192,-867.6400882496628,-700.2561190159662,-1421.047499613904,-424.64862586411937,156.038615617543
0.515,-1.0895891289268993,-1.0376788144901143,0.5513058461894219,0.0157916389724222,0.040899065217834,0.0263495423181217,0.0056179696058209,0.0216385679660767,-0.3605518766819332,0.9324664776437042,-0.1613568746301328,-0.0834981030721365,9.446649803031407,-0.0544689152433071,-0.0059349756801093,1.2133706297631364,5.88654782670083,1.7384256830701799,0.6858800203284151,1133.7162479880335,1129.8187631654118,1129.1561484815522,1136.980343857361,-549.479220732746,-736.6082744479165,-1256.9500984098784,-464.6716311801352,156.04599908599715
0.5174999999999998,-1.0746966063764072,-1.3219593102150131,0.4816789170279971,0.0123324213336919,0.0384458275481777,0.0280176587411476,0.0056249025853071,0.0216467884342621,-0.3605249588402807,0.9324775511252577,-0.1666465773495808,-0.0817282953039867,9.409083930157262,-0.0537434634381373,-0.006060582453374,1.2124815910444404,5.886548567915979,1.7384228017693453,0.6889212546249452,1132.6522856444656,1127.9086977791412,1126.0967971635782,1135.7506125110183,-335.21770217407686,-754.0562647746804,-1176.0958296360957,-496.40252529934475,156.0533586881462
0.52,-1.0150977127421594,-1.6080597640477,0.3865941091728803,0.0087458694504172,0.0346941008752018,0.0292310339944934,0.0056182024502856,0.0216625869732672,-0.3604823705712775,0.9324949427104008,-0.1718169075352885,-0.0799483872997846,9.37108384509565,-0.0530546680685314,-0.006215034135842,1.2114753251931836,5.886547594344181,1.7384176896339962,0.6919635497518716,1132.0401594771631,1126.0484818415384,1123.2756693333715,1134.4983312308643,-179.8897484134157,-699.5815521927392,-1057.0184631163092,-490.16884052248264,156.06069174377535
0.5224999999999999,-0.929089042570345,-1.8785843904468496,0.2746646467716533,0.0059085151007127,0.0297573260455196,0.0298796403644078,0.0056000908311832,0.0216732885911725,-0.3604229370425403,0.9325192470007084,-0.1765533971232785,-0.0780433634076965,9.3327733032146,-0.0523756152059809,-0.0063767410310326,1.2103511082957004,5.886546675808488,1.7384085054935354,0.6950046986272895,1131.7528369023985,1124.4107900181775,1120.8117048479967,1133.299768308406,-135.63711782358027,-646.619428148187,-1001.5494798955832,-509.127118265314,156.06798473143107
0.525,-0.8456432831005744,-2.172849152740827,0.1386140011376191,0.0043660280851258,0.0233437465891313,0.0301139040887066,0.0055813797155676,0.0216670135589299,-0.3603534423335154,0.9325479368259492,-0.180617205425341,-0.075767299011734,9.294277503545315,-0.0516884210263175,-0.0065068157823999,1.2091094039246837,5.886548067870428,1.7383953673428663,0.698042187651431,1131.3619738880454,1122.8153847007975,1118.2679219338938,1131.9526956395375,-220.27331080980707,-525.7678620527709,-876.2792181157229,-487.30730802913007,156.07668027685688
0.5274999999999999,-0.8269007283704934,-2.392482396271528,0.033617754551842,0.004501118881129,0.0178033175806007,0.0299540413947602,0.0055650041070234,0.0216436623132273,-0.3602800410894085,0.9325785046748613,-0.183927325795627,-0.0731037849351465,9.255715138450963,-0.0509943941668217,-0.0065956736639862,1.207751303446446,5.8865525789087245,1.7383791213140283,0.7010749959657823,1130.6514703483494,1121.7819507079137,1116.430308757418,1130.8632317682604,-437.3580892039623,-377.82952621132574,-700.5631447948412,-451.7778254488799,156.08387327218364
0.53,-0.8764188219410299,-2.5902996997617382,-0.056786438086789,0.0048790455725816,0.0118733944322858,0.0295339675987285,0.0055457716558121,0.0216123701922651,-0.3602046240235367,0.9326099099187052,-0.1865153782240208,-0.0702470467261847,9.217195727417655,-0.050307606556987,-0.0066611627734733,1.2062787024924666,5.886559287756853,1.738360513136194,0.7041020227215613,1129.1751834420256,1120.9262370697409,1114.7651062099196,1129.6938065122931,-753.7935163717514,-345.5357578116488,-657.3176437961132,-502.8608143606102,156.09100362058717
0.5324999999999999,-0.9653715714779194,-2.774023188666004,-0.1355439089462087,0.0041286109503234,0.0054870791161221,0.0289853753428664,0.0055164267108814,0.0215876440968059,-0.360128662476377,0.9326411230878124,-0.1885000003259928,-0.0674654546240378,9.17881798155572,-0.0496510180120586,-0.0067316382434838,1.2046943215143575,5.886566017859392,1.7383410051189319,0.7071233528083186,1126.8825027664907,1120.0542719188554,1113.1437205384375,1128.3489276964572,-1125.7963926945183,-399.8098822353765,-658.9953236515606,-604.7692094081407,156.09807688750013
0.535,-1.0520534453438728,-2.945133852007928,-0.2062454138605695,0.000833378899207,-0.0014721747623045,0.0284444707416896,0.0054719381787888,0.0215711724405468,-0.3600536825650621,0.93267131174367,-0.1898059025001143,-0.0649046100636625,9.140673667087055,-0.0490191883002882,-0.0068205391800884,1.2030030934379918,5.886570824632649,1.738322519580113,0.7101390965544374,1123.546201478553,1118.927187658564,1111.4701295916618,1126.6699604652526,-1679.4431469678311,-612.4411804895766,-769.2073739248365,-836.2609625745782,156.10507552687287
0.5374999999999999,-1.0863135400906438,-3.142347653311063,-0.293632970029966,-0.0049882269195286,-0.0100316221502921,0.0280217569218446,0.005413714349175,0.0215590927352076,-0.3599857532365263,0.9326980258388506,-0.1903212140853174,-0.0625633578402349,9.10284296880604,-0.0483986204045813,-0.0069235868504865,1.2012110571657568,5.886575146279924,1.7383070128426559,0.7131503307515596,1118.4852870316515,1116.9920660164075,1109.2976836688133,1124.1676228835845,-1979.963337154866,-837.822107432111,-833.8563751770826,-1001.5960879214608,156.11338068025444
0.54,-1.0306004859382698,-3.304272268702833,-0.376329638523271,-0.0094194566292161,-0.0169388469809075,0.0278042692016127,0.0053475927517057,0.0215454322092728,-0.3599257011820464,0.9327212639960832,-0.1899458599306399,-0.0603518442955451,9.065391864021523,-0.0477743111707885,-0.0070257866321872,1.1993249031484647,5.886581385639238,1.7382952232593591,0.7161553589441892,1113.6463847927787,1114.7380771214034,1107.3008477157764,1121.661980025645,-1977.553159969828,-1050.8363926599932,-841.4643156857429,-1079.0556261968948,156.12021949002732
0.5424999999999999,-0.89203823106189,-3.4608692177630855,-0.47150012630915,-0.012201045658716,-0.0238418127014047,0.0274053371919417,0.0052774565455397,0.0215200859368601,-0.3598739042650484,0.932741343169974,-0.1885169046425263,-0.0581856205705288,9.028372435188947,-0.0471201568776028,-0.0071138719309671,1.19735211266952,5.886590112477415,1.7382874781565347,0.7191524196642427,1108.5975212318024,1111.7378840531076,1105.0903620903844,1118.7723447526,-2159.8254368613634,-1479.9967649434607,-1013.8606615658764,-1338.0310764895955,156.1269690332368
0.545,-0.6606173653003503,-3.617997226070643,-0.5899325253355298,-0.01366703757338,-0.0329453656651852,0.0262792395820582,0.0052042788361234,0.0214769025308979,-0.3598346183299821,0.9327569372484352,-0.1859398932923404,-0.0560524301508372,8.991820411626946,-0.0464165704078592,-0.0071849509485113,1.1952998519769509,5.886601551700806,1.738283955257797,0.7221417583309884,1102.8472576084719,1107.338093296686,1102.231544407947,1114.9718246431971,-1987.4175520050337,-1716.8705072959694,-1067.3024549626452,-1431.5625711377363,156.13496269749822
0.5474999999999999,-0.4346524473046091,-3.690211685836565,-0.6778587959321034,-0.013990551410257,-0.0417897750302915,0.0245663208353125,0.0051308931875351,0.0214125648705525,-0.3598084209312412,0.9327680049982592,-0.1821998781657209,-0.0539236638957463,8.955756666750089,-0.0456523915217206,-0.007233776672631,1.1931745336490156,5.88661511593991,1.7382833730155405,0.7251216139286089,1098.6604334717772,1103.1535315166277,1099.7538498155711,1111.614531896911,-1496.2328927279016,-1726.3410029913287,-982.7696638388253,-1362.7784446680369,156.14153534470907
0.55,-0.1853722869932733,-3.6553758288374394,-0.7365628365227723,-0.0146183697489668,-0.0521944890636673,0.0219516850927167,0.0050579580694023,0.0213308078348333,-0.3597955252598188,0.9327744513422402,-0.177403178138564,-0.0518487254201994,8.920188151562034,-0.044830962187264,-0.0072648933849707,1.1909809829420728,5.886628809420053,1.7382840292461847,0.7280911985275899,1095.3660931448323,1098.7063882817295,1097.3176960887529,1108.1579324198572,-1159.642829137964,-1772.9705363033174,-941.7086473334612,-1385.6784224547923,156.148016557628
0.5524999999999999,0.0827409724506285,-3.507084579825064,-0.7641568585962277,-0.0155850479501974,-0.0632479501068632,0.0189839944137722,0.0049837361242916,0.0212430349366333,-0.3597996577958665,0.932774625060972,-0.1717822974807633,-0.0499612332140796,8.885110921936894,-0.0439713904776892,-0.0072933654444512,1.1887217827525467,5.886641595406731,1.738284441028512,0.7310533355265083,1092.8622193260871,1094.288678835111,1095.045306578904,1104.6861397846371,-833.622499077591,-1701.067760893555,-837.6942132100331,-1378.692676007812,156.1544235065116
