t,ang_acc_x,ang_acc_y,ang_acc_z,a_vel_x,a_vel_y,a_vel_z,quat_x,quat_y,quat_z,quat_w,acc_x,acc_y,acc_z,l_vel_x,l_vel_y,l_vel_z,pos_x,pos_y,pos_z,mot_1,mot_2,mot_3,mot_4,dmot_1,dmot_2,dmot_3,dmot_4,vbat
0.005,2.268988124331724,1.3465743400465473,-0.9572782954777594,-0.3706479845120264,0.2386437472184789,-0.0008548551334009,-0.0139692809046887,-0.0065099647474895,-0.9967631334177388,-0.0789022377184093,0.0355376808455517,0.0407309796304322,11.20253756888453,-0.1570600277396675,-0.1509093698975372,0.8394301608594967,3.656733584545999,4.943998649554134,0.2421520723497051,1248.760738584728,1194.3042905587583,1240.4009648976514,1209.3140539637043,-390.9822939337574,136.5863772127341,59.74758177108016,149.5563265980309,154.1826093022177
0.0074999999999999,2.490592387351412,1.2964775431130322,-0.7571279914990522,-0.3651168898459256,0.2410487211853258,-0.0043447670925911,-0.0136100395850102,-0.0061153045369169,-0.9967637799858324,-0.0789846550079375,0.0255661071208628,0.030287066947988,11.219977720749778,-0.1582392422187802,-0.1516983787140755,0.8425711708955413,3.6572468066239288,4.944333847460944,0.2442460915868394,1247.7832828498936,1194.6457565017904,1240.5503338520791,1209.6879447801991,-457.52273250277534,82.08180263150098,-176.69895208391608,98.43148430668408,154.1842320202016
0.01,2.623984347657332,1.3205012398158336,-0.4613118458524634,-0.3593650156183917,0.2441210789580999,-0.0066954487361627,-0.0132583749368888,-0.005726818449408,-0.9967656634542696,-0.0790480787830264,0.0158048546602698,0.02002926099811,11.237322753483244,-0.1594236281392814,-0.1524770992363136,0.8457368485437231,3.6577597629565064,4.944669879221688,0.2463415205420564,1246.473124922214,1194.714699571916,1239.5174701372318,1209.8062113852377,-594.9763387900474,-17.997526723092957,-626.571374891864,0.8910229157208956,154.18561232491547
0.0125,2.6881607654595085,1.3823888712803047,-0.111823411011488,-0.3536774008449479,0.2478192220731318,-0.0076611991359788,-0.0129072736919415,-0.0053421776834677,-0.9967686515203596,-0.0790950511924704,0.0061495174038638,0.0099323013561872,11.254506812146287,-0.1606275272903092,-0.1532524889481445,0.8489345802627344,3.658272072470983,4.945006858003569,0.2484405341049454,1244.808401155943,1194.5557688681747,1237.4174769776196,1209.692399894778,-747.9664930428953,-111.7218486037018,-1086.3897468190771,-100.71186409777512,154.18679434559652
0.0149999999999999,2.66599241713744,1.4648975354646327,0.2626246894114073,-0.3477402305407178,0.2518974584001142,-0.0070807600915613,-0.0125536995497666,-0.0049626988207095,-0.9967724660535444,-0.0791291038332641,-0.0034096450275961,6.920865790509267e-05,11.271437476505648,-0.1618590099117224,-0.154025782150951,0.8521739795026972,3.6587835571924976,4.945344136391774,0.250545215754266,1242.7332924569996,1194.1560903288976,1234.0855214031365,1209.3026520647488,-976.8700875036301,-214.3624492536673,-1699.0532957565845,-223.63544406384784,154.18774077942064
0.0175,2.5254887905296446,1.5672164806872713,0.691489627036592,-0.3399486479480239,0.2565145258901122,-0.0052223791249962,-0.0121965438571069,-0.0045937156997204,-0.9967767648206612,-0.0791540403121155,-0.0128347387840263,-0.0093833170016089,11.287995443734596,-0.1631231232826476,-0.154791797459835,0.8554657077752404,3.65929425722884,4.945680748620213,0.2526560646211356,1239.9240507184252,1193.4839566219066,1228.9222104988369,1208.5742226744587,-1046.6654424956685,-262.3696373434995,-2029.4680525988947,-294.17072963979075,154.1886094660645
0.02,2.30215689088502,1.6467882280497619,1.0012316914628376,-0.3332577034338228,0.2600986771694575,-0.0029197366800316,-0.0118323253048369,-0.0042364894006569,-0.996781663961379,-0.0791685545180184,-0.0221240796582249,-0.0183325512725712,11.304036057547547,-0.1644294564573963,-0.15555122842264,0.8588172586241088,3.6598048152638496,4.946015445095741,0.2547730395306938,1237.4999652445213,1192.84424214218,1223.938181140142,1207.8317984165499,-937.6479133306934,-252.68950505333132,-2054.7040894618485,-299.1769681291773,154.1891154538972
0.0224999999999999,1.9650756720292928,1.7105296013459503,1.2311419703139903,-0.3271500839541424,0.2638647653894994,3.8209491591798775e-05,-0.0114618945458242,-0.0038891802791446,-0.9967871899402682,-0.0791720173234969,-0.0311650408450779,-0.0267399584877245,11.319392330504956,-0.1657786466198687,-0.1563099160623225,0.8622351276502207,3.660316190561431,4.9463472930049,0.2568965485524062,1235.2358111517717,1192.22050909664,1218.6486900515276,1207.0783378338128,-911.0299864825715,-251.26369139106825,-2305.5526636606824,-304.41023434264014,154.1894016194757
0.025,1.4455326353519296,1.7526141600669196,1.3858025048423115,-0.3211692562486719,0.2690976789784561,0.0043683751346434,-0.0110836105277073,-0.0035478580778008,-0.9967935063184572,-0.0791625927860175,-0.039891990975971,-0.0346120113731028,11.333877447670728,-0.1671745343933351,-0.1570770876363019,0.865722315306138,3.660829637654474,4.946676117103603,0.2590282203121965,1232.9448153121084,1191.5879236852247,1212.4104178218383,1206.3097472448367,-748.3518225294573,-202.35184182806728,-2209.3221165950577,-245.31198614608903,154.1894993686231
0.0275,0.942458820918549,1.7472933719924795,1.397696972146474,-0.3176380677128754,0.2740038080845924,0.0085982698919404,-0.0106973349713203,-0.0032069891830669,-0.9968004853867032,-0.0791420112275538,-0.0481998761100085,-0.0419868536985082,11.347290223073175,-0.1686158191608322,-0.1578652585869267,0.869279590612269,3.6613463842183687,4.94700169410853,0.2611691493513865,1231.4940520391244,1191.2087498874996,1207.6020794685523,1205.8517779030824,-482.5067650116128,-114.66341859822938,-1784.4767025548217,-144.64176640253763,154.18938303331117
0.0299999999999999,0.4100429407926057,1.6941980754598756,1.2805326899705671,-0.3159174404270154,0.2789104264777682,0.0129294577207396,-0.0103007821866684,-0.0028598302135482,-0.9968077526009091,-0.079115500558604,-0.0560304499091833,-0.0489351846179692,11.359420108831376,-0.1701025421631185,-0.1586896477149035,0.8729041907027772,3.6618665628950016,4.947324305204089,0.26331976881358,1230.5322814870503,1191.0146065922336,1203.4880343090645,1205.586538412824,-333.0645848157928,-43.700013507304895,-1602.0908091366434,-90.7235168138868,154.18907050168417
0.0325,-0.2041579936758671,1.5845822338228124,1.0032403920749302,-0.3160508512271544,0.2840218684573249,0.017207701145074,-0.0098922059829097,-0.002502168880634,-0.9968150353132832,-0.0790868972272024,-0.0633218338549016,-0.0554718652268539,11.370053991607007,-0.1716337584329187,-0.1595591543258496,0.8765918663016458,3.662389428234768,4.947645419414595,0.2654804927016893,1229.8287291150455,1190.990249819963,1199.5916254228691,1205.3981603190127,-211.31999535386947,19.399667685911464,-1233.9581189832631,-67.28033102472176,154.18848027315255
0.035,-0.6539764375578064,1.4699771332428815,0.6810879529258361,-0.3176901719590018,0.2872922158043931,0.0196364944885476,-0.0094738444346922,-0.0021352188732924,-0.996822156862285,-0.0790581578139128,-0.0699388426162043,-0.0614870434563496,11.378984073723563,-0.1732021971624073,-0.1604701889688869,0.8803390859594591,3.662915184207199,4.947967024826412,0.2676520294840523,1229.4756815102808,1191.1116049306631,1197.318243714148,1205.2501367577004,-130.61512741815028,63.19861986494291,-697.5220174528662,-78.27642826546257,154.18781812049326
0.0374999999999999,-0.9985563314555977,1.3489794064429024,0.3015868181597044,-0.3204169230354497,0.2900038648797323,0.0208593192106804,-0.0090486570432289,-0.0017596001397426,-0.9968289663386918,-0.0790309072343795,-0.0757390170412724,-0.0668926199123656,11.386014419932772,-0.1747986329304277,-0.1614179432807804,0.8841402609772568,3.6634438444756783,4.948290176744982,0.2698346306698271,1229.1756534779547,1191.3062429192876,1196.1040153356048,1205.0067781776856,-134.944011893731,73.93496234767558,-314.4780590780103,-121.67010311541168,154.18699018460615
0.04,-1.2338560582761735,1.229785422001634,-0.0945898495309357,-0.3241073501571292,0.2928396167956877,0.0211364300073667,-0.0086194497834766,-0.0013749006826339,-0.9968352888582996,-0.0790072302717739,-0.0805947077022411,-0.0716378604987367,11.390967220081924,-0.1764131089972324,-0.1623977041471705,0.8879874520725206,3.6639746127294086,4.948615923506273,0.2720285876564879,1228.8009614508123,1191.4812797424015,1195.745853418758,1204.641786242123,-183.79349463943964,42.93967770331616,43.61559143808332,-174.4269709210583,154.1860329913496
0.0425,-1.324452154952114,1.1148362583372349,-0.4730103408475401,-0.3290616250164678,0.2956885004573915,0.0202525712488901,-0.008189003236107,-0.0009820410050972,-0.9968409206039665,-0.0789896611347002,-0.0843973167108211,-0.0756586898048928,11.393688779117957,-0.1780349835880658,-0.1634009546875184,0.8918713034695473,3.6645076324601527,4.948945618476161,0.2742349162526113,1228.2566860047575,1191.5209413078044,1196.3220932927952,1204.1346433230804,-281.1545415879665,-37.06427248971524,427.0343314842196,-241.5124423524504,154.18492989282683
0.0449999999999999,-1.2784672046411203,0.9831218548168468,-0.859803089915095,-0.3348955169666936,0.2986208525758434,0.0176884453203623,-0.0077582743911659,-0.0005832445901112,-0.9968460124735888,-0.0789765162880541,-0.0871009675232449,-0.0788817836344151,11.394054279551375,-0.1796575651341765,-0.1644143326307231,0.895780627351672,3.665043145970008,4.949280223962706,0.2764539782751232,1227.3951887428725,1191.2959583799527,1197.8810250761792,1203.434224030361,-343.48400928574864,-133.11314402612885,674.7133949776529,-254.17701692585993,154.1834503942248
0.0475,-1.1460512200244872,0.879569042442575,-1.09686235226117,-0.3379543622199163,0.3006184117094785,0.0142701733328224,-0.0073300933657689,-0.0001815901051783,-0.996850773518298,-0.07896524290764,-0.0886395789643191,-0.0812314190811209,11.391973248039143,-0.1812702755246604,-0.165421677073921,0.8997040210983062,3.665581492586447,4.949619739318438,0.2786863169894601,1226.5392659583288,1190.8553755876735,1199.6956602676835,1202.863758238451,-360.8440793345377,-214.49847219960228,776.4184627856586,-198.9802976484496,154.18209709732977
0.05,-0.9733174634855472,0.78133611409195,-1.2243733435756992,-0.3388245287638178,0.3023180819117876,0.0100729090888981,-0.0069089583017545,0.0002196991769532,-0.9968553011517378,-0.0789545327547144,-0.0889316587615717,-0.0826477698429807,11.387392760706124,-0.1828580733535674,-0.1664067770257453,0.903630015125057,3.6661245604799566,4.949962834453274,0.280932416611304,1225.5909683461998,1190.2234660189547,1201.7631173901075,1202.4393225421188,-434.2922859566445,-282.6056576403517,903.3156250044616,-120.91073213118769,154.18063013893567
0.0524999999999999,-0.7702994986308201,0.6631326440558369,-1.2526407219940188,-0.339027115563513,0.3041382287348964,0.0053949689310778,-0.006496460008876,0.0006200586088007,-0.996859678295128,-0.0789434240179417,-0.0879801308173597,-0.0831579952721788,11.380297960586716,-0.1844096844217577,-0.1673593933701264,0.9075449116230854,3.6666742919276576,4.950308397893837,0.2831919299515346,1224.3678045285455,1189.442347299472,1204.2122383927056,1202.2592045777951,-467.02576080788293,-255.40247150042896,852.3292605174905,9.264294179001812,154.1787515312536
0.055,-0.616736643406364,0.5563636681746464,-1.190039374242737,-0.3395574780208347,0.3055357513463157,0.0023893075178758,-0.0060915336575195,0.0010213986967094,-0.9968638935943704,-0.0789321602373863,-0.0858667961181137,-0.0828703965657935,11.37071288680172,-0.1859174064110896,-0.1682758647848517,0.911433354610006,3.6672319654841288,4.9506555508155,0.2854653772732161,1223.2558395421604,1188.9464536614528,1206.0247636926947,1202.4856440130138,-475.2386331012981,-134.0324404549391,643.6881029442242,183.0797059747054,154.17709703000756
0.0575,-0.4680939574727764,0.4292741667446152,-1.0675837846758847,-0.3407778066972882,0.3069551916296937,0.0003148467778007,-0.0056916646010342,0.001424553632127,-0.996867937879308,-0.0789207011405523,-0.082730198780376,-0.0818884228140624,11.358700528862665,-0.1873766925855128,-0.1691524247119736,0.9152803540272358,3.6677972178632112,4.9510031855162495,0.2877526397034058,1221.991611363039,1188.7721850971973,1207.430678907427,1203.1746031076686,-603.2886211074132,6.12438778698561,507.4471510962669,404.0859132120206,154.175361114286
0.0599999999999999,-0.2697283397684189,0.2417641956592451,-0.8802130403389372,-0.3429690528429373,0.30856745167863,-0.0015334251215296,-0.00529386153855,0.001829685687905,-0.9968715809241668,-0.0789112142735929,-0.0787405387652949,-0.0803160562301736,11.344361560268185,-0.1887843211578744,-0.1699870118530707,0.9190720488064696,3.6683685829191006,4.951349441719089,0.2900519884257071,1220.239396436623,1188.9770756003877,1208.5619994481763,1204.506073579074,-682.9273083030333,126.93525504450923,324.91237392591773,548.138199117466,154.17319567733043
0.0625,-0.0752578965812078,0.0535947804183161,-0.7014823345030229,-0.3448200548384026,0.3095820324796546,-0.0028884836382935,-0.0048960091664578,0.00223891792441,-0.9968745553834428,-0.0789054476031316,-0.0740613448904315,-0.0783101324174999,11.327832019729684,-0.1901371492887717,-0.1707829432219585,0.9227958416414612,3.668943937822174,4.951692414739296,0.2923623252423533,1218.576974821524,1189.4068613724198,1209.0552407770565,1205.915294103256,-694.5848622548505,183.04068841894127,122.66912849486276,574.8394897855628,154.17133048414166
0.065,0.1446286161860652,-0.1610413815155113,-0.5012426295652123,-0.3454124728209529,0.3100432901950538,-0.004276125712647,-0.0044984125261327,0.0026529552037215,-0.996876568840758,-0.078904230349693,-0.0688169635808271,-0.0759971561366706,11.30928010301813,-0.1914303898055872,-0.1715420871176503,0.9264423040658976,3.6695200620675927,4.9520308589779125,0.2946828302712515,1216.766472125349,1189.8922790424824,1209.1753450906504,1207.3802710280015,-729.0263340708855,163.91335672365116,6.951578868620339,547.861167323435,154.1694110562573
0.0675,0.368236721920878,-0.3847867996240378,-0.2805443935457631,-0.344564979039794,0.3099441759955723,-0.0055891432915423,-0.0040995103411993,0.0030717910971977,-0.996877432400357,-0.0789057098167605,-0.0631837839141823,-0.0734929119364287,11.288900506970252,-0.1926661547324123,-0.172265528877631,0.930003319489736,3.670094168827768,4.952364946321515,0.2970125327699703,1214.9318431511695,1190.226428156038,1209.0899986713996,1208.6545999398732,-707.2577634655764,53.80005387501109,-59.89766237744329,411.70663483494496,154.1674526138974
0.07,0.5720257995756122,-0.5953579366285257,-0.0344057101775325,-0.3424849065661253,0.3090529814939878,-0.0064822646197184,-0.0036997470445802,0.0034937421244061,-0.996877039115992,-0.078907374690351,-0.0573000344520658,-0.0708715820327038,11.266910541691043,-0.1938455655904433,-0.1729513415753592,0.9334739253979478,3.670665505235105,4.95269654641938,0.2993501960567312,1213.2301833080212,1190.1612793118575,1208.8758567787631,1209.4388042021765,-674.1682043226332,-157.21918528111047,-107.3812889000694,192.9431079979171,154.16545366428525
0.0724999999999999,0.7748764370299293,-0.7938802427710581,0.2824467124530979,-0.3393294379282556,0.3069565424192347,-0.0065950241213893,-0.0032997675262151,0.003915034992217,-0.9968758365656551,-0.0789072640332305,-0.051303094759424,-0.0681575496914203,11.243544307133503,-0.1949712475197517,-0.1735939709488765,0.93685155580062,3.671233791178592,4.953027516260264,0.30169529655064,1211.5610021295563,1189.4403322296323,1208.5530922268993,1209.6193154798627,-523.0243894914121,-378.5316359940687,-132.32926280575182,-59.92857358928642,154.16301569858734
0.0749999999999999,0.909201350322551,-0.8842074312821832,0.5520527588574025,-0.3365379534465002,0.3044040401435275,-0.0057542297939931,-0.0029024336996444,0.0043270415608304,-0.9968742599614264,-0.0789046326258438,-0.0452853456201336,-0.0652581500532477,11.219047674480043,-0.1960431143482382,-0.1741787359721612,0.9401375169581254,3.671799628503469,4.95335877102882,0.304048369286312,1210.615061360564,1188.2686211318871,1208.2142104647346,1209.13916133423,-267.0736923860202,-572.5745287857076,-171.29511824946334,-289.03327604607483,154.1609563190247
0.0774999999999999,1.0227243610534302,-0.8661684769581901,0.808394470620307,-0.334119490036133,0.3013771643455713,-0.0042563818266698,-0.0025067214536231,0.0047244367132072,-0.996872746501828,-0.078897349541041,-0.0394127741614632,-0.0621548185317414,11.193671551189333,-0.1970689105038978,-0.1746968671191894,0.9433316629831616,3.672365189646864,4.953690829983698,0.306410293911605,1210.225633667626,1186.577459585704,1207.696616635652,1208.1741490996324,-43.540171919312314,-825.2078044371038,-305.83571781444306,-471.75747330998047,154.1588733437142
0.08,1.1619406299976418,-0.6996762827488522,1.0755539035976187,-0.3318218450032736,0.2977049884830169,-0.0017808343248807,-0.0021098010546669,0.0051056363264455,-0.996871374764858,-0.0788865756273584,-0.0338745527551518,-0.0589077865053338,11.167667390026335,-0.1980583687857518,-0.1751481665359322,0.9464329595004414,3.6729319740457296,4.954022956922245,0.3087807610284613,1210.3973605009676,1184.1425821097016,1206.6850318756624,1206.78037396768,151.29887111247612,-924.2617316274835,-460.2772652933705,-502.0949735054724,154.156351649668
0.0825,1.2960326724025684,-0.4407007411482027,1.2436731353679202,-0.3301110426434026,0.2949230244458929,0.001150137342033,-0.0017063530995654,0.0054724748561078,-0.9968702476167176,-0.0788721578233092,-0.0288957908243441,-0.0556460795001797,11.141282233231756,-0.199026067119912,-0.1755389719602391,0.9494392590157188,3.6734997030250622,4.954354231617949,0.3111598404262704,1210.9821280231884,1181.9561509275663,1205.395230309185,1205.6636742321048,284.26513636345567,-862.7097421137923,-622.9076174136475,-396.48262494442827,154.15423499081905
0.085,1.4516313550790418,-0.0787834170671134,1.3303372177682076,-0.3279913339132172,0.2930663976190774,0.005097210360832,-0.0012940875806001,0.0058292485085689,-0.996869181734209,-0.0788567502083755,-0.0246151956591331,-0.0525353259219059,11.114755085694044,-0.1999797569443295,-0.1758813849763891,0.9523499381604504,3.67406716740654,4.95468330892747,0.3135477664696428,1211.8186861827849,1179.8290333991326,1203.570493788594,1204.797960842958,364.16324417004904,-875.2853028611289,-917.9818053650243,-307.6496656245578,154.15210564233746
0.0875,1.6416225999683711,0.4215155876906132,1.322464796701368,-0.3242536318268551,0.2929826308695869,0.0104125842369118,-0.0008746958094818,0.0061784202651045,-0.996867932672434,-0.078843354103443,-0.0210711671680693,-0.0496787428831083,11.088312353368552,-0.2009199140860667,-0.1761839679641472,0.9551677872026572,3.67463349429778,4.9550098125942075,0.315944348201353,1212.8029442440388,1177.5797244132607,1200.80532128236,1204.1254259039822,314.82287279736795,-746.0238076101192,-1088.8850539968664,-194.6618511688943,154.14953856005425
0.0899999999999999,1.7746935024586747,0.8426155590224332,1.2247062140523672,-0.3198819745903447,0.2950792529968704,0.0144914562390779,-0.000453575888343,0.0065207811600906,-0.9968662023584524,-0.0788354560881472,-0.0182081585442515,-0.0471210374575056,11.062163565153092,-0.2018399560869408,-0.1764519078700128,0.9578989935405594,3.6751983865575255,4.955335214990385,0.3183489333698476,1213.3928005467717,1176.098914361082,1198.1260685186098,1203.8246515871135,154.6986799967729,-486.459497625493,-1115.253075328794,-91.70212934968748,154.1473909428987
0.0924999999999999,1.8460744316964903,1.2089641098156243,1.0537999115970336,-0.3146002720789785,0.2988839155116931,0.0174474883169167,-3.4313184063702426e-05,0.0068548465759097,-0.9968637069650058,-0.0788364313561033,-0.0160000594418951,-0.0448447423098234,11.036496843150664,-0.2027368102657304,-0.1766862714591486,0.9605510698525072,3.675761563337424,4.955660639992044,0.3207605409286919,1213.5764376440227,1175.1474269251335,1195.229055905716,1203.6669152572335,0.3305050733160894,-282.84047304605315,-1169.355423112164,-59.952394522315394,154.14523579042452
0.095,1.847304641079296,1.4975576203973695,0.8468373104098582,-0.3092667899065106,0.3032680016955885,0.0193998433683262,0.0003812444560634,0.0071813334301298,-0.9968604467598076,-0.07884586833952,-0.0144400192779886,-0.0428682937537219,11.011476329573554,-0.2036111287013677,-0.1768910749812913,0.9631314236094976,3.6763235635074394,4.955985511374447,0.323176959259303,1213.3944530721383,1174.6847119958516,1192.279291403049,1203.524889614502,-145.60762082414823,-65.70726859649761,-1168.9938996767512,-69.37590072034249,154.14307486977114
0.0975,1.755080826909738,1.6720366048370023,0.6255412556487371,-0.3043703669008642,0.307791715801601,0.0203874242261476,0.0007934977298993,0.0075004824897396,-0.9968566199609208,-0.078860940077597,-0.0135568887904792,-0.0411883691858813,10.987239946842326,-0.2044680018898895,-0.1770688978266689,0.9656477395632495,3.6768851641654976,4.956308353773768,0.3255964460303054,1212.848399539902,1174.8188905821507,1189.3840864073322,1203.320035753632,-288.316803271118,185.83116800659792,-1242.669876611261,-109.04211638999176,154.14090749813056
0.1,1.5394534627640972,1.7412150386187548,0.3699029790243774,-0.2993256923892418,0.3132563277149192,0.0208786810021515,0.0012027487405473,0.0078117798602911,-0.996852274285382,-0.0788808636067114,-0.0133659824402135,-0.0397711505068972,10.963898509688503,-0.205310872577333,-0.1772217795470746,0.9681085810124485,3.6774474753881106,4.956627920657529,0.3280179687856694,1211.9528690557827,1175.6138678358848,1186.0659420199927,1202.979679032552,-341.05105483176857,380.47975048107185,-1183.320901491378,-133.5432426343685,154.1383000942106
0.1025,1.2806828752701929,1.6843632087570164,0.173722964625819,-0.2958861164831622,0.3175824903292591,0.0209781488383687,0.0016070815963311,0.0081161640275188,-0.996847496078386,-0.0789043333488844,-0.0138200607569633,-0.0385974548819589,10.941535867696082,-0.2061380071955054,-0.1773539278319028,0.9705229730317856,3.6780115097628623,4.956944333155666,0.3304426541276199,1211.143144265743,1176.7212893345563,1183.467481899875,1202.6523195404602,-313.9065134057097,506.5959033589944,-997.8819120924093,-126.64145402159215,154.13612265621316
0.1049999999999999,0.952446948808834,1.5172916077987675,-0.0060069117610711,-0.292912615989998,0.3216735317632131,0.0209648935782679,0.0020026020365335,0.0084141095534446,-0.996842220085138,-0.0789320743083682,-0.0148204746464635,-0.0376227717528743,10.920209419106518,-0.2069425434713941,-0.1774688840648072,0.972900311228069,3.678577836273384,4.957258352345713,0.3328727641547029,1210.383336488754,1178.1468473526795,1181.0765324595307,1202.346471762444,-312.9709749226555,657.7541361525176,-991.3816381044415,-117.7145502995702,154.13394172754735
0.1074999999999999,0.4972511314518156,1.2050947202777256,-0.2118750220959093,-0.2896846701400817,0.3268597444437373,0.0208977821666034,0.0023910158917726,0.0087088135543911,-0.9968367204631234,-0.0789601253406446,-0.0163766434028031,-0.0368604119663577,10.899950667550216,-0.2077292972138558,-0.1775739179774152,0.975245655964986,3.679145256305505,4.957570690220626,0.3353097229387524,1209.5782893911298,1180.010060015319,1178.5105737093531,1202.0637467889624,-280.6200497501775,673.1759991039776,-874.7092010959925,-87.70759436747532,154.13132240324344
0.11,0.089902317372964,0.872850993185998,-0.381877778792778,-0.2878404127066632,0.3309151215905579,0.0207485780095184,0.0027731619549055,0.009004355258513,-0.9968310882656344,-0.0789868008573503,-0.0184707454613178,-0.0363327796632464,10.88076830492533,-0.2085004369292933,-0.1776783377082963,0.9775630195757689,3.67971274977322,4.957881694434005,0.3377528536092619,1208.9802362400033,1181.5127273481996,1176.7029864540507,1201.9079337906066,-236.84412060479167,549.5361014934128,-626.8877491206689,-51.252212515191744,154.1291393528774
0.1125,-0.3018701468185045,0.5124385715301712,-0.5518531026758678,-0.287862200823652,0.3331320944615174,0.020322862402782,0.0031461707679565,0.0093032373541142,-0.9968254176750444,-0.0790106706721178,-0.0210013992361034,-0.036015049752391,10.862651279925055,-0.2092510752131656,-0.1777874477224156,0.9798574207567234,3.6802799590057607,4.958191936861699,0.3402023264695603,1208.3940687881059,1182.757740522786,1175.3761349637496,1201.8074857263864,-276.3110949035306,451.80556662453415,-432.71619818742647,-39.75893356232515,154.12695815342755
0.115,-0.6880689313316924,0.123429962798214,-0.7444965195113157,-0.2902489473592561,0.3329205745094787,0.0191673764402639,0.0035086111391492,0.0096084331902671,-0.9968195553759164,-0.0790333086477474,-0.0238938917538447,-0.0358913524445392,10.845571239918527,-0.2099780273482279,-0.1779084947285529,0.9821319339960592,3.6808470638115183,4.958501049397441,0.3426585347122927,1207.5986807654856,1183.7717551813223,1174.5394054631136,1201.709139122795,-322.76357741102373,278.5893416472388,-152.0555532368688,-32.12346684317705,154.12434553492787
0.1175,-0.8955627619056598,-0.1114381498391445,-0.8782251948982239,-0.2935066426277305,0.3309028842917067,0.0174083796965808,0.0038642909340487,0.0099230145206741,-0.996813308616591,-0.0790565435945431,-0.027182897591668,-0.0359553789616852,10.829485103832983,-0.2106882764274943,-0.1780494483598135,0.984386125857109,3.6814138008437616,4.958808136474197,0.3451213909415873,1206.7802509010507,1184.150687231022,1174.6158571975654,1201.6468683921703,-373.4189595223604,57.263724001814,214.26941232111895,-6.334684407374891,154.12217411283788
0.1199999999999999,-0.9496862361141232,-0.215438563200391,-0.9572152744542344,-0.2969009106588891,0.3280129677911956,0.0146322105865656,0.0042217640409315,0.0102493317192198,-0.9968067793181722,-0.0790783363276652,-0.0310021292926111,-0.0361939985655895,10.814338250290893,-0.2113996016354658,-0.1782155689849873,0.9866165751087708,3.6819792442702752,4.959112282587092,0.3475911406396871,1205.7315859678736,1184.0580738013311,1175.6107525247191,1201.677465700758,-460.8921067824676,-102.63410016650616,550.1994855419081,48.77291822363087,154.12001024137115
0.1224999999999999,-0.8667688248264835,-0.2104232629994571,-0.9727463190224828,-0.2999106000280977,0.3251661209950533,0.0111341931295353,0.0045848139424769,0.0105877016786788,-0.9968003445813222,-0.0790936321795579,-0.0353819413040511,-0.036545636835047,10.80006925842235,-0.2121217107506342,-0.1784055333039947,0.9888216449087804,3.6825431054921975,4.959413265346512,0.3500682180954273,1204.4757903671384,1183.6375167301896,1177.3668546252748,1201.8907329832887,-546.2271682828937,-226.8085503551445,856.1708489065486,159.44950019197663,154.1178534166696
0.125,-0.6217930282431521,-0.1096000218991805,-0.9032759196767978,-0.3022424015242425,0.3234763952784835,0.0075233690632233,0.0049569349557412,0.0109355711862654,-0.9967944541092492,-0.0790968201181519,-0.0403491749045496,-0.0368931964682698,10.7866120058705,-0.2128641627561297,-0.178611173703121,0.9909999163438296,3.683106527428124,4.959711565453674,0.3525538659760413,1203.000450126459,1182.9240310495557,1179.891606769252,1202.474713201718,-682.1866559835593,-357.78093904759737,1211.541018075194,370.1259775197282,154.115705576991
0.1275,-0.1576797679533065,0.0422132828620057,-0.7358209001283021,-0.3041510673796509,0.323867558829521,0.0043777617165891,0.0053436497456343,0.0112886259441578,-0.9967892464535636,-0.0790863314551449,-0.0459770247109252,-0.0370952929687596,10.773897756316924,-0.2136391561005576,-0.1788216689738051,0.9931490566846936,3.683670538772194,4.9600081411504835,0.3550484686189548,1201.0648570872206,1181.8486120349517,1183.4245597156507,1203.741362870887,-721.2554126882416,-418.0786177674232,1303.1330355756368,559.2220319422718,154.11313860917502
0.13,0.3499884448320179,0.1298881192701882,-0.5507891496474084,-0.3049041366927187,0.3259041423949378,0.0031769375227303,0.0057485307244037,0.0116395339505259,-0.996784564071412,-0.0790648700843933,-0.0523022149712576,-0.0369550905959617,10.761857892204372,-0.2144538337143456,-0.179020424010057,0.9952684046583942,3.684235527374775,4.960304235331757,0.3575502789030396,1199.394173063018,1180.8336379607183,1186.40727194713,1205.2708233614292,-663.7022634497038,-420.20911522467907,1104.6892202512015,680.2703331156403,154.11100779976795
0.1325,0.9455587658972846,0.1193711322503753,-0.3503704648803028,-0.304261527510501,0.328510192370474,0.003003153564724,0.0061727385322755,0.0119849496184887,-0.9967800545456068,-0.0790372015438392,-0.0593031737974972,-0.0363717488114617,10.75042614266492,-0.2153090630180682,-0.1791980635107014,0.997357234334912,3.684800924241789,4.960601410795928,0.3600578194926949,1197.746345769972,1179.7475664588283,1188.9480058169067,1207.1427145364655,-709.475398497397,-483.7397162832072,922.7156298380115,835.8741633367565,154.1088847228367
0.135,1.6989151165197962,-0.0303736950246508,-0.1161351656754242,-0.3010319601005344,0.3311198258471187,0.0032263928212032,0.0066147514110148,0.0123184461148685,-0.996775583502638,-0.0790060384837327,-0.0669053742332464,-0.0351890804838232,10.739539402134787,-0.2162014331689482,-0.1793369449270024,0.9994172856967783,3.6853670877140288,4.960900666648176,0.3625712486463458,1195.8467960705311,1178.4149393793025,1191.02085009632,1209.4501941781132,-682.7139631696804,-482.878524098805,555.716236887883,797.9214197383945,154.10634439096708
0.1375,2.303242238608717,-0.2560006604400728,0.0676832915204564,-0.2960551381137269,0.3321598367366726,0.0035275778199948,0.0070706782436224,0.0126342911987783,-0.9967711950364496,-0.0789719884470932,-0.0749816555442743,-0.0332779307509363,10.72913876348072,-0.217123292120949,-0.179419152148239,1.0014514172387872,3.6859345183504786,4.96120236820308,0.3650911670092115,1194.3327759541237,1177.3331738383342,1191.7265870013464,1211.1323216351575,-594.4951134277284,-407.1364181742407,58.84087199906384,558.871917258602,154.10423236945363
0.14,2.815528024724681,-0.542016317528515,0.2416948315645804,-0.2888377607402933,0.3312817488807848,0.0037435018362835,0.0075318074111101,0.0129303841789631,-0.99676700041273,-0.0789347149966283,-0.0832950878108063,-0.0305948896799171,10.719171005358728,-0.2180570112166244,-0.1794330986715222,1.0034638392614457,3.6865033751588094,4.9615048241332795,0.3676180914325438,1192.8743205033925,1176.3792572884313,1191.3150544563155,1212.244553764406,-627.8926279857836,-359.31360655376886,-408.5608469294581,307.0706488248558,154.10212433203395
0.1425,3.259542251913739,-0.888659957943966,0.4437051040877416,-0.2783579777418659,0.3280883027700969,0.0041281600091508,0.0079921281833281,0.013207850297831,-0.996763007338592,-0.0788944908656471,-0.0916607262456027,-0.0271855370133689,10.709586813426313,-0.2189896922013836,-0.1793751178513807,1.0054569031183451,3.6870731332510864,4.961806607322818,0.3701520398912594,1191.1933128141948,1175.5366058055652,1189.683782766699,1212.6676748792815,-593.6743135087936,-235.15680181512943,-745.5365497462515,-11.62717548622828,154.0995985001096
0.1449999999999999,3.458240430353076,-1.1381575426323995,0.6048959221873064,-0.2689768910160776,0.3242216314958742,0.0049976720528515,0.0084525938117157,0.0134706418149882,-0.996759114692976,-0.0788518969533215,-0.1000362397892954,-0.0231813894211116,10.700339168184684,-0.2199221393319829,-0.179249580679044,1.0074293956430236,3.68764365058176,4.962106805230727,0.3726932533403536,1189.9059489358483,1175.2034732793556,1187.5873717075842,1212.186417886975,-462.0071516155825,-35.28298929281861,-932.6577455596675,-354.6145064906812,154.0974965866845
0.1474999999999999,3.46843994008648,-1.3170156241294952,0.749604981276276,-0.2598028492951395,0.3199015541718626,0.0065863132830876,0.0089115977970803,0.0137236699825816,-0.9967551564322398,-0.0788085018331187,-0.1083210269450077,-0.018741955811971,10.691385739995928,-0.2208500215351538,-0.1790641618620269,1.0093817439761454,3.6882142005636576,4.962404332374319,0.3752405035766773,1188.8832770561169,1175.3601908591013,1185.0204940389008,1210.8946023468284,-334.96595642627625,150.65175887611971,-1063.3006614109026,-622.7379798380292,154.09539787770808
0.1499999999999999,3.3290331574138174,-1.43304676212018,0.8710930786251687,-0.2510882144942403,0.3156120145176067,0.0084590330779633,0.0093671008598076,0.0139698652218653,-0.996751020128033,-0.0787656280647977,-0.1164055643422367,-0.0139931897789046,10.682687857017386,-0.2217691228063191,-0.1788237117060319,1.011316120173462,3.688784345034884,4.962698768887001,0.3777919142282089,1188.2311191537171,1175.9567320737362,1182.2708684005297,1209.072727987785,-136.4887770997028,338.7372104207313,-1103.7095909505288,-803.3496696656122,154.09330225685454
0.1524999999999999,3.028710011893829,-1.4862883655271335,0.9521605941683756,-0.2431643536059547,0.3118156023278869,0.0104569236966687,0.0098148239190469,0.0142154055692709,-0.9967466158447574,-0.0787240405090488,-0.1241234635197823,-0.0091334005958127,10.674211779753197,-0.2226709718502307,-0.1785402670037235,1.013235534025778,3.689353241914751,4.962989848690899,0.3803456109876167,1188.2008331706184,1177.0538769112047,1179.501946084148,1206.8778539985003,157.43110218695605,572.1873664585469,-1185.0162380916106,-970.4379952650916,154.09121127958943
0.1549999999999999,2.5162601583937385,-1.5063317994456147,0.9843450794095702,-0.2350917485710616,0.3081265637131115,0.0134271285782958,0.0102504041231233,0.0144643099492559,-0.9967419450201854,-0.0786837752448225,-0.1313061203804243,-0.0043190565706453,10.66592764459008,-0.2235480531896885,-0.17822220749533,1.0151442284813568,3.689920097779337,4.963277363637523,0.3829003090678272,1189.018274664652,1178.8176689060288,1176.3457872100716,1204.2205380114594,440.8078473109068,689.9710546756518,-1109.944048329452,-918.4403744747207,154.0887091473066
0.1575,1.9904977306742515,-1.5060774381593995,0.9433002157045192,-0.2298477987482576,0.3054479427339669,0.0164070208587568,0.0106701401583072,0.0147164037365632,-0.9967371506412124,-0.0786437721256624,-0.1378017035349763,0.0003795478098669,10.65780931956854,-0.2243956053753566,-0.1778697949325136,1.0170474121674935,3.6904844217628936,4.963561584564481,0.3854566115202354,1190.404872407173,1180.5037321845832,1173.9522258425009,1202.2856521261267,672.291208136175,671.8521219155258,-889.8696866279342,-655.8378063114553,154.0866313434437
0.16,1.3947785529724432,-1.4996856982876139,0.822501599227662,-0.2260633814865806,0.3025843422686242,0.0193763277050139,0.0110695113400109,0.01496774503008,-0.9967321433833928,-0.078606696805336,-0.1434455643757767,0.0049726402673302,10.64983577034477,-0.2252067203469097,-0.1774775822020314,1.0189511949281087,3.691046215819696,4.9638432806865564,0.3880163319591281,1192.3797307053328,1182.1769295156066,1171.896438776932,1200.941348979902,945.0418806085955,673.8910574445066,-806.4411105557149,-412.0383222119013,154.0845629193498
0.1625,0.6327332041066482,-1.4811884034353415,0.5907367291687048,-0.22309950822598,0.2986673245170241,0.0224759496253578,0.0114451546250197,0.0152151663002617,-0.996726723764904,-0.0785762626821773,-0.1480946133642055,0.0094534728897069,10.64199227948636,-0.225976194462523,-0.1770426207324153,1.020859772273357,3.691605592467416,4.96412223383713,0.3905814243040402,1195.1300818102159,1183.8731874718055,1169.9200202897223,1200.2254605150672,1020.7658995439932,530.6664716954851,-628.347330242604,-104.1816530392224,154.08209380264384
0.165,-0.0180389166249524,-1.4469497795173207,0.3415467938801018,-0.2220631697860108,0.2949242091686161,0.0243958164845673,0.0117999251538905,0.0154592783112688,-0.9967205658933336,-0.0785560972144605,-0.1517305968895965,0.0137282186565274,10.634270490251348,-0.2267104633005286,-0.1765708170200062,1.0227718811931394,3.692163136260808,4.9643976915786086,0.3931523122151255,1197.4835602030528,1184.830261874084,1168.7547021257187,1200.420440714706,897.8400355812929,254.25718645774367,-351.023568612936,226.5631044510426,154.0800486495458
0.1675,-0.6546095035163079,-1.3812461001593452,0.0674071166031134,-0.2224785399919203,0.2907818090102456,0.0251105624454597,0.012137938969969,0.0156996210578011,-0.9967133941665172,-0.0785491202236269,-0.1543644957671371,0.0177289264208124,10.62667129727175,-0.2274183147367509,-0.1760659100440426,1.024684713034366,3.6927192044152153,4.964669159153477,0.395728693701347,1199.6192819881223,1185.1444734040945,1168.1649024466576,1201.3582760373224,842.6862025387427,-22.44655290869557,-117.92250474936726,539.8404609028144,154.07801841128375
0.17,-1.359471172320552,-1.2629953556929214,-0.2412414040878894,-0.2249605524006026,0.286118698426958,0.0241672433157327,0.0124640521112427,0.0159362934046736,-0.9967050410579048,-0.0785565148725027,-0.1560247125915901,0.0213811367141297,10.619207046604336,-0.2281097222729435,-0.1755320819116593,1.0265937155276383,3.693273694222,4.964936748414026,0.3983115001529656,1201.6969912157465,1184.7180291095403,1168.165089601972,1203.11964301922,662.8061025674464,-275.84397213859097,113.74407747275644,708.6555224397664,154.07560178441273
0.1725,-1.8608556050578693,-1.1401312303355895,-0.4479825010517424,-0.2289880798104435,0.2830820406103657,0.0220035418266204,0.012788153353292,0.016174988467214,-0.996695418646844,-0.0785763679040783,-0.1568416537963732,0.0244912748515565,10.611902200619252,-0.2288041104625246,-0.1749842052177498,1.0284890881680888,3.693826501957113,4.965201198374217,0.4009022978739232,1202.9333125009596,1183.7652535434015,1168.7336228340212,1204.9015536495212,386.9553114945571,-459.6852994424804,324.7700969896866,723.5562036899402,154.0736061462239
0.175,-2.2280943224900303,-1.009704820668783,-0.5786984248652169,-0.2346826218561658,0.2809967626088206,0.01899289339108,0.0131161676563887,0.0164193591617302,-0.9966845505305052,-0.0786062328706208,-0.1568744438439907,0.0269234898557446,10.60479664869157,-0.2295121846436631,-0.1744318118555876,1.0303628401517004,3.694377965812372,4.965462922551295,0.4035022742872847,1203.6317677732193,1182.419602612328,1169.7889400869203,1206.7374240376698,195.8009903094544,-552.8355555939496,477.50970135657775,707.0191210423706,154.07163166684876
0.1774999999999999,-2.45644217699692,-0.8848208480466924,-0.6480316659563633,-0.2412024357448708,0.2794073956416285,0.0161599964781941,0.0134503851420425,0.0166749460774641,-0.9966724886892376,-0.0786433615066553,-0.1561152479812815,0.0285161881863275,10.597946655956799,-0.2302356369966699,-0.1738872820623666,1.0322079235803114,3.694927720273604,4.965722040055505,0.406110283930854,1203.9123174525068,1181.0010757654316,1171.1211713408043,1208.436649254733,25.093996511623235,-515.1450222824702,564.2656302896311,613.5887319298973,154.06967633550732
0.1799999999999999,-2.4968027060739244,-0.772452294157561,-0.6686793929179494,-0.2481959368004424,0.2779306869331235,0.0147403021542575,0.0137959474966641,0.0169460099422601,-0.996659403343813,-0.0786832011195405,-0.1546343535266418,0.0291387524531884,10.591420937684264,-0.2309812921365097,-0.1733596980506396,1.034016594619108,3.6954753622705745,4.965978492129443,0.4087243423063644,1203.7572377557772,1179.8438775009158,1172.6102682383687,1209.8053676973193,-145.87376368140198,-366.2228636755568,651.0520271204763,498.7884928907529,154.067745777431
0.1824999999999999,-2.3211114867599254,-0.6486258477708347,-0.6797818091662076,-0.2563630488049197,0.275771852039355,0.0146160946562577,0.0141553488337209,0.0172364512559624,-0.9966455510266355,-0.0787206198555832,-0.1524663260460412,0.0286810905102209,10.58530192058622,-0.2317490078339657,-0.1728564318865676,1.0357831141065652,3.696022128895856,4.9662325294921565,0.4113445430974835,1203.1829486340998,1179.169961447054,1174.3764314764067,1210.9305917191869,-255.5127896120664,-85.24009172174367,623.7307872467221,318.4244378046512,154.06545957541155
0.1849999999999999,-1.9977190361896149,-0.5495037874906414,-0.6968155682385861,-0.2624827551955358,0.2735255362193789,0.0147340114718847,0.0145338190150952,0.0175451928418198,-0.996630888934026,-0.0787549729659215,-0.1497370824977158,0.0271414942124939,10.579680451843949,-0.2325418735381621,-0.1723766921547983,1.037502715968269,3.696571082299392,4.966485395944553,0.4139709613285524,1202.479673807717,1179.417677042307,1175.7289221746023,1211.3974898863423,-302.4115930934383,286.88836222181607,505.23601370000466,94.55079427930275,154.0635808871408
0.1875,-1.5185716591336516,-0.4562688995175421,-0.7172886073404791,-0.2676235936840154,0.2712146802922578,0.0139290529085983,0.0149351264676463,0.0178642091879343,-0.9966155594175166,-0.0787853454962523,-0.1465778969497291,0.0246762440556535,10.574654755711132,-0.2333595314690559,-0.1719048356094092,1.0391744194131576,3.6971251133820737,4.96673683248994,0.4166028316088239,1201.6708906686326,1180.604403258163,1176.9026115449067,1211.4033456905831,-352.09655775738577,719.8174128439853,478.57748824180777,-77.55615064934312,154.06173070604626
0.19,-0.8160438156820039,-0.3733598894500474,-0.7128999361209157,-0.272024768938998,0.2693760699522395,0.0114528825620102,0.0153528554415579,0.0181844680393546,-0.9965997116046748,-0.0788132514785144,-0.1429343507479771,0.0214888004909294,10.570332279205424,-0.2341787628020177,-0.1714228102681172,1.0408035982092516,3.6976859988203454,4.966986375107576,0.4192389687124437,1200.71919101893,1183.016764106527,1178.1218096158111,1211.0097091330958,-329.4624242815186,1011.2684497275486,426.7388083465444,-179.7961268060588,154.0595442888073
0.1925,-0.1757058911045854,-0.3564378990423207,-0.6573624160265537,-0.2734810451797614,0.2690208189850906,0.0085124534637817,0.0157784524890657,0.0184994683588528,-0.996583755142961,-0.0788375111907429,-0.1387270383819486,0.0177434008299866,10.566823576475391,-0.2349719874429501,-0.1709169118830118,1.0423969880373702,3.6982537681933376,4.967233489732219,0.4218785723445546,1200.023578547225,1185.6607455068008,1179.0363055866394,1210.504365056553,-245.73775874837315,1125.6949832965336,364.2144565061696,-192.23270701991152,154.05775083676667
0.195,0.4515110518695497,-0.427410039045443,-0.528761856299789,-0.2723252499567678,0.2697074678683317,0.0057020285383798,0.0162049448200384,0.0188094301898341,-0.9965682135162232,-0.078854724254979,-0.1339213486565099,0.0134713478982007,10.564237710354536,-0.2357151975300029,-0.1703876978198446,1.0439594479918775,3.698826767226155,4.967477209968163,0.4245225949273013,1199.4905022251883,1188.6452390230097,1179.942881898342,1210.0485455979963,-191.33149732392647,1309.641399398605,420.3228113487962,-131.73250969880417,154.0559872516579
0.1975,1.1138339818371337,-0.6309732463897741,-0.2960155966223703,-0.2683608969268984,0.2706354713391247,0.0032147617531414,0.0166255904930498,0.0191161598228323,-0.99655374401655,-0.0788607352996471,-0.1285050236223022,0.0086820749037713,10.562677637205931,-0.2363865793890026,-0.1698399745959836,1.0454960724108424,3.6994024295098966,4.967715586432861,0.4271721966091011,1199.0669210606054,1192.2089525037939,1181.1379196433832,1209.845702508059,-118.96744361529262,1246.6058188605973,468.5710994169309,20.835190262368975,154.05390542618892
0.2,1.5510670281962855,-0.8859438503101951,-0.0585669274655863,-0.2634318747231938,0.2704777706404749,0.0021391804898524,0.0170327293032176,0.0194189668832564,-0.9965409883890514,-0.0788542151371104,-0.1224681800721301,0.0034512668867533,10.562235787941487,-0.2369644968453077,-0.1692756045761666,1.0470140081736747,3.6999773475885713,4.967947008629885,0.4298277960490765,1198.8956650071118,1194.8782681173127,1182.2857373954268,1210.152721549308,-32.6026349420317,948.9937426279075,496.8540738509996,255.17530797419545,154.05219906697138
0.2025,1.8493107506383355,-1.1832907801030437,0.1838011319443307,-0.2575402238065584,0.2684068037949353,0.0024377218098094,0.0174243511831578,0.0197163258080618,-0.9965301156344653,-0.0788388263979447,-0.1159345185764974,-0.0021249778388962,10.562988054958897,-0.2374407584244843,-0.1686985896856445,1.0485188323414592,3.7005495981895193,4.968170666352132,0.4324903505548914,1198.9039078858953,1196.9539212169332,1183.6221900126384,1211.12157904793,30.339571206332007,703.0743187428465,564.213695038779,509.6200879786916,154.0505217787581
0.205,2.0399437085329564,-1.4676932854517208,0.3965247352978978,-0.2515199669539391,0.2645084467051352,0.0039600756626332,0.0178005578732506,0.0200054081130309,-0.9965206014910938,-0.0788183606343934,-0.1090788925007028,-0.0079147477167267,10.564991544996465,-0.2378149007025175,-0.1681108083172127,1.0500167439565988,3.7011181033877327,4.9683866604723725,0.4351580018116122,1199.0473628631435,1198.3936397110267,1185.1068058706207,1212.7008219892016,83.82115418248752,407.654786048715,622.7875671799205,775.0113753395901,154.04886805653027
0.2075,2.134140420065469,-1.6811036711340583,0.5402803806898947,-0.2460294196200864,0.2588977702405294,0.0067363982267454,0.0181654918000205,0.0202850351232574,-0.996512033564498,-0.0787922366249105,-0.1021541687096907,-0.0138168810928563,10.56828108707648,-0.2380989288583788,-0.1675157674148458,1.0515129724342442,3.70168187298289,4.968596128486157,0.4378275859717852,1199.3230136568077,1198.9921951471767,1186.736127848538,1214.996635924628,138.8032081425997,74.9468969093872,739.0925128956529,1147.3955040098244,154.04724190556558
0.2099999999999999,2.1960064499537184,-1.8104479967322409,0.6154554110922758,-0.2402566200504837,0.2514820520653349,0.0105607317966381,0.0185206276929682,0.0205560124044719,-0.9965041106846761,-0.0787603368551959,-0.0953462040861379,-0.0197591405130417,10.572868468591645,-0.238301436010703,-0.166919736274626,1.05301495359003,3.7022397936387863,4.968801007158069,0.4404978753501216,1199.7413789038565,1198.7683741955739,1188.8022684350988,1218.4377995092507,154.971921308789,-219.41613509302545,767.1278583694436,1341.6689162115808,154.04532107114483
0.2124999999999999,2.249958152639046,-1.8070865874508808,0.6084572119374899,-0.2361140994874324,0.2457223748799826,0.0129455532976208,0.0188666438552596,0.0208177066721823,-0.9964966843502752,-0.0787225451053305,-0.088813354991868,-0.025631956453339,10.578738908121993,-0.238431727113581,-0.1663241490108131,1.0545320337917918,3.702790281382081,4.969002929833017,0.4431682361012874,1200.0978732633516,1197.8951144717118,1190.5717671403852,1221.7049805056859,125.84153597640568,-455.2259758342184,705.4334103391732,1336.8205114916225,154.04374469902163
0.2149999999999999,2.347393801481601,-1.7107234292941287,0.5655663063694565,-0.2324492489873014,0.2410310435544616,0.0135812667081268,0.0192035593964502,0.021069916092989,-0.9964896033292452,-0.0786798871254136,-0.0826824909797567,-0.0313312308800883,10.585849743414139,-0.2384987331119743,-0.165729793211386,1.0560742797428324,3.7033331247098262,4.969203549370273,0.4458375818213067,1200.3705865837385,1196.4922443164028,1192.3294354867949,1225.1219020667088,78.07385823934956,-685.218534219984,752.3077888553864,1465.1275848757437,154.04219204668405
0.2174999999999999,2.530829346337801,-1.5341112180559644,0.5163795867168858,-0.227764911711324,0.2365126863926331,0.0132537078652207,0.0195296179087587,0.0213139797543836,-0.9964828566232168,-0.0786324082630349,-0.0770191349148431,-0.036783512666647,10.594130316481836,-0.2385081866425923,-0.1651380004933084,1.0576520395964253,3.70386842969554,4.969404308732089,0.4485062429105855,1200.4882425545484,1194.469021800612,1194.333306084662,1229.0306184300644,-6.82298307465316,-753.6000328208496,700.95661062528,1344.118555707017,154.04035446490698
0.22,2.7247742114943527,-1.3728772794067527,0.4927162363594075,-0.2227829408091199,0.2334735522581735,0.0132605801039905,0.019840809998894,0.0215470379969037,-0.9964761726225284,-0.0785856130239365,-0.0718281673811145,-0.0418267959549197,10.603482111210017,-0.2384598469436796,-0.1645414186756647,1.0592770835346255,3.7043974608732584,4.969606378992116,0.4511754060152735,1200.3364716683652,1192.7242441522983,1195.8342185399213,1231.842494845244,-124.51282278971108,-655.6162476884759,545.1072338415083,968.4795513486723,154.03884330392162
0.2225,2.91801821529938,-1.2361412048632148,0.4821307455133392,-0.2159682975736407,0.2310924571888512,0.0141653507608843,0.0201350449630088,0.0217666072828644,-0.9964689745896244,-0.0785485793156095,-0.0671324031840229,-0.0463169014280262,10.613779645802524,-0.2383552996652748,-0.1639338508392465,1.06095852210093,3.704922753148395,4.969810330494243,0.4538477151876363,1199.8656784405998,1191.1909405621695,1197.0588422538697,1233.873016186808,-280.11838472480093,-570.7702083286217,455.0071312983615,658.2780709829416,154.03735191412352
0.225,3.086692937741777,-1.1335209567059816,0.4635712715762499,-0.2059126368012492,0.2287322820615701,0.0161311569851287,0.0204140585904692,0.0219749766251592,-0.9964607262234892,-0.0785277268885313,-0.0630029091560469,-0.0502271884423117,10.624872711044226,-0.2382025127744421,-0.1633177270989827,1.0627002353234483,3.705446475102282,4.9700158586133965,0.4565263303725116,1198.9358797447412,1189.8703931106554,1198.109254196413,1235.1338852001586,-388.1267711524739,-370.15054022003784,304.89215609959473,246.67761770656372,154.03558409763804
0.2275,3.1383051870841174,-1.112455975190522,0.4297353453279946,-0.1967459745033453,0.2268895884372819,0.0179684678365455,0.0206852923547038,0.0221727455885985,-0.9964510465284924,-0.0785265231724652,-0.0596111091200353,-0.0535175480169725,10.636588643796708,-0.238020916744181,-0.1626912206184087,1.0645018222835048,3.7059707631288576,4.970221457925833,0.4592125648652771,1197.9250445848375,1189.3401878610691,1198.5833030343676,1235.1064042753408,-423.12390197662313,-83.08393227580375,99.50236331824264,-231.07637804114327,154.03412861624827
0.23,3.079420651977719,-1.1600645924932855,0.3715745487942206,-0.1878358339245981,0.2249703311747414,0.0194077946515985,0.0209527002029871,0.0223594164603805,-0.9964399238742464,-0.0785449229795088,-0.0570348642286242,-0.0561331323331326,10.648738208218674,-0.2378221380800101,-0.162048363284814,1.0663633402541317,3.706496638579496,4.9704248931184845,0.4619074964986981,1196.820260234858,1189.4549734492764,1198.6067660130043,1233.9785033099529,-429.3862907149556,142.17861528240962,-65.58655691592315,-612.0919551756737,154.0326911688713
0.2325,2.9359663289035183,-1.255859100503576,0.2973799699309058,-0.1797616198429585,0.222882175877813,0.0204195197361069,0.0212141812821843,0.0225357497484206,-0.9964278070141404,-0.0785781873718406,-0.0552010237469521,-0.0580510203132049,10.661119773662673,-0.23760482856835,-0.1613835067630485,1.0682863947683938,3.7070240852057257,4.970624704613088,0.4646116501563437,1195.7781131312627,1190.0510809374814,1198.255370249788,1232.0459444994624,-369.86817508754893,321.5809015521697,-223.48758514772248,-924.7688125227331,154.03126863245083
0.235,2.7170984018388618,-1.3874963429931255,0.2141869521277677,-0.1731704998973182,0.2200641370407004,0.0209381129533625,0.0214670228513493,0.0227058911202207,-0.99641524499561,-0.0786194031547798,-0.0540002757913924,-0.0593344630107408,10.673521602149732,-0.2373657198461825,-0.1606979818884285,1.070271368445344,3.707551726568836,4.970820053954228,0.4673230890272644,1194.9709193594203,1191.0628779570372,1197.4893280872657,1229.3546592473392,-271.88558490088303,483.17040270376253,-410.42882162723765,-1293.6701881395936,154.02986429179836
0.2375,2.4077408247193985,-1.547955162540624,0.1181027173697036,-0.1668214893602706,0.2156205336670093,0.0210419748383638,0.0217099501996141,0.0228720618738196,-0.9964030955595417,-0.0786578047293667,-0.0533405722980048,-0.060023411310022,10.68572494298318,-0.2371058978555037,-0.1599882843371047,1.07231838277224,3.7080777129189393,4.9710117303425365,0.470040173003433,1194.4186852067583,1192.4669329510002,1196.2032261416518,1225.5775935587644,-123.91785144082009,501.6303879409885,-506.5935554651356,-1424.0034275549144,154.02820090856267
0.2399999999999999,2.1338476966863165,-1.654589199359808,0.0487128357897056,-0.1624058962056267,0.2113983698541025,0.0208581841822455,0.0219417609292943,0.0230355516715911,-0.9963920463078718,-0.078684929005646,-0.0531215909665166,-0.0601511129664353,10.697508132634704,-0.2368263550334568,-0.1592504949360248,1.0744278508015015,3.708600382681872,4.97120032713547,0.4727608377715594,1194.3513301022163,1193.571029896742,1194.95636030994,1222.2346421095647,51.31162484144649,382.4463833186673,-496.591276734946,-1313.8186794409708,154.02683406242335
0.2424999999999999,1.8549277886182451,-1.7037987306400777,-0.0064624307752017,-0.1584761778807993,0.2068505556399274,0.0206168597320044,0.0221657436599023,0.0231982551241841,-0.9963819844949579,-0.0787009147989032,-0.0533317612078702,-0.0597817000193266,10.708649383679344,-0.2365356299526128,-0.1584868792637259,1.0765977244088483,3.7091194267299694,4.971386231665882,0.4754848919131887,1194.6752433309655,1194.3791648675935,1193.7202697579771,1219.0085001615596,214.6942318719992,254.31133040251527,-498.6216047039302,-1321.8010613236845,154.02548930569398
0.2449999999999999,1.5089444018970355,-1.6727268027851159,-0.0596798823958672,-0.1538651770377687,0.2010754225301088,0.0203915085216748,0.0223857942280116,0.0233650668553106,-0.9963723980410704,-0.0787098357705239,-0.0539612680420028,-0.0590542266351356,10.718931772563748,-0.2362422868490488,-0.1577083619171724,1.078824525110236,3.7096354802044096,4.971570145936324,0.4782122518450764,1195.4248012615762,1194.8425865487548,1192.4632522864204,1215.6256368029462,316.1281225080526,78.00477871492141,-401.68136933320926,-1115.6999958324823,154.02390442518967
0.2474999999999999,1.2004941427142515,-1.5637461781445967,-0.0984681234135934,-0.1499772297207915,0.1963480116419313,0.0202833972222349,0.0226048012109263,0.0235371590523635,-0.9963630737428584,-0.0787133038222882,-0.0549773839930502,-0.0580360471165062,10.728147712129855,-0.2359541898888395,-0.1569170420032352,1.0811057133458843,3.7101485368581097,4.971752215308872,0.4809428287557657,1196.2558839435055,1194.769188761168,1191.711862911311,1213.4300001823972,352.9776824652796,-114.82581841346465,-231.11862207929315,-716.2249670646354,154.02261072312197
0.25,0.8623189111722059,-1.3727045031426497,-0.1379904964768178,-0.1463258911233646,0.1922082305427845,0.0202335044033615,0.0228236853866295,0.0237127852868683,-0.996354092440624,-0.078710596589476,-0.056304588484012,-0.0567363308919105,10.73610364088766,-0.2356760884324575,-0.1561078742633051,1.083439523107043,3.7106581174374935,4.971932658298908,0.483676376795417,1197.1896896739026,1194.2684574566874,1191.307659176024,1212.044511967623,416.95651727591166,-288.37640664410145,-109.34390466945833,-418.34766714973694,154.02134939622627
0.2525,0.4314613348958941,-1.0694006316425086,-0.1904864702558516,-0.1430016045752101,0.1879915905808327,0.0201622271404089,0.0230434839884974,0.02388652203888,-0.9963458103558008,-0.0786985282817102,-0.057872476318955,-0.0550914209033074,10.742624127647735,-0.2354140764238764,-0.1552673606790147,1.085823680743011,3.711162602766529,4.9721099899059364,0.4864129714809396,1198.3406665298853,1193.3273067279476,1191.1651433879636,1211.3382618466485,421.8568656040584,-370.500527982858,-11.787520084817505,-121.26230816184022,154.01987916634948
0.255,0.0757427617261319,-0.7789513783877936,-0.2375231027509312,-0.1416126786152205,0.1853774452213453,0.0200100963515522,0.0232653486065729,0.0240558131806392,-0.9963382847862584,-0.0786767649578092,-0.0596102047023936,-0.0531021460704183,10.747556747172016,-0.2351727644080623,-0.1543900242170695,1.0882531361768304,3.7116619810332794,4.972283344217209,0.4891538726710449,1199.2989740019227,1192.4159548167731,1191.2487215755998,1211.4382004268139,382.8934413217208,-348.729177614359,56.34836257472666,133.86130551875783,154.0186950506883
0.2575,-0.2310622315418506,-0.4859930867960124,-0.2811170545419577,-0.1418621384350212,0.184342785502735,0.0196421492657023,0.0234899206802766,0.0242190219673792,-0.9963315101502532,-0.0786456318818296,-0.0614379034169029,-0.0507900607650052,10.750776836250939,-0.2349544753631362,-0.1534730417575113,1.0907206126342106,3.712157325649773,4.972452946730326,0.4919023334728772,1200.255133736494,1191.5836608398758,1191.4468852008374,1212.0075683742423,381.760641919254,-290.5017408530054,91.27567479908969,260.7741311483094,154.01756002340807
0.26,-0.4581574323478426,-0.2184593647543951,-0.3128366371144122,-0.14342390694046,0.1846114394776535,0.0190073579327461,0.023718558363323,0.0243758811312689,-0.9963251476354892,-0.0786090356884978,-0.0632968074418548,-0.0482071805920403,10.752191474320442,-0.234760822817116,-0.1525185307788539,1.093215857496628,3.712649454018568,4.972618758311661,0.4946602845299797,1201.2077772115192,1190.963446112508,1191.7050999495953,1212.7420710825554,374.48434897005393,-174.09830467245214,122.67254374819449,284.3234515779384,154.01647063064675
0.2625,-0.5477657219099256,-0.0028884129783317,-0.316914201119383,-0.146257393835435,0.1858167509506233,0.0179940983697875,0.023952252720577,0.0245266301276423,-0.996318592142355,-0.0785742066951954,-0.0651303502896683,-0.0454144372883571,10.751743350706624,-0.2345904697073251,-0.1515312935088923,1.0957267578239227,3.713139624715416,4.97278128404287,0.4974292393429847,1202.127555481344,1190.7131693165136,1192.0602479195784,1213.429185632132,382.92904404152034,-22.51933547900078,199.04803176418665,250.0783264718391,154.0154421540078
0.265,-0.4670231474226224,0.193703936850957,-0.2749380222920065,-0.1501399531609445,0.1874922923323315,0.0164442823988629,0.0241929755219383,0.0246733666006334,-0.996311273474373,-0.0785470542744488,-0.0669108186299088,-0.0425128137019493,10.7494132307906,-0.2344430303970953,-0.1505200430688208,1.0982389406656274,3.7136288235810415,4.972940433025936,0.5002094499987685,1203.1224224317268,1190.850849435113,1192.700340108416,1213.9924627149146,335.68678830165453,102.59902322413828,288.13911230745333,153.91519839276938,154.01428590722847
0.2675,-0.2468648423558863,0.3226814029502809,-0.1959362466484798,-0.1525971149110564,0.1885376716419981,0.015174490760563,0.0244417496076047,0.0248179822331263,-0.9963030888335928,-0.0785278936408554,-0.0686011363496693,-0.0395957877890323,10.745221928854653,-0.2343164008747929,-0.1494908291915477,1.100738013706136,3.714116743895099,4.973094715965612,0.5030003757440106,1203.8059894228525,1191.2261644326343,1193.5009434811157,1214.1987616240958,236.963864255358,158.9372067071507,387.980563972496,38.51061819332241,154.01339270631607
0.27,0.0974256746714917,0.4489605778318174,-0.0759965058170096,-0.1531680664352825,0.1888904575360064,0.0143974283425972,0.0247000992577998,0.0249640890307364,-0.9962937205519322,-0.0785190472315752,-0.0701891939849304,-0.0367907436412255,10.739230236126966,-0.2342079600137908,-0.1484546932520513,1.1032089999477572,3.7146039481945134,4.973243336924013,0.5058007892659377,1204.3072417530036,1191.6455354686489,1194.6402429282787,1214.1850158058812,186.23495678416455,133.62919705555203,570.1715052855884,-32.31140144516755,154.0125788772481
0.2725,0.5933898028662687,0.6345985969552695,0.0976702301078864,-0.1516020298994714,0.1887613355237675,0.0143606390301295,0.0249703159861848,0.0251160456172488,-0.996283131569856,-0.0785187972605817,-0.0716927177441959,-0.0342393121709134,10.731537731430851,-0.2341170949418699,-0.1474228686995159,1.105637090627198,3.715090676755735,4.973386683832808,0.5086097921022457,1204.7371642067733,1191.894310417912,1196.3518010075436,1214.03720461687,144.6402166004189,11.362402520535387,659.7303761021061,-60.89856889311699,154.01170132859698
0.275,1.032155736612102,0.8308698900616979,0.2507385031974771,-0.1490877782770851,0.1889593931203075,0.0151119024121155,0.0252516033331464,0.0252789091037332,-0.9962715492865868,-0.0785228302516135,-0.0730782994723375,-0.0320892576702694,10.72228135840898,-0.2340366415777023,-0.1464064554955593,1.10800999887781,3.71557658701966,4.973525064078488,0.5114281683715463,1205.0304428360057,1191.7023474812515,1197.9388948087892,1213.8805229614156,127.90590592894648,-183.22356444978124,620.6926203105007,-62.560248517320304,154.01105782758654
0.2775,1.4550501534595415,1.0614705963116613,0.3953721068327409,-0.1461645741212229,0.1903646621102941,0.0162329057160319,0.0255408500861273,0.0254511302997677,-0.9962592833099196,-0.078528636223147,-0.0742931332631978,-0.0303387512465158,10.711630899764886,-0.2339551390794939,-0.1454019545621344,1.110319839228989,3.716061046698071,4.973658819327507,0.5142551580211608,1205.376693736418,1190.9781925956631,1199.455264109096,1213.7244033742832,188.50102537226104,-432.9750524614152,586.7065172250472,-74.58605040251305,154.01051155548845
0.28,1.9007784100388632,1.3426586158209923,0.5464596292659851,-0.1420659806427762,0.1939017468992812,0.0175549603287144,0.0258378542805822,0.0256262196635745,-0.9962468251374808,-0.078532067331253,-0.0753709831812773,-0.0288825367036102,10.699782875649529,-0.2338691901233735,-0.1443941102267947,1.1125605229411715,3.716543415837152,4.973788108933328,0.5170891184252567,1205.972947962867,1189.5374722189445,1200.8724273949144,1213.507592709403,258.14600972375933,-592.8310801383753,410.76853601466576,-94.29612796193389,154.0099750447124
0.2825,2.1842735248668137,1.5494727150385224,0.6465012061973026,-0.1375995404810026,0.1982072854068345,0.0186956406082339,0.0261447442605013,0.025796819061412,-0.9962347800178636,-0.0785270965352656,-0.0764110584901573,-0.0275989440059109,10.686955429836903,-0.2337817175950579,-0.1433646094731377,1.1147272448921868,3.71702377228646,4.973913272161145,0.5199272799642181,1206.6674237850368,1188.0140371949713,1201.5091067891694,1213.2529227344735,318.327393796653,-618.0982991911145,109.73310117046812,-129.82044823402236,154.00963155430617
0.285,2.3248264273890715,1.6985948969196056,0.7087530811618724,-0.1316536700981655,0.2029312827863712,0.0202710722132732,0.0264595321068747,0.0259604459774587,-0.9962233134439036,-0.0785130479717601,-0.0774336760291159,-0.0264603078154564,10.673384436709735,-0.233685058978777,-0.1423067986990814,1.116818120547889,3.7175024481111967,4.9740354835290095,0.5227672089293721,1207.5645849318503,1186.4469807229889,1201.4210929007668,1212.8584904682327,384.2632548849448,-583.0946884570034,-160.54809168185767,-187.5785501156768,154.0094003978701
0.2875,2.308614891968295,1.7888741716499996,0.7293283037306204,-0.1245806864551623,0.2074165376807468,0.02244730746392,0.026776112631247,0.0261178585594339,-0.9962125633338166,-0.0784899401295844,-0.0783778935518325,-0.0254989584641765,10.65931699865011,-0.2335623805584864,-0.141220200901124,1.1188342809885035,3.717979494990496,4.9741562822789405,0.5256092253322303,1208.5887400594615,1185.0985637526862,1200.70636633076,1212.315029983895,424.5547911730271,-428.8236313450441,-418.4528797506616,-253.63389542845,154.00926562311864
0.2899999999999999,2.073005083560252,1.8037192712618797,0.6903764010826263,-0.1169100753479485,0.2116277665165112,0.025061422449595,0.0270865920199616,0.0262717640958173,-0.9962024371252788,-0.0784607248070086,-0.0791521118213661,-0.0247827867943097,10.645004091251304,-0.2333926884757656,-0.1401091917411217,1.1207785467238602,3.7184545176660184,4.974276026052687,0.5284545686866852,1209.6873588877152,1184.3028625662637,1199.3288285020135,1211.5903209910907,479.3508823360347,-166.57551116518505,-708.3020666768862,-346.5469002844692,154.00925054560744
0.2924999999999999,1.5373395649382615,1.7306168293500304,0.5768033460489822,-0.1086821082708665,0.2167431037909313,0.0278253509666852,0.0273839427720325,0.026421295743123,-0.9961929606906742,-0.0784277855814435,-0.0796938911162241,-0.0243028236040039,10.630692729459925,-0.2331586517384388,-0.1389699264181071,1.1226550977233525,3.7189271364251297,4.974394068262125,0.5313047980726574,1210.9854944711417,1184.2656861968603,1197.1648559973755,1210.582295482473,459.5518203783736,159.71780111967732,-829.4065165354361,-371.02995205309486,154.00937477151487
0.2949999999999999,0.915696216891124,1.5909623290066879,0.4399396157389346,-0.1038783741064746,0.2211186490008083,0.0291980983582484,0.0276686766715404,0.0265652754923623,-0.9961841661867922,-0.0783909547070437,-0.0801004286080451,-0.0240538211921499,10.61661791962192,-0.2328615171976162,-0.1377982867095432,1.1244652670831095,3.7193972943978073,4.974510482023402,0.534162297723982,1211.9851179896073,1185.101451571862,1195.1817959193363,1209.7351712308252,370.5176163435223,510.4673570433529,-770.8392849989643,-305.74926205895247,154.0095993726744
0.2974999999999999,0.1905494174297176,1.3695183042916277,0.2831190052852465,-0.1019664155588753,0.2250555057286184,0.0295916857196828,0.0279466134932077,0.0267035214970406,-0.9961758456639234,-0.0783509767144844,-0.0805765608105396,-0.0240562122804851,10.602997066335252,-0.2325152949417873,-0.1365942312252735,1.1262084806134482,3.719865404467289,4.974625149539728,0.5370280934897061,1212.8380825528593,1186.818022982077,1193.3106595723807,1209.0535491721782,327.6226329897324,920.5658252363256,-742.3497584293267,-223.22076004488716,154.00995223409575
0.2999999999999999,-0.6825697804403378,1.0175622177608459,0.0963537242836784,-0.103165249364996,0.2286069693858376,0.0294797006182198,0.0282192044191622,0.0268346646065356,-0.9961678290035516,-0.0783101045611344,-0.081229883067874,-0.0242920908987483,10.590026406750836,-0.2321254203606044,-0.13535584313796,1.1278879195323976,3.720331012533289,4.974737752385461,0.5399018363705101,1213.623231154556,1189.7042806980437,1191.4700471271897,1208.6190674306008,235.5547517594912,1150.335795081627,-582.8879428958311,-78.05955726107634,154.01052674376916
0.3024999999999999,-1.3257413981938833,0.6620815530400304,-0.0472464613426442,-0.1069147619375478,0.2305291781844715,0.0291529662659551,0.0284863194737672,0.0269567197768117,-0.9961598910904126,-0.0782721194248164,-0.0821255236922435,-0.0247205121519494,10.577874500961688,-0.2316950135431124,-0.1340813807384332,1.1295095228021907,3.720793592786813,4.974847522430544,0.5427817599838521,1214.0158563116568,1192.5697019574852,1190.3962198579015,1208.6632513858729,84.13176054623356,1175.687190317102,-324.37963184734116,103.25089719731287,154.01113339076804
0.3049999999999999,-1.7932290686581993,0.2533231454257625,-0.1733331113248643,-0.1128808897092844,0.2315331365159316,0.0287884180861948,0.0287440734588455,0.0270690276774348,-0.996152023998956,-0.0782390029696096,-0.0832317558778363,-0.025314132913035,10.566677791887708,-0.2312203326038202,-0.1327721616000508,1.1310829916872467,3.72125107763524,4.974952554287078,0.5456654981775148,1214.043889957287,1195.5827166496292,1189.8481489679527,1209.1353219165871,-93.2282886768916,1283.5014358392516,-129.51246723059728,285.29925820475887,154.0118751086787
0.3074999999999999,-2.0870323227784606,-0.2874517197231118,-0.3036695912191281,-0.1212072754256663,0.2318030284831403,0.0284083589474831,0.028987181028899,0.0271728254439899,-0.9961441932511051,-0.0782129923247662,-0.084467734840142,-0.0260730611986142,10.556535410824463,-0.2306954114351641,-0.1314350758893266,1.1326206318035852,3.721701680512456,4.975050972932235,0.5485494554398817,1213.5497148682723,1198.9872091366815,1189.7486575217488,1210.0897476768966,-279.4072821766801,1167.2976797760373,38.02265402187,390.40394933231215,154.01292395440777
0.3099999999999999,-2.093828321907977,-0.7702844485911858,-0.3930395063888297,-0.1281241148854511,0.2311768079820037,0.0278917025775518,0.0292151641374482,0.0272716640515531,-0.9961362936433856,-0.0781947213741375,-0.0858302032091541,-0.0270432141214097,10.547503863046058,-0.2301260609435566,-0.130083504592762,1.134134041851552,3.722144390523897,4.975142592212889,0.5514310718036372,1212.6468535464037,1201.4192050485094,1190.0382622380623,1211.0873416632487,-464.5548986330137,853.9730744377712,160.12457680876636,411.9572593949212,154.0139321826182
0.3125,-1.870066490202687,-1.268037236222652,-0.4555834317233727,-0.1339225151908224,0.2293553504012158,0.0268467160608881,0.0294301016950247,0.0273690507126516,-0.9961283013949151,-0.0781829328112259,-0.0873483999000961,-0.0282624595809818,10.5395951643657,-0.2295247468567647,-0.1287309428783087,1.1356351033287115,3.7225791688667536,4.975227546156958,0.5543091311425518,1211.2269403751072,1203.2570745088703,1190.5492804057926,1212.1495339738713,-646.5594657210653,627.321920672602,211.0953585133755,419.53016319494014,154.0150818666777
0.315,-1.486743963025254,-1.7567195155584396,-0.4887637970426516,-0.1382620584143357,0.2262056326472527,0.0253298157005121,0.0296364369411495,0.0274662682061339,-0.996120315166798,-0.0781747649929981,-0.0890837010999501,-0.0297147421838194,10.53277598447814,-0.2289098694325717,-0.1273855109833716,1.137135623370726,3.7230068742073383,4.975306350587116,0.557183459304493,1209.4140562177984,1204.5558146518724,1191.0937390306292,1213.1849924792236,-804.276967673831,394.89044674573927,190.21133285564227,399.6757259841612,154.0163504273407
0.3175,-0.95944770571792,-2.2007512611188464,-0.4810626455729333,-0.140828081917231,0.2211536850497391,0.0235630490865818,0.0298372319521203,0.0275643368586897,-0.9961122929013057,-0.0781697988749821,-0.0910517576478141,-0.0313652054989957,10.526969942830736,-0.2282955422041449,-0.1260548321577469,1.1386476027629695,3.7234288492553103,4.975380356212379,0.5600550060246305,1207.205555536738,1205.231526742599,1191.5003370700708,1214.147912603792,-1038.5099944156073,171.18483232729872,113.63265648042204,411.1599731911607,154.017764176748
0.32,-0.2215213616560544,-2.638263717448835,-0.4274588361871114,-0.1421229454968176,0.2131328776148409,0.0217420296845477,0.0300377949438303,0.027661303680465,-0.9961041864256032,-0.0781678865755508,-0.0933039258889346,-0.0331116729103915,10.522059078568752,-0.2277003125901632,-0.1247391713899137,1.1401810908721348,3.723846509513391,4.975450894017079,0.5629255623010485,1204.2215062457203,1205.4117388135087,1191.6619023130313,1215.2407923451794,-1129.8268137281402,-25.560057983147978,-4.187967646157627,399.3265518670793,154.01963081426845
0.3225,0.4410953620177712,-2.900030472833612,-0.3551961202405425,-0.1418276400013326,0.2054375714104526,0.0206794302190383,0.0302408214634015,0.0277569562902706,-0.9960959467901602,-0.0781692118112116,-0.0958208941505201,-0.0348779928407348,10.517890130141412,-0.2271349314290253,-0.1234412179268048,1.1417446459299379,3.7242595021705607,4.975518104106134,0.5657979865791016,1201.5564214680971,1205.1037264526833,1191.47939723184,1216.1445453631275,-1076.0508050118451,-207.63696605577007,-129.39435415159994,366.9955917989224,154.02132972675767
0.325,1.1096064987313898,-3.0442726649857934,-0.270038121194762,-0.1399860834837741,0.1973183389552433,0.0200821874740751,0.0304507251732525,0.0278545495666618,-0.9960875089186638,-0.0781721275736441,-0.0986032601982896,-0.0366607487774349,10.514279058015035,-0.2266120619360489,-0.1221699183438817,1.1433424715390907,3.7246679520999657,4.975581618988478,0.5686754662141807,1198.841252220661,1204.37355398323,1191.0149305422733,1217.075770304174,-1168.6921724753108,-412.6753698353237,-240.37358434943573,406.1496840386095,154.0231792854783
0.3275,1.868781658730204,-3.091537801086684,-0.1710199984185597,-0.1355953518295199,0.1875111738970241,0.019762732814177,0.0306667094633315,0.0279561407161375,-0.9960789220442058,-0.0781756765542296,-0.101540021447541,-0.0384223473142896,10.511019582283424,-0.2261306531355139,-0.1209296102614555,1.1449786062029055,3.725072305378269,4.975640702671641,0.5715591282366191,1195.7129606057208,1203.0403496035067,1190.2775293100929,1218.1752937833205,-1094.4959018406723,-560.5426946970051,-276.3534109903501,377.4979418873041,154.025574908311
0.33,2.4294512388250062,-3.0465464850468664,-0.1015290045792062,-0.1298855724072031,0.1797571442775906,0.0197130057170944,0.0308887159893223,0.0280631647230176,-0.9960703185363337,-0.0781773098546567,-0.1045355138186965,-0.0401168529698005,10.507888824640238,-0.2256896574278392,-0.1197213680308806,1.1466542273240288,3.725473418433492,4.975695484265211,0.5744489693722145,1193.3687727114575,1201.570840509745,1189.6331634873216,1218.9632600136104,-847.3846341022629,-651.525535012069,-243.50519092286024,248.5757283667224,154.0277194197644
0.3325,2.8786848462028414,-2.949006794521984,-0.0533894653577932,-0.1222896110872811,0.1730321898429906,0.0197780571449641,0.0311147589106083,0.028174967255122,-0.9960618437920175,-0.0781751006855331,-0.1074620536344358,-0.0416574935982859,10.504655764977876,-0.2252817709938853,-0.1185399307480334,1.1483695028836771,3.725872237592181,4.975746826813092,0.5773442478681399,1191.4760374352095,1199.7827219284463,1189.0600033554783,1219.418172425154,-697.5729325702554,-838.5510899088778,-229.42342295877984,77.67009311928625,154.0300192338297
0.335,3.2660366507761607,-2.8119161121891927,-0.0238567950490949,-0.1118866610920148,0.1660568106206762,0.0199063948920717,0.0313414508489476,0.0282917338760343,-0.9960537760831244,-0.0781647009428611,-0.1101684603716004,-0.0429827454415084,10.501089035342632,-0.2248946699052314,-0.117379339409112,1.1501230300260434,3.726270662902891,4.975796507671574,0.5802461634871398,1189.8809080486064,1197.3780850602006,1188.4860463725277,1219.351610479207,-461.4653429421192,-904.9380471120904,-196.19905371196165,-146.00632342417143,154.03296016008335
0.3375,3.463588868704312,-2.7003367767040607,-0.0223008170058334,-0.1028619356944505,0.1607566330245464,0.0200189154354361,0.0315647975988442,0.0284103212115258,-0.9960461325692104,-0.0781453194212341,-0.112511312505196,-0.0439713304604816,10.496963702753412,-0.2245128555112866,-0.1162259657965295,1.1519125297051795,3.726670121049497,4.975845725017208,0.5831556073926198,1189.168710720499,1195.2580316928859,1188.0790080869187,1218.6881408080333,-160.09639896269604,-850.4396370452461,-156.3388404294527,-389.4119878274975,154.03556290509195
0.34,3.552220264716581,-2.5951009823252726,-0.0411184927089957,-0.094207472166402,0.155433755488342,0.020107529225734,0.031784841453663,0.028528477381229,-0.996038865884103,-0.0781134175691577,-0.1144438489332135,-0.0445419775087355,10.492066866087985,-0.2241290949294677,-0.1150670504751827,1.1537322252749647,3.7270715347219454,4.975894677249503,0.5860719715329838,1189.0804260537927,1193.1258868749744,1187.7043521703804,1217.4045505400695,54.26553151678485,-844.9296670486993,-147.25858466304075,-596.3135627501737,154.03832420393883
0.3425,3.574961560916164,-2.4834785788012868,-0.0721191967419417,-0.0860020704605641,0.1496942531480091,0.0201535298884749,0.0320010669751983,0.0286453782960556,-0.996031667481257,-0.0780685714609746,-0.1159246078416246,-0.0446566302208044,10.486205401805623,-0.2237334590369297,-0.1138940073748353,1.1555752183033783,3.7274759974125713,4.975942853214385,0.5889952459341823,1189.4400383780828,1191.0333833576424,1187.3427151636035,1215.7065729942824,224.2394862622857,-826.3330685361318,-138.0718958149372,-741.8632403476288,154.04121717775664
0.345,3.5478100301973,-2.3404160710987925,-0.1095301990041267,-0.078177034506264,0.1434690132440727,0.0201083516557193,0.0322137188448719,0.0287606100095388,-0.9960246965398786,-0.0780125221958035,-0.1169462115976818,-0.0443014772642459,10.479210936826155,-0.2233174898831465,-0.1127004646681445,1.1574333990263383,3.727883417458121,4.975989458581379,0.5919246573257486,1190.2016234851044,1188.9942215322935,1187.0139926913057,1213.6952343383311,384.82673646212754,-896.5961777466865,-128.3707901739034,-908.5370182997385,154.04426863731788
0.3475,3.485927158496954,-2.1045531868447185,-0.1477475800907621,-0.0691227510968009,0.1359844873778914,0.0198762028368109,0.0324216917542418,0.028872074372151,-0.9960180403113508,-0.0779507477605272,-0.1174955834090597,-0.0434391666708186,10.470945121009366,-0.2228703936956454,-0.1114781925284428,1.1592990191673824,3.728292043406192,4.976034068273802,0.5948597276158873,1191.3641720603935,1186.5504024689087,1186.700861212734,1211.1638879027837,435.50375947370367,-910.5420343226334,-97.88551677575006,-919.9816528252531,154.04811253771967
0.35,3.4201014202118527,-1.8442637212871895,-0.1617126852313286,-0.0616154508505319,0.1301266358115763,0.0194728018851471,0.032622787734498,0.0289750820073696,-0.9960117859178528,-0.0778885264224285,-0.1175567417853638,-0.0419904806434421,10.461303328354996,-0.2223811669428051,-0.1102139210676408,1.1611648712232971,3.7286989701353814,4.9760756489057245,0.5977996457808221,1192.379142282473,1184.4415113606804,1186.5245651074267,1209.095326074205,381.2304692720357,-877.8000938352851,-59.19150046011115,-799.8695330443379,154.0514662864846
0.3524999999999999,3.3385569640665818,-1.5228166468522373,-0.1417813475573504,-0.0537917090962164,0.12536305813601,0.0187966646109557,0.0328135600428546,0.0290631992661954,-0.996005993369418,-0.0778312900269031,-0.1171040351933517,-0.0398502682104655,10.450217646162772,-0.2218384333551522,-0.1088915942753145,1.16302422447589,3.729101972301063,4.976112530644022,0.6007440241950238,1193.2703244067536,1182.1614019997323,1186.4049037104335,1207.164540237562,332.52838439716805,-1056.8790900753916,-62.573928296433856,-812.572238444781,154.0549740911449
0.3549999999999999,3.2116714590137585,-1.09215731545867,-0.0646604147488542,-0.0441224721065974,0.1214856583626142,0.0177064208132253,0.0329922980771876,0.0291309446904897,-0.996000985398168,-0.0777789977710972,-0.116153013621087,-0.0369483378751355,10.437658031577774,-0.2212377719609485,-0.1074970349034983,1.164868984544926,3.7294999825832784,4.9761438482758695,0.6036923089226339,1194.0417842044587,1179.1571159103037,1186.2116954659448,1205.0324648819812,218.96583423872448,-1145.1262823748027,-103.85543773099916,-755.7927253646988,154.05935826286466
0.3574999999999999,3.074208299105871,-0.7209043252252685,0.047355448111774,-0.0363852230899211,0.1197220462547061,0.0167381166356418,0.0331599023158268,0.0291802027826618,-0.9959967703643046,-0.0777309976245784,-0.1147681460432885,-0.0333808828518184,10.423633598379547,-0.2205817059437416,-0.106034746584441,1.1666881023239795,3.7298915617425488,4.9761696626091405,0.6066440365574942,1194.3651535779472,1176.4357705878583,1185.8856265217785,1203.3855766107383,59.758041976965565,-1115.179177754725,-196.59040758638167,-643.974933545723,154.0631545106703
0.3599999999999999,2.899068426485558,-0.3638937229329571,0.1997642517177597,-0.0294448043256218,0.1191531257789885,0.0162127156860204,0.0333128084417283,0.0292124701614881,-0.9959932818024104,-0.0776891052326866,-0.1129269374590373,-0.0292340035265324,10.408194796515504,-0.2198639276649593,-0.1045094595654934,1.1684721721784772,3.7302757520995633,4.976190018817543,0.6095993675863091,1194.3405744143436,1173.58122002153,1185.2287434280129,1201.8125902142526,-75.12947373288618,-1245.2323622748725,-395.2853152814438,-694.1813479330898,154.06709509552587
0.3624999999999999,2.640698768135279,0.0283914244118229,0.4004155833371991,-0.0218369951365549,0.1194752199929469,0.0169662855011734,0.0334521017884798,0.0292303802921228,-0.9959903876692576,-0.0776532328186445,-0.1107009121652417,-0.0246295656362746,10.391429548454814,-0.2190903966705576,-0.1029292939161778,1.1702089766213464,3.730651786723061,4.97620487919787,0.6125595270790097,1193.9895062092828,1170.209608776484,1183.9091999453713,1199.914669871073,-159.0206316739112,-1188.9866807425267,-583.648963029554,-713.6536356483241,154.07198584894272
0.3649999999999999,2.37890452256936,0.3203203659709116,0.5548818733737957,-0.0158359409486273,0.1203889727126853,0.0187967230083629,0.0335819516138636,0.0292348784357529,-0.9959879916654468,-0.077621993669423,-0.1082248690774274,-0.0196622143938375,10.373461669932423,-0.218275582557926,-0.1012987556238497,1.1718848172070713,3.731019636983232,4.976214480566265,0.6155271542766448,1193.545471255974,1167.6362866178174,1182.310498612865,1198.2443220360108,-173.50579234498568,-934.7181081961472,-740.0112977920338,-704.7163639799685,154.07619277944409
0.3674999999999999,2.059065050523212,0.5801107580368272,0.6685308302485826,-0.0101123344456544,0.1218070501541072,0.0210791493095561,0.0337096685437748,0.0292257724780512,-0.9959860722666543,-0.07759207027052,-0.1056942275057317,-0.0144101172603127,10.354447764482561,-0.217441976083236,-0.0996194860844528,1.1734847968663475,3.7313794768768624,4.976219095705058,0.6185033625160424,1193.1219772475579,1165.5360182355034,1180.209143456411,1196.3910880511733,-139.133318918084,-734.1829364728248,-908.685609277608,-779.8873830663517,154.08053124920875
0.3699999999999999,1.686319100107437,0.8218143808977064,0.7371014804021632,-0.0049314008244236,0.1234799840062219,0.0233934466662715,0.0338431959506718,0.0292016821366908,-0.9959845273776824,-0.0775613769196855,-0.103313998124218,-0.0089282651541864,10.33457353100915,-0.2166132312162523,-0.0978905958044919,1.174994597094149,3.731732035890435,4.976218944779308,0.621486898112578,1192.8498046613836,1163.9653719354533,1177.767070566477,1194.3448851206792,-47.22055364586591,-481.1362823684244,-1027.4968236468785,-861.7465755804906,154.08497502566922
0.3724999999999999,1.2525694647599939,1.0544741397184405,0.7487441606602265,-0.000889149282589,0.1251124483619521,0.0255745034610641,0.0339868995225327,0.0291620791000439,-0.9959831945280784,-0.0775299050332727,-0.1012091631154916,-0.0032830612867742,10.314049500353418,-0.2158032757286149,-0.0961128280682394,1.1764026907113987,3.7320785261868687,4.976214533542171,0.6244759661290675,1192.8858744793283,1163.1303368236613,1175.0716593381767,1192.0823551732708,101.7165964958166,-193.09567535397017,-1193.7275553328607,-1020.264484263088,154.08954092956017
0.375,0.6773838392845896,1.332956795558319,0.7034658656598811,0.0025039593641804,0.1271214391605332,0.0278016187022968,0.0341397056869817,0.0291081523216456,-0.9959820378132768,-0.0774978153674773,-0.0993847787297393,0.0024327560784284,10.293104618141596,-0.2150115702712076,-0.0942894651237949,1.1777015567671945,3.7324206493084,4.976206190670024,0.6274714588315801,1193.3583876438627,1162.9998935586834,1171.7984327898128,1189.2435626993636,239.02854602879395,85.91780803112663,-1167.5218210968967,-1030.2529241919265,154.0951545295243
0.3775,0.1718390051816225,1.5586930166952864,0.6247947132732166,0.0041068335313829,0.1296039520255899,0.0292569156650049,0.0343010352418312,0.029046425961775,-0.9959810290261248,-0.0774630021818476,-0.0978419112446706,0.0080161292998431,10.271976796748556,-0.2142364319743004,-0.0924350450751795,1.1788850078720603,3.7327602439741514,4.976194468430404,0.6304752069375213,1194.0810172094723,1163.5599258638167,1169.234050232692,1186.9310905523112,330.85429381126204,334.6340337954186,-949.54247886153,-869.8551999824294,154.09993945305095
0.38,-0.3290851414708635,1.7532252526891783,0.5134407460776838,0.0041971769733096,0.133411890738891,0.0303628276006528,0.0344675407808211,0.0289826125171442,-0.995980089366306,-0.0774255914931222,-0.0965250956129341,0.0132874177191692,10.250904046570103,-0.2134680631625547,-0.0905619972888981,1.1799512662711695,3.733098918601779,4.976180003664454,0.633486582313015,1195.0126591129188,1164.6730637276603,1167.050720395505,1184.8942866994516,408.7375397404226,572.0596891594137,-837.2669896779818,-786.1303498128557,154.1048288108542
0.3825,-0.8789027442800519,1.9104296367218512,0.3494221757703792,0.0022702689045589,0.1390494665971732,0.0314870678926226,0.0346398612323078,0.0289271785608325,-0.9959787854160712,-0.0773867564283916,-0.0954521067639195,0.0179658007795062,10.230113781841704,-0.2127039304062961,-0.0886947841150303,1.1808999095679291,3.73343798403328,4.976163608342189,0.636502728861235,1196.1247049081746,1166.420224309614,1165.0477152843023,1183.0004388032469,364.75767834090186,672.1801429423516,-620.4720498939417,-579.726431988592,154.11080867330446
0.385,-1.2595902448579954,1.9496895646283767,0.1903936443058606,-0.0009685518301461,0.1442980941274719,0.0323558311549205,0.0348198255019462,0.0288871069153715,-0.995976936722546,-0.0773452417343147,-0.0946669705080505,0.0218418853263637,10.209812692512507,-0.2119446306170493,-0.0868490463467104,1.18173491527616,3.7337774083352455,4.97614533078586,0.6395204389949494,1196.8364475046235,1168.0339644423723,1163.9483601460352,1181.9956545395087,192.2070586148946,637.0018952618004,-330.0062433762829,-273.4050251224287,154.11587948872173
0.3875,-1.5258835652612237,1.8682418236844291,0.0126287076509301,-0.0055903803603086,0.1498224417774582,0.0330833109464865,0.0350071215283458,0.0288669331766251,-0.9959746792387087,-0.0772976714669552,-0.0941708198725199,0.0247620136758754,10.19017849883614,-0.2111863505808124,-0.0850339728547798,1.1824660181415387,3.734116961397976,4.976124459173112,0.6425366257467439,1197.085740201249,1169.605233785923,1163.3976840674209,1181.6334136776347,-39.04430781003608,644.983884233488,-150.9422299742708,-22.802839426594776,154.12103331347552
0.39,-1.694844417579376,1.618452091992602,-0.2097855927155245,-0.0120674532585907,0.1559425991785615,0.0333303017608746,0.0351991088004965,0.0288665171596508,-0.9959722906522042,-0.0772416938320715,-0.0939242911103579,0.0266753126039885,10.171351121532682,-0.2104210559370106,-0.0832483839176764,1.1831086588127513,3.7344558252562288,4.976099781049444,0.6455475534144581,1196.6412259655733,1171.2588838635395,1163.193648996164,1181.8816403423757,-303.9039699822749,550.2953101654833,-34.18762335586504,183.83087782608507,154.12730410474688
0.3925,-1.7165572043603092,1.2878266851177071,-0.386854122539723,-0.0173692879211178,0.1599820950450164,0.0326132598520803,0.0353948111795749,0.0288837710784707,-0.9959697520948092,-0.0771788019685192,-0.0939262434849347,0.0275734787212289,10.15342525513895,-0.2096456476570314,-0.0814889911775367,1.1836809750853337,3.734792541995713,4.976070403866276,0.6485507499701756,1195.5662203513375,1172.3567103367504,1163.2267459506415,1182.5525680667652,-580.4576608110432,369.2481437009061,14.302425097230284,330.23328593603736,154.13259406804175
0.395,-1.6454362105539293,0.8472839978698252,-0.5328477921382933,-0.0216587479309209,0.1627455714525335,0.0311066822889851,0.0355896173996182,0.0289159348655716,-0.99596663146582,-0.0771177492914174,-0.0941062425648015,0.0274757373733571,10.136447708300496,-0.2088492601233301,-0.0797535808469508,1.184204654690196,3.7351247053205,4.976035817468599,0.6515449628043677,1193.738937661518,1173.1051245820443,1163.26516112165,1183.532806772056,-848.8904153144622,236.3880172105835,-6.290641275882075,413.8352137154466,154.1379412884358
0.3975,-1.5304496950251631,0.333511671409252,-0.638606314906139,-0.0248076076708606,0.1645737718124915,0.0292758974424957,0.035777054333901,0.0289572112661395,-0.9959625799048084,-0.0770682377099888,-0.0943581851168734,0.0264729132516924,10.12041454129014,-0.2080185282098773,-0.0780332974016427,1.1847030254193645,3.7354505549484514,4.9759962667486,0.6545303582366732,1191.3217682747654,1173.5386504228031,1163.195292744262,1184.6217441353424,-1090.609206970429,91.64076085885418,-67.0555990542652,425.6104605321066,154.14332857276773
0.4,-1.3997282606736539,-0.2421529645914001,-0.684592769204824,-0.0268538839329,0.1651651507980074,0.0272676961404205,0.0359526061669456,0.0290032724927903,-0.9959574577371804,-0.07703584140999,-0.0946052151995382,0.024629687275996,10.105271650379747,-0.2071459092379262,-0.0763220326216658,1.1851973748701667,3.735769931384655,4.975951934632124,0.6575088512360248,1188.285891626666,1173.5633283863383,1162.9298831263789,1185.6608590747164,-1440.0615909786652,-93.00596123475762,-161.5082048486782,405.0822594891994,154.14875538661482
0.4025,-1.2513347706894389,-0.96163771909766,-0.6645709429474225,-0.0290381433952587,0.1639240246266457,0.0247339877160644,0.0361162068669951,0.0290491945926383,-0.9959515361092516,-0.0770189669442818,-0.0948494231899427,0.0220226843387672,10.090916979645469,-0.206235700514644,-0.0746107233598776,1.185704885653277,3.736082899225381,4.975902929641776,0.6604821768333454,1184.121460319872,1173.0736206166296,1162.3877517200187,1186.6471554327884,-1572.950750414701,-272.2708323851291,-226.54841665889745,298.07280315644647,154.15530303969388
0.405,-1.1346243526745574,-1.547334339928513,-0.5871957993453492,-0.0312075746677649,0.1610640932020599,0.0227480289385479,0.0362737957108246,0.0290983025862439,-0.9959448395238424,-0.0770132493116492,-0.0951922982282639,0.0185628342211019,10.07720734372141,-0.2053052162648317,-0.0729100011494032,1.1862359219665004,3.73638939450118,4.97585037404528,0.6634522207146141,1180.4211378745924,1172.2019742244129,1161.7971410430844,1187.1512230904987,-1464.8589765668007,-445.9956877595228,-248.8336802963656,127.99831070337848,154.16078242860476
0.4075,-1.0080416674968415,-2.0698473487010025,-0.4572816057340078,-0.0338823306268446,0.1563196119964179,0.0212845329763188,0.0364300772549839,0.029153486150366,-0.9959373795664342,-0.0770152405846587,-0.0957051313434954,0.0141843857179653,10.063966403387173,-0.2043685425357976,-0.0712294383907207,1.1867974284527187,3.736690424526127,4.975795166024547,0.6664215077614993,1176.797165437038,1170.843642177832,1161.143583318537,1187.2871469863053,-1494.1706233335012,-696.6952498849417,-284.72111124797243,-13.051162492001808,154.16627893787071
0.41,-0.819120766896569,-2.5706812431367188,-0.2601165892084998,-0.0374845913277755,0.1485442370336232,0.0202964825685883,0.0365876085763651,0.0292182477746089,-0.995929315932131,-0.0770203754468262,-0.0964082698694568,0.0088251154334226,10.050994260469787,-0.203433967467389,-0.0695792728029908,1.1873927314033108,3.736986983569356,4.975736795245996,0.6693911319646279,1172.9502847579247,1168.718497974988,1160.3735354868445,1187.0859672780387,-1269.6888051626945,-839.8526052562366,-271.7404066424021,-115.84201334098896,154.17288799244565
0.4125,-0.6189091358250673,-2.8533585804469586,-0.0769173419310633,-0.0405560722732866,0.1407892943179716,0.0200865290160451,0.0367442630997295,0.0292917433507909,-0.995921033018844,-0.0770250453981969,-0.0972307927522897,0.0025308858753342,10.038077417260636,-0.2024985361161733,-0.0679589597846643,1.1880228790099454,3.737280081509932,4.975674767022071,0.672363327269183,1170.4487214112244,1166.6443791515508,1159.784881285325,1186.7079369196003,-803.6388362249446,-854.0492672819248,-220.5150907391724,-170.3046707592874,154.17840263431947
0.415,-0.3781699417393825,-2.97985729084587,0.109608581685742,-0.0430901834245803,0.1326153765900395,0.0204245944017111,0.0368960378501202,0.0293686536841735,-0.99591327767693,-0.0770235553009594,-0.0980662257006299,-0.004547535953529,10.024998524942076,-0.2015548858889044,-0.0663564478518794,1.1886854696279459,3.737570417432029,4.975608630469456,0.6753409730347024,1168.9320905768,1164.4482516385783,1159.2709600331486,1186.2344439242422,-417.6872219602544,-942.1414948376064,-208.68506525585173,-210.08168820599377,154.1839209108014
0.4174999999999999,-0.0752699235787454,-2.9584812427797798,0.3236336636258382,-0.0444575845319648,0.1230739326474016,0.021326451863382,0.037038389894597,0.0294408554633018,-0.9959069232809284,-0.0770099129697223,-0.0987997460621958,-0.0121897470883067,10.01154644943984,-0.2005941109190823,-0.0647530367027127,1.1893742742258262,3.7378578117002568,4.975537683130604,0.6783275247801742,1168.3602853014231,1161.9336716773628,1158.7414559590457,1185.6575284785704,-15.78312876713442,-866.565368387555,-179.94685290991768,-207.81954199901733,154.19054389628235
0.4199999999999999,0.1509656266641345,-2.8161047777603265,0.4875053309516609,-0.0437494480910028,0.1155642950035367,0.0223415139613507,0.0371711520124148,0.0295020927104411,-0.9959024953861572,-0.0769798170853377,-0.099402084332735,-0.0202063328400669,9.997524402528745,-0.1996166985402602,-0.0631360235915866,1.1900776099403194,3.7381416275293504,4.975461345258131,0.6813248113775037,1168.8531749329643,1160.1154247966408,1158.371225768599,1185.1953462142471,347.50984249858413,-641.7906577034495,-132.97538723541027,-186.10682997900753,154.19606229882856
0.4224999999999999,0.3053231395762262,-2.5800619995854217,0.631319477215267,-0.0413247963022682,0.1087993385010586,0.0234621893853109,0.0372971035721555,0.0295483040221162,-0.9958998325151704,-0.0769355901986851,-0.0999047587844758,-0.0284415494164067,9.98275766341576,-0.1986291194423477,-0.0615007134509944,1.190780184391204,3.7384212691067025,4.975378973857117,0.6843320575172759,1170.0978345139163,1158.7247183888455,1158.0765790228686,1184.7269943286751,565.8401695866355,-481.32245885376466,-105.05933218582858,-197.96153554730137,154.20157852295972
0.4249999999999999,0.3814194026351306,-2.299154553999056,0.7539338256954474,-0.0382578882272305,0.1030106433057688,0.0246675711227382,0.0374180745591886,0.0295790563278153,-0.9958985508276784,-0.076881504631221,-0.1003174407707756,-0.0367980049081969,9.967100445779487,-0.197634779148276,-0.059851481151997,1.191466004680165,3.73869645060854,4.975290946764072,0.6873475107322765,1171.6823757808977,1157.708812502372,1157.84592910767,1184.2055385365106,637.497326814127,-334.73600773886545,-78.28460999385236,-235.07170000766544,154.20709223164206
0.4274999999999999,0.3713768819593981,-2.005914953493276,0.8405104021540581,-0.0358195659910032,0.0985427979763651,0.0262880326696371,0.0375376218624808,0.0295995106017372,-0.9958981647241272,-0.076820162180304,-0.1006767063010269,-0.0452817778895113,9.950438512968713,-0.1966402784222445,-0.0582056180309686,1.1921184065245491,3.738967171433216,4.975198035434713,0.690368622077023,1173.285321147987,1157.0510383501512,1157.685155972899,1183.551635828637,613.4281445689334,-254.98758186836287,-60.760724517103824,-331.45068282651636,154.2126024287644
0.4299999999999999,0.3062523008705202,-1.686210532242585,0.8823147205152337,-0.0347071535668114,0.0944712805953194,0.0289894072733381,0.0376579017133779,0.0296143537942378,-0.9958982896526626,-0.0767537303102016,-0.1009948859490328,-0.0538774356655307,9.932691102585446,-0.1956490460437116,-0.056578524473295,1.1927227697973108,3.739233352974317,4.975100701960964,0.6933917758415008,1174.7495165037424,1156.43387459303,1157.5421254850844,1182.548285122378,404.2255685417328,-240.3610528735496,-52.44633798874924,-406.6270485180663,154.2192104416482
0.4324999999999999,0.2532137893322392,-1.4690515336175851,0.8498168285676074,-0.0351103109806521,0.0918693848724859,0.0317204998408721,0.0377769694704816,0.0296308528252763,-0.9958986425904656,-0.0766840702443561,-0.1012032928808436,-0.0626061467001752,9.913811842602431,-0.1946542810098633,-0.0549904597663698,1.1932677482824543,3.7394948461703135,4.974999112055883,0.6964149753740186,1175.3064489906956,1155.8492330857835,1157.4229242829556,1181.5185005860467,45.45539366740736,-293.09104265489594,-61.82694154940685,-445.0547379838095,154.22471378716048
0.4349999999999999,0.2475432474706919,-1.3115873650614092,0.7359784243036832,-0.0357783287605382,0.0896204713262831,0.0346637363383272,0.0378933144991156,0.0296525108294643,-0.9958989225474156,-0.0766145148684078,-0.1012539696387355,-0.0714084627823458,9.893785377110207,-0.1936507743743801,-0.0534525661416658,1.193743984477548,3.7397518831511505,4.974892807281318,0.6994375582114941,1174.9767934720794,1154.9684193797557,1157.2329907773371,1180.3230114324588,-355.00637474992766,-485.47749378271834,-119.75645032694035,-549.6039832007223,154.2302142381374
0.4375,0.3246857978150993,-1.1783803746078632,0.5101515514354736,-0.0358916239492259,0.0867041957303836,0.0378575788455707,0.0380081708690767,0.0296799632670681,-0.9958990512511599,-0.0765452622380242,-0.1011615395214268,-0.0801703726282069,9.872624150227342,-0.1926403082215139,-0.0519678279457812,1.1941429750973178,3.7400047334909896,4.974781680299416,0.7024601321366586,1173.531417116946,1153.4218456168699,1156.824142031321,1178.770480670043,-682.8297049575662,-651.4052284873281,-194.9389756700837,-581.0076809223568,154.23681247252264
0.44,0.4661022880944341,-1.0931763565422548,0.2668052543762494,-0.0355220321356987,0.0837118755180719,0.0396403401348326,0.038119684402677,0.0297092989804355,-0.995899112007784,-0.0764776766116109,-0.1008939143659722,-0.088683152510273,9.850366866328287,-0.1916178552418713,-0.0505271280839405,1.1944592725412295,3.7402536501250094,4.974666456712022,0.7054830833914599,1171.5626449472916,1151.711393237319,1156.2582958989867,1177.4179730278472,-897.43996067832,-754.5442387041924,-288.24992307818286,-555.3072097025956,154.24230997756635
0.4425,0.6852357098701269,-1.008246655547921,0.0056511263381354,-0.0349604271774606,0.0801114129390587,0.0398749329275719,0.038229083282286,0.0297364240043643,-0.99589928413069,-0.0764103941463313,-0.1004855301619876,-0.096743802078804,9.827072234136082,-0.1905855728183317,-0.0491194604714387,1.194687691056135,3.740499514510913,4.974548608198609,0.7085085301426521,1169.0442173135543,1149.649124423349,1155.38289241593,1175.99394462153,-1164.768653653617,-951.3883001557125,-465.74283340514694,-663.0754541886284,154.2478074158635
0.445,1.0206944874841344,-0.8906388063132262,-0.2747840305785432,-0.0336388942453854,0.0758996017624157,0.0383271108551852,0.0383350140173114,0.0297596023775595,-0.9958996240156694,-0.0763440277855555,-0.0999252654637646,-0.1041974865964129,9.802815756534713,-0.189538761108954,-0.0477384510711306,1.194825463805949,3.74074200239528,4.974428747561323,0.7115363308049449,1165.7388016790235,1146.9544517365405,1153.9295817319612,1174.102595756904,-1207.7319050236372,-993.2780789222753,-597.4335122854421,-746.1855696187279,154.25440520674485
0.4475,1.3357279386451535,-0.7846289441340399,-0.449239663851592,-0.0312460139997014,0.0731919659237381,0.036018773835433,0.0384368973619608,0.0297786863947364,-0.9959002136906376,-0.0762778643315514,-0.0992218244940106,-0.1109312770318619,9.777683334353162,-0.1884741667208875,-0.0463802658352901,1.1948713257808323,3.7409808436013328,4.9743067769517415,0.7145650764262206,1163.005557788436,1144.6827340287375,1152.3957248545028,1172.2630167734364,-1035.4750078848147,-879.9810734859411,-665.6723431394306,-817.5755427725555,154.25990461262813
0.45,1.6471120552702034,-0.692821319108275,-0.544653686468143,-0.027054058044789,0.0715901904350819,0.0336582649620543,0.0385358100410334,0.0297937067005598,-0.9959008689205144,-0.0762137840356929,-0.0984248155392747,-0.1168488752054143,9.751765791740604,-0.1873923260341812,-0.0450417038284395,1.1948254765092468,3.7412163741878186,4.9741826407772525,0.7175922768500098,1160.5614266395994,1142.5545463691108,1150.601220016264,1170.0147180430413,-899.8265483075093,-808.6009151958018,-743.6414046864222,-981.5794768185688,154.26540571399576
0.4525,1.9260962781364168,-0.6338064983640495,-0.5780190631773832,-0.0219706150605066,0.0707546619682058,0.0317049524363479,0.0386292302360206,0.0298053931278525,-0.9959012005078745,-0.07615787557684,-0.097521833495561,-0.121874536704066,9.72515571323018,-0.1862849848126426,-0.043721096666507,1.1946915235593942,3.7414488701100415,4.974056460347107,0.7206163990466002,1158.5064250468984,1140.6397294527585,1148.6775178310706,1167.3551193893436,-708.2492568752052,-702.1705628072135,-777.6623581607503,-1166.332557108716,154.2709083330376
0.455,2.141272839885332,-0.6330777083747485,-0.5542121415360854,-0.0166271251073112,0.0704509113526882,0.0303382085735951,0.0387151780043237,0.029812754293619,-0.9959011326037372,-0.0761125219126418,-0.0965181214587562,-0.1259173114136415,9.697942039024818,-0.1851455859910368,-0.0424110515930953,1.1944748269357015,3.7416788422339105,4.973928407473172,0.7236370309179112,1157.0201803552231,1139.0436935550747,1146.7129082254603,1164.1830552574977,-519.8498561024276,-625.3319010897934,-847.4558229953792,-1492.8360713042807,154.27641266657946
0.4575,2.306326322705772,-0.7042680333468662,-0.487633545886802,-0.0101400671462543,0.0700688787743801,0.0292342786853962,0.0387940913369596,0.0298143032093667,-0.9959005145041334,-0.0760800582756219,-0.0954718413756487,-0.128898100470412,9.67020591432977,-0.1839735636637308,-0.0411029195385872,1.1941812712698214,3.7419070271191206,4.973798508278967,0.7266533517647413,1155.9071757663864,1137.5130699473095,1144.4402387160935,1159.890939032822,-309.9220804542253,-501.29751027338847,-803.6246751531501,-1619.1162064062596,154.28301935929488
0.46,2.3560222532669615,-0.8097313167665167,-0.4187350097374857,-0.0042649419779368,0.0692264504840331,0.0286199801794352,0.0388671241306205,0.0298097272632639,-0.9958994030224548,-0.0760592812858058,-0.0944551626172114,-0.1307817371256755,9.642018721253043,-0.1827701662500019,-0.0397896787532048,1.19381736761954,3.742133509891116,4.97366779562518,0.7296645277604886,1155.4705699529522,1136.5372060037075,1142.6947848496943,1156.0874742254664,-102.41822648904407,-336.0371372750248,-652.7949367944524,-1507.592627641496,154.28852563572764
0.4625,2.3058090638248583,-0.9281166318299696,-0.3508426993777954,0.0023471399068845,0.0672396877615142,0.02822383612265,0.0389362397231457,0.0297991439588595,-0.9958978948557164,-0.0760478910346281,-0.0935565527012591,-0.1315620816788325,9.613440932360733,-0.1815389990496774,-0.0384651128719235,1.1933896622105231,3.742358203785044,4.973537021706018,0.7326700584262975,1155.3950846339412,1135.8328842609344,1141.1762640321215,1152.3529758946147,7.52629887620059,-255.06268333197087,-603.090555208791,-1547.9707744913399,154.2940319620839
0.465,2.134524391083804,-1.0339001172962363,-0.2773562198395768,0.0101452811304513,0.0633210589216304,0.0278531978034897,0.0390037502928452,0.0297830890659611,-0.9958961343528064,-0.0760426267337951,-0.0928698256515578,-0.1312608471717153,9.58452240070691,-0.1802851215748764,-0.0371240748263517,1.192904254564416,3.7425801751548176,4.973405345104446,0.7356702098278919,1155.5082014473332,1135.261892587048,1139.6793320736504,1148.3476203530097,44.944540588767225,-168.01232560824232,-488.8008034607078,-1336.6811678067268,154.3006388827396
0.4675,1.9184285651297324,-1.0604235680699388,-0.2209860651535066,0.015611805827488,0.0593849069168551,0.027496775524757,0.0390703887253107,0.0297614526966866,-0.9958941347664412,-0.0760430007566138,-0.0924584220728776,-0.1299022765546401,9.55530449162796,-0.1790107973890558,-0.0357609287823402,1.1923668503509108,3.742798422131348,4.97327157512518,0.7386641320999286,1155.619807336885,1134.9928226328932,1138.732260014818,1145.669570055581,18.805771209053983,-71.10226741597211,-314.88679734843544,-888.7442532321521,154.3061435806387
0.47,1.664200986069932,-1.0054851569874015,-0.1618693736892379,0.0196577169361109,0.0557222754753901,0.026946011946739,0.039134564593861,0.0297311766545427,-0.9958922225614056,-0.076046761766108,-0.0923404818016208,-0.1274691423250399,9.525823112701996,-0.1777141737371143,-0.0343628215882576,1.1917824708731564,3.7430123719387858,4.973135417381395,0.7416523961331346,1155.6022303033783,1134.906381249968,1138.1048980869084,1143.9038990868487,-59.24863841937617,-10.602152291448864,-209.28945028317665,-544.1916590406431,154.31164656067847
0.4725,1.3635199648499632,-0.8527741095752471,-0.0772756524433665,0.0232128594511838,0.0523487067807558,0.0260630176046629,0.0391956151990416,0.0296886626627426,-0.9958907924321452,-0.076050501364738,-0.0925456573818925,-0.1239522546022398,9.496110762727032,-0.1763965092999946,-0.032916246501059,1.1911535080631603,3.7432217329323145,4.972996865411891,0.7446375117292159,1155.323564144788,1134.939811871436,1137.685812763402,1142.9486117603778,-152.52374142210087,16.449186393083423,-110.04154286551956,-163.8483510143486,154.3182474152233
0.475,1.1461044188470075,-0.671159612406134,0.0083259154715832,0.0254069669383097,0.0505290514734076,0.0254453638257224,0.0392547380850121,0.0296316170252678,-0.9958899055810704,-0.076053707514023,-0.0931297153052115,-0.1193833753284677,9.466200009990322,-0.1750639904223683,-0.0314127027137953,1.1904789165432752,3.743426423721131,4.972855297513739,0.7476210488027101,1154.839611596268,1134.9886271819335,1137.5546903725808,1143.0846573317772,-246.33881847607856,-7.734411062665451,-28.88868722388904,212.66144220617184,154.32374528215828
0.4775,0.9860598264947305,-0.4591925009916099,0.1058657959504928,0.0271756434644269,0.0495619998679009,0.0253519717553422,0.039312747285066,0.0295636743441584,-0.9958893710774124,-0.0760570242706071,-0.0941225683759375,-0.1139171895610703,9.436128121652835,-0.1737214674730135,-0.0298588161166757,1.189754832257262,3.7436267174678854,4.972710341158479,0.7506036891179368,1154.0918700524076,1134.9011398161226,1137.5413693272826,1144.0119189714087,-338.7199053352595,-85.3410393589465,-6.409668254491473,459.93608869753666,154.32923944222387
0.4799999999999999,0.8809075937545939,-0.239398570710671,0.205532852370346,0.0288105075133893,0.0490898255904995,0.0256784093823956,0.0393724272408275,0.0294865155290477,-0.9958891479425098,-0.0760588610609328,-0.0955806708862066,-0.1076841132444422,9.405941205367187,-0.1723793595851516,-0.0282569495199497,1.1889742491544413,3.743822415771884,4.972561454263522,0.7535866370366431,1153.1460120695915,1134.5619219851387,1137.5226420313084,1145.3843377752648,-419.17009185854533,-228.2313185643512,-37.075320728036246,593.44416664722,154.33472997550396
0.4824999999999999,0.8405977545555736,-0.0255600706870632,0.2962071362151062,0.0302764130362596,0.0490022012530139,0.0263413001899461,0.0394373687497845,0.0294026942031618,-0.9958892729189462,-0.076055856287129,-0.0975597538879437,-0.1008395151462268,9.375697728356707,-0.1710503023075488,-0.0266117912175585,1.188127672291995,3.744012930838051,4.9724096035073355,0.7565715077760444,1151.996019593115,1133.7599832233009,1137.3559927236424,1146.9791398046448,-547.355141347452,-487.93260788270294,-145.2024339402668,667.5073051848807,154.34021566202605
0.4849999999999999,0.8541573218089991,0.2098176729193025,0.3800618281133451,0.0318564295639735,0.0492027064145527,0.0275224511563561,0.0395082428814199,0.0293121043824302,-0.995889716615163,-0.0760480504479728,-0.1000523004402739,-0.0934879853043521,9.345472252865386,-0.1697409550151365,-0.024922552881388,1.1872050144452653,3.7441964395825025,4.972255846450686,0.7595588551229093,1150.4092363628545,1132.1222589457252,1136.796629861607,1148.7218743011892,-616.9317666592627,-717.1480731179593,-290.9697409188536,552.0860374301715,154.34679258714323
0.4874999999999999,0.8986585096740067,0.3788488609590451,0.4201234682276853,0.0334123501641513,0.0496314189604241,0.0288918249027072,0.0395841844689761,0.0292154876595423,-0.9958903976741382,-0.0760366468437133,-0.1030082474063586,-0.0857499969468323,9.315355731746758,-0.1684543785421513,-0.0231910407424385,1.186195745588767,3.7443721028659422,4.9721005851275555,0.7625496291975861,1148.9113607598188,1130.174242857711,1135.901144019048,1149.7395699917956,-641.8915437378467,-880.4365961625982,-472.99316946800866,260.2919670359822,154.3522684372824
0.4899999999999999,0.9456331313700428,0.5058347922665717,0.4234837072562669,0.0358007137937097,0.0504441563778571,0.0306028812654407,0.0396620976293859,0.0291153391492492,-0.995891478834456,-0.0760201465570282,-0.1063200295340538,-0.0777767216149751,9.285455261887677,-0.1671876726960729,-0.0214228711554991,1.1850900528053498,3.744539550952532,4.971943508231212,0.7655438593185645,1147.1997786441652,1127.7200759649122,1134.4316640142667,1150.0233341363692,-811.9797317892328,-1146.0695542114072,-797.4386132063948,-86.68822388176515,154.3577393983363
0.4924999999999999,0.9646021021644778,0.5881000286849725,0.3901786234756302,0.0397367349503208,0.0520421236734879,0.0324090599850462,0.0397383507415384,0.0290115334038724,-0.9958933413668926,-0.075995481070441,-0.1098625892297912,-0.0696686948479904,9.255891331167955,-0.1659362415440105,-0.0196178349830209,1.1838793419454414,3.74469979029588,4.9717833449417155,0.7685407136007844,1144.8514621008724,1124.443895086654,1131.913950953016,1149.3061288723868,-914.4047903720541,-1210.191428621555,-1051.843672763788,-451.2206564379536,154.36429940576954
0.4949999999999999,0.9283445712358468,0.5807579619925498,0.3437853017509865,0.0433620565816933,0.0539557369603744,0.0330505653971933,0.0398126143012715,0.0289076462206881,-0.9958960351151736,-0.0759607877917046,-0.113558922104693,-0.0615956043507046,9.226792420139853,-0.1647013288055365,-0.0177863282980632,1.182555826211458,3.744854672493344,4.971617896708808,0.7715392187504555,1142.6277546923047,1121.6691188218044,1129.172445650448,1147.7672308541792,-942.7921899883123,-1068.2027710525736,-1220.2362999649256,-801.3230305569317,154.36976230660625
0.4974999999999999,0.8329977900897207,0.4782181505963503,0.2954157255101738,0.0463839413596987,0.0562762538139109,0.0328565132729697,0.0398853826198063,0.0288093211144764,-0.9958992049458216,-0.0759183000956878,-0.117340244079974,-0.0537593027481236,9.198290499142349,-0.1634843160979518,-0.0159455048010487,1.1811143445603511,3.745005967843152,4.97144552283916,0.7745380825151351,1140.137501150931,1119.1028812313912,1125.8127694531915,1145.299513719602,-1142.9935508981987,-1042.8560787539473,-1592.7254189404252,-1260.5973595575495,154.37522204922493
0.5,0.6684344001471265,0.2425512550245416,0.2428332190624196,0.0488496782203274,0.0586667509105695,0.0326789070003376,0.0399582272855903,0.0287211303972435,-0.9959026018010164,-0.0758687227749168,-0.1211542204610909,-0.0463370824956605,9.170514260215738,-0.1622876938365979,-0.0141100862857916,1.1795531410956144,3.7451549267239455,4.971266497719172,0.7775345571183795,1136.912786937814,1116.4548384280347,1121.208818555746,1141.4642440563916,-1203.7501192817529,-890.2461235505946,-1752.1676608355183,-1508.6196314728384,154.38177096438523
0.5025,0.5111236673647691,-0.0342148754640984,0.1969695077615872,0.0500005318973543,0.0595174709970672,0.0330797714634312,0.0400303549647184,0.028645529798013,-0.9959060519146364,-0.0758138461115149,-0.1249075281317549,-0.0394566552121344,9.143582772971044,-0.161107467601811,-0.0122894609507486,1.1778754213505391,3.745302290372969,4.971081689160306,0.7805259131978463,1134.118750554522,1114.651650613638,1117.0519311490139,1137.7564155622379,-1112.6358493615035,-648.0134086368702,-1681.2453469041868,-1529.9196627923252,154.3872265150658
0.505,0.3584563690748026,-0.3642091935728001,0.1334453099532722,0.050475290416517,0.0590907676571665,0.034108078215767,0.0400990653270699,0.0285821155960487,-0.9959095387602266,-0.0757555044280556,-0.1284776799671705,-0.0331841575921753,9.117597612614649,-0.159934699410485,-0.0104853949696256,1.176089233030975,3.745448911776536,4.970892518875453,0.7835091327884532,1131.3496076910064,1113.2147713848503,1112.8025918212247,1133.81464574243,-1082.4925367158348,-532.8286941475194,-1674.0245356308587,-1571.042559971373,154.39268029320087
0.5075,0.2238435617534055,-0.7114630796084797,0.0462667549596065,0.0506039087167037,0.0580566670545598,0.035368329098091,0.0401629060687114,0.02852629846631,-0.9959133836996326,-0.0756920215034017,-0.1317723062371476,-0.0275065113254129,9.092634324735634,-0.1587633578548423,-0.0086884593838345,1.174206087344958,3.745595290351652,4.970699798041781,0.7864816873430073,1128.706287870943,1111.9875071429003,1108.6818084708596,1129.9012027623808,-1005.3111677435472,-468.03397094122334,-1567.3828923983351,-1510.3402462930703,154.3981324602977
0.51,0.1196952184050437,-1.0447015068712964,-0.0678520516717923,0.050522521035,0.0562303757159047,0.0361044873872748,0.0402170358986337,0.0284734254647598,-0.9959178245140968,-0.0756246487503737,-0.1346450478319733,-0.0223989709120948,9.068738289393487,-0.1575794673265507,-0.0068884250944436,1.17224162621013,3.7457411895312154,4.970504279994787,0.7894415211041756,1126.3230518522887,1110.8746015301442,1104.9656773592333,1126.2629445109646,-970.4332039601674,-494.8897794479868,-1486.6417704993044,-1488.4624989734991,154.40358215944033
0.5124999999999998,0.0310108769185374,-1.3786003847541755,-0.2167279143733061,0.0503605745621032,0.0523420777607572,0.0355300877477369,0.0402564669552606,0.0284182679960256,-0.9959231527967556,-0.0755542245446638,-0.1369547069814646,-0.0178218793801723,9.045919020602263,-0.1563690645221194,-0.0050728890623995,1.1702135401363616,3.745886054486344,4.970306942490979,0.792387273887303,1123.8541218511423,1109.5130582456607,1101.2485996183632,1122.4588902675137,-836.1922205083366,-518.9690480643999,-1212.3858987403298,-1279.6688298658853,154.41011778762143
0.515,-0.0173883638846938,-1.5659021411763865,-0.3324072721711031,0.0502448158702391,0.0476760669334958,0.0341633974168989,0.0402832727224733,0.0283632589021346,-0.9959291176459696,-0.0754820298333723,-0.1386853128145312,-0.0138790689320805,9.024145736214098,-0.1551339141429016,-0.0032481565875716,1.1681381795384007,3.746029409789436,4.970108218947113,0.7953190602253704,1122.142090749747,1108.2797562898222,1098.9037478655316,1119.8646003616352,-619.4556045138592,-520.9607395167036,-770.9757536170393,-912.8713393542506,154.41555959378817
0.5174999999999998,-0.0486346943742277,-1.6286873747216073,-0.4248869352688163,0.0501854135968167,0.0422535642992457,0.0326625042729696,0.0403002944464023,0.0283082990710474,-0.9959353379827764,-0.0754115950953898,-0.1398470059157834,-0.0106239881032886,9.003348274080244,-0.1538788228931328,-0.0014147868563921,1.1660311614490326,3.746170013058327,4.969908346918342,0.7982380054525431,1120.7568438285728,1106.9082545480771,1097.393720850278,1117.8945335707424,-551.4958690338512,-630.9488965419854,-487.83608962530656,-741.4257356576392,154.4209947801513
0.52,-0.078240396728304,-1.5542251501131263,-0.5058394747992457,0.0501776345895806,0.0359516506432091,0.0311014889180611,0.0403137087410124,0.0282504291201274,-0.9959415475627124,-0.0753442354315283,-0.1405195912633114,-0.008059015234337,8.98341778780482,-0.152617379792155,0.0004334035291619,1.1639053648628128,3.7463064866795657,4.969707413912777,0.8011452541405509,1119.3846114045775,1105.1250118071123,1096.464567417405,1116.157471683347,-470.05617152663,-667.0236732204097,-222.37374314659044,-559.0641636584219,154.4275066238091
0.5224999999999999,-0.1038237535636447,-1.3844510979048843,-0.5513915873376868,0.0502012064270519,0.0315545785653789,0.0299944887994725,0.0403268447319674,0.0281901597307765,-0.9959473585160672,-0.0752831017991757,-0.1407357338930463,-0.0062391836191018,8.964213893524326,-0.1513565846667387,0.0022944094970342,1.1617719075908155,3.746437461603745,4.969505367623581,0.8040431186775538,1118.4065629709398,1103.573136181975,1096.281852134545,1115.0992127524503,-372.50690014739087,-617.8973874710657,1.805793048561098,-382.0830373167606,154.4329223254384
0.525,-0.1360241683151876,-1.1425344935849944,-0.5782116620427024,0.0502044395815154,0.0284364770575592,0.0289188960781803,0.0403435884398192,0.0281324925309771,-0.995952249833505,-0.0752311305583854,-0.1405397428176855,-0.0052941644262749,8.945569219160097,-0.150104175557956,0.0041553280718681,1.159638488455809,3.746563139841287,4.969302042248777,0.8069349432639396,1117.5220769038408,1102.0355248697567,1096.4735963826479,1114.2470564967632,-377.60612318024835,-651.3579291618493,109.11566175832365,-372.3572351488653,154.43832405614492
0.5274999999999999,-0.1832657477231197,-0.8252416743367856,-0.5889985966055072,0.050091702261404,0.0262637267229508,0.0274678170941125,0.0403660272412514,0.0280781150009604,-0.9959561143107896,-0.0751883663230684,-0.1399555093049829,-0.0052669828457543,8.927296095995208,-0.1488641054026693,0.0060135584696573,1.1575096111319976,3.7466841527319135,4.969097000019048,0.8098232430372785,1116.5185323550384,1100.3163465361658,1096.8274304433367,1113.237426576706,-358.97269126589856,-593.4535208677966,108.99149893830317,-393.5786271847516,154.4447866561783
0.53,-0.2264125852988367,-0.57657978194054,-0.5771020200364331,0.0498115982416742,0.0255957773700226,0.0260852376988652,0.0403932308291116,0.0280249749960888,-0.9959590157338172,-0.0751552515285063,-0.1389654063363253,-0.006138904781105,8.90919498206068,-0.1476334502381332,0.0078722861013874,1.155387007343297,3.746800923435676,4.968888669966819,0.8127092874276838,1115.7272134475113,1099.068257265418,1097.0185538773394,1112.2791633608394,-301.02512944063136,-443.9596937337224,19.354968410925704,-423.7433832926395,154.45015337085164
0.5324999999999999,-0.2653703130731071,-0.3766500610828108,-0.5382640782095803,0.0492225814932723,0.0256380805439088,0.0245459998520927,0.0404252418187867,0.0279702937560528,-0.995961185325852,-0.0751297704982411,-0.1375772288576068,-0.0078703113841464,8.891061401933564,-0.1464108957818087,0.009735541049453,1.1532689183680471,3.7469139291182,4.968675400911184,0.8155926003788445,1115.0134067078354,1098.0965480674972,1096.9242052853913,1111.1187096602428,-265.1576136015135,-333.4432064234076,-95.96837057110851,-497.795561024986,154.45549736196256
0.535,-0.2933656195066925,-0.2277278769650508,-0.47423410437074,0.0483128923415069,0.0259087122441026,0.0229588021683797,0.0404619721969142,0.0279177210237356,-0.9959626719845842,-0.0751099812629658,-0.1357970145873356,-0.0105238328455544,8.872695460118926,-0.1451931288457366,0.0115913736126813,1.1511512050359491,3.7470243078486942,4.968457084597499,0.8184725437677303,1114.4014253795035,1097.4010412333007,1096.5387120244839,1109.7901855557143,-212.21737687210384,-206.72496009028677,-215.30558818781157,-559.1724090635121,154.46081995188507
0.5374999999999999,-0.301026592226569,-0.1368152053297583,-0.3807611337476751,0.0470405094288533,0.0261554590559817,0.0215783759394475,0.040501295524597,0.0278694933442158,-0.9959634504113885,-0.0750965331771131,-0.1336073926437408,-0.0141200500760763,8.853909013463598,-0.1439721552993873,0.0134300495968434,1.1490280319665482,3.7471327863946526,4.968233048584711,0.8213487365421938,1113.952319823475,1097.0629232670456,1095.8476773444522,1108.3228476149252,-157.2707284872648,-70.50524533260608,-337.9363653273228,-650.6725289948001,154.46611343974809
0.54,-0.2858153697284033,-0.0745660932192644,-0.2429819070516679,0.0454129555199395,0.0260235095896383,0.0204080123381172,0.0405429713907008,0.027825775544282,-0.9959638218572412,-0.075085480196807,-0.1310331491996954,-0.0186324348164693,8.834531043632476,-0.1427439766165466,0.0152465714903788,1.1468910986645486,3.7472392030731214,4.968002657373617,0.8242214969786614,1113.6150717370674,1097.048515006638,1094.8490301978472,1106.5368229107405,-96.38419522816541,48.31123663780087,-356.6751606882459,-636.7175121767099,154.4724275186306
0.5424999999999999,-0.2607672401187228,-0.0413861552361076,-0.1171596782757571,0.0444803592499088,0.0255168791966567,0.0198618131090107,0.04058467486522,0.0277868546444751,-0.995963980831944,-0.0750753657614645,-0.1280724246977434,-0.0240185294304045,8.814415273588082,-0.1415000669403871,0.017035158885582,1.1447311474665158,3.7473429977616246,4.9677657887737725,0.8270917500664404,1113.470398847334,1097.3044794502348,1094.0643015410108,1105.1392600540416,-47.12815320503974,134.4183830278779,-259.31670271888805,-515.8378657713452,154.47765424358963
0.545,-0.2401953300986521,-0.0054124869302684,0.0050006432008311,0.0443893436045447,0.0248352557955651,0.0197191499697612,0.040625800537309,0.0277532622485994,-0.995964058610692,-0.0750645616771874,-0.1247612752498417,-0.0302279415524644,8.7934434129715,-0.1402360932855432,0.0187892643184447,1.1425373715310196,3.747443765327324,4.9675227171728045,0.8299603774033212,1113.3794309710422,1097.7206069217773,1093.5524466842528,1103.9576335818836,-56.51030724284278,183.25183523711516,-128.2534861642033,-448.7854009415965,154.4828408690013
0.5474999999999999,-0.2382471239802946,0.0561124193662897,0.1285145075435049,0.0449740628830975,0.0239143952377188,0.0199748136748453,0.0406671277869219,0.027723504242119,-0.9959642139178564,-0.0750510898201697,-0.1211693425857763,-0.0371627803068561,8.77152846438933,-0.1389516864719436,0.0205072406400641,1.140297983703333,3.747540935665585,4.967274493140699,0.8328271407288579,1113.1878473111199,1098.2207386264204,1093.42303411019,1102.8953330493337,-106.27046458216672,153.7034946940365,36.52558360477084,-320.8531728626892,154.4890142292224
0.55,-0.2573604430176025,0.1234067056723577,0.1986313535443772,0.0453988910470162,0.0232556649258368,0.0205399965069518,0.0407086996626756,0.0276978616784453,-0.995964521658392,-0.0750338231293461,-0.1173570731837132,-0.0447424897657328,8.748617831424077,-0.1376452204929687,0.0221840586300021,1.138001644356871,3.747633878248583,4.967022069720844,0.8356901638270124,1112.8480786481311,1098.4891243952475,1093.7350746022767,1102.3533677175703,-195.37290051553083,43.56410001000764,184.69507901131675,-143.05146020187735,154.49411351957914
